# sampling frequency: 40
# units are seconds/meters/radians/a.u.
seg1_acc_x,seg1_acc_y,seg1_acc_z,seg1_gyr_x,seg1_gyr_y,seg1_gyr_z,seg1_mag_x,seg1_mag_y,seg1_mag_z,seg2_acc_x,seg2_acc_y,seg2_acc_z,seg2_gyr_x,seg2_gyr_y,seg2_gyr_z,seg2_mag_x,seg2_mag_y,seg2_mag_z,seg3_acc_x,seg3_acc_y,seg3_acc_z,seg3_gyr_x,seg3_gyr_y,seg3_gyr_z,seg3_mag_x,seg3_mag_y,seg3_mag_z,seg4_acc_x,seg4_acc_y,seg4_acc_z,seg4_gyr_x,seg4_gyr_y,seg4_gyr_z,seg4_mag_x,seg4_mag_y,seg4_mag_z,seg5_acc_x,seg5_acc_y,seg5_acc_z,seg5_gyr_x,seg5_gyr_y,seg5_gyr_z,seg5_mag_x,seg5_mag_y,seg5_mag_z
2.308590988637035,-5.898174685018909,7.435179876183156,-0.002834676203617682,0.00024822516207921396,0.010787797601436283,-0.6590107210136047,0.24627106236955695,0.26781062785763143,0.23015490993035578,7.847948560041938,5.843243278954903,-0.010129283471916278,-0.00422705708670236,-0.009584950377092366,0.013819795789490795,0.6717577677025529,0.2985877102973592,-2.202429252638752,-5.62025055136472,7.639819672523735,-0.005600413062849941,0.0023198028257182235,0.002470450642139911,0.5928516184005881,0.1640927605830883,-0.15790178844466818,2.916816482798535,-5.559270144952749,7.659161902512952,-0.004108047049639036,0.0036405706527310655,0.004689002000471456,0.013350022274360097,0.4312714819136245,-0.7071045690456966,0.4498929489857513,-5.770387033975892,7.953676942923557,-0.0035466598312643687,0.0021502837538797137,-0.007813214883714436,-0.3681623919055071,0.5313809127560236,-0.40328541020844155
2.306731107370966,-5.899470158231868,7.434728916284021,-0.004117191537015144,0.0018910751029648407,0.01173334320654081,-0.650682200350616,0.24866881904902383,0.268917799241041,0.23660434115711945,7.848114231546055,5.8654154946268635,-0.009199041158195689,-0.002012244914109764,-0.01002651495662681,0.02408413919329493,0.6723741641776645,0.29952429124647817,-2.192979421517749,-5.618908661014387,7.660386949909722,-0.00521848951379535,0.0029674363502991906,0.0024609521940360786,0.6011754119673028,0.16965129610292792,-0.15879648925130702,2.946502275589514,-5.541248827121215,7.6328408831750565,-0.002301319516152261,0.0027264744384344645,0.00526039129924193,0.022688827483291193,0.436136812655557,-0.704604674639677,0.4690697444767088,-5.782614248693095,7.942181646843968,-0.007485121002600152,0.0005342958200267866,-0.009377140585121672,-0.36132545008080447,0.5352711096566392,-0.40387572415887335
2.2990697903647366,-5.908867590484672,7.43395591124908,-0.0036520453806182514,0.0010646303802907342,0.01225780309399963,-0.6613648047985929,0.24625632338818995,0.27370548301239844,0.23466689297778945,7.846747831879173,5.8673212523509095,-0.010295514802055908,-0.00025929750671489305,-0.011426201326935349,0.011854894383776488,0.6701299914262859,0.30228075076020877,-2.1887442584965453,-5.609793278933992,7.646872586080365,-0.006538576520501129,0.004345895625212408,0.003135917616952174,0.5904598338861424,0.165351825129496,-0.15494840287816378,2.944442583062033,-5.560364421674659,7.625852515657487,-0.00210209150349257,0.002500479978029247,0.006430906016294998,0.00954631700593697,0.4317930154897999,-0.7014227529663174,0.4605383175801634,-5.770358717942227,7.955432349056434,-0.006877202673159106,0.002850922402018311,-0.007587151036453893,-0.36764671061022985,0.5296731732126724,-0.4010937595853323
2.299485049489446,-5.900518963731869,7.455271143553742,-0.003022519836401946,-0.00033887623522909906,0.010778013997752727,-0.6602088028411045,0.24724721460499618,0.2690540042076806,0.23863868953030076,7.843860870472404,5.84850435571567,-0.011963487578177525,-0.0030362440402156342,-0.01042482988326654,0.013590377046333901,0.6722982194986317,0.3017545227162441,-2.215289449842888,-5.6250457944316175,7.646338387259025,-0.004224751569532937,0.0027157305138541883,0.001623740112163968,0.5899669729714402,0.1675421633832966,-0.15617878349110292,2.9338755671571484,-5.562149028404319,7.6287175051315295,-0.003933255165486351,0.0029831930266255237,0.005235519570116015,0.015116745259074369,0.4346946806365205,-0.7044639194288702,0.4583991550739042,-5.778859544710004,7.939473465573054,-0.006575837778464021,0.0017693883467500243,-0.008371401817480188,-0.36692366713408714,0.5304027544216221,-0.4018369899608921
2.3153376682711055,-5.925785601039592,7.446039429415867,-0.0046422646195319155,0.0008410591785370729,0.01044940441654168,-0.656833114520514,0.2452883876645517,0.2667966025199837,0.23781785045370224,7.850045469408178,5.868577858379977,-0.010263780207596086,-0.0022985936507955683,-0.010019021113795554,0.015505397862882783,0.6700197708675409,0.2981212141541116,-2.197209626972783,-5.618822316639772,7.666886056960478,-0.005104039989197601,0.00219345695690887,0.0020523555654076695,0.5940467762139442,0.1638277866869148,-0.1596258663534416,2.9424929320523687,-5.54414622530965,7.632283570750278,-0.0030573547289954226,0.0039804652276745145,0.00494097486659904,0.015777152789385837,0.4293092431467862,-0.7076283757704986,0.46261839794368276,-5.788715010305868,7.9357660626418145,-0.00616001025865471,0.002325352172078731,-0.007566878543301555,-0.3649994369152425,0.5301523077409331,-0.403817537492515
2.2974255131998835,-5.891387145593869,7.435912897203247,-0.0016962646540324598,0.0018292667746679697,0.010725744696317176,-0.6614608469218622,0.24604034410057912,0.2673581943110803,0.23618323531345062,7.848552564283796,5.870639675450636,-0.010900878077155361,-0.0027617452851803432,-0.010424135749633048,0.010164785673877502,0.6723010379298217,0.29907821260614886,-2.2039595746429845,-5.630198798340523,7.616765457666755,-0.005485955454084156,0.001544831335892613,0.0020628618226746424,0.5891624220316821,0.16750643324684678,-0.16129477549096802,2.9219224690838588,-5.565010573601826,7.631324361386284,-0.0037594482190878814,0.0023248223046201996,0.005783058735646508,0.009440992076985016,0.43299036318949186,-0.7075295291326251,0.4670069989826171,-5.794956686737179,7.955846834371204,-0.004985037583917618,0.0032044331397235015,-0.007853705783894032,-0.37110418788325467,0.5338271468552777,-0.40446693344433476
2.313237122868903,-5.9047620212712,7.439491844155987,-0.0016445435289072982,0.0006030099790396054,0.00934339047384341,-0.6624212713999148,0.24701753887149483,0.26810896138657864,0.241115813696084,7.85355896530571,5.869552706588636,-0.009528146863573705,-0.0017453403709662026,-0.010572685625499614,0.012823719702516565,0.6705319025562332,0.29738818661189215,-2.200454873097104,-5.61799255583386,7.643584460779153,-0.0046276479013310935,0.0032583381763120287,0.0030253707591125947,0.5903664543725893,0.16530006248804147,-0.16153853807369642,2.952179111697707,-5.548787903524365,7.637363517229256,-0.0024456079630048003,0.003820228675668461,0.005340743726943645,0.011399537836441018,0.4305463317575418,-0.7068229013184563,0.4656617233681329,-5.770938253970774,7.943454214471974,-0.005365175311106533,0.0019229478857099582,-0.008148913934380246,-0.3696509665525582,0.5301616251050992,-0.4047278990799618
2.3114718779126524,-5.894456190680521,7.451581201917285,-0.004041950970163937,0.0018279639615133264,0.012369016739830183,-0.6561571486832631,0.24187897396856634,0.2640861152138896,0.23855488277183828,7.844542240363251,5.8534208024507715,-0.008774610003371038,-0.0022078378380345717,-0.010427826061537646,0.01741943153222129,0.6677423348483829,0.2944878930437113,-2.20711043114047,-5.629024260733056,7.624360870475871,-0.0047231082371007455,0.002840104580316133,0.0020438790457114643,0.5944502109116552,0.16353475389856845,-0.16549005020370045,2.931552345447634,-5.569557771876204,7.636483960117958,-0.003321487602189107,0.00282396033566992,0.005636284337315417,0.015196726330302408,0.4292908619811932,-0.7127457986823115,0.447401605634059,-5.792998605772714,7.950012448663616,-0.006087632997063785,0.0008733070839840753,-0.006548261542586967,-0.3638626722566449,0.5269698564418203,-0.40920200848229077
2.3037114168178197,-5.903755575375673,7.450903123833909,-0.0027756779106755244,0.0021206639602857113,0.01155327336748046,-0.6603051916082204,0.2445870577673101,0.2634270195973866,0.22299390597042762,7.85949841338406,5.859539105692486,-0.010811944557859571,-0.0012039973104714297,-0.009340025018925183,0.015974443253434157,0.6690041888623717,0.2959370636070157,-2.20535443215336,-5.614402605172161,7.629474831290722,-0.006691592936192185,0.0021493112174155106,0.002329230616962329,0.5913082289004724,0.16478877826045052,-0.16374615515490568,2.943121753144196,-5.543995110007741,7.619795679447099,-0.002882530098277019,0.0033220953598424884,0.005489496029021251,0.013044338242163315,0.43101498319262405,-0.7105166888675354,0.4778743164598298,-5.795773569658084,7.956961891832952,-0.006839245074624074,0.0037016187033032783,-0.008698718858808213,-0.36600202067646265,0.5291766665447892,-0.40551128572000456
2.3184249986724685,-5.903958847377203,7.426575238280496,-0.0029635169231334497,0.0015345625428623724,0.011543494109165796,-0.6617769781461952,0.24704006653152552,0.2622397123964826,0.24226484858972966,7.85190482301734,5.863394820011003,-0.011539091788822018,-0.0032348211168478705,-0.01082509524351335,0.011325269561705409,0.6678689240573197,0.2976772362440111,-2.19598431204467,-5.61323116385196,7.64992556133593,-0.005545802037734896,0.004093219594661356,0.0023017272010678862,0.5910929237256113,0.16553567497098315,-0.16203974665004128,2.9486264845674546,-5.533639539145432,7.6436553025177485,-0.004289792922034401,0.0037871995982213494,0.007259106548969756,0.01280185155718952,0.4300396766312529,-0.710264541452405,0.45925480384950157,-5.773293811826068,7.960951470127424,-0.006084365296555107,0.0024495225801642005,-0.008169158834748018,-0.36970430342035976,0.5313784516886438,-0.4086348371706041
2.3054855153153957,-5.898382170475471,7.450329242052192,-0.004868556827499523,-0.00045533052649846217,0.011694217482544372,-0.6580066742039871,0.2357461973728409,0.27287677193424403,0.23995240462029707,7.863164645586383,5.85993245411441,-0.008793558630720417,-0.001196042983004731,-0.011124286484574532,0.015599951383607603,0.6571621312823196,0.30368871466405933,-2.1971414448923396,-5.613913775658821,7.649092206853146,-0.003617014903593589,0.002837732700468367,0.004733579756154359,0.5933181947569118,0.1543463125853164,-0.15514649319180543,2.9215223737490406,-5.567681152084124,7.651005128248704,-0.0014742466408505272,0.0028579919635793884,0.003720863579608445,0.013895536905151608,0.42274307905312275,-0.7024414961922472,0.45430614238714034,-5.788977917445939,7.929995014522241,-0.006806839549282525,0.0013988807139980314,-0.006569505239995446,-0.3647173722902234,0.521610956324753,-0.39990606187164923
2.3190879571023753,-5.92185673044082,7.431743950882424,-0.002649756338692132,0.0008323137999428128,0.010803612362723203,-0.6530751151224777,0.25111111352278,0.27140566631909513,0.239155751702879,7.853005409996236,5.876193704292456,-0.010250070928173101,-0.0033321065598508606,-0.009308212333268914,0.018060736839574706,0.6776490830841014,0.30410107107685147,-2.199581038778262,-5.611890817996396,7.657531990379268,-0.006099759526770193,0.0024411989446020536,0.002892627253631218,0.5946578297835474,0.17046244745038322,-0.1538268682426669,2.955302255599934,-5.534712687320801,7.640230738879035,-0.004539901712480601,0.0031474338012679143,0.004840644988805925,0.0161864288302205,0.43959169456997554,-0.7001062509475413,0.47149042544509034,-5.773020617585454,7.930331445714037,-0.006803555282003681,0.002976097274618442,-0.008189403735115793,-0.3659105856094297,0.5372381149536405,-0.4003936735639354
2.320926745550446,-5.8902868476783015,7.447221684870449,-0.003038691959277919,0.0015956516544286684,0.010912811277317079,-0.6577594646390609,0.2435666264758975,0.2707103312876824,0.2505575358479274,7.844160090515526,5.859449124823449,-0.009103715708749053,-0.0019409332948910106,-0.01097399673041045,0.017200540602523053,0.6687930189589294,0.2991110681064513,-2.203373312436888,-5.628609595078863,7.619623045743933,-0.005890869798822081,0.002084451538966272,0.0034645445292313722,0.5953145719829954,0.16360307785867306,-0.1562236169753851,2.9407311574643784,-5.551473689098056,7.627553605979721,-0.0028540500803576445,0.0037564741598474136,0.0061154097185069445,0.013870640556551206,0.4305455816795155,-0.7051577248160859,0.4467887610483561,-5.749080757614506,7.922138474177253,-0.005745322950333916,0.0006434615580620397,-0.008445124180239317,-0.3635173617228177,0.5284416043714179,-0.40237182724992565
2.297840069057355,-5.923322413177335,7.414674152941554,-0.0056466480789544105,0.0025570110703234173,0.008774794918326239,-0.6537550711327251,0.2404125782660223,0.2618464489251846,0.23439243861376685,7.871836690204251,5.860085526489171,-0.009750387064046958,-0.0009344237446470232,-0.009335252185490523,0.02105546419466178,0.6657390741369628,0.294262746425379,-2.2230282301644038,-5.6151864500499,7.6528584530177435,-0.00462962341107853,0.003255374277529329,0.0030284224250909904,0.5990565248458927,0.16105555489417797,-0.16675600685219968,2.9425968787257695,-5.54662085633534,7.6395945194148345,-0.0021499004243186954,0.005413122652298775,0.005276285750097711,0.020588621941313036,0.4292793724747186,-0.7116218010349806,0.46217523218596235,-5.806960205400219,7.977494217754164,-0.00805532969709906,-0.00026600960489748154,-0.008984063911233948,-0.35946946933196394,0.5279367754707546,-0.40951010855379166
2.3384921749498235,-5.895742294045777,7.440819147877422,-0.0031006393082962185,-0.00027879109529146045,0.01015137125737378,-0.6573013981097355,0.2386836604208121,0.27019286480606675,0.23331710327667085,7.841271836643258,5.863845315939095,-0.009295381874734804,-0.0036065603293377645,-0.01108804348808656,0.01684915033365367,0.6604893484334408,0.29875070484101424,-2.2068807421031416,-5.606383661050921,7.651798407664537,-0.004896119806308411,0.00183473940719792,0.002627302447368689,0.5949632660645748,0.15576038652009105,-0.1603085829139717,2.9441602594709213,-5.550879842198381,7.64817154232865,-0.0028804888309388005,0.003324097044074008,0.005491452170092649,0.01752014697287783,0.4232115017199155,-0.7047063800882057,0.48476249456159015,-5.783402916815877,7.9605042175796905,-0.00597302832359121,0.0018491715565001367,-0.008262125101946112,-0.36207819752760423,0.5216015703386493,-0.4031182526311807
2.369881815062977,-5.905449840456931,7.411436317427617,0.009876693500395203,-0.009031907922220096,0.011527835563703579,-0.65662446583549,0.24872029467517884,0.26339021675253965,0.2922434276516913,7.839882289128737,5.841608850699432,-0.007244272898150427,-0.008007625544894521,-0.01900289357729175,0.015262361476454557,0.6704894680061433,0.29664958617365567,-2.1475508797297205,-5.615121409133534,7.632104876361195,0.00041345548894757185,0.004632604930612224,0.005149435611358437,0.5927864084750025,0.16527343442745046,-0.1630378109269831,2.9770605115909095,-5.534044581934549,7.598275813179851,0.0024118082534864975,-0.005454826849224842,0.007730370624581346,0.013797887703011252,0.43540861042830387,-0.7100590788545899,0.5338440174013698,-5.866341787366281,7.87160330511783,0.011475161682549485,-0.0029480170643075474,-0.005051027494272788,-0.36774396594587166,0.5316186092920452,-0.4081751739116349
2.287614285118205,-5.968041042942762,7.479795599475951,0.011320387415986826,-0.004731931249282421,0.007716763078132676,-0.6620311686604976,0.24166597784984062,0.26319590851853314,0.24374464809628754,7.854986469039045,5.901785105425639,-0.00528575015184051,-0.0030208458984115325,-0.01810059295687211,0.012248267564922196,0.6641579044013627,0.2952898397961714,-2.217012518220182,-5.614119704041761,7.610957348464781,-0.0023984839748657076,0.002059393917815218,0.007014727957203905,0.5917749187940069,0.16282709770108433,-0.16446945587125925,2.9308556114808977,-5.565145001450704,7.547511464609787,0.0026819897021153703,0.0032564645646112503,0.0072167229943498855,0.011794543376838938,0.42857196969153644,-0.7117061189109228,0.40714050903469273,-5.665053607692657,7.84659384874121,0.016996628937292275,-0.01962699122983972,-0.006574605237715302,-0.36727385114976213,0.5267340132251622,-0.4086647557146774
2.110566421043936,-6.074350862497152,7.37915973364745,0.034132720989822535,0.0021426571600854025,-0.0016841769875114963,-0.6529289871142813,0.2457596638882548,0.26649626285081507,0.10572153483829594,7.793618907997221,5.944070355293051,0.014570131221578153,0.0074848143026096815,-0.009854118278234895,0.02186292230502081,0.6715912714158888,0.2944161361530217,-2.347302456921076,-5.642435294676765,7.631636351978206,0.01112755692711161,0.001992075337433094,0.011041151646630042,0.600845919493701,0.16692859332402482,-0.16365407561570583,2.840369454410224,-5.6256549899843415,7.612677688431951,0.014414901219682282,0.022523399254932047,0.0009276426196163368,0.02183553529249397,0.4307453977560215,-0.7104285349417612,0.32491181923672147,-5.834879344689482,8.078875043721764,0.04144944037221327,-0.027359579253562288,-0.012324807702288122,-0.3591610751851581,0.5301376538386119,-0.4053664540725259
2.555502131036131,-5.735185211602808,7.62273473909989,0.010672463840518944,0.0014450572274082147,-0.005370873316540888,-0.6616816771008082,0.2526344813467338,0.2669015478275254,0.33556935379830344,7.923272107337631,5.812398272279515,0.01710517534577207,0.008880681814115556,-0.010968984269604388,0.013433451180246374,0.6795903680456967,0.2994454839898282,-2.078890041760488,-5.643241692508565,7.62402289125414,0.017188972310638862,0.009557549414885208,0.007133346696054939,0.5928457945189544,0.1733357801154005,-0.1623698825582358,3.011289773549621,-5.50800515943521,7.763839651531295,0.017611581946895598,0.009893409626854833,-0.004270361259078334,0.014129125278569417,0.44103893143396977,-0.7061801506467345,0.5933192740175498,-5.7880792485497805,8.043717193597043,0.0026954608573619854,0.013472453022624075,-0.018744998194708283,-0.36840297094859853,0.5396813916420834,-0.40426792076110907
2.185679161273544,-6.869126679064576,7.503610447296613,-0.025439981156206708,-0.00973349879136769,-0.014994350271028464,-0.6556352265665203,0.24211104871782277,0.2662766009168359,0.5081824748647413,7.914159446508654,6.08429635821121,0.002441053836962292,0.04048652400707993,-0.02729796453930572,0.017161231777936457,0.6660814859228239,0.29744333898863334,-2.084305007442648,-5.392825058191642,7.694443193362586,-0.003937007818417757,-0.0013786182900291965,0.0005666798462222113,0.5972050607827873,0.16185330437469472,-0.15989914127167634,2.9851369171448447,-5.520089112721132,7.7467903854223135,-0.006658306262715495,-0.005591886293888188,0.0072697076549273305,0.017200997877480206,0.4275882759797244,-0.7096014520931493,0.31591177344759863,-5.720365131921082,7.993284076652643,-0.007295004640461817,-0.011559838950431174,-0.030002092922590165,-0.3643072822275262,0.522824868452919,-0.4055288239585216
2.126370410797937,-5.98457790941066,7.149911788003468,0.16547774785388658,-0.03221764877894207,-0.1372864978151977,-0.6611050623873003,0.23800930365165718,0.2609686478739108,-0.13238446985131996,7.564379874004491,6.421068233130917,0.16124242874498554,0.14304022997378665,-0.05138318957075849,0.008582309587118676,0.6648659159109115,0.29065024274391305,-2.4635059588443964,-6.2593700609742715,7.365926946259859,0.06760261214926437,-0.003684575883628584,0.024038315397588005,0.5890615424821841,0.16112523451168084,-0.1656388012757453,2.7270573166642387,-5.672058896835387,7.361924983147653,0.050984842035105754,-0.011381315906823222,-0.014977392292532265,0.009094759115110738,0.4278452492422502,-0.7123872322118602,0.6842128130881157,-6.110066992783131,7.367799761027247,0.1873151992570425,-0.036810254508634024,-0.039684509878591935,-0.371443641741398,0.5255209837707432,-0.4098247505270008
2.3382039608660996,-6.459056486697207,7.669382761254768,0.23513373141477434,-0.003001690901814398,-0.10994786901843405,-0.6511834462944182,0.23334420322031113,0.2564041305860786,0.4425180631685686,7.883321266067646,5.682594005015858,0.20248460898758294,0.08505693965936705,-0.001230835865764296,0.017592937572859742,0.6625871603539469,0.292856814386571,-2.051394807665689,-5.161214258200698,7.687318032368185,0.12877067021962632,0.036771927873900045,0.05131655547311157,0.59854234560802,0.1578808966018086,-0.1672128497552103,3.100540804516497,-5.654846789799065,6.974143723680306,0.13113820116273464,0.03785880400801129,-0.03333373997746328,0.020850436083654243,0.42318227061483743,-0.7096495301952873,0.2818055452349381,-5.695727383749249,8.445345945139831,0.2775051038112398,-0.0011763399780341435,-0.04889959537633304,-0.36220542785331655,0.5179307202027084,-0.41141436718702445
2.7237251012945594,-5.421809532386794,7.4364166849120705,0.25392360515930273,-0.056671180224941185,-0.16089995021694314,-0.6514128606738523,0.2301627534313686,0.2583477545936856,0.2451429068808102,8.070893703152954,5.909192848040839,0.2237185256554835,0.15958902733721061,-0.0832278321602804,0.01686577445932476,0.6633107820428542,0.291626763795068,-2.1042533403398815,-5.839474956310222,7.654154309755793,0.13990170473498748,-0.005391996098608397,0.048407608093325276,0.599851623158942,0.1567060862276206,-0.16038527698889343,2.8877828070865665,-5.363612493552953,7.572226791272624,0.13989041830651902,0.11382623783042536,-0.027646230636355663,0.017658816221449387,0.4229440755021866,-0.7105677969013637,0.7302829336214989,-5.895200780046961,7.9969804817358945,0.30319974112520115,0.011341512122796403,-0.04088580887520135,-0.36542949465049207,0.5157374297909799,-0.41453908868776185
2.2995375278868835,-4.344259016585126,6.959827497795884,0.34306257388042954,-0.014378567224020157,-0.03746127228377545,-0.6587889456495065,0.23534564022738164,0.25335332881171196,-0.1573078701544645,7.710013426674362,5.0409046837466125,0.1499780486320545,-0.046481917785519834,-0.006340072278867867,0.010562737691321426,0.6672638052961932,0.28938770402369973,-2.3866064183708313,-5.589975211814525,8.026750045716403,0.10509127553471878,0.005042280363432951,0.08014201080720616,0.5920109475810945,0.16038754075717707,-0.16396557460637662,3.327675227573331,-5.291115468457569,7.826291196458819,0.14333927136437857,0.13198545517116547,0.009327048514364195,0.012265395269931601,0.4253956416143452,-0.7121903011501854,0.7145374258731843,-5.414992797476696,7.994782554634494,0.3461111497275621,0.04709642322592346,0.018225426019433593,-0.370897222476035,0.514521394224499,-0.4210520109141389
2.5595646392497398,-5.139829990534494,8.357076168629586,0.08182472858727935,0.009446581858515681,0.047993902537806124,-0.6560999726646204,0.24022170193592438,0.25211348950719037,0.131468515230906,8.545969181041563,5.105771703742324,-0.015049577889074626,-0.06942164351103938,-0.0007200809585317383,0.016889345125595912,0.6666238403611909,0.2847393325610743,-2.2559314501902574,-4.8592871822828725,7.461467024060741,0.0005869511601719027,0.004809540852948115,0.03046090911511664,0.5997652072519447,0.1617676375349928,-0.16872589810808214,2.1523411496259337,-5.2419061731230405,9.246241748546892,0.026726322318596653,0.05515935288162691,0.03349493819971369,0.021218370094737225,0.42974246117180775,-0.7174948139007835,0.28367412460857727,-4.861163626070868,8.757635559545859,0.0787252344213173,0.05571405521986331,0.03321337196471722,-0.3626377275661274,0.5198699258726398,-0.4248386240501811
2.2684703686686767,-5.906823680507445,7.407378294296619,-0.14842934995606963,0.008488172568440032,0.03240005853493166,-0.6568623401885297,0.2336331686352141,0.25209580607086246,0.2642479705880173,7.874611458371936,5.435083297499546,-0.11275713700518918,0.03205662384444623,-0.016829967025775227,0.015360470745616127,0.661290283252323,0.2860463263241382,-2.2545072732992426,-5.462314401032307,8.321705613188495,-0.0744781353857728,-0.0008618124058740134,-0.06232222284896118,0.5987472739203894,0.1571272511545454,-0.16965115427405303,3.4222566899940676,-5.801695847418809,8.724256414373272,-0.11471058729112608,-0.18179427224331923,-0.010035215236698716,0.018304987094327714,0.4234119473595497,-0.7154649586434477,0.18978898386638868,-5.467928233616128,7.656162377930316,-0.16241649629372557,-0.005903062104196214,-0.018485174585711587,-0.36608317505433235,0.5152382717562426,-0.4260053634178559
2.0738646293743224,-6.77009806126656,7.586225709876676,-0.0674690270106766,0.0031326523933156523,-0.025512323614583696,-0.6626496582751376,0.2292390047106225,0.25826670541927516,0.08851449421494513,7.829624909380569,6.533154758627046,-0.07335902342731132,0.08300928082535827,0.024413219321670756,0.010982302293699694,0.6607487808397565,0.2948575002608976,-2.363616622552365,-5.568901611350621,7.294593764090198,-0.11928596875563235,0.001956990405918921,-0.057149856426603925,0.591060211018249,0.15675862011945646,-0.16050515093387718,2.5202420039213447,-5.067099404172081,6.915767726399973,-0.15502904105336213,-0.15855705632028885,0.034031736454664015,0.009871048950312551,0.42370538266559815,-0.7092105234088251,0.24588711918693867,-5.681823163042542,7.803660054522956,-0.05006081582628208,-0.05557270097276083,-0.05418898632009252,-0.37034733326953795,0.5108635279848824,-0.4161724911187441
2.5772804649370014,-7.106409432807801,7.8797936938442374,0.17131001883840932,-0.016629937034553233,-0.1576173821721787,-0.6629525653350886,0.22461198857629694,0.25580951271097524,0.41823387179674354,7.666512084513086,6.8052595202553965,0.1650657301200293,0.1878501170554806,-0.03936040893059779,0.008047067934378385,0.6609855779084558,0.2919321520074216,-2.0103811497000206,-6.1201680620076955,7.387921854297445,0.08382851952559843,0.0032606222107142515,0.008240813973471442,0.5928065221797665,0.15384885491101521,-0.15660052793557058,3.1382784649563655,-6.215976633645739,6.5656793725673435,0.05755633306909825,-0.05347557052178116,-0.03799248305927156,0.008923583051930592,0.4215179198282272,-0.7072318107701319,0.7000866028556294,-6.115526559204569,7.999630227737192,0.20920361681358554,-0.11116321306837193,-0.10533299987862403,-0.372566204786647,0.5103788732215809,-0.4176052845270803
2.3678285570195374,-5.639559661733221,7.34692082500385,0.3679182129345035,-0.05981154086994836,-0.19643083748699916,-0.6444584618118351,0.22845602670752976,0.2504222596338673,0.03512943928681912,8.100512094704,5.743922655979243,0.2808039848512787,0.18586534298055127,-0.06864741588992891,0.020290208760566506,0.6642130153298165,0.2896497119969665,-2.3244603390837515,-5.628797214440787,7.795024061963329,0.17087352087150823,0.011192037960836086,0.06876223519678108,0.6064571955904705,0.15789002635357322,-0.15999911040568193,2.880894330696899,-5.438411125890109,7.3317883371528225,0.16426808569993537,0.03198920577903325,-0.040163446280235375,0.022082565252423532,0.4244014667420671,-0.7091871661451965,0.6190977099595733,-5.928262168332387,8.247177018190515,0.4066065983450621,-0.07453588111339236,-0.1061446256195179,-0.3599418968129132,0.508636566109762,-0.42242406363723145
2.95836275969828,-3.8966773936270065,8.102973847558168,0.32627652947818525,-0.08078564106361891,-0.11402667918785951,-0.6531456368131897,0.21411386775995764,0.2453612481521162,-0.16798632664974192,8.229659946666947,4.729106698733123,0.1979708842808204,0.09447226895303001,-0.060698363387626623,0.01157934579841518,0.6520620478714013,0.28619819431931265,-2.249056311721574,-5.346690240347746,7.783007644667292,0.14242890955408263,0.003094415549325712,0.054876003732442495,0.5960866424584512,0.14426305825849278,-0.16218745047788768,3.107901185918559,-5.274034056710659,8.13803455146973,0.14131851798357986,0.05000509709535178,-0.03507277179535506,0.01421764968259023,0.4134344540591331,-0.7102254902235837,0.9737494043305952,-4.854737565871805,8.510961601901569,0.34005377202355164,0.020006264719600486,-0.04863766200716936,-0.3698503684391228,0.4944900853469499,-0.43007958269605334
2.6370948678683916,-4.364515689852112,7.857712310884826,0.04399543764115831,-0.027200403772811292,0.0537545516896847,-0.6516824410509319,0.2319536212525548,0.23980243645493876,-0.05008400275143578,8.477944274595469,4.425696133499375,-0.027603620888111094,-0.015606700139968259,-0.08150076630686702,0.013213325464178163,0.6665962755679095,0.2798669560740773,-2.3437202532397676,-4.687361912194686,8.19589093495297,-0.009286424752885016,0.00037532266856323194,0.008665756989638417,0.6005302688930689,0.16421356344767082,-0.16753479017217934,3.107022396118574,-4.62416239937953,8.00030624137271,-0.004185289233561427,-0.001602031457248613,0.0139172249475756,0.014679743308529601,0.4297737101956908,-0.7144477255776143,0.4471322658924541,-5.563316424453068,8.965871283294371,0.030726309182294954,-0.03605641532555384,0.04716349528931441,-0.36717169875904104,0.5091291754116062,-0.43281992862748137
2.189038974104144,-5.824976953717611,6.872767416702154,-0.2317606765279805,-0.0053571038148504165,0.14378664511354913,-0.6509715550238271,0.21948876297342015,0.24217807429298452,0.2012628588562596,7.678060238360518,5.412886336645379,-0.21889229521074308,0.026935774294047435,-0.039256011852365165,0.0054795565905381375,0.6532939538782511,0.28180178052967064,-2.102046444060419,-5.278947390142416,7.543951461136499,-0.15034633121027904,-0.01588599167490276,-0.07189060524236798,0.5948327643461051,0.15130808712406496,-0.16759672399312373,2.941179478471471,-5.744386649934096,7.469821469080651,-0.14723376607882716,0.0580352137837658,0.035215918975909165,0.013929931423328839,0.42074491904833,-0.7139112840112248,0.5868504044048114,-5.438363793242065,8.272045324793906,-0.2654062983056894,0.08574972010764745,0.05159099144358006,-0.3708355792958879,0.49864095161739364,-0.4312910028430727
2.3582559828926257,-5.979266940522313,7.5558038928463525,0.034767691502675245,0.013656281947716422,0.04909932235723095,-0.6451015189220185,0.22337114739979874,0.24161936119194194,-0.11596546901442328,7.712251549927949,6.707295204229215,-0.031075532036477217,0.028218635871175696,0.012643351977220059,0.011439193734263772,0.6603533469744987,0.2853390420732631,-2.394014956911245,-6.444877487902368,7.63626777669959,-0.021446142948505626,0.0023126217585539262,-0.03236156523152311,0.6022048946701358,0.15688509881208898,-0.16676786084570303,2.5678215011577317,-5.812948155584536,10.021082215186611,-0.05613265932929594,-0.14240064287075418,-0.014385012882063276,0.016446006184885963,0.422705654640181,-0.7100571421180008,0.560279580348154,-5.37004679934512,8.298280363955964,0.0436158794957456,0.22468496068975655,0.039131374786163124,-0.3596181192405489,0.5025202880599997,-0.4329212668314937
1.9242185183523526,-6.938431232796907,7.845398038113189,0.1089978587373335,0.027392910599811363,-0.006895908971776988,-0.6495222784791603,0.22877714476339572,0.23829092801059046,0.037613542700511,8.162409736077196,5.809598215159694,0.057272362140556324,0.06706987929865277,0.040603817846418346,0.008772658694014907,0.6620777807801905,0.28409941877204936,-2.477108660300249,-5.081950811968091,7.918116216471463,-0.03342919180453303,0.01955938890087707,-0.007677001831443632,0.6005297868289406,0.164700622720316,-0.16778264099938098,2.783555407266793,-5.4438403710761305,7.5291045763836015,-0.09889421548122058,-0.33298433496143165,0.007132933733532412,0.008595881235927666,0.43003991196546165,-0.7133639913392853,-0.276176601446778,-6.018761057857234,8.722372683175637,0.15938886684010528,0.2886112184798456,-0.005550663834716956,-0.35822919418973315,0.509346218086227,-0.4392971425737164
1.9413577374985853,-6.652643364633305,7.802753023696947,0.155202481622981,0.06425938579586658,-0.07000080729681785,-0.6398830043123487,0.22925837076500175,0.22960284766609468,-0.1285570455110834,7.64338816898173,5.8929882505367,0.03538344222539333,0.277438703361264,0.03953336912663523,0.019287057224638554,0.6640840088854417,0.28037550559785746,-2.447601725836828,-5.253036242450064,7.4014700062846766,-0.01154390034622654,-0.007965715537452572,-0.06920897101368274,0.6080983455482701,0.16319455906262695,-0.1671459588408031,2.978813317722234,-5.629891631734591,5.858055505218731,-0.07780390017649107,-0.10870885390788286,-0.04126320042557527,0.017157239690666036,0.4348980043488569,-0.7132915979426496,-0.3512793025062598,-5.967669163225749,8.670657402082567,0.1909272334337236,0.2939775321924345,-0.0671662996404491,-0.34420571170928327,0.5068639523327826,-0.44852966475618594
2.7107891570614444,-6.499180761067255,7.7768539761234665,0.5045401636374914,0.19388000949381395,-0.13928617217919437,-0.6427348674615456,0.21782924105811016,0.22202612570199304,0.3856334273846041,7.849888452616229,6.28092708661293,0.10494428342960435,0.35500418234762243,0.10567311459469193,0.012827862028780458,0.6551527436605149,0.2817518532660791,-1.970384891477377,-5.772579441361039,8.089595465614803,0.03740898227134696,0.008908185869458029,-0.036733780964355374,0.6032435079435441,0.15472434348481176,-0.1613939009571345,3.6358140551571183,-6.0122455323087065,7.4802808516043,0.009483929804738054,0.06833578101088866,-0.05426699178221203,0.014525233105542056,0.4246702011744605,-0.70856522030627,0.15988687878475907,-6.251155899631289,9.012669947718678,0.5333033069292895,0.24999432200885266,-0.02860294753374429,-0.3445803039777602,0.4890357754748537,-0.4548539128976499
2.7392154045765107,-5.892094666790678,8.99304041917413,0.4975377296835891,0.28593110204505123,-0.125452458547461,-0.6496560291621611,0.21111176787968922,0.20207755051951123,-0.14351464110725903,8.211597683386623,5.845817059246494,0.2057382761871473,0.39269765005796403,0.06059489324599826,0.00377288318777971,0.6540104710305774,0.27935456679426884,-2.2303372688558487,-5.764588634970361,6.97516041993044,0.10912177887817599,0.0018554714711126513,-0.06747443330686335,0.599532033567872,0.154476199361658,-0.1647578103573524,1.7555995012371193,-5.347420039005143,11.434855480300932,-4.191409291225308e-05,-0.2794074901248524,-0.10906926811132145,0.0008132908228351381,0.4266540493331133,-0.7110145823291494,-0.033959265613991235,-5.846459575480846,9.46570423482602,0.5501860466404157,0.14830366813686213,-0.033962189451532544,-0.34570089264619136,0.48268033456955695,-0.46386498241993546
2.57610884667987,-5.657550722492917,9.158130910476197,0.2339537408214249,0.35796208283011205,-0.08971046055276717,-0.6321565166447676,0.21349951654703356,0.1959666547623259,-0.22414837403645327,8.91385118798559,5.842202455344022,0.17817363065567496,0.4298227937248574,0.019770646082862345,0.011898201144581835,0.6583684042761218,0.2836587665954222,-2.526327038637006,-5.276296813512363,7.906819349841558,0.05557515577892927,0.09757266961069301,-0.021172442140440183,0.6126089331778289,0.16128537742285687,-0.15815969072203234,2.684059755443838,-4.917477950793625,7.190782283549286,-0.03752432770370012,-0.62609780020777,-0.02315718537251019,0.005580708551129507,0.4305725289141415,-0.704521764760712,-0.3467769364750768,-5.489230617017329,9.632113589605478,0.2690352222077882,-0.02232457491512645,-0.05431905020768457,-0.3327590068720167,0.48411642484132356,-0.46405223182461297
2.455726933045767,-5.895158894254383,8.669701950863887,0.04228969284445373,0.499169251696293,-0.06618611284918216,-0.6350213177204704,0.20581202698804435,0.17009341775809536,-0.13304286145436345,7.769503961335298,5.415274256892642,0.09939082426324895,0.5124236192145641,0.011308050774533287,-0.001986165240499384,0.6437596805560922,0.2748882799865348,-2.250071275213628,-5.260783404066309,7.6602632468716125,0.037197933544352364,0.11547498335369755,-0.03696274687429517,0.604206549930451,0.15471061781169201,-0.162384567266924,3.5736215055326053,-5.456601189415623,6.616939795089485,0.01609486893553923,-0.4544290125468737,-0.030324265656749335,-0.012094442936416537,0.42328366563309416,-0.7085727445141173,-0.3114810854784279,-5.851962626146852,9.655213755606637,0.04833929894059123,-0.22253808639003136,-0.06382864442235237,-0.33966712154854617,0.4765585485497981,-0.4678514357646399
2.4054490248705864,-5.725813924017056,8.32697764993113,0.06634816783366701,0.7157050000460772,-0.028571523448361377,-0.6306307659006989,0.21148760956058657,0.15173958123326614,-0.08090842371080137,7.934469631666702,5.326484428368913,0.09029133920387468,0.590841875898388,0.0250783772530211,-0.007709802331948364,0.6527448918668352,0.2828259954101745,-2.2314267063262347,-5.441928390142856,7.928449912661191,0.019411429539373855,0.06747538870591185,-0.0663566428040481,0.6032166260880316,0.16944406324734868,-0.15247495166485658,3.598453954068673,-5.363004386790296,7.0534548820762,0.0135376991133628,-0.3627993333503398,-0.015544051861244357,-0.019484491379019593,0.4318845086258556,-0.6999277173406582,-0.17192333368634516,-5.87543085096155,9.636495422353212,0.0526481986152919,-0.4131454913871269,-0.033142819977398014,-0.3405051253663203,0.48706729967677626,-0.45979279559692976
2.2258614548204223,-5.44557121592226,8.529188830717883,0.16125903668778513,0.9187338799528186,-0.009773387046837164,-0.6187736338779626,0.19400311845538368,0.11730190311775597,-0.4097995259482014,7.91465642741643,5.890295084113735,0.15561067184715952,0.6033870415195659,0.0871257785247353,-0.008722846086925425,0.6335176842413943,0.2701806997521563,-2.3538801166320926,-5.645856966165981,7.783579351129025,0.10264135627171934,0.07441499794720038,-0.07308220491487749,0.6052496542636552,0.15668814942920026,-0.15850836770397506,3.664133834607351,-5.734867659677266,6.3922626172573995,0.08172947083211436,-0.24410671137959544,0.013570010867403571,-0.019186243823108413,0.4189110926715254,-0.7084292109665643,0.29823296817544853,-5.64430665760636,9.508618408857608,0.13664514415481027,-0.5886854481700672,0.012250036274160395,-0.34015179845856275,0.4721666972915947,-0.4668626906919774
2.1662397436328904,-5.27871779484933,8.33643349267421,0.14885300562031364,1.0490109135641328,0.035310662555982225,-0.6132264886381025,0.19626922305518588,0.09574133124151277,-0.2877476289674599,8.139207092996145,5.353049119505242,0.16726466292525355,0.5592564629732951,0.0697245550584637,-0.016550573443092177,0.6312591747377264,0.27560977980860796,-2.2628048595801085,-5.448991984195786,8.043919094763739,0.10569268231836171,0.023124156494706106,-0.03967223720384584,0.6006833851985238,0.15821632603837055,-0.15406009196207116,3.9638400643217944,-5.874051529547497,5.396618484708374,0.03651806161897552,0.05756837123884611,-0.07707359637060607,-0.02402700273553359,0.4167392599149785,-0.7056489378452027,0.806906582440449,-5.220508019486759,9.437401912990763,0.12873627512768365,-0.6895691177401665,0.03234729108129265,-0.3449072132946087,0.46901351562387794,-0.4575131236374294
1.7263007968389814,-4.975479888995089,8.166794336336414,0.1573999252771647,1.1436835899205828,0.020061883264308876,-0.5997782373185303,0.19560970567144165,0.06452851694567961,-0.42097787957510663,8.299391028644681,4.892191472659529,0.14512890901949352,0.6020212135379233,0.11764706098385093,-0.018047485340077746,0.629738743499951,0.2707537779939605,-2.4108211768353,-4.986333987078715,7.705444238613639,0.032865063318455,0.03026071660191651,-0.0763012884151535,0.603831769328891,0.1564800810735816,-0.1550681940352253,3.421778797651898,-4.657365718148281,6.055349684833327,-0.04115313374429035,0.3677832279108379,-0.07808298817610172,-0.0157227061125185,0.42305829111280485,-0.7065537777856775,1.2537312865173105,-4.395109107836888,8.925823563378671,0.1272102007027758,-0.6910902313790206,0.011887693916457416,-0.34687177611421116,0.4704818330067638,-0.45846360088121296
1.5083722056305422,-5.228660129607075,8.390261922005033,0.14914492335134408,1.0889637483566907,0.0023146387337565307,-0.5845648635946119,0.19174793225183204,0.038156760197370465,-0.6305714912744946,8.285339187585276,5.583895488882976,0.08950752590402455,0.6503723376863314,0.08516595977241671,-0.02223606195532028,0.6257209401309057,0.27595498093423626,-2.3799160709562517,-5.10113344703616,7.780918867854756,-0.07293441755693161,0.043581164205824245,-0.08157265409496083,0.6037039581699443,0.1597091206766335,-0.14825484863450095,3.275514819394248,-4.311496360409704,8.053844936114087,-0.1553936558430542,0.44810376321822576,0.04025361896022152,-0.010815797179225138,0.422561229641995,-0.7051742008162403,1.5529844391632828,-4.988088429629529,8.478608436454518,0.09974087914339053,-0.5643372242567262,-0.015685325496053164,-0.34731774639624846,0.4641391132927858,-0.45454302514065476
1.4765982139347094,-4.961812513450439,8.754916279401503,0.23986747151369675,0.9751282753355134,0.0007072812830322462,-0.5773474862107817,0.1957282195116571,0.013405389770086045,-0.6782611442491738,8.309764293489142,5.797220678707665,0.2119752842740073,0.5623494380651433,-0.009408411862343537,-0.03197931219853142,0.6286888110748647,0.27032263615091834,-2.189331465838573,-6.288715864565221,8.188258882211272,0.04922859900735712,-0.022077583573558438,0.02241787095879936,0.5995831812394967,0.16558970535677853,-0.14873071238510222,3.9833341308886125,-6.88600538230457,7.335017265940917,0.038482618924822326,0.4423142502243973,-0.002186331657388016,-0.00865176595565849,0.43035420658529827,-0.7084175483499735,1.7239551314466302,-5.132716882828793,8.69530408188225,0.19971912353267876,-0.4217418376930406,-0.020482583836900287,-0.3524212474191597,0.4697663301378502,-0.4537437217641031
1.0127433316854104,-4.577839125252474,8.640655868824334,0.3082164336775907,0.8647892110224666,0.03063577138260037,-0.559820072914175,0.19328907249197388,-0.005668805126325924,-0.9046277788829887,8.274492212178323,5.079612580873225,0.3028167267493164,0.4703629328841233,-0.12946556593733946,-0.0350128750062825,0.6204391717233968,0.2711904703874747,-2.2162479394177907,-5.265765832894831,6.898408213704796,0.21020238871642014,-0.06357438401774083,0.07828046389537963,0.6042744764453586,0.16291444867687005,-0.14389253235661398,2.2956112714814405,-5.251486271007892,7.335455075711322,0.22399135392359157,0.4811695450012877,-0.08700892190879074,-0.0005548335251858265,0.42546023815709433,-0.7053685986553895,1.5876131815142231,-4.678272705218181,8.429119712368477,0.29215332402648525,-0.29297069712392343,-0.009761232401588292,-0.3452773831982765,0.464141265684449,-0.44846867485543307
0.9658868514868241,-4.496888947242028,8.413504275793432,0.20517581160303688,0.7159896934018185,0.030084797380157548,-0.5478710173046056,0.18066801090606285,-0.03544782427545268,-0.6036579566875486,8.359112325629917,4.982532744969551,0.26535065259501667,0.4357987832446879,-0.2681731405544714,-0.04499659621838385,0.6057543297483853,0.26069948697656536,-2.1064824306034433,-5.62284526254219,7.623210522147204,0.2488818530527464,-0.06435712613541347,0.06891138163338187,0.6040617765524443,0.14381871465770232,-0.15057642688187053,3.1251578151808004,-6.0334117589976985,9.29619487634611,0.2532695776350554,0.3391122477044438,-0.10285891875477092,0.002307473519454973,0.4100121593181206,-0.7202553358589223,1.6854001654915085,-4.41614622992274,8.044914020795831,0.20682345860005868,-0.15944620639689427,-0.000848490040483689,-0.34205957977869744,0.4482524306728223,-0.45997307506258195
0.6370556379943113,-4.254378888147714,8.023002681097438,0.1755461506031159,0.5525188982456627,0.0508898526803458,-0.5244757238583899,0.1830172939357804,-0.03920577089717869,-0.8666641751223426,8.701319504337304,4.513059769060648,0.18349252356542328,0.4354991930917566,-0.3262962904907464,-0.04378103416351329,0.6041156833849277,0.26633759171009835,-2.361015941269393,-5.071088901235117,8.162012143260435,0.1729886018243712,-0.09325605734655079,0.004659144988727461,0.6161894358509336,0.14894611773057398,-0.14126629494574472,3.1322585139071824,-4.824657570318443,8.624721513378557,0.12837397262758837,0.08525800025663782,-0.10783741275666035,0.014038329189112304,0.41320537694269044,-0.7065587909128491,1.4116726442156224,-4.638362003044949,7.828180388535264,0.1843604046585458,0.04802753012916527,0.02395691016866254,-0.32778146258436464,0.44530019149181016,-0.45138490446559243
0.532415386973022,-4.383074995027619,8.19881980536626,0.0628219763817629,0.39643954345229193,0.09393285525218295,-0.519203978832692,0.196467975528207,-0.04996854275591389,-0.9773110246260879,8.528131615861206,4.5959880582995245,0.063799748295196,0.4258029506702126,-0.33698633712364384,-0.06391596690839284,0.6146086145693462,0.2650154980983455,-2.2731217581758543,-4.702909123716033,7.971475369488762,0.049255334578227256,-0.10697578653848121,-0.015211694286311158,0.6040828461591616,0.16148554823883643,-0.13948401703151872,3.4021028673596714,-4.6460984567248165,5.613233480478464,0.032354905622033886,0.2854243915449293,-0.04625766374770932,0.005489356341565613,0.42469652617316683,-0.7086480641393159,1.3494616962480999,-4.5130362333919365,7.727571823552643,0.0815331728826549,0.23241124432699234,0.062206458282610705,-0.3277899648337385,0.4572605479816813,-0.4538398043305468
0.2558086111464009,-4.576738659459023,8.096591995163744,0.10155582722066502,0.22841244869133906,0.10331108330354905,-0.5114216904711593,0.18624429455524538,-0.06526790863234999,-1.376951805560161,8.164970482147316,5.203879504229673,0.11698721693746028,0.38715159788350034,-0.4030259179686588,-0.07371488583901574,0.5950507824004624,0.25533139304703323,-2.2503531170676188,-5.753609975421438,7.568500629916138,0.21420618069876138,-0.11849937927190535,0.025274139602026246,0.6078246829023995,0.1479880013117977,-0.14529078883169658,2.758846066981066,-6.205815182914099,7.346110276898241,0.2150798926933378,0.48303967240519957,-0.11889043122429872,0.011888919681622482,0.409996651305106,-0.7170077433747861,1.013540022832058,-4.527830604414355,7.6534599258612666,0.1163315758666868,0.3572472059950477,0.07836956259993585,-0.3204326576755706,0.44111765877572845,-0.466136411117165
0.32968865973311057,-4.432470297240445,7.986863637654872,0.18572681061741142,0.12987755390611141,0.11643202727449749,-0.5077019932535858,0.19190389760805382,-0.07946127778467661,-1.3701030323964427,8.16815622543464,5.277369675564751,0.21347593493287992,0.2700041045697494,-0.42888752787417433,-0.08965414144517904,0.5910080720831936,0.2490910894476847,-2.074349226962323,-5.574815307022869,8.021307296927622,0.29842013542409235,-0.1429176403812931,0.07996696484367623,0.6031086290588441,0.14602740629718802,-0.14984817342522952,3.1112769717569932,-4.602479960220481,7.777638188836539,0.3172512336823224,0.5056193210208862,-0.12940518813564772,0.013237274311875564,0.4077716204970792,-0.7231272116273721,0.9142700948226817,-4.40027030521561,7.736868765862431,0.20186842408473923,0.4047004362159402,0.0800307502849474,-0.31786219860207293,0.4401263246957248,-0.4739850476161561
0.31573027755766264,-4.259106286751806,8.19673512071853,0.2764209171732503,0.06353073888103446,0.11584383507260512,-0.4921079888131842,0.19819784260997939,-0.08357319301063523,-1.4400794384638071,8.22080221080221,5.151532945829061,0.3006516439195823,0.15169977898234197,-0.41730263840666193,-0.09639293434627821,0.5986621420360918,0.24899411835798935,-2.0467728770880136,-5.435283340283115,8.048478348717083,0.31898852502696895,-0.15125574361818214,0.16528323535261993,0.6095270919332784,0.1508938453299522,-0.147046959675817,3.1077727331076197,-5.128133761288769,7.281809947486827,0.3751305113228597,0.5660069893957448,-0.06327607335964512,0.02785037040001672,0.41113489679248655,-0.725843504925141,0.857205362118204,-4.213898152935527,7.83055030494488,0.29592624885152785,0.4302635352219421,0.08336321534094163,-0.30568336255930845,0.44693190808524424,-0.4770973831333779
0.3587670394051109,-4.399531777724476,8.123282766741475,0.32869745183563265,0.009578414971117596,0.11623597842924134,-0.48065901320282056,0.19619692840276978,-0.08472937673681591,-1.4691566442645694,8.157234348153793,4.880970208876739,0.4013157441632402,0.05114490242719192,-0.4221920479940589,-0.10016464914540513,0.5906164213511628,0.24668662618375503,-2.0250536716938834,-5.4821089880172265,7.875290659731035,0.44002631871849557,-0.16209395077626854,0.2071800199772884,0.6172752942877244,0.14107802028576708,-0.14732368151540273,2.6216275812589633,-5.544654072548918,7.76059973057205,0.49475216931229743,0.6378106678201081,-0.09291712282805276,0.04053199829169852,0.3984073985902536,-0.7245553362525381,0.7038311556832191,-4.178034909189707,8.111521799416234,0.33522996937546,0.44456136987906497,0.08243190546006682,-0.2925601466116047,0.4359138856912007,-0.4797151911313578
0.4604032786590223,-4.248674094803497,7.90782556817054,0.44266373008033266,0.06562266828164243,0.11216558153000361,-0.48389075849957325,0.1881610093392685,-0.08618169562114311,-1.322335321761348,8.274952235534183,4.821382582131723,0.46956084497809,-0.019981889613419894,-0.33993362112615344,-0.11593598200670824,0.5795664660650699,0.24543630704316452,-1.8698608090066444,-5.2003571598146525,8.215810861142709,0.4948096831043316,-0.12745050432815977,0.21385366618949653,0.6103683055462517,0.1281858509680591,-0.14663648590372108,2.4644320988583175,-5.043030077681817,8.982425292240082,0.5448167281422481,0.5733439068800017,-0.11108301609135178,0.03827972461484161,0.3869354404731137,-0.7256918952009105,0.5744626174861447,-3.944258143222291,8.409016284636666,0.45073677699098286,0.38633832265045237,0.0654719507760077,-0.29366274951034516,0.4234578087981918,-0.48652277816959233
0.4340380830846684,-4.009726053200341,8.116226896801964,0.43899570049472075,0.17662705548024593,0.09278705442855482,-0.47462305662260523,0.1921033128370335,-0.10437209723988569,-1.3009248113762115,8.53654250828189,4.480387787833002,0.44682561967104584,-0.06690763485523724,-0.17868071285861864,-0.11400966569024913,0.5794036749718875,0.236399045150925,-1.9302756284075482,-4.926181447443994,8.385633836263269,0.43412735531561053,-0.02859301306368036,0.20836029563622202,0.6156467080268457,0.12323531209123188,-0.1510669709879846,2.47871229648721,-4.7851191150671015,9.378204514564638,0.47873598147998886,0.349459537072326,-0.08423000260351059,0.04781889712104752,0.3802696000181018,-0.7373122705788909,0.5302559779956632,-3.669882890717531,8.532124431385398,0.44290821643260636,0.2944490392341417,0.052404018620507226,-0.28335939788810005,0.41829382114357755,-0.4993624325984066
0.34805532323319816,-3.730079920227432,8.511305098257855,0.34954379144759545,0.2240089160622149,0.09333695407003283,-0.4629384893173212,0.19914918813980031,-0.10891028246155161,-1.4303677093994278,8.58910570171791,4.098607008502562,0.344267155156278,-0.07932832393297312,-0.12377559039078959,-0.111217453699586,0.5883595352657828,0.23356891130330815,-2.0761640565719444,-4.274371495603891,8.088647765217972,0.30879673670401836,-0.03314748564914204,0.1601633908922044,0.6239887587425899,0.12612716032362478,-0.1494986643672129,2.2473555279374193,-3.959384012065496,9.513392146935827,0.3229617584808007,0.23234938521661502,-0.030025129849010464,0.0571097435098102,0.38658756877449946,-0.7377466358325637,0.5121820209493271,-3.70531402980886,8.563846872706618,0.3514476612813931,0.23000080394136574,0.05247714918099711,-0.26923405982781795,0.42338578447441344,-0.5027448962153832
0.18198984901905588,-3.8367924233836708,8.823967463646083,0.16540649496434542,0.22264791408729387,0.09189841089587447,-0.46786357982471233,0.19942835732391045,-0.11176574618232417,-1.5461396922398623,8.649901404399076,3.5001533981143393,0.15772751865276113,-0.04057024873612684,-0.12345911421248607,-0.12420761011389887,0.5843798327946271,0.23391178383467015,-2.4370131092543015,-4.2969715072614525,8.300334442791984,0.139124217772704,-0.032546344285182646,0.08572077676855,0.6156936608034016,0.12472132553431645,-0.14839395593308016,2.3174428191602914,-6.095715154151063,8.841351384026002,0.1527856082555426,0.07918699355037218,-0.035234487543274684,0.05123774298535441,0.38221131271260866,-0.7376248625943076,0.39366369437614407,-3.5398846685349494,8.587451282777582,0.163414307539258,0.1821968124665674,0.06343831634341573,-0.2738995110183423,0.42388206069193446,-0.5046316789545343
-0.30248128821281706,-3.9871876895752707,8.898910638995233,-0.008310041560810907,0.20106498832299316,0.0721345451010278,-0.45780552613208814,0.19601652629157607,-0.12389569152115763,-1.8973152221195013,8.951251254086339,3.2239717187106938,-0.005920444185669002,0.11763917337640724,-0.11091724925348616,-0.12478180766728593,0.5791521162323214,0.22691235887872702,-2.886728326026339,-4.435929402248022,7.827584167921012,0.18989609786585593,0.045577062641791184,-0.1459594891237548,0.6209651234015768,0.11806378842251937,-0.1525669029350301,1.296211165680223,-6.691605480926918,8.223702213503342,0.0937215967545621,-0.001426383775122554,-0.29313410613079693,0.051133996708453935,0.3780415053267381,-0.7427347130886731,-0.056992236026821325,-3.573923211381444,8.492764065976553,-0.011323480107948451,0.10675251089968156,0.06372811324571176,-0.26766163959742706,0.41873359884368716,-0.5115524036083021
-0.3097817075557827,-4.146603812702772,8.488047198676657,-0.17179059801442045,0.15913898093425463,0.04785526393255761,-0.45583351684635454,0.2033367915446204,-0.12486898798270045,-2.037902618399512,8.409810236694193,4.438388035139111,-0.19860055465946935,0.24809229630614446,-0.14183606111104236,-0.13399209445953497,0.585087840786867,0.22416253120829274,-2.4945274551063794,-3.2472740248356278,8.480184053923317,-0.08632315741667856,0.003512915416144309,-0.2691829050086471,0.6183971602624921,0.12763353852124168,-0.14845513757641512,2.742074305608481,-0.8113391838635663,7.26091402068227,-0.1681678602184765,0.17286096492749414,-0.1951186000433444,0.048181364556126385,0.3831677728881431,-0.7449002304083748,-0.105705658668861,-3.8349304097270784,8.24313181754246,-0.16421330527057265,0.027193864695320424,0.04776613386120258,-0.26663582939561503,0.42386127027064463,-0.5088863203074613
-0.19971998563479687,-4.484635589659447,8.026051063464143,-0.11061958361088285,0.17182689509016616,0.04042459739351693,-0.45035548350726023,0.19992884897585203,-0.1330239420710904,-1.877002356114862,8.232463450338624,5.058177399503395,-0.1144429812858648,0.1823334642821104,-0.07259078744777178,-0.13990480099915284,0.5805508826521085,0.2259583027026118,-2.1275265008307382,-5.080280186294262,8.95827478934124,-0.06719458960545556,-0.01970777999195557,-0.04918868347031742,0.6237481547227454,0.11931793324139076,-0.1462683552104595,3.2586848734587863,-4.180124330944586,6.372848126129005,-0.03412361164798555,0.47625406882648963,0.0006835673417633849,0.05750200985506819,0.3777820692751682,-0.7416271795678739,0.0483156524784651,-4.15711154817165,8.359104773653007,-0.114077414439545,-0.00043662215801829296,0.024855881836688444,-0.2629847957641113,0.417505370058746,-0.5086879017649409
0.05731152094077638,-4.677185272902306,8.168096693370753,0.1217119491793366,0.20629040414541303,0.02540554542789335,-0.4479232850753973,0.20260913873107697,-0.13451366406397355,-1.789298418879114,8.395501860791715,5.410651782145989,0.14886831766769268,0.047287188923672036,0.048821660300402386,-0.14299172263103388,0.5876515151742082,0.22463790517734708,-1.7316887300166948,-5.905533218640371,8.319811046212845,0.31237174109372345,-0.02175838887933558,0.04181576815570171,0.6233980985065186,0.12158687132000538,-0.1374910632225572,2.30683846160337,-6.389579760965488,8.546589656436398,0.33887978736782376,0.733076715680775,-0.15119581513463437,0.06995601284215297,0.3794534599130083,-0.7418559697193758,0.3640890635995265,-4.285751157941241,8.476661382894244,0.10809856924022941,-0.01488895465089097,-0.00010917242802476065,-0.26346570361986443,0.42068045042076346,-0.5086843904965763
0.5811020392533649,-4.242689377146466,8.395640323635721,0.41639074242862656,0.19176263412221486,0.02332645998103447,-0.44318798111388186,0.1994517609749427,-0.143388492687509,-1.2701329312378742,7.887790470995947,5.765332255631468,0.44713566291479523,-0.16286063013801466,0.05057752044926126,-0.14213772412473086,0.5794803340883261,0.2179232162632608,-1.0688780666904212,-6.029392104725034,8.647322225840123,0.47150176182162745,-0.042966308979265615,0.18654680412647004,0.628624554835339,0.11149808352445038,-0.1433456457917242,3.2234926282644345,-4.384730261184776,11.562327245677203,0.47852314583178146,0.43991069290039686,-0.08921236201978013,0.07884044699125034,0.3664637083103937,-0.7480682641548261,1.030479798575229,-4.0507220842762095,8.665457306477618,0.41825516578484767,0.02323907625825036,-0.04111440903081038,-0.2576801542068279,0.41309521616619155,-0.5126657194571849
0.8971591875347233,-3.6800576298899443,8.413655578625015,0.5460626274821069,0.2400584432191543,0.040824617322564635,-0.45120751410179016,0.19392633786380853,-0.1555014282565111,-0.8574075877721948,8.906666244986603,5.188288072790089,0.5371011724310553,-0.39463370946658355,0.11111276623246268,-0.14828763363027142,0.5774942090760297,0.21064668401848977,-1.0187296315390872,-5.851449621041891,8.53960212505319,0.41468365017834025,-0.0261811707389164,0.24594475878438155,0.6160108881926069,0.10272530864163146,-0.15091103412818163,2.337388365976183,-5.289641778085481,11.507305039759434,0.3803323166893681,-0.08309137234087678,0.007732956627836452,0.06720432771887945,0.3610952616586568,-0.7561421372543127,1.3841658880571346,-3.654221749637805,9.176335049883642,0.5252681819287206,0.06900541579237396,-0.06059676061983832,-0.26715544713026657,0.4006522066294781,-0.5244807030240076
0.35487487140179325,-3.3412329121320115,9.528550157234804,0.4369514014621527,0.22077138410968988,0.01017143640556174,-0.44917436439640457,0.19707197889650116,-0.15112241526624362,-1.1656421547622862,8.839816698427892,3.228276048889642,0.3993828146628435,-0.43143378821759526,0.07493995056176664,-0.1435870226979279,0.5807188591740471,0.2179085787167134,-1.9605575904383004,-4.1461144123130405,8.117483396107803,0.09667133691417869,-0.01565072323437025,0.13200462032242088,0.6163097220580882,0.10494369008053737,-0.1480033085372155,2.1248665111853016,-4.53042572633599,11.295428256269226,0.03474460604366278,-0.5591073904003075,0.11099987662888997,0.057346246443648545,0.3633536603355543,-0.7479165657247999,1.0025632434370313,-3.05957356255347,8.798759610737692,0.4461207236057588,0.09152615405236288,-0.0368566947766255,-0.26346877024399296,0.40088985010990064,-0.5228246836665036
0.3640611417248383,-3.6075232223155838,9.55306135136909,0.09022521899445526,0.05518732742862813,0.014478105700953443,-0.4397348349355619,0.18971876568587764,-0.1544704408093056,-0.9682416647199452,9.07136783928971,2.4087290747266987,0.13008410479610788,-0.2616014150304714,-0.12183957510780422,-0.13510794935738638,0.5757134774390911,0.21698391987525517,-2.1731371814672285,-2.7903368880648087,8.642956469144194,0.04689648062817382,-0.10063476997727137,-0.06315036409485696,0.6223481952486439,0.09951789490111668,-0.15024354227455483,2.4218218771068765,-6.347408040417956,10.438251610456515,-0.014767405366012133,-0.8955354280473902,-0.07212395605299073,0.050794537104632886,0.36338207037128184,-0.7456023551451584,1.0309225371422288,-3.5396787607192124,8.862592819068274,0.08627485399084162,0.16275865412715168,-0.014067118844211702,-0.25155640304202587,0.3959772749304936,-0.5256766596047214
0.1330812832014482,-3.408954188546888,9.472323160383153,-0.07467238016829711,-0.012044235566977531,0.00805548680145784,-0.4399308264236317,0.19557229720996638,-0.1529764906651901,-1.1492541777175453,9.565750019126252,2.7860155592704197,-0.09559623813218417,-0.023751011560458092,-0.19078314059378967,-0.13606996504481186,0.5776264738730627,0.21353915102078053,-2.4751265708560637,-3.4256538867419497,10.381113520467931,0.12086509096114902,-0.2410297770631999,-0.27409641272518936,0.6130071520409672,0.10586553146507596,-0.15748600255019335,3.8167681136400566,-4.179141462784252,10.493931025508603,0.025484780358221583,-0.975518871119034,-0.34050535395311887,0.028085895915382464,0.36686479004424805,-0.7461876388519312,0.5612627143564917,-3.0907652650873194,9.143916649284314,-0.06543672136132407,0.12570722241122093,-0.009384243983201887,-0.25158492834002,0.3989046601712714,-0.5281206282950796
-0.09107312332323053,-4.077803088182437,9.188138365130335,-0.4429164163410514,0.0006594457587752597,-0.016572611317823727,-0.4459922040168523,0.2036558559612797,-0.15260612113827182,-1.5243173321347991,8.533629011761635,3.8537723984647303,-0.5079132456876385,0.14477549496146347,-0.23074600641985504,-0.14717744698543178,0.5872894449170698,0.213424361903346,-2.435113495840985,-4.606031059008528,9.855735823288278,-0.462915108261458,-0.4883770846341339,-0.547936952172918,0.5982765896461097,0.12269789584660014,-0.17059521750986228,4.013711625110969,-5.662122419585042,9.526820427899043,-0.6265192939072041,-0.8456486417263172,-0.2241950150972439,0.006071777258247424,0.3857618406776488,-0.7378095247378679,0.25829368826049126,-3.705259584758282,9.218958552042453,-0.414084995096046,0.03156471840953527,0.0018920097870434157,-0.2593322934715384,0.41235267739695775,-0.5255825581194189
-0.053060616323010845,-4.268945055603132,9.027160641568644,-0.47725921928532006,0.07725982785564472,-0.021213488017837925,-0.4392547754967845,0.19967041696490495,-0.14173714501615467,-1.658264452235201,8.798860199833822,4.337567614105216,-0.5228648032091295,0.19478652477172614,-0.2314509766309746,-0.14307203839576926,0.5813094958488879,0.22497891141658427,-2.089126702700807,-5.341078857522665,9.501572228530016,-0.41166686194556956,-0.6849194810186234,-0.6679302154754394,0.5887799920565409,0.12787879814462755,-0.17098941238563678,3.7102752358303084,-6.250090714269139,7.898810877976319,-0.6481850706536207,-0.5994636206085328,-0.3800258173001798,-0.003846617550689156,0.39123275860348933,-0.7198286920968923,0.2159775001877578,-4.24725066084535,9.399702014856397,-0.4531435295141099,-0.0808447434826122,0.012116498245190113,-0.25403691522075084,0.40795953079865155,-0.5132005675626918
-0.24771582668108844,-4.561566330711676,8.861641810270507,-0.48601067731835396,0.1530146762569898,0.005737043535088265,-0.44354142289651216,0.1977029877580301,-0.13386776896805885,-2.019714368633781,8.106558240273005,5.141427692068237,-0.5401272006566847,0.16478047114988842,-0.19733953213787178,-0.1526795582541025,0.5741461743906209,0.22755868114608788,-1.710629450326828,-6.071177251742771,8.281068491618255,-0.5323061903676941,-0.7058615857799488,-0.8011700428058003,0.5625751719739535,0.13334717601287552,-0.1789631418724757,3.0832308470710217,-6.408799770484829,7.834243267678143,-0.8261975623560888,-0.4137807803790441,-0.39515935172505545,-0.026545911463404837,0.4008702043650798,-0.7072517852412082,0.13565973377150325,-4.567038829856302,9.092862069289449,-0.48075423540245943,-0.18187416968357267,0.023609710322400813,-0.26316824046720805,0.40847893682730557,-0.5030600512730343
0.0711816110531855,-4.76092730537661,8.441551879401933,-0.15850823897089744,0.18942622442526852,0.03381661791682727,-0.4408072477357603,0.20818854244377336,-0.13386237243064708,-1.8288189759309124,7.93747145332459,6.201243104169457,-0.14424412235406942,-0.04555235187069707,-0.21721500767523513,-0.15403727600586473,0.581325443347056,0.2328248027509994,-0.7090355632294932,-6.678696274355415,9.197729625290359,-0.08316719753148327,-0.7882883498377463,-0.6648130903756648,0.5469477856214617,0.15144579719522666,-0.18694192229856246,4.349497009654016,-6.304126174439953,9.527414993683324,-0.36034606295584876,-0.42027476203095154,-0.5375164411932406,-0.0426407725691568,0.4224468798610536,-0.6960592268416288,0.6133824388836074,-4.860623513962328,9.040036387355954,-0.16352586916720435,-0.1956673964920739,0.02679800515194965,-0.2647653950167685,0.4177675024612437,-0.49669839152035644
-0.03330361493891926,-4.555790876514746,8.75877541986698,0.2576155787654645,0.21630562908566792,0.06523125441985786,-0.44386912792108,0.2104418740722001,-0.14332978888409825,-1.9611814440335025,8.500656174657529,6.290403635773583,0.26361222509877763,-0.3731500231203687,-0.17342941159370795,-0.15696835957855118,0.5834068678479256,0.22279045024886418,-0.7473162426984704,-6.968455739005716,10.874873669314892,0.1642955331219985,-0.992117392308417,-0.4802360791093322,0.5146549768555743,0.16339159635643866,-0.21392476363170984,5.729983949297575,-5.374446781289611,10.801298842893754,-0.11036566417193948,-0.4856093592931232,-0.48314796468867494,-0.06757674772875825,0.4332487956177139,-0.6995635920945316,0.738607185731082,-4.373939371089934,8.867613210611793,0.2462989801306996,-0.16769768294660922,0.004713478642762503,-0.27249641545345327,0.4197248917052981,-0.5083097542463599
-0.49898610304160224,-4.762021585281182,9.107230414994312,0.5757143561167658,0.12021192753136684,0.048903174091781715,-0.42521175996296107,0.20868607793471008,-0.1524066497841524,-2.2383275277395316,8.655311192856855,5.346488506248592,0.6195625525694914,-0.5801800890411886,-0.21506766509109318,-0.13871521216585794,0.5808342527118104,0.2134979856192883,-1.2564368525079197,-5.7877331326437975,9.882258667200693,0.4758520430559506,-1.2612180146796004,-0.327067639807311,0.5007143178591784,0.16381280245086474,-0.23302006957773302,4.467896414654727,-6.0747822437048775,8.412479573161374,0.21766052805034658,-0.33506060339582255,-0.49985444025723286,-0.07065954677124721,0.4374253499872433,-0.6951290070336725,0.4101156048188711,-4.467492740769816,8.77142149206838,0.5494102810858128,-0.0893873166735629,-0.01575043685452529,-0.2586547175144904,0.41212065981034274,-0.5124066687505022
-0.5526953517478191,-4.264626579882583,9.114630010249531,0.7101111390259975,0.021387367330080877,0.04766400353399533,-0.4304031694634697,0.2001721457546441,-0.15407579963700102,-2.169295726001052,8.74800952212365,4.448506694823726,0.7488626251104622,-0.6193285761616395,-0.2637940013178156,-0.14030517312285246,0.5717649459125212,0.20997855465170268,-1.262711783899752,-5.560488381057667,9.126904784486381,0.6300184446631122,-1.393168185267847,-0.33156214247523247,0.463539382299343,0.16070437922857475,-0.25322362389852554,3.515105231182804,-6.003949785277509,7.683174967778063,0.3801524909238296,-0.057345560046575594,-0.5729654043669236,-0.08962100669709927,0.4374998579970476,-0.6903960828808067,0.28506854998370607,-4.075615759293955,9.082847639742944,0.6769955826907443,-0.0056168067289468805,-0.03005900449764186,-0.2661314227603002,0.3982119409041951,-0.5208304134081384
-0.3604498222832372,-4.378053944904293,8.992395587985936,0.721537682459911,0.000772043765947146,0.04492879888005093,-0.42019465094580594,0.20796099159060277,-0.15956574783513403,-1.943287905425898,8.262045647829366,4.575790596903912,0.7710280724695932,-0.6339755952876955,-0.32175466076101505,-0.13785423887028384,0.5738381408378858,0.20383499826382528,-0.7782760183903588,-4.795935958342251,9.087141773366543,0.5417433478116943,-1.5423660656403944,-0.3852678007824526,0.43793069922601796,0.1748513189964322,-0.2747037288436743,3.53198794216971,-4.871902827736722,8.866231426778388,0.2907955671497858,0.11202960744888839,-0.5476033439907781,-0.09715123712954664,0.4472904845095995,-0.6898105061343777,0.39961061949039633,-3.961428786000976,9.378183806482324,0.6840597605673207,0.024802370666049112,-0.05484040291540379,-0.26183080680115556,0.4021015557232995,-0.5279770128743848
-0.546850482606982,-4.219836565174464,9.321259427407817,0.7850939495997814,0.06925305283629912,0.01057446167276637,-0.41548726755007837,0.1906331194781714,-0.16606141859502113,-2.0289127584128344,9.407820755810173,4.419504575915035,0.8980789685520814,-0.6443047921312411,-0.23587871330653803,-0.13445768415858408,0.5541811850998336,0.1987532253249102,-0.13126897910657928,-4.7261198773612545,9.46340821875291,0.7143813084012101,-1.55099295509381,-0.3036852329211051,0.40410454835270704,0.16024728827913967,-0.29486444108070564,3.1638980922239623,-4.591040329344811,9.103470836938188,0.5036377105156816,0.0881673662629939,-0.5667579152466858,-0.11009286662360891,0.4339092725940864,-0.6875743246322299,0.226322605006676,-3.7691634529836207,9.795075144517808,0.7550495245120256,0.009287989249816546,-0.07108612140818624,-0.25874094621082544,0.3769454579055439,-0.5299476975563783
-0.6874120488279918,-4.010865585184097,9.924813196607682,0.8928301614737445,0.10949891083835138,-0.006875130033837197,-0.41422095535766423,0.1967260503388373,-0.16483231161900636,-2.2881108917199424,9.011563168169316,3.5838954194518235,0.9787723550950945,-0.585332798210205,-0.22237140575850503,-0.13420667358886693,0.5560385879525451,0.19262041933281907,-0.492971452877885,-4.072726017830481,8.9683093093649,0.8482907330554661,-1.5752874886005799,-0.30729610143914476,0.36979822343105867,0.1662257136263352,-0.30614583030093434,2.632558701473384,-4.157897614605013,9.003221830815217,0.6620157665587515,0.07675549662780579,-0.5793955484684425,-0.12413380674484906,0.44105273780492915,-0.6819794567791678,0.10865662304210406,-3.7613827500759722,9.989416289282822,0.8727908073313405,-0.05203331089490087,-0.09012604542651127,-0.26271338724691384,0.37524049664120074,-0.5342843277345108
-0.7865425393167927,-3.9569128120268844,9.654945963474244,0.9206502369488048,0.11975961355880019,-0.015627932056305364,-0.4129823400491698,0.18969663304064482,-0.1778224413552882,-2.086899026075051,9.19962553528225,3.135185287685688,1.0489521521499205,-0.49123410472198054,-0.2631205380088072,-0.1397676789309374,0.544178468332541,0.17889998055759554,0.26485184613347285,-3.7983450792143842,7.959852493384319,0.8957203881310923,-1.5098146046102252,-0.3380062950137975,0.33217586109140695,0.16241327743067216,-0.3231630985375803,2.102399020179331,-4.148649381514597,8.665885014708685,0.7386776039210713,-0.02428515697874765,-0.5476441685300252,-0.14570797722029974,0.43036249085572265,-0.6849714964615875,0.15162854364973866,-3.5538852865094874,9.725782910901469,0.8965285755173562,-0.10959332962407169,-0.10393863162332777,-0.26897780304564567,0.35791106298677594,-0.5427218167518364
-0.6357514668669928,-4.001773407051718,9.237027173068194,0.9035537430355686,0.11832782223550246,-0.05181498545225353,-0.4036853293038102,0.17602895726069762,-0.18876613117979046,-1.5820046176678402,10.333353792516537,3.0784965699665423,1.0746619380473343,-0.32218694724810937,-0.17953725586989291,-0.13881034371910397,0.5272960032388355,0.16157357390035695,1.8274736554885602,-2.3184309260341727,8.608867289587556,0.9367478684261411,-1.2906364202889973,-0.35112760623978756,0.303865887863281,0.1507767741975066,-0.3343900958800276,2.85114051438757,-2.8577175054756854,9.151732623946877,0.7863981247312604,-0.3425737123193946,-0.5924625916366921,-0.15993720541552559,0.4164827876220916,-0.6863730099700918,0.3094537887289408,-3.3400195659078014,9.609506012072805,0.8694973685677694,-0.09621112581519008,-0.12012773502858669,-0.2659115556461429,0.34105281300688306,-0.5476303247227461
-0.8343715430579517,-3.410862060368558,9.601836035734648,0.8254604440352057,0.15048470883938725,-0.07860747279823968,-0.4061352315301994,0.17684638518915838,-0.2058169593022866,-1.832845086842886,11.15161840364819,2.5441581646243794,0.8096136401531311,-0.08774264880863823,0.0694040387732616,-0.1419213188196237,0.5186432110239553,0.1360776040656938,2.39248416301847,-2.5775340545952052,8.432693132221392,0.6612133899138549,-0.8916688205253449,-0.44011488948179056,0.2709754932850276,0.15890949723742942,-0.3501040460658565,2.9147248616136157,-3.3206528244493634,9.330217541059156,0.5163852492806694,-0.7703134657083093,-0.6077332780552621,-0.19152414327828257,0.41875214692110435,-0.6916779219228308,0.11696976719164456,-3.20496929981267,9.875891282216376,0.7939110845103472,-0.09222751273598846,-0.16384796148300834,-0.27490959153990335,0.33641960459910325,-0.5614136969844489
-0.8917307320021144,-3.029081333581786,10.446406659217866,0.5873201513359412,0.11456541183023135,-0.06782349577319559,-0.38902860184610416,0.17211878559193855,-0.2034083514264389,-2.2056430189996608,11.052106420850063,3.2458819205171228,0.5700231490685986,0.043547523066400126,0.2081546312761246,-0.1280448540265124,0.4987633948517382,0.12510775649134712,2.3625638783493392,-3.3851292536147564,8.244689843080245,0.4305628741617642,-0.4537782257425629,-0.5008790565301093,0.26158462447011055,0.1614726361196645,-0.34193305634787297,3.124046213734154,-3.2317987788341775,8.327592214099356,0.27969495448146237,-1.2647613326599014,-0.6072207042706648,-0.21460648956594947,0.4167034639326682,-0.6712356048606893,0.27365494186227346,-2.983746827397432,10.003556140039207,0.5817599348900517,-0.08808987479687899,-0.15109400185974645,-0.2689551378082423,0.32445267531840716,-0.552940482756759
-0.43006760475012723,-3.0346462269167853,10.11450091183303,0.4412629192734908,0.018776318990994724,-0.05700781667793591,-0.38240504909606265,0.16506059646858898,-0.21550302712554084,-1.7629397773488382,10.795230861843983,3.9348593905792204,0.4527827445034226,0.016515990054106318,0.25119526749817755,-0.1239370762265916,0.4622169502280485,0.1019693183868843,2.9593479561458116,-3.802166337267081,10.023240345215445,0.3383890529071111,-0.20771891499348238,-0.44480424019512094,0.23967832211626014,0.1598043866362947,-0.35357411952281215,5.405494575413971,-2.562352637066005,8.316604350968252,0.21935066529290384,-1.4241009163786431,-0.5207891266981954,-0.24827536536176004,0.4094897754079109,-0.6684092734020551,0.7606643590050273,-2.8370055928374804,9.780798566820929,0.45248750969393026,-0.07440112998744501,-0.1447770919778978,-0.2681600063623604,0.31198806285839825,-0.5636826976682918
-0.7157212327935372,-2.8055948652712,10.033968902023636,0.494437514227355,-0.04596703331377572,-0.06635891943819147,-0.3737284312084469,0.159919529372979,-0.2215152032832015,-1.9565405540111935,10.291367606874458,3.398571998373092,0.4903310940309201,-0.049094103789888585,0.3244075710853689,-0.1154369612444051,0.4237844757183866,0.08690372651819891,2.079992252825537,-3.3753203110413397,11.520658046402191,0.3874040622950339,-0.27839071093479184,-0.3234087200177612,0.21675722724620033,0.15728470688148877,-0.350299161524465,6.356443408993624,-3.0206779147789455,8.26412024616639,0.21848417199593811,-1.2304421596595974,-0.4426336873583791,-0.2753947388049719,0.40596048733015344,-0.6549693370289984,0.5308467478214904,-2.6425716720742454,9.824942121203518,0.48533066376593664,-0.03807791070951296,-0.1439020274718662,-0.2690919653119847,0.3054026966865751,-0.5595108636712083
-0.8973066986293902,-2.8962748277001222,10.279775998375765,0.37789524177337586,-0.15829543950535507,-0.05356137906036674,-0.36405366150531004,0.16650147856933448,-0.2296888231647387,-2.052224494948777,9.948649754685334,2.9309336438323985,0.42738146154706624,-0.043363811621897994,0.26687901897585375,-0.10543782954310077,0.38984098428212827,0.06321922805746247,1.5321380841232717,-3.7873003326657733,11.174412965022135,0.41879763310019075,-0.5289214046419213,-0.313355625333733,0.19447675783776008,0.16638778663266665,-0.3586010784707645,6.454047092067009,-4.565151192885347,7.211289530799112,0.276107011188727,-0.7046066834372551,-0.5197826225317465,-0.2911450507007511,0.40993704024770794,-0.6488436060457143,0.3720521653350076,-2.9021634219351804,9.836584910134055,0.3640990561578951,0.03542534895201148,-0.11560306828781927,-0.26431862525612826,0.30513970989414413,-0.5671488639761417
-0.8219156920600168,-3.0953631626595617,10.155735721394718,0.5778185653816297,-0.25827133285103565,-0.045467398756305906,-0.36078959541212524,0.15699743014157672,-0.23710448746553853,-2.015590127361972,10.370782070255693,3.3865906511215687,0.6866096606093982,-0.05027794899003464,0.23422657900034,-0.10456857886453824,0.34684603399446473,0.04678045821239315,2.506050305671502,-4.003409597035033,11.183783289764005,0.706375598617403,-0.7190469094896109,-0.319966662876533,0.1618944578483017,0.16336141881717758,-0.3649525269073269,6.794421880644507,-3.8278611593857876,7.638410171241647,0.5955177811052603,-0.20749108967301186,-0.5746289825180882,-0.31255910771079,0.39708575146589575,-0.6425505848303303,0.248801792513432,-2.9087970286268137,9.897537762303608,0.5588286323332656,0.0711264731834635,-0.12199492350919348,-0.26727485326843464,0.2931832915608671,-0.5670936772120391
-0.759308702081358,-2.9242109279255746,9.91063415375107,0.7963165264905963,-0.27772156583818147,-0.03780179858604761,-0.3497285027512253,0.1491722319375502,-0.246094531526314,-1.8238490504726996,11.061191339849511,3.2202725222772663,0.8331530632235781,-0.09904991199742465,0.3687485092260996,-0.09571899112907041,0.29879408523086476,0.02575583916869551,3.1133191140957703,-3.34571017581634,11.110974850936028,0.803333909800612,-0.7417594833071652,-0.2527891538048049,0.1331973905103865,0.15713801725317725,-0.3713339161899486,6.520843303277177,-2.031609534076655,9.242464452435074,0.6596886785705377,-0.026819135010654298,-0.4954108512286929,-0.3224242038642293,0.3866022287292104,-0.6462415248071924,0.14670412649301195,-2.7528011977592954,9.921072623236608,0.7852269474959481,0.033006178829204744,-0.13652121576989418,-0.25984506593735723,0.2765568769515954,-0.5742632770931732
-0.7763087458898337,-2.0185584197054585,9.974208676471441,0.6629550113937287,-0.2801116099441942,-0.03615182336221408,-0.3392621751858929,0.15067125421111485,-0.2650457349054803,-1.7239417917154674,10.70275119948354,2.95219288688316,0.6286216846194967,-0.0983294578292271,0.510690038744791,-0.0865827427581685,0.2548408050346517,0.0014944747450202451,2.8382265272041605,-2.8286091485075033,10.230866739336424,0.586186096490724,-0.7097397641131845,-0.2047958327958086,0.10761580700027992,0.16497270721052468,-0.3881252163893877,5.909801549923677,-2.1068481759528566,8.476127890381365,0.449245137255758,0.00965195326583184,-0.3589033523474102,-0.33082313311344674,0.3895326129925539,-0.6522069657410874,0.13859584268098565,-1.752428914350322,9.994956710892474,0.6765063570192215,0.005482077502549884,-0.12213736445837398,-0.25442306414093496,0.2750652657941421,-0.587523855198013
-0.6047134721434061,-2.0499034436662247,9.88873084538181,0.29994988270881284,-0.28487604758157786,-0.0601902985311423,-0.3291329997067785,0.1357490131732122,-0.2689255481123294,-1.4899249968911707,10.639813683553093,2.4872437826204807,0.2887544553200594,-0.048291157514564545,0.6081032686211442,-0.07862199514083719,0.1932267789215763,-0.012971893372459242,2.9782839876530005,-2.5836017134227895,9.963779224237285,0.23809758332308165,-0.6621921703911312,-0.23721287852768724,0.08092931542626679,0.15803875925445088,-0.3901339369305746,5.6845918496753125,-2.2839819409381925,8.572947630213497,0.15974665716666367,0.04564812103888907,-0.22674477021685716,-0.3393562891580149,0.37833799945224067,-0.649569868548702,0.2597012028151293,-1.7255458417499236,10.207456326587048,0.3118817790403756,0.01639773832548375,-0.10230813901845408,-0.24759637440348709,0.25381292695291996,-0.5849138509822108
-0.31855751610423977,-2.2251476719728163,9.988508188714542,0.24308708869042112,-0.26009918414807837,-0.06471014065445503,-0.3207006682649303,0.13982771511699474,-0.26146473703654133,-1.3055142302931275,10.165219566616601,2.111953753217894,0.31307456750789986,-0.016333384583136705,0.704315059371728,-0.07764909700837366,0.15509978009935127,-0.01434639693153126,3.1616733581194634,-2.201587419315325,9.359631580674481,0.2501962899702694,-0.5788145493619403,-0.2131519416802176,0.050325759945411025,0.16877665285114174,-0.3834368056763488,5.277005884835201,-2.470056298270657,8.787592693724552,0.23062555983248295,-0.014077211402477375,-0.2436983188618333,-0.3495614912623263,0.3840441967995066,-0.6340262347443365,0.4937632710393054,-2.0544244227249933,10.31626922417022,0.23316882958421722,0.04593975611313138,-0.09928594760383912,-0.24353470193173096,0.2594298702870355,-0.5749670964706372
-0.43533700984249746,-1.8578211514908307,10.78738804402436,0.3970576225205882,-0.31397568387070857,-0.04974665096485382,-0.3241071988818582,0.13453270558036182,-0.27535485568840673,-1.410507720014139,9.779188915727518,1.3013069622908253,0.5107753484351135,0.031416621134469816,0.653268267428077,-0.08641729604879753,0.10272903025813797,-0.029148677960364806,2.399481369075091,-1.9005722967429657,8.853637687718912,0.5721404280728801,-0.5322063965736883,-0.18212212683974333,0.01603513575812853,0.16430170886850326,-0.3890195737351888,4.614642698053519,-2.1913099110583345,8.650439033089873,0.5062171481924082,-0.13134286113788884,-0.32479640956306555,-0.37447037396032273,0.37631031051174196,-0.6328185064531318,0.42520031473169817,-1.942195389910359,10.499634177566046,0.3843191939755485,0.10422941515154793,-0.09494850808807387,-0.24925108689083883,0.24820671386336535,-0.5802446403017308
-0.20263112579045126,-2.154788269314704,10.7079856247606,0.7045431881511545,-0.39390470001695754,-0.015290493594313698,-0.3141224336622991,0.13187549052002606,-0.29260799695698175,-1.1937570050095312,9.259343976160451,1.5620558967594127,0.7901797056503169,0.05898316969013485,0.4504501698408863,-0.08380516809043255,0.06308383330569922,-0.04857401512941978,2.311096348391702,-1.6609327587928955,9.002856464660267,0.8607473798633622,-0.5999242040423944,-0.14039373316304496,-0.007348805962962226,0.16506907531638196,-0.4026120863549843,4.827277778957874,-1.2314510327836272,8.50767048187491,0.7825351161173281,-0.15848291141459278,-0.3568273469645988,-0.3829434107432224,0.36922136036027553,-0.6411862194277534,0.5266611749115888,-2.2513784516368873,10.770635470972492,0.7034952339450897,0.17842037928496904,-0.07698755387302089,-0.23918039951517683,0.24182331794779485,-0.5921025529918615
-0.3374676704734775,-1.5572459721132408,10.431532965807678,0.8604542492958699,-0.40619159673113947,0.006408373170193354,-0.30600807917615924,0.1169804631686918,-0.3006080607364942,-1.1137139395153004,9.295289484603678,1.331311852446143,0.8298543398823808,0.13419422739453915,0.26898368667516037,-0.08365234814815976,0.019950129332822128,-0.05865979926578969,2.0712959774764816,-1.1060928726559944,8.901134090958541,0.8077692454548714,-0.7271800120643146,-0.11429132052964874,-0.030130298427504143,0.15446060325989763,-0.4031830852295989,4.503927433370153,-1.424129475370026,8.005731171450053,0.702097536225102,-0.10135657675271971,-0.3312546916824147,-0.3936890141255178,0.3511984068831606,-0.6382391359691192,0.09839593258969946,-1.4660796806157514,10.825542819448518,0.8768920885705856,0.2399759469049009,-0.06060155787116946,-0.23125830724906718,0.22129187040295611,-0.5982979472360385
-0.12095475591781132,-1.1892202130046488,10.085482579625035,0.5102267332290397,-0.3473790239029319,-0.0012375587537026868,-0.2974597894026499,0.11334424288883832,-0.3156467727167303,-0.8852245590679865,8.992499971702344,1.1490613307575228,0.396225596595757,0.2961742724513578,0.09799042217607438,-0.08143687821720129,-0.013744322730050614,-0.07255806689768504,2.024381261728381,-1.5963140899643555,8.56272433222221,0.15557259744279708,-0.8594775755446891,-0.28048297660771604,-0.059009908617374984,0.16043643141850938,-0.41063383566830314,4.400525664545373,-2.3792288314774184,7.174984325176682,0.07959949644645681,0.06991737288067251,-0.2917981547370297,-0.39760095994211264,0.35340433723659986,-0.6389099714212246,0.029522032133657006,-0.7419833872588887,10.80762022675596,0.5420971028940073,0.2476879793523495,-0.0511860012041784,-0.22110896880960365,0.2124727364830658,-0.6042947815796124
0.2377463820651715,-1.3508746515761556,9.966245423881348,0.007652658741123585,-0.18588959142525854,-0.026351164242635478,-0.28765208831726213,0.11409098331156141,-0.32946382327612095,-0.7767534954945193,9.520532362814286,2.3294626869029,0.05250576678956676,0.34350374624680535,0.07658994418492532,-0.08285286269710436,-0.04541693453841258,-0.08501233769887948,3.8936617330671797,-2.1379172912410844,8.681330931179428,-0.0504988333580864,-0.9122159231637325,-0.32221370514304853,-0.07879391667744204,0.1622563579818243,-0.41183299136434226,5.381392350656422,-1.4864939738009093,8.069455387892985,-0.07314838527851356,0.14497624895665143,-0.3041596899469178,-0.4032666500966811,0.3551179747037958,-0.6419900012430685,0.03509481373779483,-0.6886822154114487,11.207249734032237,0.010809235984855616,0.1882391683197695,-0.05223645012541708,-0.2121966519181436,0.21171169731159972,-0.6127237203031818
0.05379910578086855,-1.1185282204384888,10.386494891304183,0.030862942105703034,0.06714038401437661,-0.036505611404030275,-0.27852419116464444,0.11604802772049025,-0.34009097777545483,-1.1193669132881658,10.107329536404848,2.10900991491787,0.0468295589878327,0.25778537021520137,0.20846490284461958,-0.08941159582409797,-0.07983783035002714,-0.08983967488358596,4.210380937920181,-2.612101531327584,8.535023563747464,-0.03767525401076395,-0.8325249172494171,-0.22586660047929907,-0.10777573093651853,0.1649059802369483,-0.4077806620147532,5.337715626154072,-2.1863590994133966,7.51817963458874,-0.06585690555062673,0.11638312112218695,-0.22451279945507382,-0.4146620161193843,0.3534616049336564,-0.6371403930740315,-0.2130420110872978,-1.1189719592051603,11.612133379856152,0.02503566277246108,0.0589484128916236,-0.049327258712625326,-0.2063088964369794,0.21072495890496212,-0.6106089286560243
-0.08895774210675259,-2.1125879883321237,10.486223036671694,0.2789505882428691,0.2102124743961793,-0.011757049467999157,-0.2576755215781417,0.10914993833267812,-0.34800216449241406,-1.1781402273670372,9.25043704669407,1.8275649321264709,0.3492317978450533,0.160213912829678,0.21766549324988596,-0.0800645717114605,-0.11244610174358595,-0.09058985750254558,3.9363199361247148,-2.6650543001062994,6.915151709370232,0.3979696207029555,-0.6573806549654115,-0.15801429827326427,-0.11579673948018855,0.16108268304556145,-0.40348643268590895,4.222551348887016,-1.900591877357303,8.845050539560578,0.3958313872924209,-0.14243321773617365,-0.21548106243351703,-0.4124099920217292,0.34566008496413625,-0.6327556396455297,0.09787948387287379,-2.5812744123910756,11.30718656312873,0.23304326031945902,0.020646054337701607,0.0072198802595006845,-0.19042954377584623,0.2019018831436642,-0.6086301504537589
-0.17251114061755468,-1.553026117918038,10.248827577090038,0.7760685402290214,0.14638360306769524,0.053540109214637255,-0.26180944846891996,0.10483524324470735,-0.36187707648346973,-0.9858554903910005,9.412048799990872,1.9421343822097752,0.7213312579289061,0.05910768278621587,0.04932998631001355,-0.09819597817354997,-0.13593878703991502,-0.09310862352465707,3.77139934313905,-2.1242005442475995,6.998320559240805,0.7355258144427499,-0.5283025760150777,-0.05132342370850234,-0.14954356470468214,0.15712244475578074,-0.4054184683883841,4.2309755512935885,-1.3745834491785158,8.628292744453471,0.6915005894702032,-0.5906803726202973,-0.1601418141476742,-0.44381369150106875,0.33918593918937323,-0.6263089974576583,0.1108941593804757,-1.7088951013688025,9.882382063468606,0.7954163858519885,0.1774979522031419,0.0034888282921060557,-0.19927105353984131,0.1936189355784751,-0.6109356843887743
-0.21089106530505378,-1.5679205333758142,10.118445926869798,0.6627798469515692,-0.007334249557998254,0.05496491819584199,-0.24156469623426238,0.0989509207424035,-0.37783273518645677,-0.7338127901285925,9.966533420099447,2.1132730882627353,0.5697738197961627,0.03162253446377234,-0.1219515758568845,-0.09052444595427998,-0.1644717968454356,-0.10026481698534338,4.159518776481947,-1.9150233693305039,7.834157677687511,0.5388769253644029,-0.46347891117854767,0.002212574418114963,-0.15454508682637208,0.15514035838441867,-0.41290102357245767,5.08503710093735,-1.2933100162118532,8.012551010414834,0.5167149719901991,-0.8592580910499722,-0.08424035783592804,-0.4493999785565796,0.3309133349305854,-0.62324774237013,0.2367402565846991,-1.1448613502498424,9.911651278407517,0.6950913819162045,0.3329817017493664,-0.00039703767725953604,-0.17749072462580004,0.18354737310456792,-0.6229576930283637
-0.2543087432195432,-1.3577252212091522,9.786027603378638,0.474477141065291,-0.11402607406517705,0.010710528128469147,-0.2498295309001434,0.09098243158896785,-0.38922069806649945,-0.8170016632196698,10.401523046687041,2.00412259907912,0.4281157694563636,0.04106077825269431,-0.18063477526785582,-0.10726271850099639,-0.1942825794289206,-0.09951691397557082,4.854528976724495,-2.084318352608708,8.777013236146836,0.4901441321344162,-0.42725138947589464,0.04644729747915791,-0.19075593188012152,0.14582926647609012,-0.41402402044155834,6.232487112275578,-1.9173564748320184,6.732813924459858,0.5096046282227167,-0.8368588574828166,-0.03814351891922757,-0.4809278403478938,0.3251984445924624,-0.6102097254468777,-0.08826690569236229,-0.5564652821729604,10.29759148717343,0.4892214586344959,0.5229994356392929,-0.018149790233425986,-0.18145458080408552,0.17037005608857142,-0.6248399455241244
-0.07940086568966712,-0.9328135985002759,9.818888547840162,0.23813732419350495,-0.08534669813070371,-0.03159473337668883,-0.23917639428828735,0.09413761011413745,-0.3962019296056651,-0.7251783936015495,10.610275166303564,1.525395390346165,0.16991219705299426,0.0645141012916958,-0.05686860994563922,-0.10408952488514135,-0.21268858597666562,-0.10290790693349104,5.007980421254499,-1.951594835716258,9.621105582038181,0.15384501125691097,-0.37079275686881524,0.015077377059176555,-0.1962975246320838,0.15442013078307731,-0.4125477835939174,7.007256522273423,-2.3791003068388523,6.076938863857432,0.13768420174190785,-0.6009222232107055,-0.024679061311087647,-0.489806956678454,0.32964992224140593,-0.6022541655087379,-0.2409298656522972,-0.29419496959918473,10.429353640190618,0.25042607068991135,0.6309490728754578,-0.05853384547773953,-0.1590449286880535,0.17666317179948937,-0.6295636979189287
0.08577422048971284,-1.2914518766743683,10.016317437372463,0.15366064252933476,-0.06113572061237293,-0.061553220181221065,-0.22895823533401274,0.09214448824101132,-0.398072759844902,-0.7509156096433448,9.261449113926139,1.3235400694122184,0.16161030101788557,0.07214646049006833,-0.028752258096772627,-0.10389202331225675,-0.23722235269454736,-0.09423324793378011,4.431251862618789,-2.428093665316831,8.893236212996413,0.17998721760951952,-0.45668193583657685,-0.04560542729478723,-0.2098374994786623,0.15044131895027968,-0.40133723420714734,6.567945905822794,-2.793322205003063,6.222472260584809,0.19165591244580976,-0.15855783561372305,-0.07326477472193352,-0.49665870769955783,0.3272813879330096,-0.5889374810799939,-0.3528418521839494,-0.7284799434296869,10.00742133721705,0.16151626082007567,0.6508305794870439,-0.09107571292205087,-0.14334107158331433,0.17028732528328247,-0.6231895590566426
0.3558977381146331,-0.8097298240308913,10.042915502469281,0.4898777527997836,-0.028309077220812075,-0.11641987452638969,-0.22606035173294614,0.08072200020540708,-0.41306133678573087,-0.5661421177139416,10.087635789861375,1.712904530037862,0.5023243890037224,0.016364231669598016,-0.06180160253505239,-0.10673561335894179,-0.26868255627197524,-0.09398903590870257,5.529131416205199,-1.74862676595912,8.464783317514161,0.5949770207485547,-0.5307613895718375,0.020999633638374635,-0.2314331707752907,0.14369849489339212,-0.40610594325529004,6.934043366557665,-0.6698007450224372,6.625289726350919,0.6056425515792535,0.07374651866454515,-0.0665042029005027,-0.5036287221654903,0.312145351315032,-0.5938812816265309,-0.4440965774122637,-0.14284705402094816,10.082613325528817,0.5049810143835562,0.5390653190452962,-0.11747934916719437,-0.13640720829450398,0.15683595031438555,-0.6313325332883484
0.30501144025217974,-1.19561436619564,9.507838120423322,0.5701768056003196,0.09992663336293853,-0.17237345496962217,-0.2148764319184302,0.07415437934613302,-0.43059370510353967,-0.3920240231759472,10.643186472731035,1.6572043581843128,0.5686453069573183,-0.04642438327764706,0.12635107168404824,-0.10138671078128697,-0.2888216465266944,-0.0971159505105152,6.642605818420075,-2.0109611650392525,8.301266709035117,0.7552586008061584,-0.39573359839089595,0.13297405419072253,-0.2379257181028616,0.14195412656762202,-0.4155234948130625,7.445559060175905,-1.2155137417451192,6.422358974730567,0.7492669200857838,0.14245012287950182,0.01560099326255965,-0.5021148670837232,0.3099025577042239,-0.6044003687357207,-0.6034155684601274,-0.37068146425823584,10.538188691620222,0.5887481930105902,0.4508377989944172,-0.17244679138109353,-0.1163264791809647,0.150918193736056,-0.6433335872149121
-0.2955086774326295,-0.31685742891066926,9.867379022256982,0.3932988083600705,0.21101567355800363,-0.22221308244433016,-0.21261549410301422,0.07321800870975848,-0.442352078342477,-0.9003988976365288,10.89604771221244,1.346097474520329,0.37909660919137905,-0.0373097879621449,0.3510845785815986,-0.11238359011418864,-0.308244672360874,-0.09898465230117003,5.408335674770786,-0.776262491444523,7.839719208734899,0.53241332850738,-0.13533606696129682,0.1668276671213143,-0.25904622911979847,0.14104014271352472,-0.4237631682227249,5.912154249433095,-0.2790717459208125,7.414158599016338,0.5005400471144801,0.05586767198340146,0.07621971363623081,-0.5126184538430415,0.31188439181717964,-0.6049526691414772,-0.9941549761633217,0.2748431023382653,10.144201341887827,0.4289574529652028,0.4430709067143281,-0.2163992883073996,-0.1147060739140197,0.14895512659564877,-0.6492153509107018
-0.2743632009860175,-0.2790315761123024,10.247601992783384,-0.2325161758647348,0.15039092299208687,-0.2021916401754235,-0.2033206336011666,0.07390442218969225,-0.4415109441167092,-0.7905287238799775,10.172648096522401,0.6318061784035344,-0.23972619262107314,0.00549989431540006,0.3247700006772848,-0.11191401647373042,-0.3299005410928372,-0.09352807424709922,4.5339150873139396,-1.1286948845293021,7.236554462737457,-0.193091940053558,0.05881880046139349,0.1031652754885865,-0.2616325464717304,0.14378867051142732,-0.41788734066405264,5.258931322081736,-2.2308643535988457,6.703154209724751,-0.1889535507961473,-0.15289737313574353,0.11414666139978424,-0.5151295170232127,0.3146143960930817,-0.595639872120241,-0.8856539174652253,-0.18324951293683717,9.521587077678591,-0.20127368115008284,0.4753009239911524,-0.24558482717678545,-0.0977769503775112,0.1508764842298313,-0.6438447540046586
0.16640489157111915,-0.6836100657971712,10.250331139876165,-0.3470562536157695,0.04268903593014677,-0.17551193202327103,-0.19795848787065884,0.08635010763017575,-0.4459317329695424,-0.2771631865386743,10.382269813646795,0.21510276386257304,-0.296666948838961,0.05825555602890088,0.24897636906812035,-0.11478358859388982,-0.343133170614243,-0.0989334768959702,5.4356857780215275,-2.0126782450816756,8.283211143314377,-0.3161271513044397,0.1693174790499945,-0.07709605194362773,-0.2682147486198452,0.1538102492258123,-0.42153526924788487,6.810477886437396,-3.9800106286166566,5.154865667295575,-0.2908125697174096,-0.010353279208397518,-0.034857304083789016,-0.5218549943565756,0.32514992926019015,-0.5911648949668712,-0.6447960956040616,-0.6048456071760792,9.652088687731924,-0.3251439518136319,0.4722843819527267,-0.235859244424605,-0.08966939066188043,0.1618475410530901,-0.6420186081620963
-0.065267861797068,-1.1636399454666568,9.933126213463755,0.07488798019479385,-0.015150965940282594,-0.18993686147354488,-0.18728712702213332,0.07783606143085782,-0.4644411466813928,-0.44790224160636766,10.079600220531637,0.46212811943178855,0.15794278201012868,0.08805056441658375,0.2829295342887024,-0.11414706680002264,-0.3674709954247282,-0.1090633635439077,5.360304703440925,-1.8186103161972136,8.98527312052406,0.15162788614211772,0.23585052639823417,-0.1937989114926831,-0.2715885385690746,0.1490952707966596,-0.43365903181530185,6.812998229522185,-2.7058539163369284,6.528093777375343,0.1282581805476759,0.27548687980977465,-0.21016018943005013,-0.5197096923061466,0.313610961241947,-0.6058099351916841,-0.9956488695703128,-0.894337229060225,9.821254452959623,0.09075760082644371,0.4877867682269846,-0.21229292817920697,-0.07372505114189112,0.1539873630433611,-0.6527381047886494
-0.11294605713056674,-1.0956520899038555,9.725503066556403,0.5195367045260413,-0.04960085688278375,-0.230261224005942,-0.19525622945094565,0.07473974212182971,-0.4738587866307452,-0.4117087843294222,9.916060116628708,1.059666291279212,0.5296144867528788,0.10346229080090905,0.3067903198891919,-0.1246432957286087,-0.38637786076265207,-0.108744143600413,4.916514078867325,-1.3679253899217516,9.035843792673589,0.4887627040597741,0.22109360800092365,-0.20604005903054765,-0.2888198743045231,0.14376905687325708,-0.4411870610404317,6.382132535318494,-1.1858026044817365,7.803630272763726,0.4074923850406729,0.43266462453465987,-0.2658330016309971,-0.5303540072217771,0.3092193953178926,-0.6131721748449125,-1.1680708222245544,-0.6145833300804315,9.819951680338653,0.5577731247801244,0.5363624868278078,-0.2127258123239997,-0.07119024745344579,0.14640348420046664,-0.6620453430985531
0.09180781992643755,-0.0993586394364254,9.736448114195737,0.3768855721881389,-0.020275640575775303,-0.2393586439292744,-0.18613266901498948,0.061297691713745286,-0.48015832215314463,-0.28480314561382297,10.491555724092507,1.2185863970118045,0.36628771746841865,0.09270527723877181,0.3834450749101602,-0.12468468430080759,-0.40951453180317277,-0.10472865407249435,5.237480436576994,-1.6205814968680676,9.102736447990301,0.3051829984183737,0.19890882815869854,-0.2120207069861438,-0.2894438349830892,0.1334783343048995,-0.44622506343152857,6.609670639239198,-1.6919759356995574,6.766755706876884,0.2395541756512484,0.608057740749999,-0.25597832044151303,-0.5216713744076709,0.29428680319072203,-0.6166878929477997,-1.4599737160545634,-0.015678680269022204,9.728362242077795,0.4246106898306827,0.5045038101286387,-0.22542843324700282,-0.05408733929398245,0.13562520897725824,-0.6595929849065806
0.16498947116307058,-0.029248246798909215,10.140762354958405,-0.013456701989330917,0.06465595549870365,-0.17546970279543986,-0.17282056521316042,0.06420318899979859,-0.4888906315779225,-0.2903756546006735,10.416112726561199,1.2347963771808965,0.023245790427255084,-0.0061179000873861225,0.47886483900045623,-0.12194671596917248,-0.4239941757254498,-0.10720214417739207,5.2457606796647696,-1.6205704864448287,8.206101401867757,-0.0038503819398273166,0.2663086853476359,-0.2198967657273096,-0.2912539037942447,0.1361085954897365,-0.4545221643709183,5.989716438494105,-0.891675527403553,7.719877943646524,-0.01185962799278318,0.7025740297543843,-0.19570811694857795,-0.5142765450601693,0.2976421968120723,-0.627088606075616,-1.5589020495089836,-0.5195841561418083,9.909018340135269,0.017707059473364792,0.3319012269463643,-0.19783785565534392,-0.04117587045220291,0.14072042070772428,-0.6624699824334266
0.17017352327912438,-0.4259394857893977,9.898966433204441,-0.08426633546797731,0.09318391264660922,-0.10026773134796366,-0.1668653594485147,0.07033099631415324,-0.5006730713854867,-0.11612190835891693,9.873196902571367,1.3595035298031681,-0.03177553603778638,-0.16683947443895164,0.5030566179342497,-0.1313894878696917,-0.4354523215278972,-0.11383646430869578,5.157192431550331,-1.949372013250034,7.428318414045637,0.01798114490107182,0.39494659293029005,-0.13497818892251595,-0.2959896614226647,0.13754282027373294,-0.4620353189649509,5.552199947261147,-1.1595729740612064,7.6876329369864,0.017054821133987645,0.5214381380667571,-0.12424970344657295,-0.5151460088977249,0.30005417850079347,-0.635139772635094,-1.4557846370491347,-0.793502169985709,9.422922847784847,-0.07585684108781553,0.1862672424278254,-0.13424730397483453,-0.03562476104419354,0.14216792240078527,-0.6671896664470969
0.3298373520868302,-1.160842491566674,9.407299128890854,0.18785796730552629,0.09979221073957435,-0.07897339434609729,-0.16908292556492036,0.06741321615233688,-0.5011408453123791,0.2785341579189012,9.841071032701308,1.6444293875507765,0.24501923834913006,-0.32063756072495403,0.5491214013578087,-0.14328184171435915,-0.4501093238291824,-0.10820632491669609,5.617494936949193,-2.2976133487319648,7.7675174034475685,0.3672158342345904,0.5487335994224025,-0.048470472767737804,-0.2988176431756889,0.1379679061453918,-0.4722539320903353,6.104045771791133,-1.223975557143524,7.210289438619506,0.3615935849915541,0.379467124043215,-0.08786407884526543,-0.5176837366456695,0.2922335646426049,-0.6392158691450437,-1.2143925462936342,-1.1045715588062253,9.481162323825748,0.18155120506472391,0.09498466646876447,-0.08267794726747962,-0.03466558868813334,0.14094470300861972,-0.6681792257985256
0.047722699112751135,-1.1209632096127138,9.263003434976754,0.5088493399730072,0.13530839212967424,-0.11615133687270823,-0.16680358595868686,0.05938190079954435,-0.5095123992698862,0.3267535064175395,9.919290410869182,1.7014317047176972,0.4675895016379402,-0.40506133610008116,0.6796464411852678,-0.16079037795227144,-0.46424844479182326,-0.10525292108221607,4.65640263992665,-1.091387969346177,9.01546451156215,0.5821311522144361,0.667336284076461,0.08857619655140983,-0.30347411676249386,0.12763043510247174,-0.4862686136126595,5.808605784790375,0.27516851883335236,8.421500108878991,0.5312080139176112,0.3109229193586667,0.0055747137317487,-0.5249425211602594,0.2858720294570076,-0.6480961568911223,-1.255432219081131,-0.7620171494735479,9.33592847019225,0.5380106472783314,0.07245085679591824,-0.053596549615513814,-0.03693923463483792,0.13313220444334103,-0.6722886878407585
0.12295081060058814,-0.7993114901410945,9.394217182358362,0.3471007687915707,0.06595559999396934,-0.09089955987097026,-0.16492342256105366,0.05157193707750284,-0.5120162934886177,0.6258258034313297,9.432083145355607,1.189386970673218,0.30809968962493905,-0.43252798354966115,0.6777233117205578,-0.1702026399154588,-0.47714242818931324,-0.09404127843354103,3.943648684475375,-0.690463306675232,9.717764090972356,0.45162263820672505,0.5118684446227331,0.1900804963474726,-0.3052373464726973,0.12152773902822137,-0.4874168555794876,5.926754540152456,0.4884094919883596,8.175690491218704,0.44719488713862326,0.4681583308531136,0.1346337123602429,-0.52252280199158,0.27878474560480365,-0.64811189674541,-0.9619270370370472,-1.1205952795195702,8.675626536002317,0.37577530865395653,0.13069841127482157,-0.050414561768018055,-0.03198169861794142,0.12116589144657298,-0.6652663201556716
0.5353966082326868,-0.8082555175536864,9.70448159370015,0.20782816233011137,-0.10181320789310402,-0.04351161415075819,-0.16112571860413039,0.05965408682331452,-0.5218046004996306,1.3441228563753786,10.287924940619279,0.9918841916706239,0.22251982810682897,-0.46061115183337376,0.6019017107635101,-0.179771482457764,-0.47954760462348095,-0.09959217491258784,4.953540596114839,-0.8670134943024036,9.297177572008659,0.4117758286493615,0.30365197394315907,0.27704568100685967,-0.30640283635900767,0.13359446660519447,-0.5060515547428234,6.386925646171914,-0.1922589468487411,6.856903719898224,0.4318414725009087,0.8491940686575935,0.2234847662862262,-0.5101189191826165,0.28966231317693897,-0.6664444683864846,-0.6293095976783585,-0.6373971583843601,8.937092215218295,0.2129424025051354,0.18088186291994018,-0.03304692280610836,-0.025234695832853815,0.13188424792292852,-0.6731883916564716
0.020144826181846834,-1.393557362413652,9.521920080135667,0.21101218161981802,-0.2140009570650704,-0.053687665196754795,-0.1595634817899325,0.047710486532204,-0.5279854333094184,1.0851540701599829,9.891596402650295,0.5410098545128176,0.25441622670933733,-0.40498838566171186,0.6355187690911289,-0.18685846870163603,-0.5003662272416383,-0.09363812458848732,4.48953774702519,-0.3632789824493372,7.261696268122315,0.44580008687193806,0.42149735751347933,0.2973818000704257,-0.3058292188754498,0.11817326246001386,-0.510578164588527,4.462455057205456,-0.441106207445593,8.377092952511894,0.46665349298161857,0.8419551673471845,0.24025827751282366,-0.5035482686518554,0.2742145851740642,-0.6787109562763332,-1.2784706795903549,-1.0182498506301367,9.0848735798249,0.21642022936693767,0.23218254365547064,-0.037378036564773814,-0.01725571033245633,0.12234110978399276,-0.6771991061620972
-0.11828722328289246,-1.3538947333991564,9.592056828525156,0.34193392966649233,-0.32353055150473625,-0.08303153793512172,-0.16647810320310935,0.04874238813490997,-0.5334931448845437,1.1530458013901137,8.996061312441359,-0.15603070059932697,0.35941145673721114,-0.21328931968921933,0.5586964715814355,-0.19810863581688448,-0.5026107513089718,-0.09015244580378251,3.6056771505467715,0.04123970295608438,6.437103471177856,0.48781727643036693,0.6472827518071677,0.2298424367757167,-0.3040518013736133,0.12390390725388184,-0.5255433159499626,3.462241312947025,-1.1686502257560207,9.425590459449916,0.48368846874945365,0.3070202234451842,0.17321091601997257,-0.5036500814329246,0.279559988885164,-0.6853229452602149,-1.4089511044063154,-1.0518018022287277,9.047321711312504,0.35753095548101765,0.3110543774138349,-0.04228047107734329,-0.011946195293325093,0.12012794915830052,-0.6811793393329209
0.5173380318327457,-0.902896736389738,9.721223933310672,0.48336702339358256,-0.4256522912750586,-0.09218644749593322,-0.16896081688323486,0.047788305177154974,-0.5359015218260208,1.6212325869029311,8.15907892578192,-0.551035929039466,0.47135740102709806,-0.013251801084883677,0.3710412215172138,-0.20255129419373824,-0.5080454495678515,-0.08199853015659171,3.23333758956982,0.03430132915084683,7.722914879778444,0.5263696341653457,0.6710171151503573,0.09114764059443356,-0.3005152829164079,0.12089193125242849,-0.5331387623337187,4.427054449557902,-1.603452962888291,8.63887533802516,0.5224829174131954,-0.08078263881260368,0.023003463736327456,-0.5094905117515898,0.2722622743511776,-0.6829930520709763,-1.2782524897971814,-0.7946731303641679,9.103536711778755,0.5071708756737853,0.34090293036200686,-0.01826896132467812,-0.0014614695644319838,0.1161972503367974,-0.6815696240552978
1.049394282469652,-0.5739434665941267,9.539898384082292,0.5764983700207367,-0.4151574502803052,-0.07675095809948998,-0.17299077207252186,0.03195250249508157,-0.5393295731072557,1.7877362655372122,7.477556807888773,-0.3839268694026815,0.5959998897372758,0.14173304221442123,0.13324080165925162,-0.20940126068284348,-0.5293598224141908,-0.07628164295590574,3.029805392673191,0.700462282106833,9.03877540550152,0.6411133358026049,0.3238198054176904,0.0021230276271300697,-0.3002246387739324,0.10885748177540158,-0.5418385086384871,5.292225376201201,0.781647986204856,9.005088130936809,0.6457677064194485,0.06466632967357556,-0.07356836462986874,-0.5149626462111025,0.2568853812616466,-0.6860103325302889,-1.2980465312053562,-0.7123865962805473,9.560471185500354,0.5757092928849995,0.21552828295031962,0.023362760974269002,0.003381047829187975,0.10178186710953105,-0.682112774774285
1.639502811785868,-0.20120824595508138,9.259319894219981,0.5285743162624258,-0.2677503163361696,-0.017088377441709247,-0.16362983284979135,0.02046561851075994,-0.5466011464720152,2.005308640003919,8.13775913209895,0.2570212753932912,0.5297733709891195,0.18686458253246438,-0.004701784745458522,-0.19660986678346198,-0.5419145429904464,-0.0722212155937914,3.812868448387566,1.0855711359269071,8.990339358246882,0.5729266013170283,-0.07750863112122637,0.11846819101359019,-0.2944687810641581,0.09538235012538103,-0.543279417740216,5.374659962595894,3.1359684933448926,11.11244878934908,0.5763494604060532,0.09074677666667866,0.049292088678198016,-0.503567054760635,0.24975853110869728,-0.6893606763024169,-1.2671102186362133,-0.6794211640191874,10.085241425963215,0.5167931785583002,0.03915820009905643,0.08136240017730058,0.015713007237820074,0.08612284533462934,-0.6881326272805351
1.534571057131762,-0.003749968165402677,8.918385212108369,0.10046458765561686,0.00784826309542985,0.08945514220866117,-0.16479121742611816,0.023632182827214347,-0.5436404416073541,1.8458488145604677,8.78123814607336,0.49265936054521203,0.08270033195728589,0.1704051931235545,0.060321469119035964,-0.1990404384804762,-0.5420527356086869,-0.06732838277159757,4.142335031486792,0.6121995823867253,8.34193912737487,0.13716733263982264,-0.23143304735360518,0.2708937613698406,-0.3017112284524596,0.10642184743450066,-0.5422863774642837,5.020443294035106,2.019763262701516,10.186531583796091,0.16665974273353823,-0.22079516687232434,0.2557162782378417,-0.5129561978923716,0.25591479030716746,-0.6828678602005227,-1.3999794952572138,-0.141364120204589,10.465122849212241,0.07851603223314403,-0.15031825827775108,0.08856304376379126,0.013115729229291967,0.09126156315027101,-0.6827292864475296
1.3587280938656496,-0.22903969457980478,9.259816887450475,-0.300640847269272,0.23592067144918447,0.1367278454784549,-0.1700404583458053,0.03029265957898048,-0.5537867769658107,2.010670644308824,8.855840957189764,0.3353697050972643,-0.40141906605104316,0.20415246993676908,0.14200672248673593,-0.2140489610884597,-0.5479432152920621,-0.08184423435617202,4.140970609843294,0.2878821900554539,7.872506901588206,-0.39765389801108075,-0.2471664470783929,0.3099056461122272,-0.3203073694679325,0.11794694434161083,-0.55017145968417,5.1656268234684255,0.6887517806656029,8.031547077436043,-0.3514120283879846,-0.45262367905705014,0.3719330817312474,-0.5326542206801753,0.2691658949539741,-0.6806142378074538,-1.0289365916162594,-0.0928436154926476,10.10805117212039,-0.3081059619526148,-0.2337569958255203,0.06027264238343633,0.0024995402535371494,0.09908782474741243,-0.6921082852237409
0.9946336509216498,-0.7510162815189606,9.7502982630843,-0.5628454758241874,0.25603713999239486,0.17111089909108332,-0.15860939368050173,0.04736461803870083,-0.5619403553806681,2.095958261299009,8.71306951728073,0.12342834887003692,-0.6353946282058943,0.2761151653445676,0.0531982529020966,-0.20901528331931177,-0.5521385472366648,-0.09644578417086573,4.070686925934266,-0.368257642844833,7.613755727556552,-0.6150005942010452,-0.32299924659200746,0.29035394566865563,-0.32289803239575154,0.1301814795143215,-0.5487656557497148,5.256571954696259,-0.8965344503102741,7.441970542379525,-0.5484840186584496,-0.45728156123202346,0.3843975336438576,-0.5372085533517633,0.28286119307103896,-0.6781435835618693,-0.7803739283656985,-0.5168675975343201,9.502008577283762,-0.5760673296625809,-0.24430358962813312,0.041203777730106986,0.0027536529640242204,0.11471040745083595,-0.6938377875813747
0.4452187171681927,-1.1753787572317669,9.755456844728771,-0.3343069357410822,0.1382864089136313,0.12702715817564314,-0.15864397402848993,0.04541920088874461,-0.5636576341327026,1.7509823518562866,8.870650699538,0.4657538601609238,-0.32061693827417476,0.37140114528925716,-0.11393224300224289,-0.21207639786718488,-0.5621266349681042,-0.09750458641579487,4.0838707625520865,-0.7898727192707286,7.577513355415356,-0.24973039503570335,-0.37778541863198545,0.2655079008341693,-0.3359618446374573,0.13276255494942424,-0.5412758590026883,4.951333467436252,-1.027087494957009,8.415971524780822,-0.18069074480509079,-0.5659828283360424,0.30793843413824695,-0.5500931392313124,0.28442832646218785,-0.6615599237231343,-0.9636777859535339,-0.10431582782493179,9.526468848440691,-0.36595114480782326,-0.13601752801452957,0.03194336562825259,-0.0013290954747826947,0.11325989479461512,-0.6888941459864002
0.248186538985065,-0.8687387678770332,10.16958317645611,0.06662186815561237,0.03819150311278756,-0.002888054438915634,-0.1482830830108095,0.05078969217628879,-0.5745321901995111,1.3489006904883833,9.506702007744906,0.6966968763378885,0.07790283474067485,0.45149604738818905,-0.2221247551967347,-0.1982531110377979,-0.567795002564965,-0.10527264659960886,4.0946070939272134,-0.8349342278452557,8.166158374100295,0.19404167591011642,-0.35912736999593303,0.3114541545938946,-0.33653320772541173,0.14001827083984306,-0.550358938884493,5.20519992757138,-0.6098592924273621,7.409672717361604,0.2596218306197811,-0.7012692620755933,0.27631445845917385,-0.5550191324812346,0.29321683358676853,-0.6654126862414986,-1.4620283994069632,0.016435367564842242,10.135287564823926,0.05023994173798822,0.026139623245239545,-0.010925904299438174,0.0070609469945008,0.11957527858679239,-0.7007404987129201
-0.07396314087691289,-0.09500986244472961,10.385927247300112,0.30584153852130014,0.03199110192441029,-0.02889194028766654,-0.15018449824001248,0.03838660303662019,-0.5835936049852711,0.6200216459835476,9.206774242742327,0.381632011408021,0.31654221997476845,0.42677130134280683,-0.32626473102775383,-0.20089578451961648,-0.5836258628755874,-0.1047793751793448,3.589895221711362,-0.9188131090560382,7.655208700000001,0.4816869932465317,-0.31359226087097714,0.3616708505864755,-0.34859226409367317,0.1286026209070101,-0.5520516583290866,4.659502186168972,-0.8174568063140147,6.714253366591587,0.5509989118806623,-0.6553707412946321,0.26621351805693577,-0.5693227046463029,0.28108278020861116,-0.6575410872975286,-2.1518955244671347,-0.18861777764245555,10.250973011850803,0.29763765366275236,0.04619896186081014,0.007324778912357466,0.0073994848860354945,0.10906683730181548,-0.7095250477540597
-0.021025654316868175,0.8210127024357837,10.640743927067021,0.34125346347040303,0.04267822785992215,0.010569470478265511,-0.15070277151441594,0.03815345126573862,-0.5855401203499097,0.5654632376120402,9.344377651619872,-0.07508167309272475,0.29193195398567656,0.3623858493641744,-0.49828222309019893,-0.195078376252185,-0.5887002934285218,-0.09641704735669492,3.164053258253161,-0.33250217699968276,7.926349877961358,0.40208890472037223,-0.31227982643404467,0.366220864633754,-0.3582922759369956,0.13575426884482528,-0.5505051939703155,4.757397600490186,-0.3855613862170455,6.5043743502508855,0.44257451316364327,-0.5489017798870003,0.2804496807643883,-0.5835406832248897,0.28433805144587376,-0.6475322640744572,-2.058901447861366,0.3622635671213702,10.279114528395569,0.34750829603170225,0.003941124209064927,0.060912866326511696,0.00471774961450048,0.10297115938831979,-0.7082589305760995
0.19798249710981877,0.08780914065505466,9.916967456812067,0.11975295526968328,0.057603364647121846,0.09308676035563786,-0.14357076465736274,0.03157564007007986,-0.5964191314292868,0.6974830611192336,9.247041954347434,-0.07311239845015935,0.09202441109345551,0.3287537899802372,-0.6732905510331575,-0.17922034198610542,-0.6070882869873597,-0.10399705633399745,3.6901546219118857,0.05037229461255704,7.968902881240543,0.20506355069599252,-0.3841281262837111,0.3595056487563407,-0.3585807910831466,0.13013530477175636,-0.551190067503168,5.096544672236779,-0.006040326595977717,6.650246671624108,0.26172718110578824,-0.37617427236506157,0.3079670335588444,-0.5852979946131291,0.2811607359845286,-0.6496869529484854,-1.8082393410585607,0.008466641238037188,10.101923234552778,0.11636440619031335,-0.03157941740430389,0.09805320344782477,0.011427146898282699,0.0983083035990585,-0.7164070663737485
0.15111011214970688,0.3524874303941671,9.02028869113568,-0.13704027687408463,0.13043924091629006,0.13245220083658965,-0.1433776761014473,0.03934214449736642,-0.5858884572442922,0.5199722650302684,9.523428675708978,-0.3695055624753747,-0.18933384294318323,0.3929014135742107,-0.6455046689039151,-0.17261148685380884,-0.6075377493355757,-0.09595163064992995,3.9485103783599165,-0.051015801353570686,8.017855244314546,-0.13075742765986753,-0.3051457785626936,0.28978703165452735,-0.37179707739152057,0.13982438101066713,-0.5403354919770748,5.053470562836189,-0.8512958799851726,7.276424662248236,-0.07176641022891042,-0.3716858552287921,0.30765477678023645,-0.5954350924034343,0.29371425406245877,-0.631484611635982,-1.6047584466693967,0.37903070900936825,9.741106654589563,-0.14306124420725166,-1.3953289917709353e-05,0.08886493179077339,0.009193723145541994,0.10809353879680918,-0.7034451240630685
0.08110908784846199,0.030637331071108893,8.87600931250341,-0.14828295116886508,0.16973579177800552,0.1598801169818985,-0.13773626215271434,0.04280235382695901,-0.6015844551117245,0.3813576021198286,8.337723701814525,-0.553987384165687,-0.15530510082770263,0.4328073994087546,-0.6149905298432878,-0.1573831830421628,-0.6164977813973768,-0.1102653999114385,3.7382612435850473,-0.8596510155627901,7.658952549873241,-0.07261682776425961,-0.25448724515098126,0.19416191582007072,-0.3743435159941744,0.14245726705999373,-0.548866211495039,5.162813682105851,-2.2226546880108886,6.261544260588185,-0.006733487442838559,-0.3602446806987077,0.19707931624638672,-0.5984329738430236,0.29712403601882414,-0.635840038467443,-1.4707408429184117,0.31617296832904523,9.16603027126087,-0.17464313968729364,0.08752248684533802,0.09624640395657424,0.016356382730595496,0.11148265795517569,-0.7152717398088783
0.49654142740639884,0.7511078228006631,9.117546359993836,0.3077225678152828,0.1890271886859198,0.09822754438886465,-0.1370081248009818,0.03644360385069948,-0.5999142085022591,0.6115496168414831,8.950339610401468,-0.8632911179639998,0.3294697190986117,0.44322048156032157,-0.6238124574962561,-0.15185823016577069,-0.6261513126008409,-0.09816992220208813,4.387263997686824,-0.6931164625087477,8.51791347301259,0.39901085023223803,-0.2722016312920712,0.09878562806846891,-0.38452566953098233,0.13939680630306076,-0.5423490629384887,6.2766964745279665,-2.2001912502934555,5.611169249071117,0.40824411619021317,-0.13567105211167063,0.009076658910855153,-0.6079013722440187,0.28935595077281867,-0.631489234595648,-1.2329016390958663,1.0846473539847201,9.419445511302174,0.2743336901754739,0.13881932650568676,0.13046603074062857,0.014668771871350508,0.10367636676459294,-0.7125529103851025
0.5996364411277809,0.3430474321037561,9.209103591248805,0.5882421369071179,0.28159645176438297,0.07349017416401321,-0.13154845519186992,0.026685553473099123,-0.6073638317536426,0.6415981425070464,9.184565395506596,-0.7620415542601864,0.6684253981677972,0.4339972499537953,-0.5505519402070661,-0.14442279429347726,-0.6383337025220418,-0.09019297897821897,4.837569578076222,-0.6383300282648676,9.187045194375436,0.8020274143311549,-0.34404313833266437,0.017034281008986223,-0.39197149811238696,0.12550578989034492,-0.5448198030620139,6.831314632034821,-1.5204896421366083,6.482505219484767,0.8006405101234827,0.2458214541231334,-0.13705875070931345,-0.6090812818122014,0.27809215594390574,-0.6409481273671653,-1.3479505353177927,0.7711086690837354,9.601418834533018,0.5444848463065914,0.08386337791884553,0.1527327304723138,0.015037514007503118,0.0941470083901433,-0.719384735851867
0.1110555715815755,0.5239683527357404,9.249634478632986,0.8475177948844761,0.37201132171660495,0.015729967222462195,-0.12416848254928291,0.015216181011913693,-0.6165589377422251,0.18476402395227137,9.878089903935562,-0.41468536008676626,0.8870581868180963,0.45969389370668573,-0.46010274795069145,-0.13421846697206458,-0.6446442249582127,-0.07913835101070894,4.734798146622407,-0.3498072383607654,9.208598136816942,0.9740705235853757,-0.39582241305179955,-0.06445422125790148,-0.401830355081517,0.11334839191965616,-0.546049808283356,6.310414037743562,-1.0457605859804808,7.248104247863282,0.9555730980142361,0.4934814918606565,-0.2142290661895717,-0.6049067392506374,0.26558732301710253,-0.6512299167481256,-1.5450766387495742,1.0706544248145209,9.605569966725005,0.8207845138136791,0.0298594472042508,0.14194076976788203,0.019805086489473295,0.08338735719447762,-0.7257903205852674
0.09598140446723002,1.1219471099100804,8.687408047176726,0.6715125342632118,0.41904243705037647,0.011595091516675966,-0.11005609563698447,-0.0008985223787017615,-0.6312468944166602,0.22038865867059074,10.438922704006105,-0.15662370321340938,0.7089429828651042,0.4383644571685449,-0.30123741287173406,-0.12434223308135833,-0.6559406407206295,-0.0750885594038873,5.831271450240157,-0.08221044152822232,8.518060412363354,0.7604122007022891,-0.33845405654129557,-0.09925327797026681,-0.40569767733052314,0.09671339644376227,-0.5531893103765928,6.523094619542276,0.7542066376982384,6.87391245531288,0.758741715208078,0.6307897217047168,-0.19587877701729134,-0.5948544219929515,0.24642870496206493,-0.6730667688328932,-1.3141139716665433,1.5360273662594244,8.945096835858342,0.6393395636054426,0.06038838615779576,0.09223950276892823,0.027915334863216446,0.06724339675234325,-0.7366325792779473
0.2698132120934438,1.8417908786946038,8.813876300080356,0.5408851886541096,0.4248545932564369,0.02897029555451409,-0.10200459664878214,-0.0019122006116980015,-0.6313717883033261,0.47861070674161105,11.42007916757811,-0.20152485409934529,0.577334136685433,0.30182248354285285,-0.013446806338691669,-0.12333235159466668,-0.6557818749177017,-0.0638625912138977,7.039482641574612,0.22487615295030208,7.688560247889132,0.6868905155131683,-0.015138403151374403,0.011094665793992639,-0.40916666754487235,0.09548869962394457,-0.5563049532624638,6.9158249777501455,2.018805026567241,7.213015653215583,0.6795740578253912,0.48418118894326856,-0.06732652423239124,-0.5927252655432512,0.24421186056985913,-0.6765147589363368,-0.9128795747249122,1.4023133165683979,8.713521482409165,0.5027912272097692,0.09067634164404888,0.08947915187878155,0.03131303871592515,0.06772319626578288,-0.7381470002749596
