# sampling frequency: 40
# units are seconds/meters/radians/a.u.
seg1_acc_x,seg1_acc_y,seg1_acc_z,seg1_gyr_x,seg1_gyr_y,seg1_gyr_z,seg1_mag_x,seg1_mag_y,seg1_mag_z,seg2_acc_x,seg2_acc_y,seg2_acc_z,seg2_gyr_x,seg2_gyr_y,seg2_gyr_z,seg2_mag_x,seg2_mag_y,seg2_mag_z,seg3_acc_x,seg3_acc_y,seg3_acc_z,seg3_gyr_x,seg3_gyr_y,seg3_gyr_z,seg3_mag_x,seg3_mag_y,seg3_mag_z,seg4_acc_x,seg4_acc_y,seg4_acc_z,seg4_gyr_x,seg4_gyr_y,seg4_gyr_z,seg4_mag_x,seg4_mag_y,seg4_mag_z,seg5_acc_x,seg5_acc_y,seg5_acc_z,seg5_gyr_x,seg5_gyr_y,seg5_gyr_z,seg5_mag_x,seg5_mag_y,seg5_mag_z
1.565137,-7.372489,6.296063,0.001915,-0.01814,-0.003992,-0.258545,0.520264,-0.077393,-0.079571,8.278347,5.303883,-0.022706,0.019984,0.006398,-0.181641,0.371826,0.483398,-1.112056,-7.006672,6.769413,-0.000819,-0.002819,-0.00615,0.648926,0.07666,-0.050049,1.834612,-7.268423,6.299658,-0.017998,-0.015076,0.008996,0.200928,0.328369,-0.572998,1.911499,-6.334313,7.270029,-0.005956,0.055429,-0.028604,-0.378906,0.414795,-0.359375
1.564553,-7.477548,6.29213,-0.008907,-0.014667,-0.001939,-0.262939,0.515137,-0.077881,-0.10679,8.192082,5.31877,-0.01309,-0.007419,0.003423,-0.186279,0.381348,0.481201,-1.093161,-7.017637,6.778609,-0.016237,0.006455,0.005442,0.64502,0.074219,-0.043213,1.798074,-7.280636,6.281341,-0.000659,0.0077,0.011214,0.194336,0.323242,-0.571289,1.886209,-6.367353,7.197419,0.009063,0.064801,0.026948,-0.380859,0.411377,-0.35498
1.560215,-7.413992,6.284657,0.022493,-0.006524,-0.001685,-0.261475,0.527832,-0.076904,-0.041677,8.245516,5.30075,0.010373,0.014245,0.001708,-0.180664,0.383545,0.483154,-1.137483,-7.084058,6.793477,0.003653,0.012142,0.006574,0.645752,0.079834,-0.046631,1.798048,-7.269911,6.339685,0.006977,0.001592,0.00834,0.197266,0.336914,-0.572021,1.804819,-6.294996,7.197564,0.028203,0.039941,-0.032477,-0.380127,0.418945,-0.355957
1.556448,-7.386177,6.2784,0.000902,-0.003915,-0.002226,-0.262207,0.514648,-0.07959,-0.141807,8.246272,5.306141,-0.00597,-0.000339,0.004963,-0.175537,0.378418,0.492432,-1.138748,-7.041675,6.801604,0.025046,0.010073,0.003616,0.647217,0.071533,-0.050537,1.822563,-7.301338,6.396142,0.010343,0.013226,0.008663,0.19873,0.321777,-0.578369,1.854283,-6.297234,7.176031,-0.006181,-0.003724,0.015589,-0.376709,0.408691,-0.361084
1.547899,-7.398534,6.312414,0.01037,0.00528,0.000756,-0.260986,0.516113,-0.075928,-0.048431,8.2495,5.246285,-0.000268,0.004958,0.002642,-0.186768,0.380371,0.475098,-1.167998,-6.96258,6.865731,0.012287,0.014361,0.002473,0.649414,0.075928,-0.043701,1.786955,-7.259928,6.508821,0.014678,0.002902,0.00398,0.19873,0.323486,-0.571533,1.822876,-6.30042,7.207096,0.015185,-0.006515,-0.016704,-0.37793,0.40918,-0.356445
1.540218,-7.386062,6.286839,-0.013172,0.006856,0.000363,-0.264893,0.521729,-0.077637,-0.122306,8.273512,5.286878,-0.012865,0.010879,0.008287,-0.181885,0.385254,0.485352,-1.189099,-6.972224,6.865692,-0.020491,-0.001101,-0.001732,0.641602,0.076172,-0.044434,1.855198,-7.245336,6.512615,-0.017289,-0.008004,0.012605,0.193848,0.325928,-0.571289,1.840484,-6.280997,7.239786,-0.02337,-0.035786,-0.002412,-0.384033,0.41333,-0.356201
1.551475,-7.433841,6.270489,-0.001555,0.012588,0.00256,-0.262939,0.516846,-0.075439,-0.042045,8.24303,5.292572,-0.025577,-0.0043,0.006202,-0.185547,0.375,0.480957,-1.12795,-7.038104,6.825111,-0.028739,-0.009862,-0.004526,0.643799,0.070068,-0.045654,1.838988,-7.292236,6.427305,-0.027984,-0.003591,0.014048,0.194336,0.320557,-0.572266,1.890794,-6.357095,7.220226,-0.00911,-0.056632,0.005476,-0.381592,0.409668,-0.356934
1.540861,-7.37025,6.270326,-0.015363,0.013754,0.00099,-0.260254,0.519775,-0.080322,-0.091261,8.209042,5.3012,-0.019814,0.018419,0.006303,-0.182617,0.378906,0.475342,-1.119039,-7.04092,6.765995,-0.012394,-0.003259,-0.006925,0.64917,0.07666,-0.049072,1.818009,-7.25487,6.340332,-0.014401,-0.000917,0.009698,0.199219,0.328125,-0.574951,1.930065,-6.29787,7.255601,-0.001226,-0.043269,-0.01986,-0.377686,0.411865,-0.358643
1.535872,-7.468997,6.243445,-0.008272,0.013633,0.003683,-0.256348,0.518311,-0.069092,-0.094937,8.218915,5.298915,-0.012107,-0.004247,0.006759,-0.181396,0.385498,0.47998,-1.11109,-7.036472,6.766654,-0.01104,-0.002702,-0.00089,0.651123,0.074463,-0.040771,1.784889,-7.269829,6.284705,-0.016825,-0.000996,0.011408,0.203613,0.326904,-0.568115,1.892251,-6.323432,7.298668,-0.021225,-0.052715,0.017726,-0.377197,0.413574,-0.348145
1.539847,-7.392875,6.224473,0.012046,0.011337,0.001655,-0.261719,0.512939,-0.079102,-0.058958,8.24295,5.312183,-0.005897,0.011689,0.005975,-0.185547,0.385498,0.474609,-1.096051,-7.051882,6.760129,-0.003426,0.00963,0.002435,0.647949,0.066406,-0.04834,1.805349,-7.285977,6.291658,0.001997,-0.001542,0.006881,0.198486,0.317139,-0.575928,1.983889,-6.353386,7.280868,-0.000118,-0.048364,-0.021214,-0.380371,0.405518,-0.359619
1.528149,-7.419054,6.240748,-0.008186,0.005856,-0.000824,-0.258057,0.515137,-0.082275,-0.103328,8.224233,5.289482,-0.003669,0.004316,0.00485,-0.187988,0.382568,0.480469,-1.131224,-7.041357,6.782178,0.008915,0.015123,0.00653,0.648926,0.069092,-0.047607,1.833575,-7.266038,6.361238,0.012381,0.011222,0.00715,0.197754,0.320068,-0.576904,1.99262,-6.339002,7.321166,0.004438,-0.010413,0.007923,-0.37793,0.406738,-0.358398
1.528011,-7.434308,6.214858,0.014539,-0.001352,0.001133,-0.255371,0.519287,-0.073975,-0.054586,8.238419,5.284331,0.004413,0.002784,0.002331,-0.183594,0.383057,0.487793,-1.156444,-7.025735,6.844906,0.016587,0.008378,0.000837,0.653564,0.070068,-0.043701,1.815558,-7.277549,6.44884,0.003333,0.007626,0.011184,0.205322,0.323486,-0.568604,1.962336,-6.328431,7.352525,0.004442,0.005107,-0.010845,-0.376709,0.410645,-0.350098
1.515012,-7.359946,6.245202,0.00661,-0.00877,-0.002152,-0.255127,0.513916,-0.085449,-0.103265,8.276634,5.265979,-0.008786,0.010575,0.005354,-0.187988,0.378906,0.483154,-1.162694,-6.983221,6.829047,-0.000271,0.005042,0.002237,0.651855,0.066895,-0.054199,1.825275,-7.279575,6.48246,0.001682,0.000843,0.00853,0.203613,0.321045,-0.57959,2.004011,-6.330919,7.307198,0.007962,0.032272,-0.001088,-0.375488,0.40625,-0.362061
1.545402,-7.389925,6.248791,-0.00433,-0.014922,-0.003263,-0.265137,0.522949,-0.078125,-0.066391,8.227486,5.260823,-0.021511,-0.001899,0.003954,-0.180664,0.375488,0.481689,-1.137302,-6.998432,6.832058,-0.018117,-0.004018,-0.001905,0.643311,0.077148,-0.044922,1.819953,-7.258017,6.463564,-0.016516,-0.008816,0.013183,0.193604,0.327637,-0.574219,1.916144,-6.29454,7.25292,0.008564,0.055387,-0.002191,-0.384033,0.414795,-0.356689
1.538543,-7.427058,6.276692,-0.001075,-0.0132,-0.003507,-0.264648,0.514404,-0.079834,-0.083015,8.222519,5.321803,-0.010047,0.013718,0.005,-0.182373,0.380371,0.479492,-1.138027,-7.044221,6.793818,-0.018414,-0.001178,-0.001691,0.640869,0.069824,-0.047119,1.818992,-7.27908,6.337428,-0.018756,-0.003901,0.010878,0.192627,0.323975,-0.572021,1.895782,-6.307485,7.241684,-0.011378,0.051506,-0.005444,-0.385742,0.406006,-0.35791
1.568167,-7.430816,6.293568,0.00442,-0.01089,-0.001812,-0.267334,0.530762,-0.07666,-0.096356,8.240642,5.305572,-0.005039,-0.000851,0.002995,-0.183594,0.379883,0.474365,-1.124804,-7.054479,6.779522,-0.004996,-0.001391,-0.000969,0.641602,0.086914,-0.044434,1.785813,-7.281123,6.326412,-0.006732,0.002819,0.011779,0.191406,0.338379,-0.568115,1.836571,-6.353382,7.185716,-0.009076,0.038843,0.006505,-0.385986,0.423584,-0.354736
1.563012,-7.411994,6.308512,0.004622,-0.00179,0.000954,-0.253662,0.520264,-0.077881,-0.050175,8.237581,5.287909,-0.01631,0.008246,0.007057,-0.180176,0.37793,0.481445,-1.107507,-7.02081,6.76016,0.008113,0.006772,0.000174,0.652832,0.073975,-0.043945,1.816856,-7.269864,6.32914,0.00316,-0.000295,0.007288,0.202881,0.327393,-0.571533,1.842716,-6.346929,7.179995,0.012227,0.011296,-0.012412,-0.375,0.412109,-0.355713
1.557599,-7.435722,6.283215,-0.003926,0.005044,-0.001552,-0.267578,0.520264,-0.080566,-0.120864,8.196034,5.288346,0.000159,0.003568,0.003159,-0.188477,0.378662,0.473877,-1.133059,-7.01744,6.812505,-0.001042,0.015638,0.007637,0.640869,0.075195,-0.05127,1.80946,-7.260415,6.382018,0.008465,0.01078,0.009615,0.191895,0.328613,-0.573486,1.84444,-6.310172,7.211536,0.008867,-0.016314,0.00208,-0.389404,0.411377,-0.361572
1.543294,-7.388048,6.30018,0.017944,0.011004,0.001362,-0.249023,0.51123,-0.085449,-0.072911,8.273358,5.280226,0.010742,0.005187,0.003826,-0.185303,0.375977,0.479248,-1.172299,-7.029638,6.830664,0.011739,0.008883,0.000377,0.657471,0.067871,-0.051758,1.799692,-7.270451,6.4752,0.004488,0.001497,0.006138,0.20874,0.31543,-0.577881,1.860618,-6.295631,7.225306,0.007119,-0.029995,-0.011623,-0.368652,0.403076,-0.360596
1.532245,-7.362195,6.271216,-0.014648,0.009896,0.002234,-0.26416,0.516113,-0.077148,-0.113063,8.286898,5.274141,-0.026751,0.008526,0.007655,-0.184326,0.378906,0.484619,-1.151827,-6.977154,6.865731,-0.000858,0.002899,-0.001694,0.645264,0.071533,-0.046387,1.859682,-7.257669,6.473368,-0.006188,0.003945,0.009536,0.197021,0.321289,-0.571289,1.901198,-6.299707,7.253819,-0.022688,-0.043081,0.00147,-0.380615,0.406738,-0.352295
1.54053,-7.447411,6.232806,-0.0086,0.011173,0.002145,-0.26416,0.526855,-0.077148,-0.078665,8.213173,5.289494,-0.014491,0.001242,0.006593,-0.17749,0.37915,0.47876,-1.168715,-7.008043,6.833265,-0.027602,-0.003433,-0.001637,0.641846,0.080566,-0.04541,1.803823,-7.279,6.463684,-0.019554,0.003306,0.012788,0.193848,0.333984,-0.570801,1.918291,-6.344744,7.25382,-0.006226,-0.04095,-0.001747,-0.384521,0.420166,-0.351807
1.527409,-7.387886,6.265645,0.006316,0.007942,0.000154,-0.264404,0.516602,-0.073975,-0.103369,8.293939,5.279777,-0.001248,0.014584,0.005543,-0.177002,0.377686,0.482422,-1.139599,-7.044913,6.803338,-0.015874,-0.002284,-0.003491,0.642578,0.073242,-0.042236,1.811218,-7.278656,6.353212,-0.015539,-0.014482,0.008698,0.193848,0.322266,-0.570068,1.94352,-6.304454,7.297745,0.005785,-0.0307,-0.010413,-0.386475,0.406006,-0.353027
1.553261,-7.398512,6.241714,-0.020425,0.003591,0.001279,-0.260498,0.52124,-0.081055,-0.060011,8.25799,5.317275,-0.034111,-0.004035,0.00743,-0.181396,0.389648,0.47876,-1.101019,-7.015219,6.772303,-0.006751,-0.004336,-0.005479,0.644531,0.077148,-0.049805,1.830415,-7.260616,6.335206,-0.017376,-0.001612,0.011175,0.197266,0.329346,-0.574219,1.950323,-6.33377,7.285466,-0.024308,-0.032049,0.004152,-0.382812,0.41626,-0.356201
1.548643,-7.470565,6.228438,0.003982,0.008786,0.003422,-0.26123,0.519287,-0.079102,-0.048932,8.183647,5.279969,-0.011156,0.014718,0.004857,-0.176758,0.376465,0.481934,-1.08887,-7.035771,6.749445,-0.012943,0.009196,0.003832,0.64624,0.074707,-0.047852,1.798891,-7.276385,6.294195,-0.003456,0.009498,0.009189,0.196533,0.326904,-0.572754,1.991216,-6.359747,7.274732,0.002125,-0.009334,-0.00692,-0.382568,0.409912,-0.355713
1.512899,-7.410753,6.227118,0.010391,-6.4e-05,-0.00121,-0.256104,0.519287,-0.083008,-0.127978,8.238761,5.300679,0.01596,0.00285,0.002243,-0.184326,0.379639,0.486572,-1.157937,-7.066861,6.777479,0.005849,0.011757,0.005114,0.652344,0.075684,-0.051758,1.77297,-7.276322,6.355416,0.006709,0.006415,0.009493,0.202393,0.32666,-0.579346,1.918534,-6.345421,7.302773,0.006011,0.011635,-0.003164,-0.376953,0.41333,-0.359131
1.545807,-7.395014,6.231229,0.007413,-0.006811,-0.002003,-0.258545,0.519531,-0.082275,-0.047227,8.280214,5.279894,-0.014791,0.001506,0.005102,-0.18335,0.376709,0.475586,-1.125092,-7.010387,6.8107,0.023378,0.004718,-0.002286,0.648438,0.073975,-0.049561,1.821345,-7.296318,6.394621,0.005772,-0.003651,0.007927,0.199219,0.325684,-0.574951,1.943766,-6.332142,7.271622,0.011167,0.004997,-0.00284,-0.381348,0.411133,-0.35791
1.547734,-7.38891,6.2716,0.000685,-0.007669,-0.003012,-0.267334,0.518555,-0.076904,-0.106375,8.228351,5.250719,-0.008383,0.010218,0.004681,-0.175781,0.388916,0.470459,-1.132769,-6.983156,6.835948,-0.002401,0.016266,0.004748,0.636719,0.07251,-0.046631,1.849703,-7.234962,6.470449,0.015251,0.004476,0.003223,0.191406,0.324219,-0.567871,1.980744,-6.291764,7.296421,0.010846,0.036092,-0.007891,-0.387939,0.40918,-0.35498
1.530203,-7.43367,6.280223,0.002877,-0.009991,-0.000523,-0.262451,0.518311,-0.080322,-0.092064,8.27026,5.280743,0.003602,0.003507,0.003681,-0.178955,0.375,0.473633,-1.185311,-7.032405,6.828565,-0.018113,-0.001732,0.002236,0.644287,0.073242,-0.049561,1.808717,-7.237079,6.455214,-0.023082,0.002479,0.015535,0.196289,0.326904,-0.575684,1.862097,-6.331113,7.293746,-0.017775,0.04707,0.004154,-0.382568,0.411865,-0.358398
1.55455,-7.37745,6.279887,0.003002,-0.007612,-0.001469,-0.258301,0.514404,-0.071777,-0.094133,8.279931,5.290826,-0.022377,0.007975,0.006193,-0.181396,0.382568,0.485596,-1.103075,-7.047364,6.795201,-0.007272,-0.00761,-0.005575,0.648682,0.070801,-0.039062,1.825875,-7.327071,6.38637,-0.021178,-0.007429,0.014021,0.19873,0.322998,-0.566406,1.877177,-6.369433,7.198527,-0.003101,0.014353,-0.004755,-0.377686,0.408447,-0.352783
1.563217,-7.432481,6.264917,-0.008914,-0.002976,-0.000661,-0.264648,0.517334,-0.075439,-0.085548,8.208417,5.295802,-0.022221,0.003128,0.005692,-0.185059,0.383301,0.483398,-1.117859,-7.026727,6.778587,-0.008681,0.006551,0.000362,0.642822,0.07373,-0.046143,1.804201,-7.252934,6.342677,0.010537,0.003377,0.004597,0.192139,0.324951,-0.571533,1.898527,-6.314205,7.186567,0.021505,0.021747,-0.003834,-0.384766,0.4104,-0.355957
1.552766,-7.443152,6.307109,0.009334,0.002237,0.000812,-0.262207,0.519043,-0.072998,-0.10107,8.237736,5.287445,0.010296,0.008932,0.00251,-0.181396,0.380615,0.482666,-1.16133,-7.039768,6.771792,-0.004338,0.002682,-0.001389,0.644287,0.073486,-0.041748,1.779994,-7.231604,6.349472,-0.012129,-0.004835,0.010978,0.195557,0.323242,-0.569824,1.823091,-6.278145,7.24565,-0.002553,-0.000402,-0.003619,-0.380615,0.412109,-0.354004
1.56543,-7.395456,6.286687,-0.005936,0.003772,0.000129,-0.265625,0.518311,-0.079102,-0.099355,8.280975,5.312044,-0.01342,0.003981,0.006244,-0.178711,0.387207,0.484375,-1.11648,-7.034498,6.783589,-0.003714,0.00693,0.002448,0.642822,0.072754,-0.046875,1.85243,-7.310207,6.338104,-0.010458,0.002929,0.012658,0.193604,0.32373,-0.575928,1.889607,-6.334897,7.192283,-0.029535,-0.037065,-0.001423,-0.385498,0.410889,-0.357666
1.559819,-7.445615,6.248084,0.003173,0.01127,0.000438,-0.258789,0.509521,-0.073486,-0.063311,8.223258,5.271079,-0.014802,0.004211,0.005798,-0.17749,0.378662,0.482666,-1.141501,-7.045153,6.797533,0.005127,0.008819,0.001693,0.647705,0.065186,-0.041748,1.801848,-7.300474,6.412303,0.017501,0.012853,0.005118,0.199463,0.314697,-0.569092,1.931679,-6.38055,7.20256,0.017378,-0.02939,-0.004083,-0.381104,0.40332,-0.352051
1.524554,-7.373135,6.263745,0.004758,0.011511,0.002424,-0.255859,0.517334,-0.085205,-0.115447,8.247377,5.294229,0.007545,0.01241,0.003868,-0.182129,0.378662,0.477783,-1.147716,-6.997267,6.839902,0.009287,0.00639,-0.002378,0.652832,0.072266,-0.053467,1.801224,-7.2334,6.458535,0.001599,-0.003625,0.007058,0.204346,0.32373,-0.580811,1.887893,-6.275865,7.297139,0.014225,-0.035457,-0.011581,-0.374023,0.409912,-0.359375
1.543207,-7.414837,6.237768,-0.011428,0.006039,0.001546,-0.253662,0.51709,-0.079346,-0.089109,8.279111,5.294492,-0.015589,-0.000124,0.007249,-0.182373,0.381348,0.477783,-1.157695,-6.998512,6.829353,-0.017171,-0.001601,0.000586,0.651367,0.070557,-0.05127,1.837872,-7.281094,6.436317,-0.025203,-0.002447,0.016065,0.203613,0.32373,-0.575195,1.952722,-6.323358,7.283677,-0.025502,-0.037248,0.006201,-0.376953,0.40918,-0.355469
1.533175,-7.389731,6.207667,0.004629,0.004555,0.000254,-0.261475,0.526367,-0.072998,-0.062954,8.229426,5.298511,-0.023899,0.010698,0.007058,-0.178467,0.374756,0.478271,-1.112327,-7.030228,6.783491,-0.017272,-0.002573,-0.003158,0.645996,0.080322,-0.043213,1.833403,-7.294852,6.375497,-0.009091,-0.001659,0.008979,0.196777,0.332031,-0.567871,1.974205,-6.347585,7.245616,0.002482,-0.011386,-0.010443,-0.382324,0.418945,-0.348633
1.532003,-7.408827,6.242608,-0.016235,0.000636,-4.7e-05,-0.266602,0.519287,-0.078857,-0.100305,8.212978,5.298555,-0.011106,0.00594,0.005436,-0.187256,0.381592,0.483398,-1.128752,-7.047646,6.788907,-0.01107,0.001731,-0.001704,0.641846,0.072998,-0.044189,1.808231,-7.260386,6.361903,-0.007107,0.002729,0.009989,0.191406,0.325928,-0.572266,1.935993,-6.338039,7.303107,-0.014263,0.000616,0.000579,-0.386963,0.413574,-0.354492
1.547534,-7.46878,6.230854,0.010755,-0.00104,0.000479,-0.263916,0.523438,-0.084961,-0.042983,8.25489,5.282448,-0.001185,0.000396,0.004722,-0.185059,0.379395,0.479248,-1.105939,-7.058989,6.756334,0.000702,-0.000448,-0.001742,0.644287,0.078857,-0.054688,1.792026,-7.272883,6.332683,-0.014094,-0.001361,0.012965,0.194824,0.330566,-0.582031,1.948858,-6.374693,7.276444,0.003606,-0.002459,-0.002534,-0.38208,0.417725,-0.358643
1.534617,-7.370931,6.265314,0.009834,0.000967,0.000572,-0.265381,0.522705,-0.080322,-0.101288,8.256987,5.298209,-0.012113,0.013575,0.004915,-0.178711,0.382568,0.481934,-1.106274,-7.026749,6.78289,0.00301,0.01451,0.003999,0.640869,0.073975,-0.046875,1.816504,-7.277386,6.348901,0.014636,0.001353,0.003518,0.19043,0.328857,-0.571533,1.964783,-6.32575,7.261825,0.013722,0.021029,-0.009165,-0.387207,0.412598,-0.354248
1.543804,-7.451713,6.237661,-0.010587,-0.009033,-0.001552,-0.257324,0.515137,-0.082764,-0.098284,8.226817,5.304471,-0.007922,-0.002977,0.003524,-0.179199,0.374512,0.478516,-1.164537,-7.027168,6.818879,0.001801,0.006149,0.005431,0.652588,0.072266,-0.05249,1.794928,-7.2517,6.399429,-0.003543,0.00944,0.012197,0.201416,0.323242,-0.578369,1.889773,-6.318146,7.261365,0.000975,0.022176,0.004623,-0.376221,0.410889,-0.360352
1.557027,-7.411365,6.239912,0.018674,-0.002776,-0.002475,-0.263428,0.524414,-0.075684,-0.036066,8.229443,5.283714,0.002613,0.010107,0.004351,-0.186035,0.374023,0.476807,-1.094006,-7.026218,6.816503,0.007165,0.004353,-0.002318,0.643555,0.07959,-0.045898,1.840513,-7.304751,6.433701,0.006243,-0.006501,0.00569,0.195068,0.332031,-0.571289,1.935778,-6.321447,7.247602,0.006182,0.010278,-0.013275,-0.382812,0.417725,-0.35376
1.52886,-7.381985,6.300142,0.000199,-0.004495,-0.000637,-0.264893,0.523438,-0.072754,-0.135408,8.264695,5.278616,-0.009465,0.004804,0.00429,-0.183594,0.382812,0.483398,-1.166479,-7.007597,6.807945,-0.004841,0.010517,0.005933,0.644531,0.080811,-0.042236,1.807085,-7.229046,6.422038,-0.000711,0.01158,0.010302,0.195801,0.330811,-0.567139,1.907644,-6.339834,7.25175,-0.004629,0.036764,0.006447,-0.383789,0.418457,-0.35083
1.555561,-7.415469,6.272614,-0.005958,-0.004479,-0.001297,-0.260986,0.522461,-0.071777,-0.060031,8.246906,5.277373,-0.01318,0.00141,0.00275,-0.178711,0.376953,0.47168,-1.166161,-6.997977,6.815705,-0.006806,-0.008637,-0.007423,0.646729,0.074951,-0.040527,1.792789,-7.27783,6.415224,-0.02632,-0.010064,0.0131,0.197266,0.326904,-0.56665,1.845996,-6.327585,7.233674,0.007645,0.001429,-0.00777,-0.379395,0.415527,-0.35083
1.563184,-7.410911,6.261105,-0.005642,0.000653,0.001224,-0.257324,0.517822,-0.079346,-0.101122,8.216062,5.318828,-0.025014,0.011709,0.006897,-0.187744,0.37793,0.471924,-1.094523,-7.032499,6.783583,-0.025001,0.002045,0.002637,0.650391,0.072754,-0.049072,1.869822,-7.283771,6.363217,-0.001783,-0.001939,0.006296,0.200928,0.325439,-0.574707,1.938368,-6.321682,7.180144,-0.01237,-0.010737,-0.002989,-0.375488,0.4104,-0.356934
1.551175,-7.44511,6.299461,0.006407,0.004742,-0.001231,-0.260254,0.518311,-0.080566,-0.074816,8.210806,5.275321,0.006208,-0.000531,0.00142,-0.180908,0.381836,0.480957,-1.162498,-7.079135,6.771443,-0.006591,0.007574,0.001424,0.64624,0.076416,-0.050293,1.776487,-7.250994,6.340245,-0.011044,0.011661,0.012035,0.197266,0.327881,-0.575195,1.856597,-6.342821,7.204487,0.006262,-0.000108,0.001896,-0.378662,0.415039,-0.358154
1.539189,-7.37191,6.257304,0.001825,0.007671,0.001083,-0.253906,0.520996,-0.07666,-0.101223,8.285319,5.285394,-0.010848,0.013453,0.007509,-0.1875,0.380127,0.47998,-1.117895,-7.00503,6.801911,0.02103,0.000921,-0.00545,0.653076,0.076172,-0.044922,1.801092,-7.297582,6.349533,-0.000168,-0.009968,0.008865,0.203857,0.327148,-0.568848,1.89491,-6.304193,7.243935,-0.01,-0.039352,-0.014085,-0.372314,0.416748,-0.350342
1.559847,-7.444804,6.271231,-0.009555,0.007601,0.001796,-0.262207,0.515625,-0.080322,-0.068904,8.213185,5.285833,-0.021249,-0.004799,0.004628,-0.182373,0.377686,0.487549,-1.121572,-6.987603,6.804264,-0.01167,0.010875,0.006028,0.646729,0.071777,-0.046875,1.847451,-7.25572,6.390462,0.00923,0.010413,0.007784,0.198975,0.320312,-0.574707,1.964568,-6.373276,7.23214,-0.005849,-0.035485,0.010454,-0.38208,0.412842,-0.355469
1.539476,-7.411405,6.24847,0.013353,0.009353,0.000567,-0.258057,0.527588,-0.081055,-0.055515,8.246037,5.281137,0.011101,0.017622,0.003697,-0.185303,0.385986,0.487305,-1.169197,-7.057032,6.830851,-0.012994,0.007077,0.003929,0.650635,0.083496,-0.051514,1.813519,-7.277089,6.435537,-0.009753,0.001134,0.010311,0.203613,0.334717,-0.577881,1.929446,-6.291987,7.309512,0.021641,-0.012022,-0.018653,-0.37793,0.424072,-0.360596
1.519427,-7.378207,6.225384,-0.012231,0.004081,0.001395,-0.266602,0.507568,-0.084717,-0.1261,8.284841,5.279578,-0.016174,0.000738,0.005791,-0.184326,0.38623,0.479492,-1.156272,-7.047399,6.806226,0.004793,0.000636,-0.003372,0.643799,0.063232,-0.05542,1.844893,-7.29406,6.411802,-0.009784,-0.001342,0.010797,0.192139,0.317139,-0.579834,1.930828,-6.320442,7.307717,-0.034208,-0.021201,0.009791,-0.387939,0.403809,-0.360352
1.557515,-7.426657,6.236042,0.008016,-0.000359,-0.001215,-0.260986,0.514893,-0.081055,-0.01768,8.230839,5.265936,-0.020857,0.001583,0.005731,-0.18335,0.386963,0.478027,-1.127422,-6.991973,6.814567,-0.001767,-0.002853,-0.002389,0.64502,0.071533,-0.048828,1.817727,-7.271951,6.403982,-0.005757,0.004519,0.008833,0.197266,0.323975,-0.57666,1.97123,-6.387831,7.237561,0.015509,-0.005158,-0.007052,-0.380859,0.410156,-0.358154
1.542215,-7.366925,6.247441,-0.005737,-0.000723,-0.000511,-0.258545,0.516846,-0.075195,-0.100871,8.216628,5.284795,-0.007162,0.014855,0.005628,-0.182373,0.384766,0.482422,-1.117755,-7.006889,6.784252,-0.022526,0.003264,0.000137,0.649902,0.069824,-0.045898,1.812198,-7.2354,6.366625,-0.004854,-0.005602,0.006811,0.201172,0.322021,-0.570312,1.948464,-6.286512,7.291182,0.005813,0.020203,-0.010309,-0.378906,0.40918,-0.352783
1.54894,-7.480068,6.237225,-0.007911,-0.005512,-0.001155,-0.260498,0.52002,-0.083984,-0.055039,8.250198,5.311611,-0.006546,-0.004554,0.0036,-0.189209,0.382812,0.476074,-1.156982,-7.084121,6.774763,-0.012247,0.002108,0.000858,0.646484,0.075928,-0.052002,1.814939,-7.280985,6.321597,-0.024861,0.000571,0.017867,0.197754,0.326172,-0.577393,1.89488,-6.367084,7.245653,-0.02372,0.010626,0.014253,-0.382812,0.415039,-0.359619
1.552446,-7.392632,6.276776,0.020329,-0.000392,0.000108,-0.25708,0.515625,-0.078125,-0.071005,8.244541,5.314737,-0.008818,0.014327,0.004877,-0.186279,0.372559,0.47998,-1.103985,-7.042137,6.787823,0.01715,0.00604,-0.001372,0.651611,0.068115,-0.04834,1.794237,-7.325047,6.338734,0.011087,0.002483,0.004326,0.202148,0.321045,-0.573242,1.942826,-6.357777,7.230589,0.017854,0.012443,-0.021882,-0.376709,0.407227,-0.35376
1.54943,-7.402549,6.269369,-0.011775,-0.004672,-0.001413,-0.254395,0.515869,-0.080078,-0.115911,8.243879,5.279915,-0.007121,-0.001005,0.002882,-0.183838,0.38208,0.488037,-1.14665,-6.991118,6.80758,0.004722,0.014149,0.005483,0.653564,0.070801,-0.047852,1.828955,-7.206525,6.408534,0.01741,0.008359,0.00368,0.206299,0.324219,-0.575195,1.894722,-6.323513,7.248629,0.007875,0.023132,0.008868,-0.373291,0.409424,-0.355713
1.553301,-7.441544,6.260246,0.01245,-0.000326,-0.00061,-0.259033,0.522461,-0.076172,-0.056101,8.257558,5.267147,0.005233,0.009092,0.004342,-0.185059,0.38208,0.486816,-1.153477,-7.033007,6.814163,-0.008322,0.001384,0.000844,0.647949,0.077881,-0.045898,1.803434,-7.294545,6.427874,-0.025108,-0.000942,0.016492,0.198242,0.327393,-0.571533,1.884322,-6.307488,7.236696,0.006226,-0.002186,-0.014247,-0.379395,0.417969,-0.35376
1.539475,-7.367699,6.29009,0.002167,-0.001555,0.001348,-0.258789,0.515381,-0.072021,-0.10782,8.263259,5.303258,-0.018969,0.007635,0.005129,-0.182617,0.377686,0.483887,-1.115316,-7.034564,6.823137,-0.003045,0.005466,0.001825,0.650146,0.071045,-0.04126,1.830119,-7.329096,6.431028,0.009892,-0.002236,0.005371,0.199707,0.323975,-0.565674,1.955447,-6.320562,7.218303,-0.011667,0.004716,0.001144,-0.378174,0.408691,-0.348877
1.554945,-7.427764,6.278272,-0.008692,0.00078,0.000124,-0.265381,0.516113,-0.07251,-0.056099,8.228056,5.24869,-0.013563,-0.000263,0.005752,-0.183105,0.377197,0.476807,-1.18297,-7.003919,6.809718,-4.6e-05,0.002239,-0.002826,0.64209,0.073975,-0.041504,1.814035,-7.237907,6.425593,-0.00737,0.006101,0.010641,0.19458,0.32373,-0.566406,1.851118,-6.34767,7.236403,-0.000484,0.006556,0.002719,-0.382812,0.410156,-0.350586
1.555939,-7.420648,6.254969,-3.7e-05,0.003437,-0.000155,-0.249023,0.522217,-0.082275,-0.091931,8.247436,5.306069,-0.009225,0.013348,0.005188,-0.190918,0.383057,0.47998,-1.109988,-6.997514,6.784913,-0.018239,-0.004904,-0.00356,0.658447,0.076904,-0.052002,1.815208,-7.288692,6.351736,-0.023214,-0.007378,0.013508,0.20874,0.330811,-0.578369,1.927409,-6.318869,7.218098,0.002193,-0.024647,-0.013275,-0.369385,0.416992,-0.361816
1.549723,-7.428625,6.256366,0.001021,0.005713,0.000935,-0.265869,0.516602,-0.07666,-0.103629,8.237671,5.281116,-0.013013,-8.5e-05,0.005998,-0.186768,0.39209,0.488525,-1.126245,-7.071889,6.781668,-0.017735,0.008456,0.005083,0.641846,0.068604,-0.042969,1.813419,-7.291136,6.349442,-0.001028,0.00361,0.009415,0.192871,0.323242,-0.568848,1.931675,-6.347081,7.20745,-0.008508,-0.010523,0.007821,-0.385742,0.411133,-0.351807
1.531329,-7.382026,6.250854,0.002894,0.007275,0.001185,-0.25293,0.52417,-0.074463,-0.044371,8.259784,5.292136,-0.006749,0.010448,0.003889,-0.179932,0.375244,0.490234,-1.132354,-7.039106,6.784495,0.012368,0.001943,-0.005297,0.656006,0.079346,-0.043701,1.817559,-7.269033,6.351221,-0.005062,-0.000261,0.009423,0.205566,0.333252,-0.568604,1.900518,-6.309489,7.25594,0.006283,-0.020229,-0.017157,-0.373047,0.418945,-0.351074
1.542196,-7.453021,6.230813,-0.013302,0.004475,0.001291,-0.253418,0.522461,-0.069336,-0.118949,8.212493,5.298868,-0.011929,0.002645,0.005677,-0.186768,0.376953,0.483887,-1.119035,-7.004001,6.808291,-0.002439,0.008608,0.004657,0.652588,0.077393,-0.036133,1.846578,-7.270354,6.360034,0.004678,0.006384,0.009052,0.203613,0.328613,-0.561523,1.950374,-6.355679,7.238673,-0.018034,-0.027607,0.007576,-0.375488,0.416992,-0.343994
1.528908,-7.416147,6.260475,0.022244,0.004076,-0.000188,-0.25293,0.515869,-0.078369,-0.046802,8.242391,5.279925,0.003305,0.006449,0.002936,-0.176514,0.391113,0.47876,-1.164463,-7.034902,6.813327,-0.004204,0.005757,0.002265,0.655029,0.069336,-0.048584,1.799301,-7.255583,6.412638,-0.003274,0.004082,0.009557,0.204834,0.323975,-0.57373,1.954868,-6.348412,7.258876,0.022101,-0.006428,-0.01062,-0.374756,0.409912,-0.354492
1.529334,-7.347306,6.243019,-0.009587,0.002023,0.001355,-0.260742,0.515869,-0.080322,-0.117277,8.280929,5.278965,-0.014297,0.010843,0.006252,-0.181885,0.382568,0.477783,-1.135899,-7.02581,6.821877,-0.000635,0.003567,0.000538,0.645752,0.072998,-0.050781,1.830076,-7.279111,6.424279,-0.006437,-0.001544,0.008125,0.197754,0.324951,-0.574219,1.952625,-6.29066,7.287923,-0.004841,-0.00241,-0.005215,-0.38208,0.410156,-0.355957
1.555748,-7.486379,6.233141,-0.011123,-0.004326,-0.001464,-0.257568,0.515137,-0.078857,-0.067684,8.230211,5.279028,-0.017418,-0.003863,0.004799,-0.174561,0.373779,0.482178,-1.14906,-7.021074,6.804081,-0.00843,0.001597,0.000239,0.649414,0.067139,-0.046143,1.82595,-7.278693,6.409595,-0.006846,0.00177,0.011811,0.200439,0.321777,-0.575439,1.951242,-6.368433,7.247284,-0.012553,0.004484,0.007552,-0.378418,0.406738,-0.354736
1.533375,-7.387029,6.233005,0.023096,-7.3e-05,-0.000872,-0.258301,0.518311,-0.083984,-0.082439,8.241188,5.283803,-0.001115,0.016153,0.005326,-0.180176,0.380615,0.480713,-1.123401,-7.038816,6.778156,-0.007493,0.000638,-0.002423,0.650635,0.072754,-0.05249,1.814954,-7.272392,6.354524,-0.005682,-0.002366,0.008722,0.19873,0.325928,-0.580322,1.938708,-6.339611,7.243702,0.012441,0.022196,-0.015954,-0.377686,0.411621,-0.358643
1.552585,-7.404122,6.28319,-0.019858,-0.006453,-0.00079,-0.255127,0.521729,-0.079102,-0.111682,8.246477,5.303487,-0.014935,-0.003745,0.005746,-0.188232,0.377686,0.489746,-1.123661,-7.029533,6.785519,-0.008131,0.006481,0.002277,0.65332,0.075195,-0.047363,1.80743,-7.263252,6.341393,-0.010963,0.002305,0.012397,0.202393,0.328857,-0.571777,1.902642,-6.343258,7.234261,-0.008652,0.013001,0.010332,-0.377441,0.415283,-0.355225
1.568491,-7.469978,6.230805,0.007728,-0.00168,0.000522,-0.261719,0.518799,-0.077393,-0.045218,8.235745,5.290299,-0.008814,0.010293,0.003803,-0.181641,0.378174,0.483398,-1.115231,-7.040412,6.785539,-0.001194,0.003629,-0.001369,0.648682,0.074219,-0.046143,1.810503,-7.309874,6.360921,-0.00472,-0.002155,0.009227,0.197754,0.326172,-0.57251,1.91139,-6.33695,7.227646,0.010819,0.003225,-0.011609,-0.381592,0.412842,-0.356934
1.541096,-7.383294,6.285574,0.009237,0.000858,-0.000917,-0.257324,0.517822,-0.07666,-0.109101,8.233253,5.298963,-0.003839,0.007825,0.004991,-0.1875,0.374512,0.486328,-1.145696,-7.028493,6.794003,0.002585,0.011008,0.004533,0.64917,0.070312,-0.045898,1.836686,-7.274762,6.397581,0.014756,0.005743,0.004996,0.202148,0.324219,-0.572998,1.920887,-6.33028,7.221153,-0.007329,0.013562,0.000256,-0.378174,0.409912,-0.35376
1.543875,-7.411419,6.263831,-0.00206,0.000261,-0.000602,-0.254395,0.525635,-0.080322,-0.072428,8.256596,5.25546,-0.001342,-0.000153,0.003796,-0.185059,0.377686,0.482422,-1.166484,-7.015349,6.813014,0.007276,0.004142,-0.0017,0.653564,0.07959,-0.046631,1.809708,-7.265394,6.410721,-0.0115,0.003167,0.012673,0.201904,0.332764,-0.574951,1.865695,-6.360304,7.225043,0.007525,-0.00738,-0.001127,-0.375732,0.418213,-0.35791
1.553379,-7.419158,6.257372,-0.001083,0.003066,0.000883,-0.255615,0.520264,-0.070312,-0.098575,8.259353,5.302528,-0.015409,0.013199,0.006459,-0.181396,0.383789,0.485352,-1.136844,-6.997967,6.801722,-0.007263,0.0024,0.000816,0.652344,0.075439,-0.041016,1.839268,-7.309081,6.412026,-0.004346,-0.001571,0.008553,0.201904,0.326904,-0.563477,1.944925,-6.309666,7.22822,0.006066,-0.014825,-0.013387,-0.376465,0.416016,-0.346436
1.542909,-7.411725,6.263708,0.000977,0.002805,0.001485,-0.262451,0.520508,-0.075928,-0.080277,8.22487,5.272413,-0.013037,-0.000395,0.004443,-0.1875,0.380615,0.475586,-1.152597,-7.039339,6.826063,-0.015001,0.004731,0.002456,0.646973,0.074951,-0.043701,1.806688,-7.248533,6.418568,-0.001927,0.004872,0.009386,0.198975,0.328125,-0.568604,1.910531,-6.320755,7.246885,-0.010334,-0.001918,0.008336,-0.379883,0.414062,-0.353027
1.558531,-7.387504,6.260614,0.000507,0.005075,-0.000951,-0.254639,0.512695,-0.078613,-0.074745,8.272947,5.291992,-0.003856,0.010203,0.004174,-0.178467,0.37793,0.485596,-1.141909,-7.03493,6.785003,-0.000593,-0.004321,-0.005977,0.654297,0.067383,-0.048096,1.82442,-7.290188,6.386414,-0.018325,-0.006731,0.011537,0.20459,0.319336,-0.573975,1.891473,-6.34105,7.238788,-0.005429,-0.01879,-0.013926,-0.375488,0.406982,-0.355225
1.557608,-7.438164,6.242472,-0.012907,0.004502,0.000298,-0.259277,0.526123,-0.072754,-0.100693,8.239114,5.29477,-0.021987,0.001272,0.005168,-0.185791,0.384277,0.483887,-1.114932,-7.020332,6.786197,-0.008826,0.005744,0.000876,0.649658,0.082764,-0.04541,1.83826,-7.267382,6.343056,-0.00197,0.004384,0.007926,0.200439,0.33374,-0.569824,1.955471,-6.360901,7.225954,-0.007678,-0.015419,0.005034,-0.378174,0.421387,-0.350342
1.558437,-7.424948,6.260028,0.013576,0.004091,0.001076,-0.264648,0.518066,-0.078613,-0.038145,8.240314,5.276426,-0.003695,0.007017,0.005553,-0.186035,0.378906,0.489746,-1.136108,-7.041132,6.77658,-0.006067,0.004216,0.000287,0.642334,0.072998,-0.048828,1.804308,-7.274588,6.368459,-0.002922,0.002183,0.00936,0.195557,0.325195,-0.574707,1.920926,-6.343208,7.254716,0.014816,-0.00718,-0.009814,-0.38501,0.412598,-0.354248
1.533326,-7.383592,6.264961,-0.007158,0.002554,-0.000177,-0.251953,0.512695,-0.072266,-0.119017,8.261159,5.295756,-0.004947,0.008825,0.004846,-0.181885,0.384033,0.485352,-1.11774,-7.040813,6.795364,-0.002365,0.0051,0.002215,0.654541,0.06665,-0.04248,1.829367,-7.287191,6.368563,-0.005417,-0.00085,0.010078,0.203613,0.319824,-0.56543,1.950891,-6.331024,7.262997,-0.01153,-0.01052,-0.002869,-0.374512,0.405762,-0.348389
1.54309,-7.456707,6.214835,0.00491,-0.00047,-0.000777,-0.257568,0.523193,-0.074951,-0.068778,8.246485,5.283016,-0.008213,-0.000707,0.005425,-0.187744,0.380859,0.481689,-1.151341,-7.033288,6.788084,0.005904,0.00714,0.001696,0.648682,0.078369,-0.043213,1.825177,-7.273862,6.399036,0.001494,0.00663,0.008684,0.200195,0.328857,-0.569092,1.954595,-6.373839,7.243159,-2e-06,-0.002291,0.002486,-0.376953,0.41748,-0.35083
1.53443,-7.358947,6.270198,0.010645,0.000252,-0.000265,-0.260986,0.511963,-0.077393,-0.087158,8.25178,5.294188,-0.005928,0.015442,0.005522,-0.182129,0.382324,0.477783,-1.141059,-6.992354,6.804671,0.002184,0.004064,-0.002267,0.646973,0.069092,-0.046143,1.842667,-7.2605,6.419299,0.0009,-0.001357,0.006916,0.19751,0.320068,-0.570557,1.933509,-6.321806,7.256823,0.015714,0.007909,-0.015391,-0.379395,0.408691,-0.353027
1.56199,-7.428873,6.243099,-0.015041,-0.003722,-0.000188,-0.259766,0.514893,-0.074463,-0.097392,8.241183,5.282365,-0.011803,-0.002515,0.003603,-0.184326,0.375732,0.480713,-1.142923,-7.022737,6.805928,-0.01678,0.003058,0.003204,0.648438,0.06958,-0.043701,1.824522,-7.257965,6.421518,-0.013892,0.005086,0.012411,0.200439,0.32251,-0.568359,1.940066,-6.343112,7.250079,-0.015499,0.009849,0.010921,-0.379395,0.407227,-0.350586
1.57365,-7.42307,6.254251,0.016488,-0.00032,0.000994,-0.262451,0.518311,-0.07373,-0.061027,8.255149,5.27452,-0.006881,0.00889,0.004142,-0.181641,0.384277,0.484375,-1.140487,-7.041018,6.802434,-0.002619,5.2e-05,-0.004079,0.644043,0.070801,-0.04541,1.813996,-7.307872,6.378522,-0.009457,-0.003718,0.009103,0.195068,0.325439,-0.57251,1.920152,-6.355669,7.213928,0.012307,0.008681,-0.013167,-0.383545,0.414551,-0.351318
1.539555,-7.374206,6.265226,-0.009981,-0.002579,-0.000769,-0.255859,0.519287,-0.078125,-0.111143,8.241028,5.267746,-0.017592,0.006408,0.006712,-0.185059,0.388672,0.484131,-1.142892,-7.017121,6.783095,-0.004862,0.007127,0.000776,0.64917,0.071289,-0.049316,1.836832,-7.263087,6.351953,0.000362,-0.000501,0.007194,0.202148,0.326416,-0.573242,1.908362,-6.333327,7.231258,-0.008146,0.012872,0.001118,-0.378174,0.412598,-0.35376
1.549094,-7.466007,6.250289,0.000896,-0.001242,-0.001234,-0.250244,0.518799,-0.080566,-0.062872,8.218685,5.276115,-0.001357,-0.000474,0.002258,-0.191162,0.374268,0.487793,-1.151114,-7.032557,6.79954,-0.006551,0.00305,9.2e-05,0.658691,0.075439,-0.050049,1.789856,-7.275933,6.378039,-0.013086,0.005743,0.013493,0.20752,0.326904,-0.574463,1.891818,-6.360453,7.226724,0.000775,-0.000721,-0.000297,-0.369141,0.415527,-0.355713
1.563664,-7.38871,6.274378,0.010294,0.003134,0.000173,-0.256592,0.514893,-0.077881,-0.091771,8.259176,5.284478,-0.009926,0.014003,0.00437,-0.179443,0.374756,0.48584,-1.105695,-7.029754,6.782739,0.001846,0.004793,-0.001948,0.652344,0.068848,-0.047119,1.823511,-7.294148,6.368739,0.004179,-0.005038,0.005723,0.203613,0.31958,-0.572266,1.928226,-6.335008,7.216588,0.002231,-0.00981,-0.012467,-0.371582,0.408936,-0.35498
1.542235,-7.402479,6.243349,-0.007132,0.001789,0.000966,-0.258057,0.516113,-0.080811,-0.090959,8.248455,5.26442,-0.008361,-0.001245,0.004496,-0.188477,0.378174,0.47583,-1.149501,-7.030761,6.78585,0.001036,0.00882,0.004372,0.649414,0.074219,-0.048096,1.81515,-7.249548,6.398205,0.001225,0.009,0.010328,0.202148,0.322266,-0.575195,1.903761,-6.346475,7.249302,-0.000736,-0.005175,0.008161,-0.378906,0.411377,-0.356934
1.544102,-7.415743,6.247247,0.003218,0.005158,-0.000398,-0.255127,0.515869,-0.081787,-0.074081,8.278607,5.287556,-0.00345,0.012539,0.004228,-0.189453,0.374023,0.484619,-1.137342,-7.015221,6.82019,-0.002842,0.001661,-0.002142,0.652832,0.068359,-0.052002,1.813019,-7.291955,6.391202,-0.013147,-0.002104,0.010469,0.201416,0.32251,-0.573975,1.920481,-6.326253,7.232693,0.005422,-0.015892,-0.015747,-0.375,0.408203,-0.356445
1.553154,-7.407561,6.267562,-0.004596,0.001025,0.000182,-0.253174,0.520996,-0.07251,-0.111142,8.245249,5.297968,-0.017446,0.00021,0.005825,-0.187744,0.381104,0.486328,-1.122601,-7.051863,6.795967,-0.012141,0.002982,0.002469,0.651855,0.076904,-0.043945,1.830687,-7.280057,6.409834,-0.001249,0.002075,0.00803,0.20459,0.328125,-0.56543,1.944376,-6.356508,7.248939,-0.016008,-0.011025,0.009516,-0.375488,0.415039,-0.347656
1.55234,-7.397058,6.254432,0.00628,0.002361,-0.000283,-0.258789,0.519043,-0.076172,-0.047921,8.236978,5.25769,-0.007158,0.008132,0.003835,-0.181641,0.377441,0.475342,-1.141089,-7.022131,6.801738,7.7e-05,0.00085,-0.005363,0.64624,0.074951,-0.044922,1.833231,-7.27074,6.416896,-0.008612,0.000412,0.00873,0.197998,0.323242,-0.570312,1.92702,-6.34799,7.242162,0.015874,-0.007198,-0.01059,-0.380615,0.413086,-0.351807
1.542422,-7.405905,6.233543,-0.01337,0.002334,0.000696,-0.254639,0.515625,-0.078369,-0.132307,8.251086,5.285022,-0.013743,0.007316,0.006936,-0.182617,0.379883,0.479492,-1.15027,-7.013032,6.799751,-0.010961,0.002608,-9.6e-05,0.65332,0.070312,-0.046631,1.822505,-7.264735,6.361238,-0.010312,-0.001962,0.010529,0.204834,0.321777,-0.572754,1.937176,-6.334823,7.264485,-0.01822,-0.005625,0.001827,-0.374756,0.410889,-0.353516
1.569209,-7.460145,6.233014,0.007934,0.000169,-0.000817,-0.252197,0.51709,-0.073975,-0.040542,8.237668,5.282416,-0.006587,0.000532,0.003461,-0.183838,0.379639,0.480469,-1.129095,-7.043666,6.777658,-0.010502,0.003853,0.002228,0.655273,0.071533,-0.04126,1.815217,-7.296872,6.341643,-0.010755,0.002853,0.010815,0.20752,0.321289,-0.571289,1.93496,-6.391767,7.212045,-7.9e-05,-0.004678,0.002641,-0.373779,0.411133,-0.348633
1.548367,-7.358175,6.263423,0.001872,0.001562,0.000251,-0.259033,0.515625,-0.084473,-0.101453,8.250613,5.306294,-0.008822,0.014357,0.004875,-0.186279,0.386475,0.476318,-1.120736,-7.054512,6.7777,0.00138,0.005818,-0.000104,0.645996,0.071533,-0.055664,1.816403,-7.280421,6.364314,0.003082,0.001561,0.008323,0.197266,0.32373,-0.579102,1.952243,-6.329159,7.247284,0.013813,0.000689,-0.016108,-0.381348,0.409424,-0.361572
1.551781,-7.457883,6.249946,-0.008692,0.000781,0.000119,-0.258545,0.514404,-0.080811,-0.080002,8.241139,5.255849,-0.007678,-0.003544,0.003406,-0.185303,0.38623,0.479736,-1.151477,-7.039877,6.815434,0.001373,0.008089,0.00406,0.650391,0.070068,-0.050537,1.809953,-7.264667,6.381881,-0.00131,0.005478,0.009582,0.202148,0.323486,-0.574219,1.928889,-6.333446,7.250949,-0.006743,0.004491,0.012162,-0.376953,0.411621,-0.356445
1.545502,-7.39452,6.242663,0.02072,-0.000369,-0.000874,-0.253906,0.518066,-0.075439,-0.070411,8.259432,5.292375,-0.001119,0.013141,0.003097,-0.186279,0.385254,0.482666,-1.138174,-7.00795,6.809634,0.002283,0.002755,-0.002677,0.654053,0.073975,-0.044678,1.821155,-7.274789,6.399359,-0.001338,-0.000889,0.00705,0.203369,0.325684,-0.570557,1.926361,-6.353942,7.23038,0.00628,0.002925,-0.017868,-0.375732,0.411621,-0.350098
1.535834,-7.386285,6.249737,-0.011295,-0.000596,0.000312,-0.257812,0.522461,-0.078857,-0.122457,8.247183,5.271087,-0.016228,0.003168,0.004889,-0.174316,0.378418,0.477539,-1.145723,-7.015123,6.806072,-0.009982,0.007126,0.002333,0.64917,0.078857,-0.048828,1.834676,-7.272469,6.411147,-0.002153,0.003342,0.008006,0.200195,0.329102,-0.571777,1.930417,-6.346914,7.2422,-0.004371,0.007881,0.006699,-0.37793,0.418457,-0.355957
1.565486,-7.454016,6.252606,-0.001139,-0.001747,-0.000694,-0.255615,0.519775,-0.081543,-0.056878,8.245715,5.280217,-0.009214,0.005601,0.004553,-0.1875,0.384033,0.479492,-1.150423,-7.039889,6.79977,-0.009102,0.000779,-0.003296,0.649902,0.077881,-0.051025,1.801301,-7.273359,6.400739,-0.017146,0.000408,0.01298,0.204102,0.327393,-0.578369,1.913332,-6.33833,7.227123,0.007708,0.003825,-0.007943,-0.375488,0.414795,-0.357666
1.554314,-7.409666,6.259082,0.005654,0.001251,0.000908,-0.253662,0.518311,-0.06958,-0.106689,8.258239,5.296314,-0.011153,0.011064,0.005287,-0.181885,0.384521,0.482422,-1.11374,-7.02791,6.781168,-0.006455,0.001737,-0.000323,0.652832,0.07373,-0.038818,1.828513,-7.300999,6.369008,-0.002129,-0.003539,0.007897,0.204346,0.325928,-0.565186,1.93712,-6.333232,7.224054,-0.010108,-3.1e-05,-0.003854,-0.375488,0.412354,-0.344238
1.552384,-7.406768,6.26869,-0.001559,-0.001008,-0.000846,-0.260986,0.521484,-0.07666,-0.078029,8.233648,5.279163,-0.011265,-0.00098,0.004187,-0.180176,0.370361,0.480225,-1.147455,-7.039963,6.784357,-0.001284,0.006034,7.2e-05,0.64624,0.077393,-0.043945,1.811751,-7.263766,6.362583,-0.003268,0.002583,0.009043,0.195557,0.328125,-0.569824,1.901643,-6.365888,7.212655,-0.000187,-0.001043,0.003767,-0.381104,0.415527,-0.353516
1.574614,-7.400916,6.250886,-0.000728,0.006527,-0.000265,-0.263672,0.515381,-0.078369,-0.082278,8.254059,5.297593,-0.006602,0.011325,0.006341,-0.178467,0.377197,0.479736,-1.130697,-7.014879,6.784926,-0.00397,0.002967,-0.002812,0.64624,0.070801,-0.047607,1.809969,-7.27963,6.380622,-0.008169,-0.000515,0.011441,0.195557,0.325439,-0.57251,1.923415,-6.332039,7.228397,0.006048,-0.013959,-0.015329,-0.383057,0.4104,-0.353516
1.533295,-7.444421,6.254633,-0.001504,0.003805,0.00073,-0.261475,0.527588,-0.078613,-0.092388,8.243689,5.285476,-0.008935,0.000969,0.003413,-0.185547,0.380615,0.479736,-1.156838,-7.056201,6.799769,-0.011356,0.011209,0.006751,0.64502,0.07959,-0.048828,1.816067,-7.286566,6.370381,-0.003329,0.006985,0.009629,0.192383,0.330811,-0.574219,1.943804,-6.354627,7.233774,-0.011024,-0.008541,0.010564,-0.382812,0.417236,-0.35498
1.531114,-7.407257,6.255439,0.010574,0.002686,0.00226,-0.259033,0.515625,-0.079834,-0.065099,8.26556,5.26482,-0.002332,0.00781,0.004833,-0.181396,0.394287,0.486084,-1.150516,-7.031212,6.79076,0.009689,0.001159,-0.003995,0.647461,0.071289,-0.048096,1.802672,-7.30173,6.419428,-0.000746,-0.00127,0.008221,0.200195,0.322754,-0.572998,1.92717,-6.352992,7.247597,0.010636,-0.013681,-0.01559,-0.379883,0.411865,-0.354004
1.541531,-7.391193,6.253282,-0.010438,0.001597,-0.00108,-0.257324,0.522949,-0.079346,-0.095764,8.253741,5.28337,-0.018161,0.00626,0.006424,-0.185303,0.378906,0.479004,-1.140107,-6.987852,6.836598,-0.002677,0.006837,0.001431,0.651123,0.079346,-0.049072,1.84952,-7.273231,6.41576,0.00224,0.000415,0.005775,0.200684,0.330566,-0.574463,1.954349,-6.333534,7.244413,-0.006618,-0.007579,0.003718,-0.377197,0.417725,-0.355469
1.551576,-7.459096,6.242877,0.00571,0.001487,-0.000629,-0.258057,0.518066,-0.076172,-0.053057,8.244399,5.273304,-0.005908,0.002281,0.003453,-0.187744,0.37793,0.47876,-1.142813,-7.039675,6.819724,-0.015132,0.002746,-0.00019,0.649902,0.073242,-0.04541,1.810791,-7.262509,6.394324,-0.015537,0.003715,0.013205,0.201172,0.321289,-0.572754,1.927515,-6.352584,7.256168,0.001596,0.001822,-0.002678,-0.378418,0.41333,-0.353027
1.536425,-7.36494,6.245491,0.003024,0.000638,-4.1e-05,-0.259033,0.517822,-0.078613,-0.115811,8.249982,5.317608,-0.009909,0.011955,0.006712,-0.187012,0.379395,0.479492,-1.119939,-7.051787,6.786234,-0.006606,-0.00125,-0.001859,0.649414,0.073242,-0.04541,1.824743,-7.295641,6.363477,-0.010182,-0.003888,0.009439,0.199707,0.324463,-0.57251,1.933448,-6.325478,7.246515,-0.006482,-0.00064,-0.007914,-0.378906,0.411865,-0.35376
1.562384,-7.443094,6.24055,-0.012936,-0.001075,-0.000141,-0.263184,0.511963,-0.080322,-0.088423,8.22642,5.287298,-0.017461,-0.002466,0.005063,-0.189209,0.383301,0.478271,-1.139486,-7.040516,6.803577,-0.004221,0.004652,0.001257,0.645752,0.069092,-0.046631,1.821673,-7.275803,6.358465,-0.00486,0.004161,0.010843,0.196777,0.321533,-0.575195,1.926092,-6.367445,7.213428,-0.005751,0.001082,0.004641,-0.382568,0.408203,-0.355469
1.557949,-7.427279,6.246005,0.016611,0.002058,5.2e-05,-0.255615,0.522217,-0.072266,-0.065789,8.225043,5.27265,-0.000545,0.012596,0.006069,-0.185791,0.380127,0.48877,-1.1363,-7.03072,6.769714,0.001687,0.004075,0.000692,0.652832,0.076904,-0.043945,1.809345,-7.283476,6.373012,0.000324,-0.000998,0.005724,0.203125,0.328369,-0.570801,1.941653,-6.347168,7.238974,0.011888,0.004628,-0.012954,-0.375,0.41748,-0.349365
1.537411,-7.385011,6.273007,-0.001953,-0.001033,0.000145,-0.258789,0.520752,-0.073486,-0.10533,8.266023,5.28883,-0.00549,0.000883,0.003956,-0.182861,0.387695,0.479248,-1.148055,-7.02589,6.818144,-0.000475,0.008737,0.004121,0.650146,0.07666,-0.041748,1.819467,-7.271935,6.387058,-0.000163,0.004229,0.010471,0.200439,0.326172,-0.568115,1.915441,-6.344734,7.230828,-0.010015,0.000186,0.007318,-0.37915,0.415283,-0.347168
1.565664,-7.431328,6.250076,-0.001572,0.001663,0.000139,-0.262451,0.523926,-0.081055,-0.051311,8.238909,5.281894,-0.01101,0.006218,0.004755,-0.18335,0.383545,0.481445,-1.139227,-7.028025,6.798591,-0.000548,0.00116,-0.000889,0.646973,0.078369,-0.050537,1.818095,-7.294697,6.389988,-0.009387,0.002648,0.011598,0.197266,0.331055,-0.573486,1.930762,-6.359911,7.225532,0.008528,-0.003352,-0.008253,-0.381348,0.418945,-0.355225
1.520227,-7.398944,6.262897,0.002942,0.001167,0.000354,-0.262695,0.526611,-0.075439,-0.105316,8.237368,5.269155,-0.009908,0.009261,0.005986,-0.188965,0.382568,0.489014,-1.127822,-7.044795,6.805878,-0.006945,0.008285,0.001758,0.645752,0.084473,-0.043945,1.826078,-7.295942,6.409267,0.00619,0.000305,0.005772,0.196533,0.33374,-0.567383,1.938003,-6.324874,7.237523,-0.00132,0.003459,-0.002767,-0.383057,0.422119,-0.35083
1.547608,-7.418527,6.253857,0.001071,-0.000395,0.000104,-0.254395,0.521973,-0.075928,-0.088881,8.241019,5.269205,-0.003985,0.000549,0.002262,-0.179443,0.382812,0.4729,-1.17056,-7.03892,6.78748,-0.003349,0.000577,-0.000212,0.655273,0.073486,-0.043701,1.822854,-7.246331,6.36703,-0.012635,0.000449,0.011706,0.205811,0.32959,-0.568115,1.912406,-6.357848,7.240213,-0.003473,0.000234,0.000856,-0.373779,0.415527,-0.348633
1.552622,-7.394884,6.279092,-0.003294,0.001714,8.4e-05,-0.265381,0.519775,-0.070068,-0.079498,8.276556,5.294903,-0.016389,0.010745,0.006111,-0.185303,0.37793,0.487061,-1.120423,-7.010733,6.804354,-0.004971,-0.001469,-0.00312,0.645996,0.076172,-0.040283,1.819039,-7.302171,6.364162,-0.010867,-0.003577,0.011253,0.192627,0.327393,-0.565186,1.931184,-6.338496,7.213923,0.000128,-0.009783,-0.010936,-0.385254,0.414307,-0.344727
1.544211,-7.440289,6.258296,-0.004365,0.002108,-2e-05,-0.264404,0.514893,-0.079834,-0.088168,8.21935,5.28679,-0.016651,0.000859,0.004799,-0.187256,0.379883,0.486572,-1.144273,-7.036281,6.77845,-0.012821,0.005522,0.004121,0.645508,0.070557,-0.050537,1.832148,-7.25961,6.381542,0.00075,0.004947,0.008554,0.196533,0.323486,-0.574219,1.93748,-6.359896,7.215445,-0.004449,0.00035,0.003959,-0.383545,0.411133,-0.356445
1.549655,-7.398007,6.248277,0.008488,0.003712,0.000516,-0.25708,0.518555,-0.08252,-0.061663,8.250549,5.288355,0.004136,0.010058,0.004265,-0.172852,0.381104,0.487061,-1.132834,-7.053468,6.785305,0.000168,0.001813,-0.001611,0.650879,0.073242,-0.04834,1.80632,-7.258132,6.378062,-0.010387,-3.5e-05,0.01156,0.200195,0.32373,-0.576904,1.904903,-6.342891,7.234944,0.007136,-0.009716,-0.011281,-0.381836,0.412842,-0.358154
1.543446,-7.406061,6.249575,-0.008029,0.003031,0.002196,-0.255859,0.525879,-0.071045,-0.094347,8.258968,5.279981,-0.014177,0.004693,0.005314,-0.181152,0.387207,0.477783,-1.119224,-7.021818,6.779354,0.000194,0.006186,0.00247,0.653076,0.080566,-0.043213,1.836531,-7.294218,6.345138,-0.001646,0.000993,0.007225,0.202148,0.333496,-0.56958,1.94439,-6.366389,7.226408,-0.006721,-0.009094,0.001945,-0.377441,0.421143,-0.348145
1.549416,-7.424236,6.235261,0.007257,0.000588,-0.00191,-0.265137,0.523438,-0.077393,-0.051503,8.231392,5.282111,-0.010326,0.003921,0.003666,-0.178711,0.374023,0.478027,-1.153436,-7.02251,6.792044,0.00067,0.006257,0.001648,0.642822,0.076416,-0.047607,1.82646,-7.27705,6.398913,0.002621,0.003876,0.009081,0.193604,0.330078,-0.572998,1.942296,-6.338095,7.244851,0.008808,-0.004941,-0.006243,-0.385986,0.414307,-0.352539
1.551942,-7.386938,6.257213,-0.000665,0.002326,0.001033,-0.27002,0.517334,-0.074219,-0.101401,8.24447,5.297351,-0.002479,0.012668,0.005365,-0.183105,0.380859,0.480469,-1.131659,-7.019986,6.798004,-0.005357,0.004863,-0.000432,0.640869,0.07373,-0.045166,1.84396,-7.264521,6.418621,-0.006706,-0.000655,0.009225,0.191895,0.327148,-0.56958,1.947025,-6.34479,7.256221,-0.00704,-0.00205,-0.006968,-0.386963,0.414795,-0.350098
1.536301,-7.437657,6.246903,-0.005084,-0.000377,-0.000563,-0.268555,0.523682,-0.082764,-0.084875,8.266364,5.285219,-0.010301,-0.00188,0.006452,-0.185059,0.378174,0.482422,-1.158968,-7.036431,6.794652,-0.006619,0.001016,0.002305,0.639893,0.077148,-0.05249,1.805171,-7.294782,6.390795,-0.008195,0.003884,0.012006,0.189697,0.330322,-0.577881,1.921663,-6.371743,7.237348,-0.007581,0.001821,0.005714,-0.388428,0.416992,-0.358887
1.557752,-7.389339,6.269398,0.009911,0.000436,0.000183,-0.255371,0.517822,-0.075195,-0.064303,8.257007,5.291931,-0.016266,0.010665,0.003955,-0.190186,0.392334,0.482178,-1.119565,-7.029641,6.784068,0.00013,-0.000295,-0.001524,0.650635,0.072021,-0.043945,1.818466,-7.278823,6.382728,-0.00388,-0.005404,0.007248,0.202393,0.322021,-0.571777,1.944579,-6.330878,7.22375,0.017329,-0.000855,-0.014087,-0.376221,0.411621,-0.353271
1.540981,-7.403243,6.259215,-0.011864,-0.001469,-3.8e-05,-0.265869,0.524902,-0.076904,-0.099544,8.2307,5.282231,-0.011559,0.002322,0.004934,-0.188477,0.380371,0.486084,-1.146905,-7.03305,6.81872,-0.012791,0.006535,0.003014,0.644287,0.079834,-0.046875,1.827694,-7.272954,6.367041,-0.004516,0.003262,0.009674,0.194824,0.331299,-0.571777,1.933695,-6.349881,7.231653,-0.009631,0.004687,0.006137,-0.384766,0.419434,-0.353516
1.56923,-7.449473,6.236401,0.009303,0.002998,-0.000322,-0.258301,0.524902,-0.074707,-0.053023,8.272487,5.275721,-0.000407,0.006074,0.003652,-0.182861,0.37915,0.485352,-1.147455,-7.036665,6.788263,-0.000443,0.000944,-0.000285,0.650391,0.076416,-0.04541,1.804917,-7.281018,6.361047,-0.011813,0.0021,0.01181,0.200928,0.330566,-0.569824,1.926386,-6.350282,7.208011,-0.001939,-0.001338,-0.008577,-0.378174,0.418213,-0.351318
1.552791,-7.373279,6.275258,0.002383,0.002199,0.002135,-0.257568,0.521484,-0.079346,-0.099502,8.246943,5.273202,-0.017499,0.009067,0.005224,-0.182373,0.383789,0.482178,-1.121505,-7.021015,6.790582,0.00265,0.006402,0.001094,0.649902,0.077881,-0.047119,1.844924,-7.290946,6.373364,0.004916,0.00098,0.006418,0.200684,0.328125,-0.572021,1.942575,-6.372865,7.222778,-0.007409,-0.001846,-0.001919,-0.37793,0.415039,-0.354492
1.550346,-7.436443,6.240655,-0.00476,0.002083,0.000969,-0.257568,0.521973,-0.079102,-0.060591,8.231505,5.270008,-0.006878,-0.000216,0.003125,-0.184326,0.383789,0.482422,-1.139598,-7.025396,6.806936,-0.002576,0.006617,0.002041,0.648926,0.077881,-0.049316,1.811568,-7.263559,6.390099,-0.004505,0.008142,0.011716,0.199219,0.330811,-0.574463,1.920252,-6.3771,7.226302,0.01599,-0.00511,-0.000962,-0.379395,0.416504,-0.35376
1.541156,-7.40531,6.251031,0.005859,0.003098,-0.000433,-0.25708,0.516113,-0.083984,-0.078006,8.253962,5.282125,-0.001524,0.013511,0.003788,-0.182373,0.376465,0.484619,-1.120868,-7.027739,6.7966,-0.006353,0.00152,0.000277,0.648926,0.069092,-0.053223,1.831269,-7.279991,6.397508,-0.005054,-0.00664,0.006822,0.199951,0.321777,-0.578369,1.934836,-6.299678,7.229844,0.005368,-0.006153,-0.011333,-0.37793,0.406738,-0.360107
1.54503,-7.404952,6.272652,-0.004852,0.000706,-0.000763,-0.263672,0.52124,-0.077881,-0.088947,8.25296,5.292048,-0.015138,-0.001534,0.005426,-0.178955,0.378906,0.481934,-1.157764,-7.034045,6.792226,-0.005345,0.007048,0.001611,0.642578,0.073975,-0.043701,1.838253,-7.286599,6.387408,-0.00328,0.006972,0.009613,0.195068,0.325928,-0.573242,1.931163,-6.356067,7.228483,-0.020477,-9.5e-05,0.009493,-0.385986,0.414062,-0.352539
1.556049,-7.4047,6.243857,0.004244,0.001855,0.000259,-0.259033,0.520996,-0.082275,-0.066265,8.251218,5.278067,-0.008683,0.009526,0.004343,-0.182861,0.383545,0.480957,-1.135015,-7.031336,6.798572,0.003873,-0.001754,-0.005884,0.651123,0.075195,-0.050537,1.823049,-7.292842,6.387895,-0.00797,-0.001965,0.011791,0.201172,0.325195,-0.578613,1.931062,-6.371029,7.22716,0.006065,-0.00697,-0.013966,-0.378662,0.414307,-0.355469
1.554655,-7.42867,6.239495,-0.009086,0.000756,0.001105,-0.259277,0.518555,-0.072021,-0.094953,8.228495,5.28832,-0.014051,0.00493,0.004684,-0.184814,0.378174,0.480469,-1.118056,-7.017294,6.789948,-0.014676,0.005077,0.003152,0.646973,0.074463,-0.043945,1.835392,-7.255325,6.376305,-0.003181,-0.000833,0.007464,0.199219,0.326172,-0.570312,1.949976,-6.35848,7.22163,-0.008085,-0.003758,0.004164,-0.382812,0.413574,-0.349121
1.560264,-7.431263,6.251504,0.005859,0.003099,-0.000433,-0.248535,0.530273,-0.080811,-0.054799,8.248373,5.274169,-0.005225,0.004345,0.004979,-0.176025,0.378906,0.476318,-1.156382,-7.053671,6.78708,-0.008056,0.004062,0.000848,0.65918,0.083252,-0.049561,1.80721,-7.293383,6.352243,-0.015414,0.0052,0.01365,0.20874,0.339355,-0.572754,1.923375,-6.37708,7.233806,0.008125,-0.002267,-0.005138,-0.369873,0.423828,-0.355469
1.542216,-7.374093,6.2326,0.000149,0.001612,0.000195,-0.263916,0.520996,-0.073975,-0.100572,8.249004,5.295142,-0.012263,0.011064,0.006292,-0.191162,0.375732,0.47998,-1.130338,-7.038305,6.789153,0.007147,0.00335,-0.001169,0.644043,0.074951,-0.041748,1.822654,-7.293886,6.376946,0.005711,-0.003258,0.005456,0.196777,0.328613,-0.570312,1.945542,-6.322583,7.228866,-0.003669,-0.006089,-0.007113,-0.383789,0.414551,-0.349609
1.550257,-7.43959,6.231257,-0.006549,-8e-06,0.000322,-0.253418,0.519775,-0.076416,-0.064474,8.23665,5.264272,-0.008391,-0.001227,0.004442,-0.180176,0.38208,0.478027,-1.153961,-7.017198,6.829796,-0.002917,0.007342,0.002362,0.653564,0.07373,-0.046143,1.82847,-7.251681,6.389642,-0.00284,0.008033,0.010398,0.204102,0.327393,-0.57251,1.932731,-6.363758,7.214581,-0.00412,-0.000264,0.006381,-0.376709,0.413574,-0.352539
1.539581,-7.405643,6.251025,0.010199,0.001755,-0.001553,-0.261475,0.517334,-0.084229,-0.067602,8.256014,5.295726,-0.002075,0.013341,0.003539,-0.190186,0.381592,0.479492,-1.122409,-7.027802,6.807084,-0.007722,0.002242,-0.000493,0.646484,0.074219,-0.056396,1.808976,-7.283058,6.400955,-0.01063,-0.002543,0.011132,0.198242,0.324951,-0.579834,1.938957,-6.350072,7.246703,0.004582,-0.000851,-0.01601,-0.382812,0.409912,-0.359375
1.551015,-7.399423,6.26273,-0.004094,-0.000243,-6.4e-05,-0.253174,0.520508,-0.080322,-0.094245,8.259311,5.273021,-0.015974,0.00024,0.005573,-0.187988,0.384521,0.481689,-1.136934,-7.039057,6.82979,-0.001182,0.005814,0.000686,0.653809,0.075684,-0.047607,1.850116,-7.285477,6.378837,0.004018,0.001244,0.00736,0.203125,0.328613,-0.572266,1.930085,-6.377153,7.223635,-0.007763,0.000777,0.009486,-0.376465,0.416748,-0.356445
1.553192,-7.412575,6.266691,0.001707,0.002619,0.001041,-0.255615,0.509277,-0.077881,-0.050125,8.248518,5.276656,-0.007308,0.007623,0.0029,-0.17749,0.378174,0.487793,-1.147901,-6.99627,6.789957,0.001084,-0.000151,-0.003167,0.652588,0.064697,-0.047607,1.814987,-7.271178,6.400268,-0.011574,0.003134,0.011703,0.202393,0.316895,-0.570557,1.925341,-6.355221,7.222176,0.015514,-0.000548,-0.012061,-0.378174,0.405762,-0.352539
1.539544,-7.416109,6.264401,-0.006549,-8e-06,0.000322,-0.263184,0.523926,-0.081299,-0.116216,8.256664,5.293833,-0.0124,0.008147,0.006171,-0.182129,0.376465,0.475342,-1.117281,-7.034074,6.798467,-0.01769,0.004924,0.002619,0.647217,0.079834,-0.050537,1.816865,-7.289341,6.381102,-0.00945,-0.00031,0.010584,0.198486,0.32959,-0.575684,1.951563,-6.321738,7.219671,-0.009398,0.001551,-0.000123,-0.383057,0.416992,-0.355469
1.553556,-7.423193,6.279791,0.007991,0.000403,-0.002351,-0.261719,0.520752,-0.072021,-0.058599,8.253676,5.268252,-0.00481,0.000246,0.004751,-0.18335,0.375732,0.481934,-1.149652,-7.082389,6.809931,-0.002863,0.002832,0.001009,0.645752,0.075195,-0.04126,1.812565,-7.288781,6.366478,-0.004119,0.00384,0.008994,0.196045,0.327881,-0.567627,1.915004,-6.368246,7.208373,-0.0006,-0.002379,0.000539,-0.382568,0.414795,-0.347168
1.543638,-7.370854,6.263926,-0.001424,0.003275,0.000333,-0.25708,0.519775,-0.087646,-0.088083,8.258912,5.287776,-0.011444,0.013039,0.005684,-0.183105,0.377686,0.481201,-1.108047,-7.01631,6.79542,0.007997,0.00371,-0.003411,0.652344,0.074219,-0.052979,1.828314,-7.273919,6.373066,0.003689,-0.001746,0.005504,0.201172,0.323975,-0.579346,1.951243,-6.349759,7.218733,0.002334,-0.007882,-0.011675,-0.377441,0.414307,-0.360596
1.55581,-7.451969,6.257458,-0.00598,0.000865,0.000669,-0.259033,0.523438,-0.083008,-0.075754,8.229863,5.271832,-0.010741,-0.000781,0.004384,-0.181396,0.385254,0.481445,-1.141975,-7.017155,6.807956,-0.008278,0.007847,0.004833,0.649414,0.078613,-0.052734,1.835162,-7.253526,6.389084,-0.004157,0.007241,0.010549,0.198486,0.331543,-0.578369,1.928038,-6.368637,7.22147,-0.003265,-0.000886,0.008415,-0.380615,0.420166,-0.357666
1.552932,-7.388628,6.271431,0.015209,0.004565,0.001534,-0.259277,0.518311,-0.075195,-0.050081,8.27021,5.295777,-0.002485,0.01101,0.00348,-0.182617,0.377686,0.481201,-1.13419,-7.049521,6.789761,-0.005746,0.001297,-0.00207,0.645752,0.072998,-0.043457,1.821902,-7.288572,6.377315,-0.011738,-0.002298,0.011189,0.199463,0.326904,-0.572266,1.928667,-6.332918,7.210565,0.012396,-0.009378,-0.016113,-0.380615,0.413086,-0.352295
1.542839,-7.396999,6.251157,-0.015553,0.00022,0.00103,-0.259766,0.516846,-0.074951,-0.106713,8.235321,5.279619,-0.019432,0.0017,0.005361,-0.182617,0.383789,0.476318,-1.130829,-7.037803,6.784526,-0.004123,0.00443,0.001864,0.647461,0.071045,-0.045654,1.822368,-7.291976,6.389787,0.000886,0.002001,0.008439,0.195557,0.323486,-0.571045,1.962814,-6.342286,7.220587,-0.013645,-0.00393,0.007534,-0.381104,0.413086,-0.353027
1.553964,-7.441694,6.244322,0.006418,0.002066,-0.002212,-0.259766,0.519775,-0.084229,-0.022565,8.227309,5.279376,-0.004823,0.005021,0.00314,-0.185791,0.379883,0.489746,-1.148165,-7.042647,6.800522,-0.00024,0.003773,-0.002998,0.64624,0.074707,-0.050537,1.822762,-7.280222,6.383956,-0.005347,0.001129,0.008079,0.199219,0.327393,-0.578125,1.926193,-6.367308,7.239777,0.010992,-0.002587,-0.007949,-0.380615,0.414307,-0.358887
1.544197,-7.384037,6.268251,-0.000897,0.001242,0.001233,-0.262207,0.522217,-0.080322,-0.118491,8.27851,5.289991,-0.0113,0.011192,0.007408,-0.181885,0.378662,0.478516,-1.134293,-7.012104,6.793564,-0.012125,0.003982,0.001354,0.644775,0.07666,-0.051514,1.833055,-7.255353,6.37779,-0.007637,-0.002861,0.010613,0.194092,0.326416,-0.57666,1.954714,-6.348483,7.227228,-0.012325,-0.00153,-0.004071,-0.384033,0.418213,-0.354492
1.561439,-7.446498,6.247565,-0.003106,-0.000109,0.000434,-0.25415,0.516357,-0.084717,-0.045754,8.244678,5.27403,-0.010744,-0.003475,0.003646,-0.188477,0.382568,0.483398,-1.147227,-7.072314,6.786938,-0.005152,0.004426,0.000778,0.650391,0.072021,-0.053955,1.82312,-7.299316,6.364127,-0.007183,0.006079,0.010558,0.202881,0.322021,-0.578857,1.933901,-6.375516,7.240701,0.001951,-0.003807,0.005675,-0.375977,0.409668,-0.356934
1.537786,-7.381589,6.256267,0.008964,0.003207,-0.000866,-0.259277,0.516113,-0.081299,-0.075268,8.249676,5.293893,-0.008965,0.015524,0.005852,-0.182861,0.383545,0.478516,-1.119874,-7.02772,6.786702,0.005333,0.003926,-0.003237,0.650146,0.072266,-0.049072,1.809532,-7.285214,6.37538,0.005611,-0.00135,0.00652,0.19873,0.322266,-0.574707,1.953548,-6.340772,7.21579,0.011746,-0.003441,-0.017089,-0.381348,0.412354,-0.354492
1.545403,-7.436068,6.242327,-0.007455,-0.00067,-0.000573,-0.249023,0.522705,-0.078369,-0.101654,8.234937,5.282963,-0.007436,-0.002765,0.003651,-0.185791,0.372314,0.479492,-1.153715,-7.028676,6.799122,-0.006644,0.007625,0.003577,0.658691,0.075195,-0.049561,1.829338,-7.260125,6.389923,-0.006651,0.004218,0.01124,0.207764,0.328369,-0.572998,1.930925,-6.345634,7.218913,-0.010619,0.00295,0.010775,-0.372803,0.418457,-0.354492
1.55447,-7.41711,6.249633,0.010956,0.000805,-0.000851,-0.262207,0.522461,-0.082031,-0.047722,8.270577,5.275259,-0.003313,0.011432,0.003281,-0.179932,0.376953,0.483154,-1.122469,-7.036806,6.805618,-0.004241,0.001372,-0.001804,0.64624,0.078369,-0.05127,1.803371,-7.314525,6.39842,-0.009279,-0.000755,0.009992,0.195068,0.330078,-0.57959,1.931705,-6.352797,7.239253,0.006587,-0.004696,-0.016846,-0.383057,0.416504,-0.359131
1.556119,-7.403715,6.267163,-0.008946,0.000463,-0.00083,-0.259766,0.519043,-0.071777,-0.11049,8.24035,5.274221,-0.019715,0.00365,0.005764,-0.174072,0.384521,0.480469,-1.128839,-7.025424,6.790579,-0.004431,0.006171,0.001079,0.648682,0.07251,-0.041992,1.847043,-7.278009,6.396362,0.004555,0.001369,0.006114,0.197266,0.324707,-0.566895,1.950723,-6.361419,7.203485,-0.013552,0.002159,0.004338,-0.380371,0.414551,-0.3479
1.563257,-7.448336,6.239259,0.003988,0.001537,-0.000683,-0.257324,0.518311,-0.077148,-0.037264,8.23247,5.282049,-0.002751,0.00143,0.003681,-0.181396,0.387695,0.476318,-1.149206,-7.024462,6.799198,-0.002939,0.002972,-0.001721,0.647705,0.073486,-0.046875,1.806628,-7.252601,6.406132,-0.013778,0.003626,0.011818,0.19751,0.321533,-0.572754,1.916443,-6.386717,7.213517,0.010856,-0.00265,-0.003777,-0.379639,0.413086,-0.351807
1.545462,-7.385839,6.260113,0.001162,0.000982,0.001837,-0.264648,0.514893,-0.075928,-0.105721,8.270179,5.294745,-0.008966,0.01283,0.005121,-0.185791,0.378174,0.48584,-1.126709,-7.022612,6.80469,-0.008885,0.002529,-5.7e-05,0.643555,0.073486,-0.04541,1.821319,-7.292146,6.36034,-0.00524,-0.004799,0.010852,0.193359,0.323486,-0.569336,1.945622,-6.325047,7.211325,0.001693,-0.00424,-0.010163,-0.386719,0.411133,-0.348633
1.55879,-7.443149,6.257879,-0.005247,0.000681,0.000225,-0.263428,0.51709,-0.074951,-0.076066,8.217802,5.267993,-0.018888,-0.00351,0.004131,-0.183838,0.380371,0.486816,-1.13462,-7.051371,6.782702,-0.005153,0.004425,0.000779,0.645996,0.072754,-0.047852,1.82581,-7.270604,6.361928,-0.005463,0.007449,0.009733,0.196045,0.325684,-0.57373,1.935726,-6.373169,7.208721,-0.006423,-0.000829,0.010734,-0.380371,0.411377,-0.350586
1.549202,-7.401527,6.255001,0.007917,0.002837,0.000172,-0.26123,0.517822,-0.07666,-0.053781,8.251518,5.299532,-0.001376,0.013009,0.005902,-0.181885,0.373779,0.484863,-1.104519,-7.023731,6.78034,0.001399,0.003557,-0.004253,0.645508,0.070312,-0.04834,1.82392,-7.28601,6.38051,0.000342,-0.003024,0.007626,0.197021,0.321045,-0.572754,1.942355,-6.352728,7.219812,0.005356,-0.008582,-0.017696,-0.383057,0.413086,-0.352783
1.538503,-7.427972,6.270679,-0.008146,0.00242,-0.000685,-0.256104,0.525635,-0.072266,-0.10403,8.257308,5.278423,-0.006476,0.002437,0.0047,-0.189209,0.375488,0.478027,-1.139403,-7.033373,6.812347,-0.009611,0.01176,0.00501,0.652344,0.079834,-0.04248,1.839393,-7.271522,6.386883,-0.003816,0.006342,0.009385,0.203369,0.331787,-0.565918,1.944031,-6.367134,7.260398,-0.013437,0.001381,0.008601,-0.378174,0.422363,-0.348389
1.562783,-7.424208,6.244272,0.01262,0.000518,0.000744,-0.259033,0.513916,-0.075195,-0.042124,8.268083,5.281969,-0.010616,0.00485,0.005217,-0.182373,0.387939,0.48291,-1.159629,-7.024091,6.800834,0.004168,-0.00123,-0.000925,0.649414,0.070557,-0.04541,1.793729,-7.312405,6.400915,-0.009672,0.002059,0.012202,0.200195,0.317627,-0.570557,1.908023,-6.357356,7.217721,0.012404,-0.004663,-0.012255,-0.379639,0.410156,-0.348389
1.550887,-7.369516,6.237361,-0.008377,0.001337,-0.000485,-0.262695,0.516357,-0.075195,-0.100974,8.243483,5.274903,-0.020002,0.009338,0.005736,-0.185791,0.379395,0.476074,-1.090825,-7.017789,6.791618,-0.002458,0.004136,-0.001519,0.646729,0.071289,-0.045898,1.859017,-7.276678,6.38823,0.006387,-0.00459,0.004594,0.194824,0.32373,-0.572266,1.97701,-6.340407,7.218364,-0.001727,-0.009468,-0.002402,-0.383789,0.414307,-0.349854
1.546719,-7.458979,6.260709,0.000231,0.001083,-0.000201,-0.257812,0.52002,-0.073486,-0.070145,8.227049,5.236531,0.00525,0.002589,0.004165,-0.185303,0.37793,0.48291,-1.171626,-7.044464,6.800668,-0.014884,0.008772,0.005011,0.6521,0.077393,-0.042725,1.80556,-7.255837,6.399609,-0.013449,0.01101,0.014257,0.200928,0.327148,-0.566162,1.927861,-6.357496,7.254428,0.000388,0.011074,0.001161,-0.377197,0.417969,-0.345215
1.541309,-7.372147,6.257273,0.010898,0.000569,0.000688,-0.261963,0.512939,-0.080322,-0.081162,8.306137,5.302989,-0.011037,0.008646,0.003912,-0.187744,0.376465,0.476562,-1.148152,-7.034271,6.786214,0.006028,-0.006318,-0.007197,0.646484,0.067139,-0.050049,1.800925,-7.297128,6.377504,-0.0115,-0.009536,0.007468,0.195312,0.319092,-0.576904,1.914946,-6.349845,7.229189,-0.007052,-0.004496,-0.013319,-0.383301,0.407715,-0.35498
1.568377,-7.426398,6.256763,-0.016187,-0.002793,9.1e-05,-0.260742,0.518066,-0.078369,-0.070117,8.196496,5.287403,-0.031449,8.8e-05,0.008238,-0.183105,0.378174,0.49292,-1.100982,-6.999752,6.796698,-0.010003,0.007105,0.002343,0.64624,0.071045,-0.047607,1.856732,-7.275532,6.363871,0.004376,0.005202,0.008247,0.196777,0.326172,-0.572021,1.962941,-6.396322,7.161411,-0.009113,-0.008329,0.009915,-0.383057,0.411133,-0.351562
1.572588,-7.442268,6.251319,0.011822,0.004902,-0.000115,-0.262939,0.516602,-0.074707,-0.062558,8.225818,5.263831,0.014349,0.01094,0.001241,-0.182617,0.377441,0.47998,-1.153436,-7.059378,6.779255,-0.009526,0.007177,0.001523,0.646484,0.074219,-0.044678,1.790641,-7.266204,6.361556,-0.009473,0.00849,0.011744,0.196777,0.324707,-0.57251,1.934071,-6.343998,7.244491,0.025396,0.009931,-0.016901,-0.384766,0.412842,-0.348389
1.523523,-7.369961,6.274134,0.000173,0.000848,0.001337,-0.253662,0.522461,-0.07251,-0.113216,8.293509,5.311153,-0.010483,0.00508,0.0046,-0.175537,0.384277,0.477051,-1.137711,-7.041973,6.800733,0.008996,0.002702,-0.001207,0.65332,0.07666,-0.039307,1.809217,-7.276185,6.384061,-0.002975,-0.007692,0.008186,0.200928,0.330078,-0.569336,1.911193,-6.34168,7.227185,-0.022913,-0.004186,0.004773,-0.376221,0.418701,-0.347168
1.574361,-7.410189,6.233746,-0.002397,0.000471,-0.001152,-0.259033,0.514893,-0.077393,-0.044427,8.226783,5.27938,-0.023727,-0.001166,0.006506,-0.178711,0.383789,0.481689,-1.133898,-7.007795,6.814811,-0.002488,0.00421,0.00061,0.649658,0.069336,-0.043701,1.82889,-7.292456,6.391823,-0.002031,0.008182,0.010014,0.200195,0.320068,-0.570312,1.963393,-6.381321,7.170995,0.010533,-0.013182,-0.003575,-0.378662,0.406982,-0.349609
1.534363,-7.419793,6.227795,-0.000947,0.002771,-0.001054,-0.262207,0.519287,-0.078613,-0.100353,8.217886,5.286973,-0.000826,0.014218,0.005003,-0.184814,0.376465,0.482422,-1.126059,-7.029801,6.80525,-0.014073,0.007025,0.002848,0.646729,0.073242,-0.04834,1.806568,-7.272719,6.412561,0.000626,0.000478,0.007062,0.199219,0.327881,-0.572998,1.965786,-6.309952,7.232565,0.009334,0.010342,-0.013282,-0.382568,0.414307,-0.354248
1.552098,-7.426499,6.264865,0.004094,0.000243,6.6e-05,-0.260498,0.508057,-0.072754,-0.088752,8.280185,5.279071,-0.001789,-0.001156,0.004069,-0.184326,0.381348,0.482666,-1.164034,-7.065555,6.802844,-0.00089,0.000797,-0.00159,0.647461,0.064453,-0.043945,1.816528,-7.274219,6.381103,-0.013719,-0.001771,0.012159,0.198242,0.315186,-0.570557,1.898606,-6.37545,7.242796,-0.024522,-0.00271,0.011882,-0.381836,0.404297,-0.348389
1.55534,-7.370958,6.251015,0.00416,0.002384,0.000655,-0.255371,0.519287,-0.084961,-0.057205,8.252582,5.289155,-0.020699,0.010002,0.004906,-0.1875,0.381104,0.476074,-1.115837,-7.011787,6.802697,0.004371,0.000513,-0.004658,0.653564,0.073242,-0.053711,1.822604,-7.322883,6.363424,-0.006742,0.001259,0.010238,0.202881,0.326904,-0.580811,1.970485,-6.381501,7.202487,0.015528,-0.012698,-0.016366,-0.375244,0.413818,-0.360107
1.552012,-7.4428,6.237827,-0.018855,2.8e-05,-0.001022,-0.260986,0.51416,-0.080811,-0.10775,8.194013,5.271004,-0.016972,0.004212,0.005485,-0.180908,0.383301,0.47876,-1.129837,-7.026122,6.795545,-0.020126,0.006795,0.003906,0.645264,0.070312,-0.053467,1.822507,-7.248619,6.360634,0.002552,0.003879,0.005199,0.196533,0.322754,-0.577881,1.952756,-6.336926,7.227409,-0.000287,0.00917,0.007245,-0.385498,0.4104,-0.356934
1.536585,-7.4435,6.245003,0.016862,0.002373,0.001007,-0.26001,0.517334,-0.075928,-0.069533,8.251315,5.288154,0.010905,0.006264,0.002282,-0.179199,0.378418,0.480957,-1.148634,-7.075,6.773714,-0.007283,0.001294,-0.000212,0.646973,0.072021,-0.045166,1.809144,-7.283545,6.34874,-0.018568,0.001025,0.015599,0.19873,0.323486,-0.572021,1.912362,-6.35502,7.23531,-0.003712,-0.008933,-0.005997,-0.379883,0.412109,-0.350586
1.544702,-7.363557,6.257307,-0.000898,0.001242,0.001232,-0.268311,0.522217,-0.082764,-0.112087,8.277111,5.289183,-0.01725,0.008544,0.005106,-0.190674,0.387939,0.481934,-1.118469,-7.036032,6.781179,0.012526,0.006124,-0.000546,0.639404,0.075195,-0.051514,1.826088,-7.312868,6.361481,0.008127,0.000636,0.006785,0.189453,0.328125,-0.577393,1.977696,-6.367638,7.192574,-0.009284,-0.006819,-0.005112,-0.390137,0.414307,-0.355957
1.544864,-7.424281,6.252816,-0.007224,0.000413,-0.000776,-0.258545,0.513916,-0.074463,-0.049936,8.21498,5.272497,-0.017114,0.000985,0.00382,-0.181885,0.383301,0.479248,-1.141219,-6.995572,6.811375,0.002095,0.006468,-0.000793,0.64917,0.068359,-0.042725,1.83058,-7.256167,6.40608,0.004324,0.004717,0.006794,0.200195,0.32251,-0.566406,1.92311,-6.376747,7.227008,0.014482,0.004339,0.001402,-0.380859,0.411865,-0.344971
1.548308,-7.413647,6.260946,0.00701,0.002174,-0.000721,-0.258789,0.513672,-0.076904,-0.093218,8.249334,5.296518,0.002073,0.013936,0.005324,-0.175049,0.381348,0.480469,-1.140017,-7.034893,6.789771,-0.022052,0.002141,0.003092,0.650146,0.067627,-0.043457,1.831598,-7.281422,6.421857,-0.018168,-0.001782,0.013374,0.202148,0.321777,-0.572266,1.950603,-6.328844,7.224892,-0.002006,-0.006612,-0.013817,-0.379883,0.410645,-0.35083
1.555541,-7.407581,6.251367,0.000651,0.000344,-4.8e-05,-0.25708,0.523193,-0.07373,-0.094366,8.268661,5.271858,-0.010626,-0.002925,0.004526,-0.179443,0.381348,0.476562,-1.143173,-7.084645,6.801297,-0.001325,0.00501,0.0012,0.650635,0.07373,-0.043945,1.811673,-7.310419,6.368923,-0.003695,0.002408,0.010224,0.201416,0.323486,-0.567139,1.957125,-6.379078,7.216287,-0.013357,0.001476,0.010942,-0.379883,0.416016,-0.348389
1.54267,-7.376576,6.240325,0.001952,0.001032,-0.000144,-0.261963,0.513184,-0.075684,-0.053087,8.242051,5.260873,-0.019048,0.011561,0.004505,-0.180664,0.375732,0.487305,-1.133092,-7.000121,6.789142,0.014392,0.001041,-0.006818,0.64624,0.06665,-0.04248,1.826749,-7.274437,6.371771,0.000282,-0.002507,0.005202,0.195801,0.317627,-0.570312,1.910229,-6.354067,7.211508,0.018571,-0.000254,-0.017697,-0.382568,0.405273,-0.3479
1.554925,-7.442102,6.260086,-0.012282,-0.000728,-0.000199,-0.260742,0.521729,-0.079346,-0.095351,8.211317,5.299953,-0.011042,0.003879,0.005495,-0.187744,0.379883,0.481689,-1.13356,-7.011649,6.779128,-0.02588,0.00373,0.004719,0.649658,0.078125,-0.048096,1.821151,-7.244996,6.369395,-0.009789,0.003504,0.011793,0.19751,0.327393,-0.575195,1.950949,-6.356088,7.224483,-0.011271,-0.002841,0.004564,-0.382568,0.415771,-0.352051
1.554097,-7.431228,6.247412,0.019151,0.003195,0.001411,-0.251953,0.519531,-0.081787,-0.046196,8.260921,5.273417,0.004282,0.005163,0.003787,-0.187256,0.384521,0.479248,-1.131713,-7.095562,6.78587,-0.009124,0.004123,0.001888,0.654053,0.074951,-0.050537,1.817039,-7.307373,6.351219,-0.010137,0.000525,0.009936,0.204834,0.325684,-0.574951,1.927105,-6.375854,7.226732,0.001697,0.000473,-0.006298,-0.374268,0.412598,-0.354492
1.54691,-7.352338,6.266426,-0.009843,0.001706,0.000398,-0.25,0.522949,-0.085938,-0.127026,8.263436,5.304768,-0.02043,0.009737,0.006366,-0.187012,0.380127,0.485352,-1.130026,-7.036595,6.781667,0.016491,0.005333,-0.00267,0.656982,0.077637,-0.057129,1.832856,-7.293149,6.357374,0.004349,0.000312,0.006195,0.210449,0.330566,-0.580566,1.945699,-6.363097,7.221358,-0.003088,-0.005142,-0.007096,-0.371338,0.417725,-0.361084
1.558531,-7.4735,6.228659,-0.006762,0.002579,-0.001178,-0.25415,0.523438,-0.078613,-0.051119,8.209217,5.259088,-0.009112,-0.001603,0.004739,-0.175537,0.378418,0.484375,-1.139795,-7.004646,6.799247,-0.007001,0.006161,0.001857,0.654297,0.077881,-0.047852,1.815398,-7.26266,6.386503,-0.001173,0.005418,0.009534,0.203369,0.329834,-0.572266,1.94283,-6.369297,7.209974,0.007231,-0.008032,0.005819,-0.376221,0.417969,-0.349854
1.522792,-7.397983,6.253443,0.019825,0.002774,0.002507,-0.258545,0.519775,-0.080566,-0.097802,8.282432,5.300642,0.005665,0.017477,0.00334,-0.177246,0.390625,0.486572,-1.162073,-7.044579,6.799944,-0.014941,0.003386,0.002019,0.652344,0.074219,-0.052246,1.808959,-7.288727,6.396704,-0.007079,-0.002724,0.009329,0.200439,0.326904,-0.57373,1.947854,-6.340478,7.252216,0.005689,-0.000344,-0.015427,-0.379395,0.414307,-0.352783
1.550663,-7.378119,6.275126,-0.01434,-0.000466,-0.000805,-0.261475,0.515625,-0.084961,-0.086861,8.255443,5.270298,-0.022231,-0.006256,0.006367,-0.18042,0.385498,0.48291,-1.139367,-7.045124,6.77626,0.002602,0.002111,-0.000849,0.647949,0.070557,-0.056396,1.839655,-7.305831,6.373532,-0.006301,0.006713,0.011611,0.196289,0.321045,-0.580322,1.939163,-6.368488,7.228345,-0.01808,-0.003602,0.011519,-0.382324,0.409668,-0.358154
1.556627,-7.446842,6.242698,0.002644,0.004281,-0.000746,-0.255615,0.520264,-0.080566,-0.037479,8.248319,5.282039,-0.010214,0.014684,0.004413,-0.182861,0.38623,0.476807,-1.132843,-7.015192,6.82621,-0.001502,0.004282,-0.003155,0.652344,0.076416,-0.049805,1.81513,-7.284424,6.380246,-0.001219,0.000546,0.007484,0.203369,0.327393,-0.575928,1.95922,-6.370278,7.213255,0.012835,-0.004334,-0.015952,-0.377686,0.417969,-0.357178
1.526698,-7.413407,6.248612,0.004424,-0.001873,-0.001512,-0.261963,0.519775,-0.079102,-0.140178,8.253089,5.25937,-0.000967,0.00142,0.006538,-0.182861,0.377686,0.481689,-1.166449,-7.030207,6.79921,-0.013329,0.00542,0.004939,0.64502,0.075928,-0.047363,1.814622,-7.265934,6.389755,-0.004796,0.002652,0.010282,0.199707,0.329346,-0.576172,1.935807,-6.346151,7.226876,0.000644,0.009931,0.002213,-0.380859,0.414062,-0.351318
1.586611,-7.418965,6.24192,-0.004431,-3.3e-05,-0.000615,-0.259277,0.521484,-0.072998,-0.015304,8.255264,5.291026,-0.018366,0.002835,0.003091,-0.185547,0.38208,0.487793,-1.117582,-7.034217,6.789124,-0.001755,-0.005013,-0.00447,0.648193,0.074463,-0.044189,1.839472,-7.291724,6.344266,-0.015295,-0.008448,0.010313,0.200928,0.327393,-0.570557,1.930018,-6.374071,7.193967,-0.008962,-0.015861,-0.003516,-0.380127,0.416016,-0.347168
1.553919,-7.417682,6.265567,0.001598,0.003912,0.000292,-0.253906,0.524902,-0.077393,-0.119759,8.223878,5.280025,-0.00911,0.016676,0.006834,-0.176758,0.372314,0.48877,-1.11558,-7.04088,6.79546,-0.005038,0.015094,0.004649,0.652588,0.080078,-0.044678,1.841969,-7.282342,6.351789,0.008763,0.012504,0.007729,0.202881,0.332031,-0.572266,1.99147,-6.371788,7.212008,0.004231,0.005484,-0.00766,-0.375732,0.422607,-0.351074
1.553653,-7.41746,6.265895,0.001047,0.000369,-0.001038,-0.258057,0.522949,-0.078857,-0.081951,8.255095,5.273752,0.000964,-0.006332,0.000815,-0.186523,0.376709,0.479492,-1.187738,-7.022231,6.786094,0.005949,-0.000641,-0.002681,0.649414,0.077637,-0.050049,1.773252,-7.251441,6.396391,-0.006649,0.001727,0.011666,0.196777,0.32666,-0.575928,1.874319,-6.369739,7.237138,-0.002444,0.003514,0.004519,-0.379883,0.41626,-0.356445
1.564796,-7.372726,6.214586,0.001243,0.000453,0.001442,-0.260254,0.528564,-0.089844,-0.071411,8.262871,5.289661,-0.019607,0.016074,0.008401,-0.187012,0.380371,0.483887,-1.079471,-7.006591,6.796181,-0.009168,-0.000163,-8.6e-05,0.64624,0.081055,-0.057129,1.864402,-7.311417,6.370079,-0.012023,-0.010667,0.009619,0.19751,0.33374,-0.583496,1.963833,-6.354716,7.171958,0.008839,-0.025528,-0.011381,-0.38208,0.420654,-0.363525
1.539415,-7.454864,6.273072,-0.007833,0.002974,-0.001285,-0.265137,0.52002,-0.070068,-0.104721,8.200695,5.24665,-0.006217,0.000507,0.004253,-0.175537,0.385742,0.481689,-1.145457,-7.069025,6.78124,-0.015231,0.017105,0.005527,0.642334,0.075195,-0.037842,1.817846,-7.282046,6.40305,0.00594,0.016781,0.008249,0.191895,0.326172,-0.564209,1.982206,-6.326959,7.218208,0.002925,0.015657,0.000766,-0.386963,0.41626,-0.344238
1.541107,-7.412498,6.241944,0.016398,0.000206,0.001412,-0.254395,0.515137,-0.08374,-0.072463,8.281063,5.266982,0.004837,0.011762,0.004371,-0.186768,0.386475,0.474609,-1.165232,-7.035764,6.817476,0.017263,-0.007225,-0.005964,0.651123,0.071045,-0.051514,1.782524,-7.252383,6.406217,-0.008106,-0.007406,0.011189,0.202148,0.324707,-0.576416,1.881963,-6.369164,7.269186,-0.016653,-0.000715,-0.005229,-0.376953,0.412842,-0.355957
1.55477,-7.375322,6.234638,-0.014505,0.000591,-1.8e-05,-0.259521,0.516846,-0.077393,-0.09604,8.262616,5.284221,-0.032323,-2.6e-05,0.004852,-0.177246,0.383789,0.477539,-1.087043,-6.985163,6.789357,-0.009949,0.003683,0.002002,0.648926,0.072754,-0.046631,1.868346,-7.300982,6.368639,-0.008112,-0.001001,0.009872,0.200195,0.323975,-0.573486,1.997926,-6.413951,7.150023,-0.003883,-0.022549,0.000953,-0.380859,0.412842,-0.350586
1.557005,-7.48303,6.243526,0.004383,0.001561,-0.001671,-0.259033,0.52124,-0.074463,-0.039959,8.204909,5.282665,-0.003037,0.008461,0.004041,-0.182617,0.377441,0.484375,-1.140435,-7.064292,6.781991,-0.020205,0.009107,0.003224,0.648926,0.074707,-0.043701,1.786043,-7.280089,6.38474,0.001365,0.00842,0.008844,0.201172,0.329834,-0.569092,1.960544,-6.345818,7.220716,0.034775,0.017865,-0.00908,-0.381104,0.418701,-0.348633
1.527913,-7.376241,6.270686,0.003993,0.003441,0.001445,-0.262695,0.51709,-0.078369,-0.118306,8.278709,5.292387,0.001936,0.011005,0.005218,-0.18042,0.383301,0.479492,-1.140868,-7.055152,6.789416,0.00424,-0.000279,-0.004154,0.647217,0.073486,-0.051514,1.844568,-7.268101,6.369206,-0.010097,-0.009271,0.009672,0.196045,0.324951,-0.578125,1.89794,-6.319565,7.263044,-0.028169,-0.001001,-0.002266,-0.382568,0.414551,-0.354492
1.554534,-7.436091,6.230198,-0.011465,-0.001441,-0.001039,-0.25415,0.519531,-0.082764,-0.071238,8.257463,5.287001,-0.017832,-0.006254,0.008037,-0.18335,0.378418,0.488037,-1.099627,-6.98827,6.776141,0.008701,0.006621,0.00706,0.654297,0.075684,-0.052979,1.743617,-7.107991,6.464259,0.052091,0.013471,0.007429,0.203125,0.326172,-0.580078,1.964395,-6.44615,7.138918,-0.015712,-0.019795,0.007852,-0.375,0.415283,-0.358398
1.509381,-7.413601,6.256833,0.018243,0.00887,-0.000194,-0.258057,0.519043,-0.087402,-0.066383,8.245311,5.225356,-0.01049,0.022338,0.007849,-0.182617,0.372314,0.482422,-1.139193,-6.911855,6.720659,-0.00047,0.030489,0.010705,0.651367,0.07251,-0.055176,1.61885,-7.094576,6.235317,-0.086202,-0.063892,0.030791,0.199463,0.325684,-0.57959,1.92571,-6.342854,7.198738,0.050141,0.023268,-0.022529,-0.379639,0.415527,-0.360107
1.586649,-7.371335,6.25094,-0.016083,-0.012328,-0.000577,-0.257324,0.524902,-0.078857,-0.135214,8.180579,5.333057,-0.022675,-0.003606,0.011947,-0.176758,0.378906,0.473389,-1.079305,-7.144868,6.638631,-0.067578,0.025701,0.021037,0.652344,0.078369,-0.047607,1.813517,-7.799731,6.098756,-0.109049,-0.046922,0.035128,0.197998,0.333008,-0.57251,1.855736,-6.285498,7.187982,-0.014352,-0.028404,0.007722,-0.378662,0.42041,-0.351562
1.693144,-7.563558,6.232971,0.010408,0.00346,-0.008841,-0.258789,0.512451,-0.07959,0.115514,8.198415,5.288996,0.025011,0.00062,-0.005331,-0.178955,0.376221,0.482666,-0.985698,-7.369647,6.765949,0.042311,0.058591,-0.006182,0.650391,0.066406,-0.046387,1.822388,-7.874958,6.481574,0.114667,-0.090264,-0.071998,0.196533,0.31958,-0.577393,2.131638,-6.39809,7.207797,-0.018818,-0.062132,-0.015809,-0.381104,0.406982,-0.352783
1.500348,-7.299656,6.333132,0.044214,0.036493,0.013157,-0.26416,0.515625,-0.071777,-0.235918,8.359652,5.271059,0.054463,0.048588,-0.001776,-0.180664,0.383545,0.486328,-1.379079,-7.007441,7.125724,0.127648,0.062696,-0.019931,0.644043,0.07251,-0.041992,2.42595,-6.824831,6.575235,0.281703,-0.060756,-0.082289,0.190918,0.320557,-0.570801,2.035104,-6.527918,7.369319,-0.043467,0.057116,0.005533,-0.386719,0.410645,-0.345947
1.418268,-7.400668,6.158465,-0.044724,-0.026692,0.000389,-0.259277,0.516357,-0.080566,-0.14023,8.427183,5.200995,-0.064164,-0.060657,0.0121,-0.18042,0.378906,0.484131,-1.413268,-6.463864,7.030841,0.045668,-0.076292,-0.009919,0.648193,0.071045,-0.050781,1.979165,-6.10695,6.775712,-0.127965,0.134613,0.064192,0.196289,0.323486,-0.577148,1.68251,-6.485155,7.192804,0.082503,-0.007988,0.01327,-0.380859,0.413086,-0.355225
1.610595,-7.238882,6.204987,0.047952,0.010304,0.006329,-0.258789,0.519531,-0.079834,0.109576,8.110045,5.231381,-0.081595,0.061597,0.001825,-0.183838,0.384033,0.479004,-0.85621,-6.856645,6.716658,-0.263079,-0.045587,0.004299,0.64917,0.074951,-0.046143,1.663245,-8.055392,6.149231,-0.452157,0.013398,0.160671,0.198242,0.330566,-0.571045,2.236397,-5.986587,7.173078,0.125148,-0.032349,-0.056116,-0.383057,0.414551,-0.353027
1.502079,-7.466141,6.286591,-0.136436,-0.037381,-0.016586,-0.261475,0.512695,-0.081787,-0.386192,8.115449,5.482967,0.025779,-0.030182,0.015534,-0.183594,0.376709,0.479004,-1.240454,-7.853016,6.47496,-0.094026,0.020527,0.032383,0.651123,0.068115,-0.048584,1.593999,-8.197041,6.059438,0.302599,0.049889,-0.091501,0.198242,0.321533,-0.575684,1.8953,-6.106589,7.274615,-0.192678,0.141487,0.055234,-0.381348,0.410156,-0.356445
1.581597,-7.954671,6.145394,0.099682,0.030464,-0.00651,-0.257324,0.518066,-0.078857,0.247884,8.354355,5.232841,0.033221,0.033097,-0.015684,-0.182373,0.385254,0.490967,-1.026455,-7.119664,6.637661,0.292907,0.006743,-0.0844,0.64917,0.072998,-0.045654,1.542668,-6.650637,6.391331,0.082881,-0.038067,-0.06308,0.195557,0.320068,-0.571533,1.660814,-6.882414,7.084802,-0.136859,-0.032454,-0.007201,-0.379639,0.412109,-0.351318
1.50881,-6.774695,6.504837,0.102089,-0.025586,0.008716,-0.255615,0.520264,-0.077881,-0.494982,8.247054,5.242636,-0.019419,0.014706,0.04288,-0.180908,0.384277,0.470947,-1.138404,-6.448499,6.858218,0.034852,0.081819,0.025265,0.656738,0.075684,-0.043701,1.744987,-7.211486,6.316775,-0.071276,-0.095936,0.024722,0.202637,0.325439,-0.57251,1.967753,-6.581312,6.934462,0.251723,-0.038881,-0.038463,-0.373047,0.417236,-0.352051
1.713128,-7.640978,6.245661,-0.17211,0.028222,-0.022635,-0.265625,0.513672,-0.079102,0.432491,8.246387,5.237932,-0.003314,-0.038807,-0.024995,-0.186768,0.378662,0.486816,-1.049796,-6.915017,6.791915,-0.115834,0.034376,0.000843,0.64502,0.065186,-0.044922,2.005486,-7.077635,6.380942,0.105792,-0.111225,-0.064238,0.188721,0.319092,-0.577881,1.965622,-5.79549,7.277579,0.141936,-0.05604,-0.027726,-0.387939,0.407715,-0.356689
1.630306,-7.54191,6.332145,0.135712,0.010701,0.022179,-0.253906,0.517822,-0.081543,-0.360145,8.238806,5.36798,0.027655,0.086865,0.03605,-0.174072,0.376953,0.469482,-1.140198,-7.405102,6.934428,-0.037066,0.080411,0.057616,0.654053,0.071533,-0.047363,2.298297,-7.021836,6.576233,-0.052115,-0.064311,0.041204,0.197754,0.324463,-0.579346,2.048162,-6.180845,7.396109,-0.292939,-0.083881,0.021691,-0.376465,0.416016,-0.354004
1.437731,-7.220793,6.263265,-0.06892,0.054545,0.001508,-0.259766,0.520996,-0.080078,0.029129,8.4062,5.208222,-0.009965,-0.081733,-0.034983,-0.181641,0.385986,0.493652,-1.48923,-7.031777,7.013317,0.147904,0.003433,-0.030254,0.651123,0.077881,-0.047363,2.061288,-7.404695,6.651066,-0.063385,0.034082,0.036949,0.194336,0.328613,-0.578125,1.962695,-7.107811,7.134485,-0.13419,-0.028259,0.04955,-0.380859,0.423096,-0.350342
1.458959,-7.438262,6.036863,0.035438,-0.016704,0.015184,-0.258789,0.519287,-0.077637,-0.140697,8.258931,5.145637,-0.064527,0.078564,0.043519,-0.178467,0.375488,0.484131,-1.160387,-6.522036,7.002953,-0.042981,-0.059056,-0.009862,0.649658,0.070801,-0.044434,1.843292,-7.53176,6.516245,-0.048501,0.004428,0.03317,0.193359,0.326416,-0.576172,1.90539,-6.460183,7.188652,0.346883,-0.052699,-0.07551,-0.384521,0.411865,-0.352295
1.491665,-7.205114,6.265365,-0.057155,0.004565,-0.00151,-0.26123,0.512451,-0.086182,-0.15689,8.176991,5.379713,-0.041232,-0.060626,-0.01538,-0.180908,0.381104,0.479736,-1.135178,-7.10766,6.652018,-0.219069,-0.010493,0.006217,0.64917,0.063965,-0.049561,1.816651,-7.156402,6.3891,0.027616,-0.001534,-0.014807,0.192871,0.319092,-0.581787,2.186909,-5.530427,7.415499,0.09482,0.005389,0.00364,-0.384521,0.40625,-0.356934
1.646582,-7.715585,6.181416,-0.031657,-0.031911,-0.0197,-0.261719,0.51416,-0.078857,0.114436,8.27667,5.284808,0.012609,0.054535,0.019213,-0.183594,0.380371,0.475098,-1.08288,-7.405335,6.58767,0.006857,-0.027527,-0.011791,0.650635,0.06958,-0.045166,1.647181,-7.06317,6.225573,-0.137367,-0.063179,0.04332,0.190918,0.321045,-0.572266,2.004227,-6.167089,7.298938,-0.366598,0.082807,0.024929,-0.382568,0.412109,-0.349854
1.554042,-7.308448,6.330034,0.062371,0.014829,0.009891,-0.267822,0.518555,-0.07373,-0.252255,8.227338,5.326119,-0.055845,-0.009439,-0.002691,-0.188721,0.386475,0.484375,-1.0243,-6.96835,6.688322,0.089312,0.043948,-0.020336,0.642334,0.072754,-0.039551,2.013037,-7.784609,5.887267,-0.074856,-0.103132,0.01582,0.182861,0.328125,-0.568848,1.872007,-7.210734,7.005524,-0.164957,0.01903,0.031554,-0.391113,0.418701,-0.342041
1.603788,-7.531928,6.24755,-0.06591,-0.015962,-0.00579,-0.255615,0.516846,-0.076416,0.089627,8.148392,5.293791,0.023741,-0.009099,0.006785,-0.178955,0.37915,0.477539,-1.182721,-6.870278,6.738691,-0.013963,0.026032,0.041345,0.653564,0.068115,-0.043457,1.839822,-6.858845,6.290176,0.312154,0.066377,-0.060693,0.193848,0.320557,-0.573486,1.929992,-6.742372,7.04027,0.3393,-0.018765,-0.045854,-0.378418,0.411133,-0.349365
