# sampling frequency: 40
# units are seconds/meters/radians/a.u.
seg1_acc_x,seg1_acc_y,seg1_acc_z,seg1_gyr_x,seg1_gyr_y,seg1_gyr_z,seg1_mag_x,seg1_mag_y,seg1_mag_z,seg2_acc_x,seg2_acc_y,seg2_acc_z,seg2_gyr_x,seg2_gyr_y,seg2_gyr_z,seg2_mag_x,seg2_mag_y,seg2_mag_z,seg3_acc_x,seg3_acc_y,seg3_acc_z,seg3_gyr_x,seg3_gyr_y,seg3_gyr_z,seg3_mag_x,seg3_mag_y,seg3_mag_z,seg4_acc_x,seg4_acc_y,seg4_acc_z,seg4_gyr_x,seg4_gyr_y,seg4_gyr_z,seg4_mag_x,seg4_mag_y,seg4_mag_z,seg5_acc_x,seg5_acc_y,seg5_acc_z,seg5_gyr_x,seg5_gyr_y,seg5_gyr_z,seg5_mag_x,seg5_mag_y,seg5_mag_z
1.7980093958749739,-6.184230473658113,7.329818730972389,-0.0016486817753233547,-0.017214391529017648,0.012833388005098345,-0.5261320811347119,0.09920913230637797,-0.007225195697878658,0.03077329388706966,7.452887838724917,6.342658406053772,-0.012161896241277474,-0.0030126586959527053,-0.01213282763407201,0.08339006090505018,0.48609961801990276,0.5758293473792011,-1.1085759559150619,-6.091436654921425,7.45565100718956,-0.011461591918116156,-0.004313985718796314,0.001304928703261561,0.7481853380274559,0.1132851260337836,-0.20770528065807903,1.0367198936578443,-6.1568051458443325,7.584057546297089,-0.0139335866947433,-0.0021289368266710603,0.006382160434219452,0.15197013893079017,0.44567167362869814,-0.8185443900145865,1.8489734898742765,-6.186745324782174,7.4474364501058385,-0.003459056741860301,0.06797646982296472,-0.0036398751165604933,-0.41543218299448265,0.4737071316296188,-0.32771885415959456
1.8113331179964696,-6.209582878858209,7.3716454524360575,0.0024645988097735613,-0.014481574549880354,0.011858319706565533,-0.5268114431422578,0.10875627329764585,-0.010829018689585574,0.028073229615933924,7.460908561963632,6.366306003345245,-0.0060457514815316134,-0.003212850275344681,-0.012334189520668793,0.08071941678450438,0.4800648634961231,0.5805654770036004,-1.1274961729867885,-6.086216943774965,7.4549541187435,-0.003025465482029092,0.0051654116062263625,0.0042804385938023295,0.7427927275863735,0.11045480964241182,-0.20423766955597109,1.0461596087037381,-6.150715987139914,7.534753565604606,-5.504085323847517e-05,-0.001036377148400232,0.00506227685046448,0.14806734736817403,0.44129278003593514,-0.8112090409484526,1.818006115516232,-6.149798878319627,7.464824320307762,-0.0012683409745024383,0.056970965220568645,-0.003935029098895675,-0.4210638716608863,0.469580109113888,-0.3247865131290609
1.8025874020965884,-6.189757010116216,7.347609391859835,0.0017008640617950167,-0.0073907873555556025,0.010271934759735072,-0.5241135255542324,0.11359732287991921,-0.0061531138969070295,0.02920720164471164,7.449988922350649,6.376024982518003,-0.003270603962290282,-0.002429122178975235,-0.011791543671693784,0.07727283430133389,0.48832198406742494,0.5787122543894264,-1.1357274789957932,-6.106573754068753,7.502866947641915,0.005197174033671006,0.008947529548397542,0.004883612089866343,0.7445597681722596,0.11797536040768687,-0.20631908848419112,1.0264624259162676,-6.182667420169339,7.596148703283441,0.01234280035490579,0.009556324875068798,0.005624276156189246,0.147862005894733,0.4508202140071871,-0.815594229861455,1.801339325928052,-6.161532067978253,7.439497123655584,-0.0014372290195196473,0.03683850503879203,-0.005485428356322327,-0.41952737549841784,0.4808107679407739,-0.3266798741239087
1.7976431197882894,-6.1770409268188535,7.352005448960285,0.0054125939881784655,-0.0016497136083708068,0.011322821615193384,-0.5192762653737298,0.10742601028565096,0.000899879780245253,0.01205249187691326,7.490782020124164,6.332061335412433,-0.0018675533637494387,-0.00292022331875492,-0.011274887414167298,0.08049230273615329,0.47707717718039383,0.577196603350902,-1.1220618081207663,-6.089252018539029,7.524575636772623,0.009406548342376352,0.010754669139750182,0.0066312906720367645,0.7454602446745262,0.10815103394807105,-0.20932731631528337,1.0256330131275717,-6.166930309565673,7.721605946730259,0.014003451754632943,0.009471925912827828,0.004136613646156513,0.15094194961306276,0.4361544320758436,-0.8173293373607764,1.7821606097083988,-6.138032883916867,7.431906721715294,0.0006967250579225903,0.01155303106692888,-0.004810512795974969,-0.41669588519289164,0.46859639483524057,-0.32896336055665504
1.800991514144375,-6.163551179855194,7.385727803683709,-0.0026984819657135035,0.004413014474087801,0.010320472340557413,-0.5285036637447662,0.11122006062779083,-0.013014652562004165,-0.002951396184328145,7.48151026941988,6.327254467833297,-0.005728289687762396,-0.0032403647577280183,-0.010703963167441733,0.07974342519974938,0.48006113297356473,0.5805638928038406,-1.1490216874513897,-6.07324151065056,7.588045303832026,0.0019746427832177905,0.00697044242982831,0.004069661314057364,0.747189221642345,0.1106482573278436,-0.20521925399391225,1.0290034692256707,-6.160130249266627,7.784549581441166,0.004780964156402595,0.005109565522248634,0.0047429694189443875,0.14927815385333668,0.44104346076874495,-0.8131670839915178,1.7940514196230302,-6.118342857986228,7.454353126514834,-0.006501715647421831,-0.00972065335083881,-0.005552138513482558,-0.4166637640819575,0.47028055121147777,-0.3248033405405239
1.7944631442969317,-6.181168153896847,7.361092180964754,-0.00739384069996207,0.008490731938277811,0.0118398793429618,-0.5268122584620989,0.11285355158245036,-0.0022581298213220843,0.01804578161504173,7.488121054842634,6.3307877849087895,-0.012645520179774232,-0.0008381280801061349,-0.008246475168474118,0.07436066407465206,0.48320186883844546,0.5797691539176696,-1.152452305583377,-6.080266278209122,7.5803184318918,-0.009767270629914154,0.0006469237668541305,6.875377731905564e-05,0.7420610791078087,0.11048102689835576,-0.20301774039437823,1.047987569848391,-6.163373970369394,7.792046459188195,-0.00909992198918337,0.0005415686725775141,0.00432155205495197,0.14539281105279364,0.4452172874592699,-0.8141247619539504,1.8133899757988101,-6.172631193985267,7.469975235319085,-0.011591084544412255,-0.02718923570370194,-0.0034500398451071893,-0.4225096036894056,0.47326265131812784,-0.32646668062538564
1.8081423959217489,-6.170198179507661,7.360593609118812,-0.010517571140252861,0.012368505174424529,0.011851748017062876,-0.5278064143191291,0.10461254799100816,-0.01110138781471848,0.0323896387001318,7.474378071392566,6.347912330999524,-0.018888401266708918,-0.002397246992393744,-0.008377939809120624,0.07707906803512425,0.47560749299369404,0.577703505971783,-1.1342258292926692,-6.0885164036272075,7.536348204446288,-0.019074341445282073,-0.0036914906485262253,-0.0011638480229987447,0.7425179522813965,0.1065184661789317,-0.2061255749215263,1.0518414037444448,-6.142455338548815,7.725083495147938,-0.02126910093754796,-0.0025999417735558133,0.005483728392482249,0.1472930518004547,0.4369068733899406,-0.8151161690838521,1.817622467447879,-6.124310753777675,7.452479916899999,-0.014606918497985587,-0.03621129478690577,-0.0022054529804595214,-0.42059885172229416,0.46788224492143266,-0.32723993862022416
1.7958147846098793,-6.197627118092084,7.3337305602509835,-0.012844558328392645,0.013783790478295891,0.012127078972240541,-0.5292287069461891,0.11196468864101733,-0.014476745061810042,0.031252433630684626,7.452285439785058,6.329207390975966,-0.018135384411031148,-0.0015347403927711142,-0.009183213663577963,0.08390090427951094,0.4797676815477808,0.5766692649702666,-1.1199577243097638,-6.110846072321301,7.491321996542348,-0.021211395762033618,-0.0051063405942003886,-0.001351471258445188,0.7459957658592612,0.11426563953045354,-0.20845430736195183,1.022776349212286,-6.151513169472578,7.622090045404766,-0.020838415963593506,-3.803946833032725e-05,0.006141459364605497,0.15391260708137894,0.44272861804332925,-0.8168458520240259,1.8325588972049085,-6.17636775152793,7.446103718005408,-0.01666263261123763,-0.04505415752044034,-0.0026634302292850086,-0.4176155002880226,0.4744432039404092,-0.3257499795701357
1.7931123944100218,-6.202376558645842,7.342171514677707,-0.006238189621690926,0.013659608272232811,0.011336044023069803,-0.5228726842894471,0.11557511808276019,-0.011020858455860929,0.041665855843199144,7.458239167723528,6.3593406083358595,-0.012316904761617275,-0.002167554065745123,-0.008573725005230893,0.08388021285492517,0.4820868929089456,0.5839554584570739,-1.1155493393529636,-6.099456810974326,7.4339908782814685,-0.010818870709942897,-0.00020865481033827875,0.0005095083234475674,0.7481791777345037,0.112269902253221,-0.19547944846856444,1.0218562982771997,-6.170213196439753,7.540048273040295,-0.010976116746930383,0.00201188872416001,0.00513037600175194,0.1546990769060078,0.4444226327909292,-0.805617264212112,1.8626611968918472,-6.155187280484221,7.456326714088961,-0.01217441979528937,-0.04148665358639393,-0.0027765690790279517,-0.4170897870448253,0.4746409724109374,-0.3184270952191445
1.8115857543873513,-6.210996268786799,7.315487926121556,-0.006152454235867805,0.011163237712317597,0.009408548116146427,-0.5294611227839271,0.11320211482155516,-0.016910593316341968,0.03436560548677986,7.477011614597546,6.3435899923448655,-0.008220920197595662,-0.002282893458601435,-0.010119104335930057,0.08172697994047301,0.47295288339854935,0.5784888707389344,-1.118537106611606,-6.107256578789099,7.453788841884926,0.0020454471796313533,0.008001988368306519,0.002699076506663958,0.745429279002401,0.1040747423789475,-0.20486402995088307,1.049623722069204,-6.14930406439939,7.557147384545689,0.005558412140921748,0.006097797576778328,0.0038888236247340987,0.1514373721708521,0.43297159238434435,-0.8109862632647683,1.8799420644683775,-6.168500636641097,7.4371701896744815,-0.009806081865525514,-0.03144351493485748,-0.005432011504774839,-0.4203666227174829,0.46543131944181054,-0.32603564049157685
1.779815052928938,-6.1949589418042645,7.30450046398985,0.0012106304000861353,0.003945288969315025,0.010205862726050575,-0.5297312470534192,0.1116877874332531,-0.008864554387771614,0.034957583407412215,7.456137831105101,6.3533315992375705,-0.003730963666900586,-0.002848362028303369,-0.011817309756115698,0.08269463916901724,0.47609237276661664,0.5762396595160376,-1.1177031965090123,-6.101181654937887,7.50255723196644,0.005096511396246558,0.00821149575433531,0.005199078866920771,0.7486306912149336,0.10765806691680072,-0.20809969697668562,1.0575039045473797,-6.163999019900266,7.649380035521023,0.012436413658532049,0.010210373664628425,0.006069529713457193,0.15314274829960678,0.4371191809693105,-0.8180691357886339,1.8932430063107766,-6.157810960875503,7.462448226309704,-0.002727531717370417,-0.010448743494656285,-0.00321343494000055,-0.41915267752522223,0.4649389511939469,-0.32677639657739926
1.7709551829813257,-6.193755960079643,7.316569142520727,0.0006382519083188747,-0.0010010982498382505,0.011468502160077318,-0.5275452624915353,0.11020172251177268,-0.007159621091613085,0.02427544458667695,7.486253986370281,6.327416054110019,-0.0024242570287373996,-0.0024486461534306884,-0.01195481241483556,0.08341527638564689,0.4762177261295026,0.583564813612466,-1.149308782570777,-6.097901167973829,7.537952545921413,0.0028557851657746687,0.006059534393723839,0.005320940520079059,0.7498749983311292,0.11068090106623202,-0.20204607909102282,1.0520814660497881,-6.155018067477919,7.734913713352199,0.008869679664992969,0.007532226519637179,0.005087093207056918,0.1544094089857661,0.44027923494917026,-0.8109910918815569,1.8865294622834128,-6.152651855508282,7.48999587556336,-0.0030005586157602726,0.013805900776293224,-0.004666410370781054,-0.4144470130586956,0.4707323702515966,-0.32139312772372586
1.782656484441133,-6.173678708910239,7.2889073602276895,-0.00031789007869454457,-0.00885577248792313,0.011458956782360747,-0.5307185921079933,0.10949547624661868,-0.008880660416633206,0.015256619948761598,7.486403862798332,6.310272908972476,-0.007433947582273336,-0.003187288890264793,-0.010432690059328278,0.08465842908122911,0.4748187498469758,0.5726017663291422,-1.1390778525369074,-6.0950923543479565,7.55841238391337,-0.0033879880878393215,0.0035725970043110162,0.0030721882041057995,0.7500810248940643,0.10585166912180966,-0.2131973919680941,1.0410961296314767,-6.157273656754123,7.770807333534532,-0.002205797538506996,0.001925194448328447,0.0062936047345890575,0.15312399801340734,0.4354122947382037,-0.820267698460205,1.8607504034392623,-6.162463123504177,7.459745510913946,-0.0028220708860909253,0.035708884434513026,-0.004382526595067167,-0.416967398784704,0.4654301144904862,-0.32995799121568553
1.7955215849445745,-6.1782230650657235,7.33626561865395,-0.0018572061485140569,-0.013417899698804239,0.011338668175528848,-0.5219429335610383,0.10628459491813837,-0.00961187800509223,0.02329011144803276,7.4639629978582995,6.3388299473881515,-0.012626157666096507,-0.003449245942691054,-0.012178312855962508,0.07362424467748063,0.4839473089399972,0.5807325762168033,-1.1236453458055888,-6.079975749774034,7.550547535590391,-0.011331264281378001,-0.0007871543517794206,0.0012594950623332419,0.7425918974043223,0.11605017390669362,-0.2055530280576638,1.0410981271288122,-6.14796449883023,7.722154750953973,-0.011206372130471898,-0.0019478358008298286,0.005140532011999182,0.14466318478289875,0.4464437290675705,-0.8153417223015823,1.8559935273696808,-6.125255061149656,7.447580942204748,-0.005427369871102506,0.052141060362336115,-0.003151976930986425,-0.4237205802703184,0.4749832479566232,-0.32693864347146495
1.7860670254541207,-6.209836862740545,7.349380077370072,-0.0031748785721069164,-0.013634044805252427,0.012031184368163665,-0.5238855475993366,0.10849076445249187,-0.009602675619699125,0.020010988330534878,7.461564067846262,6.363019971620832,-0.013318763111892715,-0.0034387918425805544,-0.01121752026219197,0.07707381793509516,0.4773039945059943,0.5769430060998484,-1.1285995530304855,-6.094169647636462,7.5070937361449595,-0.012721633744933365,-0.0035448086940104793,0.0015593521676133388,0.7410644758672548,0.10800280177945132,-0.2056611127179355,1.0352492891669909,-6.149786290856029,7.62397535098478,-0.016095723021542673,-0.0026427399831161964,0.005862223110341346,0.14412289501658246,0.4388803601809053,-0.8170557713244048,1.8206262255340582,-6.165452579470838,7.467377456763786,-0.005029170635529334,0.05224800196914252,-0.0051412978858659045,-0.4269360714632505,0.46939171638970606,-0.3272006723331296
1.8115468439340745,-6.193974674207854,7.369141799541532,-0.0003787589250357414,-0.008761980282384667,0.010742383683699262,-0.5287603246324767,0.10853529757721268,-0.013032103950773035,0.025487589551456934,7.459996625195035,6.33063685567128,-0.009532582516510478,-0.0026878786674044896,-0.009996523987628429,0.07383252616956276,0.49346375712583584,0.5803296547029756,-1.126940512825319,-6.0881161025263015,7.457535316686739,-0.0057899698335853655,0.0012921257651835364,0.001368998660744531,0.7390002382348289,0.12512643513234595,-0.2047287856334258,1.0159675649146775,-6.167016113555414,7.578567921707123,-0.0046956358822810955,0.00298193087768729,0.007305465960616704,0.14302765669353315,0.45597144404478246,-0.8109311797973197,1.8177201970292483,-6.164708842078041,7.452585337983173,-0.004382592510910527,0.03877535888268529,-0.004062764625506913,-0.4248630704200827,0.4842540333944633,-0.3244367832389136
1.8006671314258418,-6.188107690740674,7.362058480140711,-0.0009478610005665714,-0.001953544896474962,0.011292740316728334,-0.5251175153171241,0.10702086602674654,-0.007905795788856395,0.026984960450724647,7.448392835948728,6.341107000298617,-0.008224885162978516,-0.0022861425342189123,-0.01013305863839004,0.08510645265333772,0.48321435547671965,0.5780788329700227,-1.1117018749768146,-6.102125168989519,7.477151896265027,-3.100759398169333e-05,0.005980546975078887,0.004647954970520932,0.7511235351094095,0.11428346873153104,-0.20503750803556153,1.0360738701550982,-6.1663818614679435,7.595244113084909,0.0035264444345259084,0.006993414556129999,0.005356724325211285,0.15612500544128452,0.44271199189032606,-0.812948588616438,1.810661350972895,-6.159364893188055,7.440977595368266,-0.004299749105916071,0.014496638294511921,-0.00489409161992953,-0.41348162745503053,0.4727103337788214,-0.32675708800706166
1.7942111279450401,-6.19733360657366,7.360478177290448,-0.00044877216627730985,0.00312772129841561,0.012969838164842774,-0.5319422411467619,0.10515385291503562,-0.0164789812756503,0.023197408695416387,7.467416525690151,6.333594271145843,-0.0034637309728867867,-0.005051036956140817,-0.012317077551723236,0.074621105665774,0.4806998974709123,0.576148940877853,-1.14367588737203,-6.098646822820846,7.498591998370228,0.006417040405796776,0.00993276566850509,0.006279889219161293,0.7371916387913298,0.11236464681860828,-0.20939605004508324,1.021896806086387,-6.154895306922161,7.680741803299665,0.010834448485038575,0.006711988530243733,0.004719538959996184,0.1421891410931877,0.44133164589299456,-0.8158247858974144,1.8085064475706158,-6.152893545869308,7.452344839722417,-0.00242047114057065,-0.008436933049082005,-0.0037079079253633613,-0.42448046369477915,0.47255826865733114,-0.32890254636601834
1.7901771391041612,-6.174368355099816,7.356893508578458,-0.00089821461119422,0.008554069571506019,0.009617724069553673,-0.5278075786078852,0.10460948728939858,-0.010613398801996523,0.018586074059282795,7.476878694091818,6.32566406332939,-0.006005461984562145,-0.0010335151270423962,-0.010251288642612376,0.08979722086207988,0.4711973139310622,0.5738922061533847,-1.1586071245773273,-6.080132176605269,7.58265816796913,0.004132113087170361,0.006939210609089672,0.001545246439094029,0.7566516892489921,0.10315717900689814,-0.2107114388399108,1.0446271323780427,-6.149803242685113,7.729659107287934,0.008001552026540923,0.005869916057402752,0.0055089549504061305,0.16069135514469063,0.43463386964455125,-0.8193223681363558,1.8202562665252493,-6.142947865608676,7.454221157842204,-0.007474790836465515,-0.024556148946738583,-0.004227999510014246,-0.40871172975848086,0.4617320424477943,-0.3339255941565707
1.7927298945477232,-6.182152533659186,7.312950787852482,-0.006213701456294969,0.011304097376766457,0.012342351506443961,-0.5268149684732667,0.10922894218870165,-0.008384007505261592,0.020724065022679726,7.474916259073727,6.3364630294576925,-0.01293889456537231,-0.002594254180442626,-0.009426755893383197,0.07805050177046277,0.47613591259900584,0.5798936135532886,-1.1437102091975475,-6.092845921421899,7.561094185523735,-0.006772760142397736,0.0014689568926130538,0.00043015311366210947,0.743016519473839,0.10774270197257654,-0.20565725934824394,1.0417544693769325,-6.160566821926174,7.777544661708901,-0.006342872557338406,0.004946536016955392,0.006358838270810672,0.14755291799641432,0.43812333316947333,-0.8129190254460859,1.8283838237067735,-6.165745443535338,7.456252346641617,-0.011785161043180404,-0.03072054564184249,-0.00318818218641521,-0.4220574021464186,0.4676375641240549,-0.32552538533505604
1.7800561511468282,-6.188352609853353,7.363982812899454,-0.007983447474944802,0.010638887637050003,0.010039905191834338,-0.5197263395147838,0.10946035466817162,-0.011539714835370685,0.02022864487476623,7.482467442034214,6.3392682545421195,-0.014717087553595498,-0.0021231125975162456,-0.007346343841535891,0.07556363848511821,0.4869088526296711,0.5821514999755197,-1.139291748067377,-6.081056351589358,7.532223360138845,-0.0137332089191226,-0.003062727490334054,-0.00044977783814186624,0.742119303108127,0.11802305580077964,-0.20460999006097888,1.0396954747697331,-6.155732830491253,7.719396910754847,-0.015781159641870594,-0.0014883487274941838,0.004541062367239768,0.1456651245399388,0.4488771666589854,-0.8124133544606252,1.8512391489506814,-6.131179237317978,7.467155854505335,-0.011596838466314005,-0.0315548441609881,-0.003541071103772838,-0.4229429328957151,0.4803400195229233,-0.32544534077366705
1.7994220697372116,-6.176354813971163,7.342379779776302,-0.009199869009355524,0.009080814501211683,0.010479240774277662,-0.5204917825976692,0.10358868791808308,-0.009137313648481244,0.024423308573216257,7.4799566902526315,6.329391940454961,-0.01595123675523142,-0.002949775748199055,-0.009010830484139127,0.07535237572066297,0.478595878975097,0.5815571406038329,-1.1276127884021008,-6.0796709614718605,7.495505667450453,-0.015534525285399788,-0.0025795114161709467,-0.0004984355636573138,0.7403469144350977,0.10979017584233454,-0.20129639926223042,1.034723224261605,-6.15913362088393,7.642634722546137,-0.01646898254975732,-0.0018185056918004756,0.005837481291163012,0.14489204309819573,0.4400900808621249,-0.8097326065644133,1.854227930904501,-6.171262103766353,7.477367649387443,-0.014378965116181423,-0.024983323232884845,-0.00357456730651893,-0.4242273944883776,0.47057591443031394,-0.32427745115668505
1.8103951139726857,-6.197514938706164,7.344088283333661,-0.008134685101667677,0.007351665833265773,0.01160496237704796,-0.5247985127115149,0.11975513443157705,-0.014173307378901545,0.04349372529998463,7.456479452491794,6.333386463203489,-0.014644537706188086,-0.0025480601678707034,-0.009148366616666938,0.08070593580946289,0.48560142330717,0.5758331551926908,-1.1134391145453406,-6.1014084214723,7.479002557951588,-0.011723556771284891,-0.0020727451520170734,-0.0010210730459912969,0.7447795056904837,0.11482057669850479,-0.20504484040341403,1.0539083493518344,-6.152671496085042,7.578936419905047,-0.010801870916075058,0.003338083308513023,0.005998951453202347,0.1517367679360863,0.4456705625432105,-0.8158584455355773,1.8849336063437563,-6.148602906442102,7.472591152403271,-0.013842195832328456,-0.016385999025935072,-0.001689761954099887,-0.4198023838886175,0.477648856527406,-0.3284064834020414
1.7969689632925998,-6.2136877191496644,7.331130524436307,-0.003488750605454892,0.004511152188349545,0.011051218853433645,-0.5185214998757938,0.10651854856903337,-0.010579269459833413,0.030610697590250716,7.445093107095419,6.360764102264311,-0.00815532600993253,-0.002709269171892923,-0.011945118342902619,0.08194648097434083,0.48024406254506746,0.5764139618374379,-1.1067575671543557,-6.1128155536697735,7.4843216042468725,-0.0044108041128249455,0.0024117178307411823,0.00458022763442731,0.7450005580315388,0.11181206048605677,-0.2096338874790008,1.0267145240726503,-6.140681187585665,7.588612459527485,-0.0013672702518863864,0.002819085036789874,0.00433711869951169,0.14853696335590263,0.44178399447699646,-0.8165814775648271,1.8630104338249234,-6.1682160583194285,7.443804918902751,-0.0075925643581304875,-0.005068300491995761,-0.004759139795223722,-0.4208124025402468,0.4712945648019214,-0.3259985164191285
1.7703083461449558,-6.209833168086283,7.316053752553489,0.0016754748680430068,-0.0015281349905631228,0.009897635900414448,-0.5297624549145379,0.10726535790887691,-0.004497267681894592,0.016953474433059692,7.454914386687074,6.356800187681827,-0.0038124699946080207,-0.0024190686268389518,-0.010052380042500236,0.08462837437811387,0.4826336816233511,0.5727149831362959,-1.1315489165518644,-6.089808958758644,7.485129983270515,0.0051282745549841675,0.00790332398629637,0.006275412580566666,0.7515945465536928,0.11221190418250326,-0.21183971484942457,1.0197311094785302,-6.190475705504719,7.621838142828443,0.008872634730521474,0.007519201518819373,0.005095069229964257,0.15682806915337333,0.44222617193436425,-0.8197878875123144,1.853702131786919,-6.171762013642895,7.475459120267077,-0.0017158106569819483,0.00876739177305541,-0.004491611324140532,-0.4159398745340608,0.472255903231144,-0.3294341420176816
1.788967692751664,-6.178175892883265,7.331607173107535,0.002663260011470257,-0.004315992034688586,0.00864247909270298,-0.526094485861057,0.10388833376226281,-0.01378790613874408,0.045323860106684995,7.472523153094139,6.325104958776658,-0.0043560162616556675,-0.0032542440084915494,-0.012680695574825075,0.0826843443103545,0.47901377672612777,0.5757026893853616,-1.1128346829398044,-6.089702917353999,7.519864069288917,0.004249141208647059,0.008815300552416656,0.005029115544461078,0.747665727670917,0.10917150952037485,-0.2056825799244092,1.0565114755241183,-6.150274372277575,7.7071484552784195,0.01003680328370953,0.008436725856925857,0.005787339169186157,0.15120895975711923,0.43957024117517246,-0.8165941484191339,1.8875034473070624,-6.143664509745182,7.442141468521708,-0.0004610514499170978,0.023857127393500502,-0.00501655440425172,-0.4181362002381726,0.4725171083471622,-0.3296661038439029
1.7873529039461868,-6.191813072394807,7.34869617381219,0.0010376687239495514,-0.008742153725419264,0.01145790351069841,-0.5201640339231086,0.11610399238982733,-0.01955627116763173,0.019163769495864996,7.482121910538491,6.36833934950624,-0.0068486197925508915,-0.0023085869054934203,-0.012084637455747876,0.07339959881934202,0.47905593090628934,0.5803259754669511,-1.1441468536302821,-6.08725742957127,7.5687032722938286,-0.0007036711217486602,0.005271597509777961,0.0035769234891621306,0.7396071129560574,0.10880358007196737,-0.20225572118812563,1.051835851299872,-6.1363797829152125,7.757066543328393,0.0005955239906617673,0.0020058624797716436,0.00396557888444936,0.1434183078716892,0.44156683936842145,-0.8141204118012298,1.8546202525686597,-6.146797803626429,7.4640444019839185,-0.0024591453893676968,0.03405315448349306,-0.005049160987461982,-0.4244618765419935,0.4710569067756275,-0.3228084179609125
1.7916273009903012,-6.183773150925543,7.349837823354445,-0.0010303605047874286,-0.007739025432021958,0.010925249086070832,-0.5219299691876903,0.10366605086054032,-0.020370512627731,0.015396805766513576,7.48170405919083,6.33909285081814,-0.009760615528068764,-0.003556859712529489,-0.01101151358799541,0.07877333322994522,0.48022374943859153,0.5759198790812702,-1.1451028126306473,-6.087882017297204,7.568056956920165,-0.00691640517282231,-0.000598967066417206,0.0031804059392952257,0.7432875580691715,0.1113199519859168,-0.21060127486418817,1.0488970086474485,-6.168127062551538,7.737620903262886,-0.00577822460682003,0.002721538184098063,0.007045500003948315,0.1502334329092198,0.44030989518584324,-0.8175665954940567,1.8302943757856194,-6.16175034624149,7.47012447493423,-0.0047911494953471745,0.03784781885613229,-0.004662367568803635,-0.4220414770021031,0.4722982187384093,-0.32915975047294116
1.7941488434827768,-6.173771856876882,7.341263373703835,-0.004510853089403988,-0.007968577513555324,0.012350537551713083,-0.5246119213614047,0.11212548785314316,-0.0046985014834619995,0.034274129907053516,7.458798875700421,6.3424123815927675,-0.013956871496796162,-0.0025668333518966044,-0.010127030885975913,0.08293049836404075,0.4750001189845309,0.5838284044132944,-1.129820422109204,-6.100932094420438,7.5040215100487035,-0.011561263097599426,-0.0019392775619384403,0.0008018940864277925,0.7471700731061844,0.10806651032560764,-0.19907090000686756,1.027477213692472,-6.161255327653033,7.693784801775967,-0.012315138827532879,0.0005187911013909476,0.005078257324290457,0.15270248069050205,0.4383330800717841,-0.8075681558628657,1.8367785277560698,-6.151342790945108,7.434263587438563,-0.006158690553921175,0.03236950763054826,-0.003664506572094004,-0.41812529077247884,0.46831628832731265,-0.321145979599246
1.7961001128681446,-6.201023859889653,7.353512382258716,-0.0021752607953663405,-0.0035134844075936605,0.01171903770749708,-0.5277938655687553,0.10922590673070971,-0.007166334617151325,0.031824431386119414,7.466201748597956,6.366674825163428,-0.010156578622270375,-0.0031077882247266615,-0.010861673583748073,0.07607397187986874,0.4817558803590716,0.58052934381638,-1.1047944634068936,-6.089278092736694,7.481805345217987,-0.009259929308143998,-0.0003928909806701585,0.002817517149101995,0.7406070089891448,0.11192834808325046,-0.20475096642630927,1.0249784764872933,-6.15501063721078,7.61392294868164,-0.008159592658802114,-0.001756065504557059,0.00654767131017795,0.14465899676716626,0.44326631173263553,-0.811681688621385,1.8096532470040987,-6.138685496824831,7.446498994325118,-0.005142761881671294,0.01719740859491491,-0.0033069009431755877,-0.4232426376471083,0.4717898602659569,-0.3242749072033596
1.789626406375207,-6.18193976075122,7.379775222476746,-0.003912851039619651,0.0028550698610760768,0.010737813130713463,-0.5253591671006412,0.10678721600603146,-0.00937287079830302,0.02708945631716781,7.474911944327747,6.359677121579743,-0.008950234462014225,-0.001813237752116138,-0.011651408881730729,0.07559410597869509,0.4781497396009898,0.5840073589902677,-1.1372675361442564,-6.093916056648146,7.495005092327308,-0.0024904021264519874,0.0012194185906322578,0.0015983643356205933,0.742063430686975,0.11075376460539982,-0.20131309215698973,1.0270247392022487,-6.16918483825234,7.564092998945214,-0.0030604947251372675,0.002145089179316294,0.004282178119857592,0.14806973064600232,0.4420262298032849,-0.8116963588721549,1.8007618783791877,-6.164572308005401,7.459090307238291,-0.006495384713587073,0.0005840081907985981,-0.005258656944085584,-0.4193473339480488,0.47029690569423493,-0.32430241609043176
1.8049608016567111,-6.198639135156991,7.351693438295421,-0.002263310166744631,0.006070220356606874,0.010605910894937122,-0.5206759624014742,0.11700823929997274,-0.007588551720780928,0.018965426103212443,7.4540982176060995,6.373548604666972,-0.00842809792528779,-0.0036231729434463428,-0.008702829895133997,0.07657799716115657,0.478319824755647,0.5793665169135278,-1.1084870509104314,-6.097182363062266,7.48735623822263,-0.000160455096783006,0.005549763257263562,0.0038931372889025764,0.7415723026091062,0.11043548401283994,-0.20594625680715364,1.0434778624343666,-6.160226362051348,7.642848051412119,0.003936589809933778,0.008793839186683307,0.0044848017823621395,0.14219013440330106,0.440842728053534,-0.8148482453915508,1.826431328256223,-6.164147746820409,7.45295510799046,-0.00900693955940823,-0.01713889016715982,-0.0038744044201915137,-0.42472215920848577,0.4715724049503296,-0.3269542196403712
1.7977853827215111,-6.1869258628222505,7.355818876613537,-0.0017158702469509813,0.009900269078210767,0.011320254876753089,-0.5195036471705637,0.1050628058492575,-0.011322759759161893,0.025761994514971895,7.472778191280947,6.340951933727574,-0.006852599936173455,-0.0023078365701995553,-0.012098658705823762,0.07856134514492351,0.46980397612688385,0.5807335311443541,-1.1305202615561054,-6.097750936654265,7.522142698558713,0.0029027906758356463,0.007394393046455213,0.0028861033881024483,0.7483513240561709,0.10293092956058494,-0.19898472344923782,1.0429726878715893,-6.1618295721494105,7.687338897943092,0.005419028095384976,0.006253588669602269,0.006085540999192298,0.150456629378014,0.43102252139331326,-0.8090312152228477,1.8342559191104275,-6.141821233823648,7.453816031546748,-0.005786595998570673,-0.02867905169272998,-0.003458644496771461,-0.4186601538779042,0.4619735215275979,-0.32142529086448635
1.7739254374966957,-6.17500366933768,7.342238420053271,-0.005256227147187325,0.009768466717408856,0.01203499759734278,-0.5265558357142934,0.10950953406235361,-0.014241761290943216,0.024201488569373368,7.471461128929556,6.342508556660819,-0.009837105041284181,-0.0031392610123068894,-0.009229377319372704,0.08585677462597367,0.4806856362213428,0.5727496521826161,-1.1387700115652348,-6.088135476980498,7.529203003583924,-0.0034865904401312187,0.0028444452969534667,0.0033815208199011438,0.7518317738917439,0.11122084660157731,-0.2125551909576004,1.0464489110938338,-6.156663082922766,7.7491145553995695,-0.001347801154496912,0.003566565996664614,0.005869763201303144,0.156797372138245,0.43783240781975313,-0.8210129428573572,1.8379343710289509,-6.165762229724702,7.472094111854834,-0.010317705838024136,-0.02935377466690342,-0.005763105937310345,-0.4130433312751977,0.46907413683368004,-0.3316640264858781
1.7712849049358117,-6.184093178510658,7.319109590666783,-0.005748224903266234,0.008205147015913718,0.011014995774339276,-0.5275191185830723,0.11147627847614049,-0.01569675700418615,0.03800593991959519,7.478999938383885,6.328247698098633,-0.01114477540835211,-0.003545113670607355,-0.00909977473127016,0.08513538162388433,0.47611397024769736,0.5769765196233988,-1.1254730293892046,-6.080031729571582,7.541989758134739,-0.01057762228722912,0.0009760238473840338,0.0009455549682865966,0.7510712221862107,0.10761448049432326,-0.2095648300088754,1.0443204866365965,-6.156663690935032,7.726557788987688,-0.009484260073260033,0.0013598782002711017,0.004285848357465885,0.15510818270647922,0.43857174249842995,-0.8170995262814588,1.8564853523763971,-6.140116069067211,7.4640653778589385,-0.010254498199865134,-0.019747190173411956,-0.003002990330331579,-0.41401818645460564,0.4676016265800725,-0.3292260896671311
1.7848280416728362,-6.186316531273989,7.335889335474499,-0.007517069700296085,0.0028190675616084574,0.010736988227802873,-0.5175600469927596,0.1030975633549643,-0.010842437692768716,0.03197839678025109,7.48668999106236,6.343710057314021,-0.015148730809214413,-0.0012266666078108632,-0.00967939992474946,0.08020074674159333,0.4874145122097774,0.5821508621847051,-1.127801184138481,-6.088657243801389,7.533079377181334,-0.014035198408019596,-0.002159129864380143,-0.00032489517735107926,0.7438180255098871,0.11661496720116941,-0.20043514447133054,1.0508890004811602,-6.159764047391638,7.680767482407412,-0.012481954921363796,-5.7839650382817345e-05,0.005729375874899958,0.14836361453632832,0.44885835852842515,-0.8092500223576663,1.859945375446353,-6.156311541270417,7.478195608906963,-0.011588806926218064,-0.009208913602166262,-0.00421775785159336,-0.4226967151487255,0.47787160638078424,-0.3213111282270286
1.7906828977001459,-6.213020747069488,7.326942615816049,-0.004075512992858674,0.0019303787843103655,0.011283637737632512,-0.5302168281100957,0.1131458667323561,-0.007391534769801667,0.024835221910057548,7.455772562381465,6.336494254480264,-0.012553784632019237,-0.0030602186173405723,-0.009627338751023553,0.07511301239770685,0.4792533242826073,0.5771511144047214,-1.116331702772202,-6.087072235845143,7.510550392029597,-0.009932563473643309,-0.0010979421735650148,0.0017404191522602077,0.739126529859543,0.10996236556472078,-0.20618266237295751,1.0316459166281429,-6.177082903685092,7.635148814074015,-0.010539334550778545,0.0018499127217022795,0.00556549792461103,0.14342554588267703,0.44181044574468314,-0.8126551972965781,1.871134303214145,-6.169413589806429,7.460652477642358,-0.008956995895487702,0.0019228590802060964,-0.003415859699385415,-0.42495974801081193,0.4713199656829063,-0.3252455420882063
1.7979855533395404,-6.1970437244509515,7.329495303000023,-0.00197068655844865,-0.0026863324763616967,0.011863716884467291,-0.529993359656543,0.10537482863546878,-0.014275896014462844,0.040998818549669115,7.47202600497069,6.353385979130835,-0.009411554946295435,-0.0022415302900530313,-0.011680025533004484,0.07632257939718817,0.4857142219916729,0.5689869057800748,-1.1104144190326861,-6.096743750566208,7.460791604643385,-0.004159254508120681,0.0021354621515655287,0.002308489622222486,0.7428495667263246,0.11791049964178342,-0.21095619200852272,1.0360462658210552,-6.1553431106455765,7.591576660115558,-0.0010070774584665695,0.001990937709717267,0.004350908414190567,0.14585992763083913,0.44742048151032265,-0.822669591447622,1.8651421659885599,-6.143288435826952,7.4431495023519,-0.004153839024903386,0.011885766787085736,-0.003932343097721674,-0.4230025153864005,0.47696588152860026,-0.3327894093137931
1.79444405731171,-6.187659949845474,7.342580002539501,-8.230458335531404e-05,-0.003406230114807387,0.0102676711751272,-0.5231420047565416,0.11020543787674132,-0.011055180039348486,0.03483632983650892,7.46164810305779,6.345440088762449,-0.004992217003112369,-0.0023630799042592054,-0.011578522650145055,0.07485594202498845,0.48290568780825444,0.5766014968103953,-1.124888437887999,-6.1081309590798,7.515634054182441,0.0023903677421328842,0.006811995232608,0.003642156642471109,0.7394026014190413,0.11410565268526927,-0.2064965546008526,1.046684952739286,-6.156017843471413,7.621963181095585,0.003451877871895089,0.0035893868023840736,0.004714785948523226,0.14439095120243287,0.44131779146150535,-0.8148565022109082,1.8681611566003737,-6.170903348875232,7.460164766529155,-0.002768318113009541,0.019566824505273202,-0.004893141792858996,-0.4249644345747581,0.4708324432841638,-0.3254924366949573
1.8018489805070115,-6.192223920396763,7.339860983363649,9.333102393850373e-05,-0.0036934229113060497,0.012393336819364272,-0.5217023629303328,0.10506860619272669,-0.010595952794584172,0.0262996872863493,7.47154123342435,6.328654797120031,-0.005669659158455953,-0.003653656010453693,-0.012583215359526044,0.08367234748181697,0.4763247419636571,0.5752612827934255,-1.117461686241778,-6.081872278515724,7.530281928465736,0.00306503202016334,0.007520979719670954,0.004716187419057016,0.7488988731324231,0.1108049600534559,-0.20961797858613895,1.0411193574631434,-6.174272188028458,7.674693326288017,0.009033350923631618,0.008078867862367146,0.00444395872538608,0.15485636797666252,0.4405307726233294,-0.8219787126185013,1.8340266255682443,-6.13901009399842,7.46015808975797,-0.004354066992495339,0.02259844996386105,-0.004568467232642817,-0.41207569198326544,0.46907878511002643,-0.3336216757379751
1.7925854473107723,-6.188576215688633,7.342261814279072,0.0005257915975534257,-0.0055864322491139115,0.008400405878408632,-0.5300014174670336,0.10366588136595362,-0.014286633877693472,0.03647035559613234,7.459900337574544,6.334762576663066,-0.0059468711027961555,-0.0014521864639163425,-0.01209344564467655,0.07777318035212498,0.4844429349035204,0.5802432137009267,-1.123773799320669,-6.09488174290249,7.543812632580777,-0.00026109611767358187,0.004816627907440622,0.004202554392104873,0.7462476783470231,0.11513641197688292,-0.20016686376063247,1.0553436661049493,-6.140581203720666,7.755662669221221,0.00210272914438588,0.004817193912190171,0.004882289417651127,0.14810235248726583,0.4464185311598291,-0.8099833084908838,1.8533709777558762,-6.152875365421478,7.448758646095854,-0.0021469100933999563,0.02581912044960506,-0.005819818919832758,-0.4227072043182018,0.4778847191434292,-0.32350806405512633
1.7757111391000864,-6.175965513809452,7.379066477007117,-0.0014418702944024174,-0.004733577018916484,0.012928162346602306,-0.5251204121924816,0.10677228250285077,-0.007175345352645476,0.002214741083200744,7.490538560085614,6.329964516981945,-0.0074468175834804225,-0.003192475671347936,-0.010500634598262067,0.07824961651544944,0.48597902022543754,0.5843689010940852,-1.1430859322492675,-6.088757450027423,7.543732704309611,-0.005039201518125524,-3.9812558536837966e-05,0.001850294036066746,0.7423563955550474,0.1170864560952909,-0.20215193307154763,1.021081356309391,-6.169662291785528,7.720224352593071,-0.00498866555613271,0.0009828491076194084,0.005976718547891214,0.1473636267804222,0.44544685975186193,-0.8099813072443867,1.823858220067843,-6.147984949168261,7.465836236485535,-0.0031158925488859977,0.023452100458843148,-0.004152271509923903,-0.42295069873614577,0.47566916476684823,-0.3201020255537522
1.8013679738187633,-6.1759276904668585,7.353475351091808,-0.0070072994132443925,-0.0027390355729381157,0.011139353484979474,-0.5207044074438987,0.10511910915550338,-0.01938245291111788,0.03365202142259163,7.4668191326337885,6.338375577689143,-0.015021756850404954,-0.0007807263092297005,-0.011328879801524439,0.07949060183323188,0.48013780977641823,0.5852018392258304,-1.1412580877869292,-6.083101888094981,7.521985886109014,-0.010678217914161969,0.00024882010638772835,0.001250871589064054,0.7467332717090023,0.1146683773159692,-0.19869390427613023,1.038451695712308,-6.144251426918661,7.6935815059031,-0.010106954669160331,0.0009423542223281689,0.0044819176515414096,0.1488070376514262,0.4417763080804675,-0.8099904988215596,1.8280131699291238,-6.154411720261776,7.437789222135308,-0.010273069157493023,0.015078157360708097,-0.0032890554405618972,-0.4176232440700048,0.4702657027934108,-0.3211367412063973
1.8145685820881237,-6.204270854553918,7.332474606441846,-0.005076339368626012,0.0012063739761476893,0.011872722284472559,-0.5321804946606505,0.1066169010854678,-0.015982362393493387,0.01542681168936075,7.454829520812605,6.378963165835731,-0.012953691611133324,-0.002620378590921729,-0.009490352769201635,0.08243262502147376,0.48073385593753043,0.5764065863281775,-1.114160948461611,-6.094008803662868,7.492229019083413,-0.009827876638713018,-0.000358872531565412,0.0014289007244475704,0.7489034444764667,0.11134221752631339,-0.20669661289340677,1.04409317554267,-6.151925523945077,7.660888638085291,-0.009356997960724183,4.547391181132419e-05,0.0060501129978164925,0.15390589363062335,0.44175286770050337,-0.8170917528130734,1.8187959756814964,-6.152226411280641,7.416920661359383,-0.007246295696897712,0.0017642744978798633,-0.0038779871285568313,-0.41496235321133074,0.47150963940539503,-0.3282222276783052
1.7833791216150212,-6.196724149053013,7.370128373630261,-0.0027139235081064606,0.0032587663733780843,0.008615157741787864,-0.5241157571492674,0.11190369166231104,-0.00860579677871761,0.0216216464636644,7.463297555225134,6.3468353980124395,-0.009782664060990239,-0.0022685404493763338,-0.009086833007123736,0.07900374177288376,0.4831787608915315,0.5773360288672513,-1.1375953808168588,-6.101825956815552,7.491140835838366,-0.005213855848600284,0.001279822621708327,0.0027442452964303765,0.7454968287293837,0.11282934353177397,-0.2069647740308018,1.03042216788468,-6.178706135534655,7.597749806836183,-0.003430775744624052,0.002962301208266202,0.00426241789851768,0.14805478983052162,0.4412957899753467,-0.8143830146799936,1.8239242475397028,-6.14340276606969,7.459018070792027,-0.007807613476984039,-0.010803353265181356,-0.004531336008476148,-0.41763711017103194,0.4732392884106037,-0.3284431406143455
1.7961424038782727,-6.187398388162921,7.328962388415652,-0.004854659901106724,0.006762228703440772,0.010006055077149445,-0.5300009461516655,0.1055958533010192,-0.010612445381205983,0.029286424485340426,7.461339085237046,6.344847812999368,-0.008931338258544612,-0.002289760597795249,-0.009233062564298025,0.08731012514422501,0.48010230661198994,0.5813080733476412,-1.1154073323672282,-6.0963349744520245,7.504257234645976,-0.0017830859996795505,0.004717329307155132,0.0029514602361546496,0.7503718148544394,0.11167037971653748,-0.20108674007755797,1.0332545943265508,-6.1455302646635115,7.6475304737299945,0.0012816029787694522,0.00579647946008837,0.00441146287228884,0.15588244761148187,0.442957422689886,-0.8129473962118258,1.8245455315235335,-6.182751105950475,7.470334585133365,-0.009676678292095751,-0.01967088922613413,-0.0027432860376641497,-0.4129919425762096,0.471473773632977,-0.32456974241818837
1.7963617245623964,-6.193648600921471,7.347263122824697,-0.003142820546847763,0.007514204131384203,0.011593891334759012,-0.5236595630995706,0.10771935537813127,-0.0035038373659118036,0.038067671296691356,7.478940744347322,6.343338926322444,-0.008858809491607575,-0.0027087257823832007,-0.01103618561946364,0.08049642162216465,0.47609623879877483,0.5769689898050733,-1.1261473026683884,-6.092685103767974,7.490425709787165,0.0006630799067962032,0.005244423592993051,0.0030079312183726894,0.7449699883425028,0.10776045642071218,-0.20370480905214597,1.0617212844548405,-6.152513253882471,7.677073471254074,0.00317624930124018,0.005068643493861244,0.005138282739253394,0.15096218788624416,0.4371279420219153,-0.8136664639262721,1.8685791752832157,-6.131377619359409,7.461509718804462,-0.005251112501476169,-0.022687710468556225,-0.0029424267521562498,-0.41985694767247805,0.4686031370566917,-0.32626314953849356
1.7908169205415552,-6.197373530420374,7.305716595910902,-0.004579214571624992,0.007495547402948716,0.010866330937219153,-0.5263077226810526,0.11602567115383115,-0.0024810357891807224,0.026343662706250725,7.458579018908742,6.3481044869122565,-0.008315259854544546,-0.0018774326974383994,-0.008400804129247923,0.08143522480941844,0.48752018026949556,0.5736049684244707,-1.1270248286766245,-6.094511484113165,7.545238477788239,-0.003994138944881452,0.005357199027752109,0.003345337900128048,0.7482299947628996,0.1190978869060675,-0.2104895747908216,1.04998498357268,-6.160103058635326,7.725443107291747,-0.0013753388447166886,0.0028101360431922163,0.004333142102558529,0.15321887726504596,0.45054763777621964,-0.8187897085924487,1.8519434011052833,-6.155378989226923,7.468778103699583,-0.008235658243108719,-0.017882971962256435,-0.003959530287782322,-0.41760309434747256,0.478615885770505,-0.32938824047851306
1.7757995814699643,-6.198065692683538,7.338335160189703,-0.003956166237122945,0.0041033954883890516,0.011679560401407104,-0.5265368509110205,0.11365787566502333,-0.013971691809504937,0.025680817122870188,7.466822082903363,6.350157747663643,-0.01063595821984145,-0.0022505282708604434,-0.008952554788877024,0.07515223265841817,0.4720518320514215,0.5699466472200284,-1.1509419083489454,-6.102026100646816,7.544313353310102,-0.007820254603406454,0.0006271765125834713,0.0008606727368540207,0.7405274958991636,0.10179673165519093,-0.21190534286476956,1.0256902864946662,-6.166464295386357,7.721235158993005,-0.004809427468700788,0.0023030077518785314,0.006852268581870804,0.14454757451022193,0.43058033545962177,-0.8209713549276195,1.8548336269608305,-6.156762832013865,7.466918991103489,-0.008627124923931305,-0.006331028649412369,-0.004232721676085381,-0.4255529524968026,0.4635720072083604,-0.3355432543057094
1.7987334857906756,-6.166810518874455,7.332073766034048,-0.004039107206039928,0.0006852868748590877,0.010309893543449524,-0.5282401140502483,0.11560971027712913,-0.012498480580409237,0.029511662486723454,7.465152633703373,6.339418622365607,-0.01096039717836987,-0.00222134198962759,-0.010600823432993269,0.0817048528896166,0.479514320131448,0.5766697994391256,-1.112323723330335,-6.07995938593767,7.508690264886811,-0.009751996825915956,0.0006825150623547928,5.114779549442529e-05,0.7447275303188522,0.1081731499825839,-0.20835135240508665,1.0502688087857899,-6.1478673541106295,7.6852732551756056,-0.00936201954588806,4.450713120010227e-05,0.006046131915339115,0.14926277031331486,0.43958010743158527,-0.8148774249976682,1.8637300124556522,-6.117957183361942,7.460004925958365,-0.00891950744279548,0.0058961707188924205,-0.0046643604954582675,-0.4206128672972356,0.46740638494335845,-0.3294407761528299
1.7834528117632642,-6.193646056297038,7.326782879103751,-0.004831946779121599,-0.0015750776755320774,0.012065864645344605,-0.5233745891952579,0.11433502644909767,-0.007611756931170973,0.00910812802742679,7.454448129139689,6.3488286271272605,-0.012988462854374064,-0.002152852636801184,-0.011964583244090174,0.08122171985629835,0.4764011858015448,0.5803835941448268,-1.117302604620897,-6.0943544525935,7.493064806971322,-0.009797039504048633,-0.0006572571893179172,0.0024920680053321974,0.7466698170230845,0.10654798439449112,-0.20246367407064605,1.0367512807520036,-6.147805404066142,7.631876352427902,-0.00961645661356195,-0.0011942170413462043,0.00626196565446018,0.1521913125541821,0.43834150648608045,-0.8134251739721047,1.8510783247816787,-6.183768956414864,7.437763882848142,-0.006605064447028532,0.012397125570071266,-0.0047216111922186955,-0.41619338370638775,0.46734280338088086,-0.3240900993568405
1.7913498888394612,-6.193916968779061,7.355537668514904,-0.0025130207733428792,-0.0030033247398017745,0.011790433159983639,-0.5311758696963395,0.11223016751274215,-0.016432769650892496,0.030488207418226873,7.470742036348185,6.3530336806493946,-0.009213780199502237,-0.004029780087260428,-0.01040959379051747,0.08244590686002064,0.4794272579680462,0.5713007469908203,-1.1109044763887028,-6.105559002170221,7.498523538134074,-0.00412842457896759,0.0018361113457332585,0.0033736734610578236,0.747919682981976,0.11054802808069335,-0.21083355976838877,1.0338852753384626,-6.180282454704373,7.611705726140863,-0.003574120715931592,0.0031301232013343345,0.006451162286938466,0.15072664803091945,0.44201715248467033,-0.8187879379355236,1.8630810260892872,-6.1413162022929155,7.463657713151549,-0.005808073382196243,0.018219396402597208,-0.004680664943365564,-0.4196209589559138,0.4725523862391655,-0.3338089255900594
1.800024114981031,-6.185269720886747,7.335503147663788,-0.0008805802689177308,-0.0033080733778421607,0.011001398770920212,-0.5300147561732725,0.1026669436740971,-0.010630848658796687,0.03137418918992717,7.449579386007988,6.3628386253651374,-0.005617245985181792,-0.0027730449483612607,-0.01244684081429208,0.08415447910819619,0.4775586743524665,0.5759735523734949,-1.1189648510727614,-6.096151923969836,7.505472285336586,0.0012350802569162254,0.005217305584144732,0.004392429760466061,0.7510762628961105,0.10818151742969827,-0.20493472356245712,1.0392322386162083,-6.132475498579881,7.622974000667926,0.003359495299193935,0.006386773905340643,0.006018815034269926,0.15365096841631448,0.43808882067353105,-0.8144081966800207,1.8388439471751814,-6.165722356788568,7.449104335727538,-0.003722559544339581,0.01898726751104927,-0.004488033188680664,-0.41573302827329334,0.4656507703987597,-0.32752049631093116
1.789585349217467,-6.174158950380081,7.360616493858225,0.0007144949083934337,-0.002365643903245068,0.011173119078794395,-0.5277980261011835,0.11066176604766381,-0.002518234283478868,0.02336489903827709,7.469113216409256,6.346547998547204,-0.006703801054836438,-0.002321343231752113,-0.01132607248862431,0.08536548004705898,0.47977736342039873,0.5769156083940752,-1.1413055535823533,-6.0958985791079785,7.512672074691761,0.0017772957716945116,0.005495445400727568,0.0047066439835129915,0.7527748307848802,0.10688992461348878,-0.20833191374323246,1.0305059100809404,-6.159630830861553,7.679414240709645,0.0054159302449437756,0.00623360192802294,0.00609053434313049,0.15584063497874354,0.43881166416670053,-0.8173461986592173,1.8337424337838315,-6.159295495446599,7.461264405768824,-0.002142160522325501,0.01679011589377128,-0.002183624869413084,-0.4145176966318504,0.46663355164895365,-0.329962504299365
1.8068694875129865,-6.185560267241178,7.364511310441094,-0.002885690917135065,-0.0023926904873680915,0.01117636005873211,-0.5268311786908872,0.10749856373598983,-0.004977822301953441,0.04557068205690526,7.4768236262395575,6.3280268387622876,-0.00840842228224092,-0.0022830605657436233,-0.011042548400467202,0.08313360437223913,0.48739711882570036,0.5804468596645916,-1.1291154389174924,-6.086373102691134,7.526522337089625,-0.0009749652426982649,0.0058581505436807344,0.004785290585022339,0.7457508064690329,0.11408113152741754,-0.20503264874456248,1.0429127119069739,-6.157372827283531,7.7410538061631025,0.00326584880895668,0.005723720533947477,0.005578553110467287,0.15124455361597067,0.4424957909099574,-0.8119534765037201,1.8345095863941578,-6.136153877123324,7.464611961332573,-0.003944823391008208,0.012838947910382219,-0.005557699431261693,-0.41882140945701213,0.47591252247706317,-0.32500343076798527
1.7845167237240642,-6.194277073203408,7.34508287175412,-0.0008545036007568769,0.0002067833416983695,0.011658520714305464,-0.5246331678386156,0.10676537230067935,-0.006441209678037834,0.029571620532254442,7.475985146755063,6.3459724156960196,-0.007160136343449695,-0.002750432474527672,-0.01134366584249882,0.08487668769174801,0.47648461489775434,0.5845389513746848,-1.1279681493979274,-6.080899550614469,7.546858736855128,-0.0044623112475854,0.003030220633594251,0.0024425227207566544,0.7503496476518229,0.10877378863289394,-0.1990836712546552,1.0403936564416705,-6.156569741143852,7.719166352925802,-0.005888994656136869,0.002045596411699054,0.006593293506316503,0.15194646946581827,0.43589774362644534,-0.8100084944512909,1.838191796355721,-6.149714409912266,7.464683447547991,-0.005786835844645863,0.008767233817691534,-0.0023891144997776315,-0.41740049229598536,0.4678288768912502,-0.3221283778181309
1.7869158954770203,-6.186950861271787,7.346149569289877,-0.005963809475034468,0.0026574141892235776,0.012857727924186383,-0.5270420432574499,0.10879264425595271,-0.016444467179266987,0.019832744079385657,7.465624324802653,6.329581012494761,-0.013683000397865772,-0.0021555883032715584,-0.011014574761596743,0.07803258937930509,0.4796024298822321,0.5827659925448802,-1.1377180932876891,-6.078902217150036,7.545936604446874,-0.009900658548188708,-0.0013874540073053206,0.002796435711721309,0.7440206794737267,0.11125943519892205,-0.19936886057674869,1.031933464522863,-6.172671316764268,7.682498251853658,-0.009113617836372453,0.0012812723191837601,0.005824320147162873,0.1480621439733643,0.4390939669742674,-0.8092580893743427,1.8219466924922088,-6.142798201524489,7.447845794267306,-0.008960918336008955,-0.00026391691142141756,-0.0034648941454601886,-0.42177605298763504,0.46906723704199205,-0.3199030313797657
1.7800604413806087,-6.197075111051693,7.343803661890582,-0.006196316597345345,0.0030423237012305844,0.010024523535928939,-0.5306972787272083,0.11364993925250756,-0.009586568960638838,0.03367969094339335,7.471089218473166,6.368569452354742,-0.01437257888682747,-0.002153088097012571,-0.010051643685906502,0.09071883648135262,0.4872544900869607,0.5702065935111287,-1.1131521616382614,-6.095644660606429,7.495330734448374,-0.010747969200919144,-0.0007758021442813174,0.0026173389327754275,0.7572433800047337,0.11637112195398926,-0.2087368419593826,1.0406785145344495,-6.145545166776639,7.678026340165855,-0.008931362069861391,0.0026024104557242074,0.0067028591956700525,0.16174886566604318,0.4468328231680221,-0.8171179653987809,1.8411397555208366,-6.159282653770849,7.450459849683051,-0.008990729458319887,-0.004649459774853863,-0.003537929000038702,-0.4081282501743247,0.47417171231585836,-0.3326330961300914
1.8068111335675998,-6.1947802616257315,7.35973423650762,-0.003989503046779544,0.005351617370221192,0.012630331031389618,-0.5301921695167234,0.11996174870609538,-0.004174654779216264,0.020487949363131232,7.460983531383882,6.343466724305124,-0.009789577976812317,-0.002277118136812772,-0.009119705808133812,0.07487014521814599,0.4775967462661045,0.5803528729540709,-1.1411942406108848,-6.087402196835126,7.494549394655522,-0.0071147529206003705,0.0010377931819374247,0.002998870652484482,0.7398665625812937,0.11077489853380137,-0.201068820006899,1.0343948578750712,-6.1792715110174425,7.6053006157202505,-0.005476085800919985,0.00038955602188599144,0.00397806779816218,0.14487576426732762,0.4371599014725803,-0.8094913188839282,1.8358398597886885,-6.140931404317412,7.460354971245017,-0.0069442598743410635,-0.010877158417438092,-0.00476990540362933,-0.42643931603601615,0.4701168150425573,-0.3264666948204315
1.7869408657294215,-6.188042325520505,7.364343192905865,-0.00616824234294506,0.00655716468921857,0.010682650169183898,-0.5261294589744157,0.10427931977549845,0.0018398145145948493,0.026440833431902774,7.458304872403085,6.363431404526165,-0.010967325010087015,-0.002228819440733153,-0.010627713819243054,0.08899533266226876,0.48574752224526274,0.5826816624692424,-1.107463767948677,-6.108460829244777,7.513505600711038,-0.002321270381551951,0.004443174646545926,0.0026381779462388718,0.7550531019395869,0.11724436518584007,-0.2014259188127914,1.0478596492797927,-6.172486344657952,7.630930990510747,-0.0018147874426632314,0.003710742476728683,0.005409743691650588,0.16102999968736717,0.4446336907743603,-0.8102811501738498,1.844144797018605,-6.155200961859285,7.458691104613847,-0.010758309111266514,-0.01586599058733789,-0.004587466375783635,-0.40977535019844225,0.475584793987148,-0.3218744841517358
1.8000408887818033,-6.202500276480069,7.32689992515213,-0.0018620836311204108,0.006605186942373396,0.012859274163303831,-0.5280505078950061,0.10630121187940517,-0.007673301818387639,0.030312904497682307,7.456997355950135,6.352317240392644,-0.0066749492174890766,-0.0027964264677240356,-0.00888373006988362,0.08777218060148699,0.4831797857609516,0.5900476003853087,-1.1340999415516329,-6.092509834208609,7.520805215368629,-0.0006668544332726759,0.004970352112898218,0.0046511388969404915,0.7523417300944109,0.11372302850682323,-0.19428487409159007,1.0395370280263967,-6.139562288348513,7.67256248472613,0.001735414862851099,0.005625383714268029,0.004867508944115412,0.15423127549794746,0.4463763849513952,-0.8034165424354915,1.8629205203538743,-6.165501385738243,7.448707693866451,-0.005743621787481669,-0.01400079551304248,-0.0031092325040651815,-0.4146460321971014,0.47289559316703966,-0.31527508767803714
1.7767310459577184,-6.198687061199272,7.362361026273483,-0.0022853341753315253,0.0025515329991244824,0.00991877391926243,-0.5208985854562826,0.12020014184424146,-0.01025512351305627,0.028325479976170687,7.486195767586258,6.323856356803079,-0.008062404263849354,-0.0009625091179910556,-0.011697150878912687,0.08780398770766139,0.47981120387879356,0.5783843633813207,-1.1148157694852043,-6.092807631625068,7.527254936247173,-0.0009029446675325363,0.003806361660060885,0.004198740149162973,0.7547500055061491,0.10977550735096069,-0.21009029000719426,1.0422299756077318,-6.160874887229343,7.702152864332838,0.0006598731437482773,0.005370946897507703,0.0046105207795120225,0.15779365989054628,0.43733311885802567,-0.815157309565619,1.8531053387503842,-6.1482819873583345,7.475003096421357,-0.005397929701993652,-0.005806954465858519,-0.00479002721952397,-0.4127695639951181,0.470267101927556,-0.32726308479560867
1.771623027795636,-6.178599907352863,7.3169298017048385,-0.004366419268903117,-0.0011620796088289591,0.011400550633670969,-0.5245950296310913,0.1121698931142003,-0.01177834207787071,0.0021079230086441785,7.4659406322620585,6.345266038366634,-0.011260923535955205,-0.0026755580282820587,-0.009824621333907255,0.07804329606499201,0.47949624076081704,0.5764198899427019,-1.1341694867027001,-6.087134933383818,7.540900570916508,-0.005002496379721289,0.002756030951223018,0.0021262411356137725,0.7469448332579381,0.11062547746506395,-0.2066840121293799,1.0487722571802438,-6.141909967579446,7.7247611523595525,-0.0027610552303933213,0.00214188676321629,0.00692001221879532,0.1482767146585532,0.4383665647140085,-0.8156076806503878,1.8482823745802228,-6.18113576984942,7.475186040789428,-0.006850554994673585,0.004889485178371491,-0.0031912036844172617,-0.42009566691978767,0.46933685543647746,-0.32625763046895606
1.7871865925602488,-6.204279592888969,7.337383333174598,-0.004840891949447419,-0.0015719285769902832,0.012048862671746926,-0.5163372202074455,0.10430509728552315,-0.009610918931373863,0.04082492406040366,7.47173831133092,6.341675843389681,-0.010677684281263373,-0.0017863632427305735,-0.011446743587356284,0.08172626201430676,0.4736643475321065,0.5772557919615467,-1.1166504220364721,-6.094405066445018,7.525689110582503,-0.007475423434220306,0.002537204407850857,0.0010014346068975624,0.7483868965350492,0.10767230146964596,-0.2073667668766315,1.0487423035720638,-6.165681000140747,7.700747529793373,-0.008155203571794266,0.00012720398576699862,0.004102419633411364,0.15241563288724178,0.43565504552434314,-0.8144056171827181,1.8738652263018098,-6.141842375607573,7.480591580146986,-0.007275746549911582,0.0120598425244332,-0.0035253872733818086,-0.416956317333298,0.4656624474146755,-0.3280036003607713
1.7882982805445984,-6.186896750928756,7.351620329986135,-0.002604381338985215,-0.004058904271888687,0.009399540837338245,-0.5236531456081315,0.10749427004182582,-0.006679305269573231,0.02164689120380038,7.480609413221599,6.35150846353877,-0.010970291670981236,-0.0022320479634934036,-0.010640666639936836,0.08146837154211423,0.47920405697903745,0.5727670396017106,-1.1105547601849417,-6.075382623633625,7.4903831175065525,-0.009662515234307587,-0.0002165476158430694,0.003244716856190455,0.7486855969172864,0.11474095930818876,-0.20797497033211235,1.0368216393782814,-6.1342118913682855,7.666810254059366,-0.007953494336693298,0.002191821256547523,0.006515599467089277,0.1533900388453262,0.4388283361737505,-0.8197775074909088,1.83711134545307,-6.1645187604170735,7.461732160205534,-0.006196358269144421,0.01771908305928249,-0.003991777140404233,-0.41718317168384583,0.47130909129395904,-0.33285095696042305
1.789503743691162,-6.19801864311688,7.337593134480333,-0.003625062111113363,-0.002385260141516317,0.012617675092815788,-0.5324507459915228,0.10727194077936882,-0.0035276183889955113,0.030268280442638053,7.469523936819574,6.327516081278297,-0.008835878747042778,-0.003191349569605992,-0.008624731398260086,0.08559177610360665,0.4846514125352845,0.5763463638767782,-1.1272992993356994,-6.092657769355931,7.482018368143791,-0.004800035537300666,0.0011340518881544847,0.002296524799697133,0.7501510807132035,0.11476251219827943,-0.20602145204020067,1.0255047427034059,-6.158503661072006,7.634316722882968,-0.004749350070465521,0.0022076712369255565,0.005750931369597514,0.1561104892377572,0.44320415105710487,-0.8173431008344654,1.8476494040314748,-6.167485892199911,7.465458247748975,-0.0045112001879708185,0.015781946875712435,-0.0031633601875604837,-0.41471949276482833,0.4724940468019344,-0.32992656153091826
1.8060020623853934,-6.202177534079382,7.364009007269729,-0.0007887678222080456,-0.0022914674725593993,0.009726965207342496,-0.5231788816928324,0.10311646795044097,-0.00963469755949206,0.02510792338508117,7.457088637755191,6.372393771573341,-0.009032426818683766,-0.0026990376345564795,-0.01191176437864559,0.08194380342211112,0.4798010560762438,0.5791067498163354,-1.1143559275563757,-6.08349033711594,7.481609434032491,-0.001881703843439021,0.003987177943464032,0.0032608265352117027,0.7459698843755902,0.11088522443199524,-0.20620005429032964,1.0460385331587565,-6.158342760192068,7.650805772535466,0.00069649863072623,0.003392467817118753,0.005938510652277219,0.15026129803659083,0.44323629604163,-0.8148779083486404,1.8406461954653754,-6.140213676735106,7.472604665832254,-0.005351168113852113,0.015038255762374862,-0.0055718589754849045,-0.41861137784282504,0.47201222981231583,-0.32624874873957316
1.7958761431559744,-6.182537971169866,7.340101488149535,-0.00032714719316919366,0.0005150161720995825,0.011704713155668421,-0.5305144571771137,0.10360234679778632,-0.003790020061108207,0.03458802861743167,7.4658690462185815,6.348622500951022,-0.006151064872394624,-0.0027826734525193205,-0.010690331865393006,0.08342114794604535,0.4778039227926632,0.5762122459201181,-1.127040024455303,-6.087813583919241,7.515884525395409,0.00031390495267480265,0.004789537171170087,0.005590052089799009,0.7493732480019633,0.10894308772615764,-0.2039699515925783,1.0167231993939374,-6.154411077771326,7.6874747869563596,0.003373606610127846,0.0036538325826547297,0.005813165824061135,0.15024316444450284,0.43884052196986056,-0.8129289890371252,1.8413292286337346,-6.162716300495185,7.45317853081771,-0.0028621054894687518,0.006851261113950224,-0.00376655377176888,-0.4176728487215044,0.46860340301107706,-0.32895865425962173
1.78703747345602,-6.181666057393285,7.351845133507826,-0.0019136472599664736,0.001939959954722643,0.010523838583829348,-0.5275561665061793,0.1072794646697291,-0.008398003184135203,0.017109936705569817,7.475890237308198,6.336077583084974,-0.008870693841876451,-0.00271569094885871,-0.011091096899494751,0.08582753883283323,0.48755332106221666,0.5745889624323649,-1.1193104588969798,-6.091496328677505,7.529289356476966,-0.0012348386017318903,0.004999489301473622,0.0032696056875598347,0.7514009768464188,0.1186388251479735,-0.20730824944935536,1.0443940292337253,-6.160302223272996,7.695244788414254,0.001114714429623898,0.005204845181273451,0.005066567514537116,0.15490783812339254,0.44467421631913506,-0.8151389303731603,1.8236757325365813,-6.1324841328894655,7.480021038457786,-0.005822829798615774,0.0017786422424035885,-0.00381369557121301,-0.4134628563405182,0.47564311882913163,-0.3272276870868915
1.7972662230281164,-6.199408762578114,7.344831098726367,-0.003858860474577841,0.0027626180579104495,0.011405377122386087,-0.5248643635280521,0.10993737247043822,-0.0059338552888426,0.02392731904202043,7.46421043673535,6.333810172743381,-0.010575292722702917,-0.0026824410076904106,-0.010809488844039183,0.08655952919288719,0.48285764046127927,0.5856563235815624,-1.1180620972359883,-6.085764030145171,7.535760404977754,-0.005514882205422605,0.002178531237948652,0.002876211032868592,0.7511352348438303,0.11564404812430278,-0.19675824908127224,1.0527488664873312,-6.1377341531698475,7.726767395972721,-0.003349225342914573,0.0036144329415178644,0.004694717255985634,0.15494214003379614,0.4444216545552644,-0.8061062308356812,1.8415908047951726,-6.15003015756358,7.4352354749344265,-0.007652514019825094,-0.0031245423179551896,-0.003283209173916214,-0.41295399202698196,0.4731506424884179,-0.31918875806609576
1.781175494588085,-6.181444268410565,7.341636308972209,-0.004982434526401234,0.0022340767052089787,0.01058136293042477,-0.5314400593072036,0.10880270832015675,-0.014745858766265475,0.027279326332521447,7.4815095862393175,6.345454048368093,-0.01041356311967398,-0.0026990608607916286,-0.009986821647666922,0.08168364769076067,0.483013495546863,0.5814939024388237,-1.1323223879043813,-6.09669308735334,7.534535128848264,-0.008127104110233398,-0.001562445109948943,0.0017737584558851424,0.7477073959142286,0.11454569557474303,-0.20552907093270575,1.0341923878085066,-6.155044956087264,7.703749205852802,-0.008595636515795573,0.0010318181266176316,0.00517702890101118,0.15053855839077468,0.44444958797615897,-0.8082858001594793,1.8515634582986689,-6.139844788525676,7.461230412858201,-0.0077588288801702324,-0.00640681586401309,-0.004480326761840764,-0.4203074289159369,0.47348650636544387,-0.32574283728260406
1.8011714723730297,-6.206346367443169,7.3410078177675,-0.005955191476191601,0.005025887766461592,0.011832580303586646,-0.5222037688277097,0.10527662295438614,-0.0044917069645946705,0.03206130787723358,7.459101399310531,6.364989779607812,-0.013076815224132428,-0.0017568655513609905,-0.010216110171114023,0.0873265957042112,0.4771196519240244,0.5781845611045067,-1.1235897712053455,-6.10064007677635,7.505460113541607,-0.008556786192834417,0.001989815780415906,0.00036785487644735537,0.749573484479492,0.10331070904625089,-0.20485228132640743,1.0302349515928286,-6.159241168019794,7.67178061906802,-0.00885080778498253,0.0032565499317837986,0.00713316438161154,0.15681532515286523,0.43611672410662966,-0.8139345823066514,1.8530697472112274,-6.156413255270386,7.452113066399865,-0.009281008424008433,-0.006674236417486349,-0.0030696142879820445,-0.4125437715672786,0.46708566462927986,-0.32630712323954714
1.793909839302497,-6.187674475118088,7.367256192462889,-0.003953099589050329,0.004105531763554025,0.01165558057659502,-0.5277742408491358,0.11241205787662652,-0.009099348001934994,0.02209651184718469,7.467319969647724,6.3713333653991535,-0.011088974507474956,-0.003990896864808618,-0.011007492111604317,0.08337090941905588,0.48863929970024567,0.5816476473184543,-1.119642612562221,-6.088754499021579,7.490681797565782,-0.008396545868881463,0.0021163505918261154,0.002193939754014889,0.7484868848601475,0.12046889466054521,-0.20147845387191826,1.0399765471522877,-6.1544600206014355,7.644326384452575,-0.0069034453023623776,0.0016988180933766982,0.005233966950880258,0.15104220430006954,0.4500657858950791,-0.8126775032156487,1.849978650709972,-6.159439015526629,7.466587187834055,-0.0076773419986598986,-0.007509091248291998,-0.0033612620338850908,-0.4168211266249092,0.4795341223632753,-0.3205962365521851
1.7821303272539215,-6.189728355522541,7.337391534266591,-0.004067852034977261,0.00429896998609139,0.010240488166108916,-0.5287881872810083,0.10677428702068689,-0.004742028710304977,0.03962560977365149,7.455769843755872,6.34373327322962,-0.01053705087721994,-0.0005170739975876938,-0.00866434892487007,0.0760777806461162,0.481483323697214,0.5788246692552463,-1.120526187616051,-6.0897121752268255,7.489770034213722,-0.002449687741786988,0.004016331972082942,0.001880293183990974,0.7415856718824362,0.11215240829109044,-0.20548710837223894,1.0368675697389742,-6.159073988466224,7.634795230378373,-0.0022757071150721294,0.003864881592624725,0.004951709644294651,0.1473232962492779,0.4405667249613882,-0.8129157998538619,1.8542901749949894,-6.1379152821693905,7.444368418365287,-0.0076773347969602045,-0.007508091291831457,-0.00336125609986931,-0.4205537693040776,0.47299882155290707,-0.32550056483928536
1.7998127188237054,-6.188039589563963,7.324168015676218,-0.0025412328144188145,0.0029687697448340074,0.01071179812100094,-0.5280275565242593,0.11238871379389877,-0.005194010856112826,0.023879660692273683,7.454494047811884,6.362024642594322,-0.008589431746130813,-0.0049166807328575556,-0.011612872334168986,0.08903311086574672,0.4762105955047179,0.5818651692648474,-1.1287863206657294,-6.109804470135139,7.495599447333323,-0.00256676621644172,0.004726365787740035,0.004908797371109749,0.7532293897608592,0.10240418206954756,-0.19897716954754047,1.0332028117262981,-6.168962525937713,7.660665566235942,0.0020234245244485916,0.004876646611185831,0.00597966863826665,0.15755419021018638,0.43366636865848535,-0.8085687848258645,1.8503924765631479,-6.185474875204162,7.460477638995144,-0.007533765489851523,-0.0006637814543584748,-0.004717130984483256,-0.41180218484223685,0.4638672006419344,-0.31973768127759916
1.781026031356275,-6.196625120898441,7.355497051213652,-7.722671403408378e-05,9.292712619305866e-05,0.010892643828926796,-0.5282787674985764,0.10899800656622849,-0.00936597041279685,0.033052208383976926,7.482112936611597,6.360770857799181,-0.00695096695835322,-0.001889610510408121,-0.010393580733454517,0.08265428389972826,0.48401042798121163,0.5824559965460631,-1.1229801316490422,-6.091587528134548,7.530322029974158,-0.00038652770892533424,0.0043878465293088805,0.0034497021850393044,0.7482182080713701,0.11747962844271523,-0.20509055426671804,1.0350287823363817,-6.161523991491077,7.678882546820477,0.0019317937110719294,0.004215580492628801,0.0055404006324480245,0.1532388350124807,0.44736443289867966,-0.8090267254215155,1.8673041175904397,-6.1203237580783965,7.465183888460346,-0.005519794550954365,0.003400133497185913,-0.005600516700856163,-0.41954681507218405,0.47566213457367523,-0.32304840478572466
1.7832096094216097,-6.193813664730196,7.324833203737403,-0.0025782855841234424,-0.0005439973769119344,0.010048662960842808,-0.5258096343031974,0.1126743718845777,-0.0134871143449492,0.031901905359068033,7.462056555538575,6.339795506974829,-0.009109893135135893,-0.0022884082644844352,-0.010127512857629126,0.07878692067024436,0.47445039024227215,0.5811442324356806,-1.1266176297039392,-6.098211839922892,7.522760493673152,-0.004324800938749821,0.0034690083434438445,0.0032012039849571698,0.745966170634758,0.11040143409726746,-0.2059468703252903,1.0451955687971322,-6.135208892593798,7.719457613894827,-0.0022767169316904616,0.0038638884403622044,0.004950712689440713,0.15193297057038002,0.4354122994505212,-0.8126949236299373,1.8532011901913015,-6.178936970196733,7.4546050791726435,-0.006612050770356726,0.009811999688866983,-0.006059046188625671,-0.4184067577980988,0.4639305114862141,-0.3223908485937881
1.7895806952519344,-6.191426085017693,7.344481821232257,-0.0029056333210546828,-0.002393432790115619,0.01115030723714715,-0.5268344914954819,0.10435628119754124,-0.009879648744605894,0.030948046204730312,7.470242858082347,6.341989246333897,-0.01063660839958603,-0.0035630904533958774,-0.011005886251219166,0.0819385557010807,0.47961735961697904,0.5827723325902304,-1.1390282852794333,-6.1024871958494815,7.528831704251566,-0.005617516500954133,0.0014463438544869574,0.0031816121410530008,0.7469252231016552,0.10801495082847722,-0.2022444157376522,1.0372799063547784,-6.179203275129132,7.694797006776724,-0.005648679195615348,0.0032704126593256972,0.006367502366135766,0.1519578896071507,0.4393177673553889,-0.8122033145518536,1.8520646456210887,-6.135166439201897,7.452845697784179,-0.005765856963528646,0.013160703616068128,-0.002292989491066085,-0.4179023395405213,0.46686271462459517,-0.32335278413044877
1.7758211179578725,-6.175783056672352,7.350582242437027,-0.003473342800943421,-0.0014593790852289875,0.012049831346235959,-0.5248476796092258,0.11359772913014515,-0.00566685197314835,0.02949532334491728,7.468514297254978,6.34403300457759,-0.011269807074290514,-0.0026882933465478373,-0.009866429161108801,0.07948926746209772,0.48226503749677035,0.5810146551547368,-1.1166358177405138,-6.097204662577535,7.527826555133678,-0.0071374533033388395,0.0013539611928263858,0.0019264003817944058,0.74525767877631,0.1133859275162153,-0.20306752954678384,1.0450521280415004,-6.1501967859596265,7.669157551924644,-0.0056496890122336805,0.0032694195070631774,0.006366505411281829,0.14760429600926522,0.44422352073937754,-0.8090074114682269,1.8445977931711632,-6.138458818725565,7.4447584601492895,-0.006672339087765372,0.015719038124250226,-0.005780494143777523,-0.42082181015595144,0.4693348186676896,-0.32503314002303724
1.7899555176368174,-6.198588225069504,7.362013189777184,-0.001699772463732709,-0.0019938947016663873,0.009047642758763342,-0.5294532727849237,0.11852701348972013,-0.009553011543008378,0.022690246272310168,7.466749262074345,6.358674125362795,-0.008877637272614855,-0.002718202597526108,-0.011120070687485838,0.08389987692569027,0.47930734616013493,0.5783862076820147,-1.1174124207420926,-6.098042519689563,7.512879754397808,-0.007596286930503475,0.00016385794711358886,0.004808974572882436,0.749392287152425,0.11139188622248802,-0.20352313123144902,1.0384166036958482,-6.162402368077907,7.6415020009843335,-0.007328708205048517,-0.00011751233816738065,0.0060999341714179965,0.152186405868695,0.43980872183196457,-0.8168417914592166,1.8475167325141097,-6.167316541582279,7.437250068002015,-0.005372659968690549,0.013266675163720898,-0.004281292323719693,-0.41665785846633974,0.4722436663206355,-0.32650070148973315
1.79993216065147,-6.192597957580121,7.351330322439065,-0.0028675639211963133,0.0011203609306118696,0.011808451149198686,-0.5344169905274232,0.10507658786281292,-0.0023250515522617488,0.02955421554341337,7.455284459706034,6.356155160992085,-0.008260577853799602,-0.0023047204467801443,-0.01027882863868783,0.08999181151971342,0.48296354148596327,0.5766260648919165,-1.134405095691663,-6.085925565417552,7.519604248076015,-0.0013642711532881255,0.004570671559904839,0.002512754606359914,0.7564822348647889,0.11272775827115376,-0.2079431693880195,1.0383043408406525,-6.158575085077065,7.627929962269284,-0.00220455724306749,0.0037784754779198017,0.003855337135037271,0.1624641776563329,0.4421880529250628,-0.8144391779591607,1.8390247781147886,-6.133500528248309,7.455890986130601,-0.006447101034024874,0.007605446598042119,-0.003822938176508346,-0.4071278283277909,0.47364176320388773,-0.3267818645445447
1.7950278704354852,-6.204634317283087,7.358669295635515,-0.003096073655434969,0.0015082075273023952,0.008982274877485655,-0.5207369826903335,0.1043105702973128,-0.007180326999289418,0.024855256173572315,7.4643297857650435,6.348974885417514,-0.00746464241635005,-0.0031971668984015315,-0.010597599889587889,0.08659823567932835,0.47683611228434364,0.5759897659097603,-1.1105087372985436,-6.102344395286901,7.511534142545791,-0.0022105663445861146,0.005184315330078148,0.0023336240045259836,0.753500834621634,0.10594440991807867,-0.20611887343863283,1.0163774178920435,-6.134559019051868,7.665127795978778,0.0011116654929456183,0.005195862037722801,0.005067571066768086,0.15583976764224908,0.43685615166276204,-0.8146620274473406,1.828246512197896,-6.168682477690041,7.448314240701051,-0.005744559280957503,-0.0019266615938077593,-0.004053191306922382,-0.413042834801656,0.46685683220642954,-0.3282591633544898
1.7898820720468187,-6.1719633903291236,7.368114140997507,-0.00273725770803203,0.0032902567081029106,0.012215380634045057,-0.5329257471119087,0.10417384133004316,-0.015266447024669531,0.01535936515024918,7.482952766386442,6.354906131867304,-0.00802732326600838,-0.0027354606184914142,-0.011268368532652947,0.08220098167564836,0.4777910912841613,0.5757223330452362,-1.1370315857657083,-6.086479565907097,7.518758166904659,-0.0018508888655310086,0.00368586116138522,0.004328043773628605,0.7481479110522432,0.10842761891910926,-0.2061592506284824,1.051333625636709,-6.18123933165577,7.68756341429684,0.00014294228469840937,0.00288454671388415,0.005041211635972581,0.1517008714825243,0.4390779844186206,-0.8151315493147865,1.8482977946181618,-6.124552371036552,7.457652172220101,-0.004905108757708371,-0.00419923005872989,-0.004318770657132885,-0.41671111504518993,0.46664493617826563,-0.32921894256250944
1.7788727194584864,-6.197514859133897,7.3419470283080175,-0.0040089425447255725,0.0042043064376915545,0.010938050697042623,-0.5331917892699898,0.1026712326384496,-0.008929363334984586,0.02012996709365486,7.460830233181465,6.374003002702399,-0.01143649446574182,-0.0026759597052496654,-0.010705035263413981,0.08611497452582059,0.476317726295615,0.5742883830533165,-1.1402686921313996,-6.094700980226979,7.552420264892723,-0.005301521986280123,0.003654774589225369,0.0022612061672790925,0.7520467645029699,0.10739173110297337,-0.20785209947056382,1.0433046853756982,-6.142549625769212,7.694302925458396,-0.0035362760915995314,0.005747776365752029,0.005554487487904168,0.1543737411056233,0.4388207436029882,-0.8178283904559529,1.8314526325976834,-6.155461995353559,7.453538992539449,-0.009266331194026622,-0.007082482217586674,-0.004397159746947765,-0.41500743562954723,0.46639306277392056,-0.32996160145924397
1.798547906752769,-6.177389410428148,7.343762236375196,-0.0022961526827890663,0.004945283747153435,0.012524820218967643,-0.5319506706547907,0.10995401940513416,-0.003265597582942009,0.03120391047132861,7.4700095623215725,6.3290697544489545,-0.00996714045490863,-0.0022776111112963507,-0.010005122277005073,0.08801597246417078,0.485532498697645,0.5846368843176144,-1.1297633804130096,-6.091732012546297,7.530856371120713,-0.005206734287995571,0.0012956309077389817,0.0027359759876729047,0.7530793555572394,0.11457396088671071,-0.20138040950207503,1.0452103816645006,-6.163632671869359,7.701282450284195,-0.0038506988731205126,0.00187554008942035,0.006655068486614207,0.15419467021639488,0.44442943854156636,-0.8097652964652692,1.85915408420537,-6.146370989694399,7.443409700761042,-0.004725552080309034,-0.00462824212731068,-0.0033581604111884945,-0.41369584195792225,0.4739067993740363,-0.32235379557682065
1.7960839748325472,-6.1786549305033525,7.343300410183035,-0.005830518088072467,0.002441935494535561,0.01060464374060662,-0.5246139451449525,0.1068159052368852,-0.014498028275375541,0.02819878310470516,7.467487272596443,6.352938259304787,-0.012525015367112766,-0.0022332643077044773,-0.009584119551921412,0.07999051512551868,0.4795608740901214,0.5798395768381741,-1.128038885225383,-6.08624358948283,7.523068375382124,-0.0086295758480439,0.0009602344765092219,0.0017354067053519484,0.7469604882032901,0.11261103047974319,-0.20476418084809916,1.0471879536294002,-6.1502215664416235,7.66181701754452,-0.007093738404104604,0.00037673461450791747,0.0043474587386613615,0.14906393375880983,0.44446052041232376,-0.8107219757846432,1.845097559458812,-6.138546917870691,7.450234708244324,-0.008669718432351026,-0.0030199965209863656,-0.005341788868626605,-0.41838261680363764,0.4700590209046714,-0.32650550611541335
1.7917145605850837,-6.198597356718505,7.327609554700071,-0.004674580968417235,0.0017223286864412055,0.010466885194057165,-0.5272964654493607,0.10780251866405767,-0.014010229380583834,0.026164241117939434,7.45584694499052,6.354796839712208,-0.011438475471934832,-0.002677117777895499,-0.01071402050031738,0.08952646084441229,0.4761593578399893,0.5786924101343328,-1.1215955752070117,-6.097301439823532,7.5145156365313355,-0.007886930413709881,-0.00038758858427508916,0.002219972238258335,0.7535098967197205,0.10714054628602,-0.20760322941604067,1.0351849388621948,-6.151990244299032,7.652399750789513,-0.00682088315502271,0.002352943909455094,0.005666264196495396,0.1563310701650134,0.4380741862519073,-0.8156398242415527,1.846050486563422,-6.1694963480572556,7.457686655108079,-0.008099473705360493,-0.0003317676634529505,-0.0036934185944272413,-0.4130234910362776,0.4695427152594434,-0.328243224588102
1.7959535030559208,-6.193907000983721,7.337923317922587,-0.0032970984792407994,0.0018297181396288399,0.010485845609568223,-0.5238970705830298,0.10629077153840434,-0.009128490635951829,0.019821923279045965,7.475620834389425,6.317636057744246,-0.008554148127096112,-0.0027546258985176224,-0.009485684528747203,0.08926290415321672,0.4796412715586703,0.5825402550800378,-1.1201780110102806,-6.091169102466588,7.493036938263312,-0.004216120619137586,0.0042071313607572195,0.0028947011310696685,0.7532855258105889,0.10968990914738866,-0.20129820588743988,1.047835135364249,-6.165624663776253,7.611023429747418,-0.0036869103001327358,0.0024501923149707655,0.005999960004736142,0.1592956809000011,0.44000536115054406,-0.8097896735852985,1.8676699572142803,-6.132430382113257,7.455150590555462,-0.005999305022378625,0.0022176204191433455,-0.004772260986687661,-0.40859368802039386,0.46946747604010997,-0.3209406096249301
1.7885813106169577,-6.179791745107239,7.332343133321309,-0.0028715471077390155,0.0011194363280782377,0.011799435643937145,-0.5294571261375501,0.11465941786556497,-0.015681416004178463,0.030016206501350597,7.453883306218375,6.323729797859827,-0.008703713136409262,-0.004026551551044886,-0.012304055235810463,0.08245660952508575,0.47650277159473936,0.571593734883579,-1.1259721515763959,-6.1050751876202485,7.505887505130158,-0.0013622631975133451,0.004571672729746629,0.002513737343636308,0.7476835215210343,0.11154318688305039,-0.2098741184088169,1.0379220196802759,-6.136778804705707,7.643450272978271,-0.0004623203065081447,0.0032055118256525228,0.006773924997355081,0.15313495143222292,0.4385880904611684,-0.8222177462925966,1.8437780752536927,-6.165577740914528,7.443687483564721,-0.0070446610799980314,0.0035469380580149547,-0.0028732806477206607,-0.4181888496783444,0.46765617754424277,-0.3333569726800548
1.7936749323511854,-6.198405428505818,7.346522861420469,-0.0007253609105007365,-0.0012464980172391855,0.01207672336532291,-0.5297219718971313,0.11243507462767474,-0.011300900180250435,0.02869246332903267,7.481161272162992,6.348045626098612,-0.006343230500413536,-0.004123979109243802,-0.009279015633414147,0.08415262356839169,0.4780476023363781,0.5759653680274507,-1.1226465346028682,-6.092234378446421,7.5059683785295634,-0.0013076880619216796,0.003962044092580776,0.004645291114790687,0.7501020279265593,0.10854955132965895,-0.21250973255734176,1.0578547253499442,-6.169582022370692,7.68488064692674,0.003912990702933237,0.00413183561349774,0.006711492547994804,0.1536470329719769,0.43955680461376134,-0.8175808152614932,1.8571594747199647,-6.152665613326072,7.478413676711443,-0.0028649760687050416,0.006861210576205074,-0.0037544803308472733,-0.41816375265199696,0.46836437044650614,-0.3292017442925348
1.7982039866526243,-6.177003091007888,7.330920549676391,-0.0006165633566503594,-0.0002240855986110717,0.01082036715050516,-0.5277788726969322,0.11191794525851503,-0.008125436164750024,0.02309883991722393,7.470886903093581,6.339941940865806,-0.007414238509366573,-0.002322244715779927,-0.010442130855637558,0.08633787200152186,0.47958105168699755,0.5796059135050661,-1.130571995475411,-6.08385153230898,7.540467245113755,-0.00231320811574018,0.004451144958493183,0.002640041812501175,0.7513440640535896,0.11117802634981984,-0.2008336755461953,1.0442876773528653,-6.147264794796288,7.700032612345034,-0.0015869136592707121,0.0041900327639859195,0.00365528213339881,0.15832634487163677,0.44245391040116905,-0.8117365326534847,1.8455442315712773,-6.157955507531473,7.46245709280722,-0.0064303815287175495,0.009393931015636679,-0.005091380507150039,-0.4110378922383701,0.47047260685079306,-0.32287599764655334
1.7927966622939129,-6.165217215573653,7.334737654800482,-0.0030058413358693167,-0.0010504091705191316,0.011387496846896102,-0.5185110303518468,0.10678703919725052,-0.01448364843370722,0.03383530511944625,7.458880345298395,6.346422845345302,-0.010026462896592855,-0.003158185990086352,-0.01019751700343123,0.08388412570743158,0.48345773483338045,0.5783167327936107,-1.1273544765850503,-6.100301269497106,7.5253862512263545,-0.005271707518559479,0.003353431876243793,0.003326423829002478,0.7508844948121458,0.11497301806192141,-0.20773443804155764,1.0486045144843954,-6.158375138550295,7.681373842829131,-0.003780543090582278,0.00179013983864805,0.005558700864260978,0.1561378655736475,0.44637601034071955,-0.8151421830211018,1.8387536541147156,-6.1468344074600525,7.43773316712767,-0.006543918543813748,0.009536190226140941,-0.0022999078378892865,-0.4151688483376185,0.4763912644319633,-0.32770409076319257
1.8034746344556276,-6.199324231878032,7.353775642544107,-0.004218642869776849,-0.00023207940584148889,0.010816722955066624,-0.5275197977099276,0.11316225793972468,-0.012024101590570678,0.02390412691339921,7.467304898937439,6.352517006355861,-0.010825383971499262,-0.0022678176330928218,-0.009882716582632537,0.08511201478608178,0.4836287526186772,0.5736762867668108,-1.1165200693960737,-6.098461425166919,7.531291179227959,-0.007266833525537303,0.0009320243681204937,0.001162432402059008,0.7511107368419007,0.11272827259353685,-0.21038307322333322,1.0463952195436648,-6.164380468711422,7.693509989149967,-0.0064606550492753234,0.0015307964759011985,0.005680059461276946,0.15462823582259083,0.4412611916529903,-0.8188040911038342,1.8380930286141826,-6.147326553431123,7.460969062490045,-0.007478956297118798,0.008121232096007392,-0.004552954639414549,-0.41642425373424274,0.4747187791031563,-0.3323462148583728
1.7871828112195511,-6.202163943807603,7.344932763329649,-0.0028401698244161803,-0.00012669462075619355,0.010835673160516942,-0.5233837258294705,0.1111774341306716,-0.010072638332728558,0.03832862708659256,7.454493635948898,6.368283908283379,-0.009738849978551992,-0.0027096881284286787,-0.01101365086344717,0.08705655269453848,0.4804311158357392,0.5864298685902429,-1.126321800985189,-6.095802920955212,7.516691986708808,-0.0052047036352419265,0.00129959788199409,0.0027349084837368794,0.7520832471879736,0.111938108848981,-0.19889339982137919,1.0298273151409845,-6.144483998623786,7.655015087464737,-0.005749372789641074,0.00260340622054315,0.005921264525130763,0.1576016308496878,0.4412335392380557,-0.807828790362771,1.844956675149052,-6.167984678241802,7.448632635229658,-0.006458973085829169,0.0054176564133959085,-0.0038599403703845764,-0.4110256607109173,0.47021112981190405,-0.31994753112841284
1.7860668453312167,-6.182210930984043,7.350163362473042,-0.0038627889570996563,0.0027647999856150376,0.011379380849257662,-0.5261268002389634,0.09849912272871933,-0.01089171878000607,0.03201184148871827,7.474431027750123,6.331026420218899,-0.008846710399113398,-0.003207493624980874,-0.008690488867717736,0.07827679403245051,0.48101096156661943,0.5793243522990877,-1.1225514814166164,-6.083260068281818,7.502435724009055,-0.005403140820379204,0.002924579112912981,0.0025665734525754523,0.7425850628168469,0.1151195571327325,-0.20285197146654316,1.042118879363146,-6.164257516197557,7.648340650729531,-0.004509040495331927,0.0034314875022990817,0.005525139304399665,0.1495519214877241,0.4444576501527256,-0.8107239091855174,1.8481954581136804,-6.130295878877542,7.458662410271429,-0.006007237023119801,2.6849420365589597e-05,-0.004817300017300643,-0.416902399950243,0.4729856721776781,-0.32771614082214134
1.787618492048792,-6.195970129079456,7.3456206654509,-0.00301765303536072,0.002560055644031672,0.011340112180117084,-0.5221690657144853,0.10970824085552061,-0.010323960686122648,0.027938312604850846,7.452563657959313,6.35386863249933,-0.011140659148245462,-0.00352140670569818,-0.013539792190269339,0.07707175824339456,0.4773244225692128,0.5781638334635255,-1.1235358814100878,-6.084194864559523,7.501529603392337,-0.005297483377751698,0.0036597427333222676,0.0022611214006194617,0.7444823732071906,0.10797631506770196,-0.2056615899607646,1.0396964499851635,-6.136322866785443,7.636560628016013,-0.0019357451184826386,0.00574871030268847,0.00517215290686906,0.1485178305683134,0.4378761382624344,-0.8156090996841926,1.8461092977868754,-6.1701387929005795,7.446563214998864,-0.00868911051946443,-0.004392255911357541,-0.0027568110906765666,-0.42279918048823617,0.4659305274832309,-0.3248000110878603
1.790611418932689,-6.212162481532293,7.350513358953537,-0.002261768170341647,0.0036971825741003426,0.011554052395475717,-0.5290112424406762,0.10731242862305872,-0.012552361546461333,0.02313660360583323,7.461425218928186,6.3469662973956344,-0.007143127529467561,-0.003234815194440905,-0.008976198402195493,0.0792290054915515,0.48853357345728166,0.5762706690018836,-1.1246292013992267,-6.085116155267042,7.514794294750735,-0.00046039263054756973,0.003348409413266726,0.004825421435158205,0.7457856179663903,0.118649448212543,-0.20926018843379735,1.0392953297078944,-6.16666571355065,7.66971571493652,-0.00020893029679201189,0.0044362420218533845,0.00655808781998416,0.1493102128818281,0.4471482789417198,-0.8141384296012817,1.8402334774279199,-6.136539429491082,7.464496329134057,-0.004433188496966728,-0.004787266740418472,-0.003878520582186587,-0.42077247632675496,0.47863427130249503,-0.3286399772617143
1.7891072126184828,-6.175840552884759,7.329709110332456,-0.0023755183578886103,0.0038925971893284464,0.01014197483989023,-0.5233556436024936,0.11920715705859869,-0.005872114902339167,0.03695321235436928,7.479693905526837,6.332600927276832,-0.0075829326273672846,-0.0023060029610863847,-0.011285806444923175,0.08120875265552703,0.4807577815583414,0.5781133628210261,-1.1166393341956107,-6.08914494435355,7.528022857921579,-0.003262137332458447,0.0043326181852483036,0.002767312177011582,0.7481596542652184,0.10991703784717126,-0.20471913141338954,1.0485184612903893,-6.166597815668518,7.678171359127804,-0.0007108388954182819,0.005837287904187688,0.0032423747452113892,0.15120806446627297,0.43810341512278755,-0.8146425197324982,1.838905841053187,-6.160970646609645,7.46006672093895,-0.007264979166416153,-0.004795098804200778,-0.004009051280476661,-0.4176646477281075,0.4695789041625637,-0.32870886385316966
1.7899469802895627,-6.182008556494704,7.347988840164329,-0.0031294386181385915,0.001537688774485722,0.012591461438932472,-0.5302195610994018,0.11000412084749642,-0.012538361979426708,0.039247576811391266,7.477654258321326,6.343352442287072,-0.01117230162076936,-0.003598990462599207,-0.009264943126899069,0.08388001061598015,0.48443767336227156,0.5785443630763436,-1.1244875956792362,-6.080234232085438,7.534636859173435,-0.0046347117811191794,0.0012714450232169702,0.004116424572234002,0.750403079887963,0.11589094687524579,-0.2114132877754341,1.037691720619918,-6.142624586823008,7.723485302888804,-0.003784572515291609,0.0017871662635399925,0.005555713961586202,0.15418204261382717,0.4458995059212697,-0.8151348968640685,1.8605424215045,-6.154115970643849,7.442338815315954,-0.006579957114243725,0.00035388379865027497,-0.003788583723737177,-0.4147019282726238,0.4744425868694996,-0.3291819938082047
1.778559975753503,-6.200058683013523,7.3443693820073035,-0.00420007261380488,0.0021342465841181673,0.009807585969898312,-0.5319221451117744,0.11026997599601804,-0.014737806163946484,0.028373501783571245,7.466428981327097,6.348827678692212,-0.011448381772770523,-0.002687706637557767,-0.010746864696985978,0.0856116398082562,0.4785819862000932,0.5784012330684601,-1.1252429330541598,-6.081289817641854,7.533671702407346,-0.0075421139256575615,0.0015204901747892612,0.0023637673660433694,0.7515905254356173,0.11158282158998047,-0.20572425256743854,1.0459245920302374,-6.168275660664464,7.677178022110062,-0.006465688405215058,0.0015278297307837394,0.005676076528765345,0.15463083325154106,0.43759346815115363,-0.8127035290340379,1.8587769282940148,-6.133368679868642,7.460762612378795,-0.007134010453092736,0.002465418264797894,-0.004033342985014355,-0.4154351813193281,0.4714941959337548,-0.3250459696473084
1.7797066747991264,-6.190317498643083,7.336047026489789,-0.0046216570793709945,0.0016277311484875867,0.011158433722926495,-0.5268074627282512,0.11045450183959793,-0.009109319304343015,0.03258188665327626,7.4745799747318875,6.3386599691515375,-0.01208257369505907,-0.0018168291108752567,-0.00960234298936165,0.08170145311927085,0.47884369539372734,0.5803435330852571,-1.130525811646998,-6.095170930550772,7.518254701168999,-0.007779204670104791,0.0003564737910491631,0.001909369041572335,0.7491399432188646,0.11036860340519973,-0.20643624413949735,1.0264002936467054,-6.163031741135376,7.677266241174185,-0.006299884155366688,0.00210446920917029,0.005021961964871292,0.15220563271917525,0.4417608351029923,-0.8148870001390759,1.8427515179091511,-6.156042001131462,7.452630559814425,-0.008439345372109719,0.0053329979731380085,-0.004211000986553688,-0.41763837811391524,0.4707769944505205,-0.3250397313168235
1.7992427806432658,-6.207606852961486,7.358282699488359,-0.0025657242539806314,0.0006026791074178196,0.011687921712007554,-0.5307133412911479,0.10926732393677414,-0.01156713933008759,0.025331458953679276,7.462770097137894,6.353141372342797,-0.010650447614909974,-0.0035772462700852476,-0.011071682063951243,0.07756932717370862,0.4751173478572659,0.5774685001797898,-1.1128996625928493,-6.102558227966529,7.502965173890104,-0.0063520628315861805,0.0028070184877478674,0.0026918272591351486,0.7439810183208915,0.1062631555513195,-0.20612167011618548,1.0391579336054628,-6.1766078147071495,7.635914550579281,-0.003983019910512027,0.0031839795826254995,0.004884818155252937,0.15022247949040424,0.4371340994628785,-0.8156165476616651,1.858216809417953,-6.135772845625539,7.458924883656146,-0.0057948078076998704,0.006182097204189229,-0.0037235447667211324,-0.41965449793699494,0.46446613656788316,-0.3287298797751024
1.78241218240951,-6.186515833940248,7.346025549830314,-0.0020265256647649904,-0.001479818544867069,0.00912408914929684,-0.5319633511814721,0.1075090277784903,-0.002791951987708165,0.02542048882507817,7.471869767532443,6.3335435086481855,-0.008208601454540193,-7.237238689191945e-05,-0.012440395106190806,0.08559022926800483,0.4825527606805976,0.5822413064549649,-1.1159015860300638,-6.081358867181189,7.523655921362587,-0.003393570634278172,0.0039037654219174927,0.0020074618005845564,0.7496724761815786,0.11604465100971001,-0.2026244322035598,1.0514149969134736,-6.141068799376609,7.650484879655836,-0.0006658166864678668,0.004595356573985908,0.006101042541889495,0.15613362753459933,0.4441769658911449,-0.8129472334663693,1.8315378477633577,-6.1620550101419385,7.459456408223323,-0.005787075371561164,0.00577484188780381,-0.0050410508641291,-0.41489166963817586,0.47560845800803797,-0.31965285110266595
1.79258309465163,-6.180400347207177,7.335480934466028,-0.0009892239003440008,0.0003855863162543629,0.010200287901216593,-0.5270197433204928,0.11608426209428689,-0.011271564994564642,0.03157222407923546,7.47918195253131,6.353485368263204,-0.00820130790769722,-0.005368338597289085,-0.011855695437552338,0.0829121774743712,0.4803498999225173,0.5825176831383627,-1.1221180735245238,-6.094166467198747,7.508957196179039,-0.0009619161875284724,0.005864234013764764,0.004796186159854004,0.7508696457054949,0.11291105914182784,-0.19964256280055953,1.045995563829742,-6.1546767279475825,7.667330555838709,-0.00048481103935283266,0.002457052321807552,0.005237291489312175,0.1529675782356232,0.441259666461431,-0.8065894212739684,1.8493878438539917,-6.148068154567748,7.454266515477697,-0.003913498158733829,0.005592481639990448,-0.003211030873093043,-0.41589617072386426,0.4719550819358345,-0.3199138680444568
1.795501474883846,-6.189005596029127,7.363050546460624,-0.003156932878657946,0.000390271426069011,0.010922161737203973,-0.5265461723785819,0.11363337123635804,-0.010064779775274028,0.035097380849603746,7.468375658065751,6.341889471072044,-0.008851652584751513,-0.0032128968037153007,-0.008713410047021653,0.08071077143214117,0.48484911977777634,0.5746255791013346,-1.141785752003821,-6.088359441112264,7.522654660917664,-0.003498220361207017,0.003169593880490737,0.0023128968712833532,0.7457581104223646,0.11504152776389621,-0.20602496458199698,1.0451574471944154,-6.156157043462173,7.689191648869088,0.00012065664065620767,0.005586533743537231,0.005248863849194933,0.15125778640795948,0.44835978030986406,-0.8173190123773303,1.8514411135981776,-6.140583673906335,7.449389241076299,-0.0077742136319687355,0.006095455551793768,-0.004078621951176405,-0.4200575324088335,0.4754478712239322,-0.32744137360179915
1.7843292448146948,-6.20684137485708,7.359533947410074,-0.0020882586593374353,0.0010105202197833159,0.011038604198770391,-0.5282824266367335,0.11188198055043411,-0.002023725751309934,0.02042614240372989,7.4580396658847565,6.337958093819892,-0.009512544723729841,-0.0031409569739521822,-0.012033197877822034,0.07798987000606258,0.49106757540109824,0.5820860055697303,-1.1335512588239725,-6.092819215352447,7.535585373573879,-0.004316716516181681,0.0034799107797174084,0.0031990178936871978,0.7460282628888987,0.11831075755101833,-0.2002202681865066,1.0564584312280818,-6.152563498561175,7.706497488950267,-0.0014851401767783316,0.0021261847378443786,0.0038849242097982366,0.1471420986099922,0.45008737045947084,-0.8111970402094218,1.8408049975810634,-6.160592711723596,7.44934959643167,-0.004192362514722911,0.0027462233619972624,-0.0053777506256023665,-0.41928464534811566,0.47834772368648176,-0.3232776342623568
1.7865369309477555,-6.175761746378314,7.3571340897976745,-0.0035235937898608744,0.0010048520884971956,0.01031212781555275,-0.5219075952463944,0.10975302239337453,-0.01764722087596868,0.02041417957621987,7.485792087249922,6.34096818455957,-0.009251601311550796,-0.002769756068303833,-0.008558476820918877,0.08827294277125201,0.4830550338375972,0.582481462519333,-1.1367935780175775,-6.0999311887462095,7.527636887888341,-0.005743858894922788,0.0010293324029316932,0.0024145599598045277,0.7533117371000935,0.11309088593896709,-0.20233163214578997,1.0378269401393747,-6.169342051102448,7.683696102140883,-0.006575530480537741,0.003582728763327622,0.005442457855412759,0.15834175240963427,0.44342857823508613,-0.809294649113817,1.849660730843077,-6.135140427838729,7.483567227419746,-0.00854640223716734,0.0024639949234599116,-0.00410161027130868,-0.41148837348182904,0.4753559761595453,-0.3223556853906638
1.7820432292101838,-6.195490371961099,7.341569281565383,-0.004453999604106401,0.0013356955114149406,0.013265049529775832,-0.5288002670451035,0.10408990651883507,-0.005003899671996254,0.02560552497949429,7.463448212948363,6.3601304775617145,-0.012306603363564688,-0.0026819794926676074,-0.010628391489440382,0.07777575240253451,0.48136334466721453,0.5859105427332845,-1.1258161112609293,-6.097706145845847,7.51972133018858,-0.007672517084911011,0.001095578454810792,0.0016008499089868028,0.7433101661120571,0.11399176944398944,-0.19697234136419872,1.0428085773770004,-6.155163052763256,7.696597945789365,-0.006834967520835654,0.002346036808618355,0.005655313278831644,0.1463786046173255,0.4427650272755223,-0.8082709391825185,1.846811348346882,-6.160560328271468,7.4551402826423,-0.007785393069835349,0.0013006859870505353,-0.005487227233425828,-0.4227266438919681,0.47273608577633064,-0.31987659471694235
1.7876124529624933,-6.193512788651918,7.361180413635,-0.003610835387901317,0.002347726413530686,0.010563347740592937,-0.5297740079771343,0.10554722226260344,-0.003043038529474266,0.025673916771416536,7.462539233205123,6.340467020505816,-0.010270592150247533,-0.002741238825683656,-0.009252771021906801,0.07830005892300705,0.477491358087986,0.5732794219357122,-1.1358395404310728,-6.095134288732899,7.504982636906553,-0.006323248603941656,0.00250566668390703,0.0037560452023249462,0.7452314453283266,0.11010969812935531,-0.2091162085604927,1.0444056565254238,-6.169173575767087,7.6467339281278015,-0.0050471611250556755,0.0036680747321422547,0.006156497895487845,0.14851199236680446,0.43885589852692486,-0.818537171701669,1.8446249891309119,-6.155639047949374,7.441941708084033,-0.007059541869139527,-0.000835599132188578,-0.0029653694016347583,-0.41987972491566805,0.4673996719124023,-0.32919930941896214
1.7924283380607504,-6.196323944988251,7.348823993976657,-0.004089289039394962,0.001939921390624337,0.011207663010212358,-0.5168155915981313,0.10915403791715902,-0.003966520950770072,0.020966437479379804,7.471230479003088,6.333824730599885,-0.010383954516066267,-0.001846453917283169,-0.009905024762190986,0.08220087521039071,0.4780278906694338,0.5752303015017355,-1.1275540497946812,-6.099342780431987,7.503938121931564,-0.0041450554303127446,0.002161231315017732,0.00230105077793202,0.7486607560754042,0.11155206865254783,-0.20889739340150107,1.0384716597452652,-6.154651001942413,7.651715218394382,-0.0023042547202625973,0.0031094612963293252,0.0034110934655587335,0.153655631067316,0.44151046411782274,-0.8183110026449416,1.8404282305033843,-6.158598184742786,7.45681051746677,-0.007821776943157827,-0.0022733032386800184,-0.0029433105232869196,-0.41619146693531406,0.4715285979736217,-0.32992529609331567
1.7741079204057617,-6.196434605840262,7.330845185586706,-0.0021764978008307016,0.002352418121271483,0.011286815552036486,-0.5231182887939057,0.11316137598034941,-0.015186677041738057,0.010058893225321594,7.460304171262897,6.338884849917886,-0.007985189193394672,-0.004510836794864083,-0.01086653753298599,0.086796601341146,0.4869313523316712,0.5809489022711688,-1.1262196802451052,-6.093484046479585,7.510592043961475,-0.0008949200499447068,0.0038094001913482854,0.00420468765621926,0.7496807690121882,0.11706669864546204,-0.19995626731749783,1.0258749387891355,-6.161458182385423,7.677872816918897,5.6631758688146054e-05,0.0029470462212622594,0.006132621414505523,0.15470371160265753,0.4483329626867745,-0.8102526127022738,1.8544695672186085,-6.161983352933769,7.459321348717264,-0.007534394156361871,-0.0024343336783149904,-0.0034566586813281827,-0.4161060993279638,0.47831912487112715,-0.32231595224342496
1.8144540564512655,-6.189970636289788,7.346124330485822,-0.003301038834202604,0.0018308812823994288,0.010462842985768531,-0.521954373408787,0.10263802395953364,-0.012076831833005456,0.034429234243002906,7.46701703517006,6.3513364102556835,-0.0090108337375939,-0.001833797795650045,-0.01185019523037948,0.07606233954762141,0.4849253306506981,0.5802322553821474,-1.122548370374538,-6.08182547271078,7.53820263769851,-0.0033915397114132797,0.003907749236216106,0.0020073941548084595,0.7435419315217985,0.11259641064529581,-0.20720435737365434,1.0548256901741138,-6.163084598741882,7.67246868978488,-0.00015320842504401984,0.003609331296327535,0.003929061436506958,0.1465931233501868,0.44301499697005947,-0.8160846155173219,1.8504046623379482,-6.134924270497783,7.465787446461172,-0.003735388557722353,-3.856965603595664e-05,-0.004976541640986256,-0.42274467802495114,0.4734981979766072,-0.3247551024564296
1.781047285610369,-6.184209425230307,7.342539680557033,-0.00299124472308959,0.0013150173046250037,0.010365344446525909,-0.5260773559908386,0.10996151959399483,-0.008866663874762787,0.028952424491016253,7.466098212255567,6.344112522563289,-0.009985974145672571,-0.0022928026225976614,-0.010071909327221342,0.07387596227947218,0.482227246459195,0.5800296791325983,-1.125975477848056,-6.088909202385431,7.530242724680052,-0.006243351529038798,0.0035491408177283443,0.00238525703872423,0.7384214883834606,0.11341423027597858,-0.20453136726542018,1.0525534486469252,-6.140972256829811,7.695628840682614,-0.0025492833203338374,0.0026092789567969212,0.005157603016739894,0.14391638168292456,0.4427842523278495,-0.8133882218226189,1.8559475761971718,-6.16353228915308,7.457673999316625,-0.006091319775579716,0.0015533256096102095,-0.00461578194265723,-0.4249427805748518,0.4730230660321227,-0.3242594293631003
1.7806861301441852,-6.187863481158892,7.3513961003189925,-0.0030491563063802713,0.00019396675564840253,0.012321219165202955,-0.5309758881971233,0.10777390362193885,-0.0066950226560536005,0.032982042820364224,7.4745659773454864,6.333670172851575,-0.010317418096987321,-0.002255895234346759,-0.011735321107818487,0.07216739052868647,0.48503591232995663,0.5731428325683979,-1.1453238084515878,-6.082810068337683,7.515827196499509,-0.005610394940349419,0.001462152140517612,0.0031733428322955285,0.7376987291917939,0.11481377268364244,-0.2087053324305853,1.0280985050960871,-6.1745682144831155,7.680805611537698,-0.004519120906999109,0.0034225531169937134,0.005518170656048991,0.1409862939402889,0.4467131989387154,-0.8194769538211077,1.8428350830933966,-6.147406802196387,7.4606479340860705,-0.007218891256690425,0.006588916048932628,-0.002467280957693422,-0.4286401836044744,0.4733399493235856,-0.33205211309953725
1.7888057220768432,-6.179541858437692,7.331398214727432,-0.0029363659658886475,0.0012163414392418997,0.011067872307609706,-0.5328684227858774,0.12047927959566954,-0.0068638545147656875,0.029311159222030335,7.462312842400365,6.356888265573073,-0.009934602298205872,-0.001417558736309713,-0.009897441356512025,0.08487133802347162,0.4802960973308359,0.5788593709286167,-1.1232116998023551,-6.106848197978534,7.513824742891028,-0.006916970443146653,0.002846080190307779,0.0013071256400871457,0.7523147711276161,0.11040156676310768,-0.20301917212286558,1.0433510670383987,-6.158445543844463,7.680641554616263,-0.005064585216997276,0.002929583745808762,0.004621853811628595,0.1568436207775775,0.4402667239393867,-0.8129537506464063,1.841740949756128,-6.149198108810968,7.435893743393324,-0.008033089440425972,0.007644680126742242,-0.006150199980643635,-0.41372804402049546,0.4702522463363305,-0.3235964902785722
1.779033531145352,-6.199924803889398,7.337190189875107,-0.002092244174969668,0.0010086019200337961,0.011028582432897243,-0.5300097800714882,0.10726039530947724,-0.003521866923566645,0.01031770832595314,7.471059544897795,6.366656269231948,-0.009021315067779987,-0.0031998591966680636,-0.00956903535207936,0.0758181379969264,0.48539598035454734,0.5792468298604032,-1.1124672209705075,-6.104493033228443,7.505986067771348,-0.005094977681595843,0.002043661598993357,0.0024253048659581278,0.7443160393995196,0.11799370393114744,-0.20534219299311451,1.041411157516285,-6.158113384540128,7.658224359090449,-0.00407967626542864,0.002521947631768341,0.004440569075233071,0.14783465751319444,0.44715966827201886,-0.8170626051495776,1.8595242552019366,-6.150044147850576,7.446836110338576,-0.0052394662547074365,0.00667755164576367,-0.002111191934415464,-0.422979841153298,0.4757055964023444,-0.32620584726276847
1.7965981917276737,-6.190874054845902,7.34669407594237,-0.003217775764525804,0.0004890697492640817,0.010204620076690025,-0.5255911531626092,0.11067740943125033,-0.006663964269565543,0.026466875861972813,7.459308804969727,6.360425227020848,-0.009987949670416463,-0.002294977278571837,-0.010081877685831476,0.08142462029703941,0.4864504876031839,0.5826571270147715,-1.1177103224778335,-6.08899795749837,7.5058555277268155,-0.004144040238991547,0.0021632063821235333,0.002300017096884043,0.7484590909888426,0.11696925205406852,-0.20630319657258644,1.060528615151379,-6.155658764900893,7.6311008265034665,-0.001838014760487301,0.0036788878063684235,0.005399805297266239,0.15394297354744493,0.443944040219689,-0.8109857710680194,1.8408076030718468,-6.150710152803184,7.458424832979329,-0.007485773349360379,0.00594039977230706,-0.004588939409839718,-0.4158890388548752,0.47539478971186805,-0.32355547861561057
1.7848557997862273,-6.184890582599334,7.339703431024481,-0.0007137923751551934,0.0011099805566079015,0.011048507483326548,-0.5253332887756339,0.11264144417660676,-0.008604074440912154,0.017278387489620094,7.458974564177813,6.344214027018252,-0.009067162528156869,-0.002711411841287901,-0.012045634873883222,0.08314533818568483,0.48493196798731153,0.5790229215825062,-1.111932588957009,-6.099613454403827,7.511738566976434,-0.002689129266639766,0.0043064922553825175,0.004151793737847761,0.7486716342095452,0.11298703745435686,-0.21063080714438892,1.0402387128408415,-6.155573294523909,7.666716476799979,-0.0001418175655441284,0.004342858609783554,0.005462724674879011,0.15417148585261314,0.4444349956445756,-0.8156252479671062,1.8433557115262011,-6.173025521579682,7.461971582149159,-0.006375685843581256,0.0017173403676368614,-0.004103430404630065,-0.41714757783297296,0.4724955251297331,-0.32722888146901324
1.7968964573743258,-6.176586198725137,7.370595938130834,-0.0019235703763114329,0.001933295977578097,0.010477772075706623,-0.5292484587271888,0.11094790457730358,-0.008135026601098851,0.024958177016639164,7.46709444642018,6.342513891085214,-0.008450118712125873,-0.0022968127236105552,-0.011197410551714216,0.08070274659063374,0.48633739777046925,0.5760648692799938,-1.1315114860294193,-6.093962019218402,7.525324612087978,-0.0033627481807476205,0.0036034316279619522,0.003073662339210676,0.7467376738571995,0.11544786096506914,-0.21042769632567146,1.0358264342979788,-6.164465017045644,7.670535532921152,-0.002915550642263219,0.003427465544659743,0.00513982785631667,0.15124248277461697,0.44543036856635465,-0.8168327257994815,1.8438745865600394,-6.1293325784299535,7.459986827601659,-0.006938697525255287,0.0016351171072690833,-0.0043942416522685865,-0.4171399078009302,0.4747036295717235,-0.32892478858435614
1.7963063858391752,-6.192440114212874,7.324792064405012,-0.0034726793027459696,0.0009082640718757622,0.01100365906578441,-0.5248850140143523,0.1043378554989074,-0.008410080085373384,0.006790205730123421,7.467174235936607,6.329890123938859,-0.008466265143879406,-0.0010151978231012695,-0.009196597082263799,0.08515555617174951,0.47309554155254635,0.571655301417019,-1.1279263938666508,-6.081951763157251,7.539038335635214,-0.002306145549782034,0.004459139859668191,0.0026429056765497456,0.7500872300441966,0.10661743177302241,-0.21125701389717097,1.0443800546352848,-6.142255096271729,7.702029014140947,-0.0011401448242491059,0.004012980193025583,0.004109350404884246,0.15311676588780745,0.43516968834419506,-0.8217329120398393,1.8386457703971273,-6.177362315840254,7.452285901888995,-0.005810671809182222,0.0018005552066337176,-0.0038136228279470963,-0.41549947000502313,0.4671401878565586,-0.33190784997478445
1.786799523714022,-6.184469519133485,7.358927142134728,-0.0028824705506110084,0.0011187016324633592,0.011765404208202287,-0.5234136838800509,0.10531149353531734,-0.009133479428719102,0.01839395108112945,7.4745555484579125,6.3373702619918495,-0.011008921094524664,-0.0022685845001243167,-0.010783140669597404,0.07681581908469391,0.4802612229641786,0.5786023292869629,-1.1381362468150988,-6.078796249855422,7.524721923809165,-0.005635147862486654,0.001771437892868665,0.0021069898812336807,0.7418205368187454,0.11095028899162152,-0.20424575199652048,1.0346882646049813,-6.162003067967108,7.678960440367803,-0.0036154402117380795,0.0030913868534775415,0.006428288838990788,0.14466092747868936,0.44326584895682175,-0.8111936926601399,1.84702412156696,-6.138044222469861,7.446266394650687,-0.007234043466520973,-0.0003976113842843231,-0.003927950268469894,-0.4247227514904154,0.4713269592634953,-0.32671167466718765
1.7986345681768137,-6.188985819863253,7.3346335057399425,-0.005581448308671673,0.0020380199651552767,0.009765685761852806,-0.5282724284281546,0.11022049924358567,-0.009602293221671228,0.0328527018191425,7.46167360991903,6.353149405871555,-0.010791832332068162,-0.0014117441161603,-0.009773967232757383,0.0824338615112498,0.4807215924073591,0.5756736899665269,-1.109027624808379,-6.083069099484927,7.516548856948217,-0.006452636301762659,0.0020827468710778673,0.002993093922380331,0.7508782893919023,0.11420723857066516,-0.20967581597064072,1.0606990818902917,-6.14564355260265,7.687275114515973,-0.00550906909989541,0.0038262225036635564,0.005695471534915802,0.15413784670326056,0.4410202976307344,-0.8190463813877579,1.8372170431950863,-6.158396124285421,7.44570073017616,-0.008521856054778123,0.0016614251782747353,-0.006737594582537317,-0.4181467507282245,0.47105217213246925,-0.3296747971770221
1.7850963707664596,-6.1970907013725824,7.344256589216563,-0.0037824591555813787,0.0014251531065137143,0.011097163978213212,-0.5270686976917897,0.10631190536335061,-0.010111947215787884,0.0279542945234831,7.470283563826623,6.346653174604509,-0.011062263406067684,-0.0031460532341879605,-0.010970576574748987,0.07924701982995518,0.4810718772817092,0.5827434532302553,-1.1351849189815437,-6.096793366274244,7.508264864575319,-0.006691735272095916,0.0009177124774524726,0.0025367130024729744,0.7457374596242929,0.11223947668449212,-0.19840869204925832,1.0437021043844676,-6.159137640914293,7.67309444699628,-0.005859111508152082,0.0019334594082944427,0.005468059623990719,0.14929460076838713,0.44055083882615237,-0.8082845758122453,1.8508339606041353,-6.146524576887969,7.456132878596557,-0.005641890666129827,0.0017728202351505436,-0.0015355276374191076,-0.4171137756846378,0.47245326825238826,-0.3201490882678607
1.8124402283854564,-6.195075050067812,7.360408832909919,-0.0029393444514656825,0.001216412076042175,0.011058865441667001,-0.518021274499543,0.10654839660370662,-0.0157050042040219,0.03571922955459411,7.47829936323141,6.345108945714463,-0.008000779564834451,-0.0018649012538530863,-0.01118887749813647,0.09216220536315553,0.490763364105594,0.5752780397932461,-1.1128248499060698,-6.091436951858145,7.507474510513486,-0.004550769162287854,0.002320836609171443,0.0027425352258630157,0.7563039678684432,0.12124440112285807,-0.20979580465016043,1.0508869858123608,-6.162008868481113,7.650274109222122,-0.001932653411179104,0.0030178412294720926,0.004958549193660998,0.16177859732540997,0.45122681867054,-0.8161369080343607,1.8486124667328194,-6.140859562789813,7.467125617347541,-0.006472784403143835,0.00104208787131568,-0.003947992520113819,-0.4075565669646553,0.48317750561822304,-0.3286759589953858
1.7742723730513905,-6.181403303870273,7.328996811594699,-0.0029677121198263203,0.0024605790725874734,0.012014622607530397,-0.5341601356747583,0.10438633128461307,-0.00916492197800187,0.020596984250360703,7.458280076987521,6.340570729187697,-0.009076617301282647,-0.004080619553637264,-0.009773421889212075,0.07777832517639577,0.4820431337907103,0.5827247233522757,-1.1254375856746177,-6.094959100427767,7.49986015046905,-0.0027396652534805114,0.004921122716732281,0.0020221549163536067,0.7418376860101632,0.11315512941525863,-0.20379482227746273,1.0374183904940617,-6.1401978622085815,7.665029201784744,-0.0011297696667554754,0.004744514371965964,0.005642015763385249,0.14586890796148258,0.44155016641306044,-0.8116881029778145,1.8405728714375944,-6.153150270766278,7.43865781248088,-0.006661042325623347,0.001881350361850993,-0.0035890741079305463,-0.42200123107509646,0.4729874736361791,-0.3218316147651872
1.7837526998176345,-6.191675571571791,7.344793358833687,-0.0008824164914797855,0.0014030961557918052,0.008929895873590395,-0.5233686383042596,0.11218096914687206,-0.014461407048193362,0.01957761469461193,7.466640549218858,6.342668430495763,-0.008454082411401083,-0.002299112138301716,-0.011214381166910306,0.08510830819314222,0.4827254274928081,0.5780870173160669,-1.1243649941224783,-6.08957773570157,7.520330141798943,-0.0017104082791797178,0.004120710511232504,0.005091791276273159,0.7516040265232363,0.11330796380946162,-0.20477717335047899,1.0436995506007336,-6.176147205436558,7.66690827554367,-0.0010515551331509393,0.004667064080849296,0.004548623821244203,0.15660341827125132,0.44173429095785,-0.8141724186907372,1.8566387693627584,-6.132801452655184,7.444954744379819,-0.006660035161253628,0.0018823431451530526,-0.003589072991004871,-0.4137279826999199,0.47173029531366845,-0.3257847327735508
1.7915269846949502,-6.175550639872974,7.347803109214503,-0.0018423119368907387,0.0005895065096339911,0.010217531933020274,-0.5321679043706785,0.11050746451555393,-0.013515875482708146,0.018462132997698433,7.475055659160878,6.344706047056247,-0.008391062382991905,-0.004071354313995689,-0.010749558462311229,0.08024820527171724,0.47919122547053555,0.5722771267268286,-1.1302270273107218,-6.103976196390652,7.546966974074664,-0.003467390702165175,0.002870226234614961,0.0033770808519587624,0.7447245193981301,0.10785930572934313,-0.21249665441085944,1.0474451826244289,-6.1383799952265665,7.704113579395371,-0.0005081025436372952,0.0051580452508870195,0.005444946739404452,0.15021225327825255,0.4388479311244359,-0.8207419243756666,1.8489641085165518,-6.174034099955053,7.449188412829332,-0.005119028241727827,0.003951215298434441,-0.006265160375106973,-0.4220893637010044,0.4698952129641864,-0.33552204998751295
1.8016975365958876,-6.193327170030554,7.3408047237873495,-0.002295252156493071,0.0013281910449172325,0.012521136134006194,-0.5306995657651223,0.11292102253967298,-0.010079157221976838,0.014757650739268905,7.475232662701463,6.315610722862425,-0.009375845932352841,-0.0018867644617562478,-0.009255557947451701,0.08608553626767325,0.4827168944851952,0.5773557051541761,-1.1357557860515894,-6.087294946732902,7.519330634544237,-0.004657419369368939,0.0015866468860261662,0.003045970859494636,0.7516106631191671,0.11422623683153328,-0.20821112597282682,1.036690967965857,-6.1630756399616535,7.6938426229552075,-0.004877212322910444,0.0015248419053505097,0.005285785856515334,0.15710423817817676,0.445884125600199,-0.817100489021516,1.8387776859846001,-6.134146220998207,7.455797309282189,-0.006346940945211818,0.0057075487069847015,-0.005323787786472238,-0.4129743019066807,0.47539271633049623,-0.3267434999806455
1.794390656255395,-6.179094864969473,7.335327431450981,-0.002885451422025658,0.0011187659973341067,0.01175739731974467,-0.5204988261589221,0.1045350319412696,-0.004248284974191837,0.03715765760155508,7.471011470187676,6.349692951139507,-0.011130236162231667,-0.0013781474620985536,-0.011454337761113115,0.08392673980491579,0.47128928971400436,0.5807177295481749,-1.1296536947108995,-6.098248709582764,7.524994251471504,-0.005607341620652038,0.0014690771700017918,0.0031702249475207447,0.7512864110590923,0.10379772558765228,-0.20412784263245168,1.033643178957976,-6.167750863300547,7.684197167761444,-0.0054348839910002035,0.0037457986374388325,0.004599092690099981,0.1548538320757183,0.43319717861953316,-0.8117315723073371,1.841368263351143,-6.141343847744058,7.4670303102229605,-0.007215059736429066,0.003995866791923734,-0.003830815654787013,-0.415486761635092,0.46416905850628837,-0.3248454375058545
1.7829812782721204,-6.197038553560945,7.331655586306233,-0.003956101925291321,0.000501551658397176,0.011636969085232861,-0.5285358557762193,0.10366048254289888,-0.014527176562320204,0.0141282158690202,7.4800104513763515,6.350830705530255,-0.011117565218788796,-0.004027779982683984,-0.011172946657756307,0.0804752166493706,0.4824147113188095,0.5751539855729303,-1.1259386421434165,-6.08637394451861,7.5244301964281135,-0.007055771217220103,0.003869358983386788,0.0032682092325817085,0.7455320356696079,0.11742231404059136,-0.20972852137390202,1.0332745357384225,-6.163981064059574,7.670616088796228,-0.0048658313051745524,0.002257370184864504,0.00681844817814641,0.150011886626202,0.44544009137894774,-0.8195138700675919,1.824985221483393,-6.164544926227725,7.434852112831647,-0.008164574294900761,0.003396435951805086,-0.003452849027735158,-0.4210438053173781,0.4759588895045676,-0.3301196930500217
1.7867807778325326,-6.184853586428738,7.3648388216680445,-0.001843307094505947,0.0005885363580181951,0.010213523383761098,-0.5275504234266682,0.10874135876615329,-0.007900809391054633,0.02637549264260893,7.468879365256388,6.335659450031086,-0.00890936626416073,-0.00273448109539618,-0.01124887007258754,0.07850318705218491,0.4828309306276692,0.5858872129419352,-1.1270235684492587,-6.087375082819814,7.523458210824951,-0.004443080796795457,0.0030599840438793437,0.002437015528130928,0.7425617968110312,0.11202833246382304,-0.19791620873528273,1.0512987900109332,-6.166592919931562,7.656270182487323,-0.0023885320116008423,0.003178950812742444,0.004500501811989657,0.14956018903400087,0.4432329677185356,-0.8068190709580021,1.8490797873076348,-6.132996316223831,7.468765365780362,-0.005513265982049155,0.0038402571101229487,-0.004277882366233286,-0.4188232624801253,0.4732057827866064,-0.321357470563264
