# sampling frequency: 40
# units are seconds/meters/radians/a.u.
seg1_acc_x,seg1_acc_y,seg1_acc_z,seg1_gyr_x,seg1_gyr_y,seg1_gyr_z,seg1_mag_x,seg1_mag_y,seg1_mag_z,seg2_acc_x,seg2_acc_y,seg2_acc_z,seg2_gyr_x,seg2_gyr_y,seg2_gyr_z,seg2_mag_x,seg2_mag_y,seg2_mag_z,seg3_acc_x,seg3_acc_y,seg3_acc_z,seg3_gyr_x,seg3_gyr_y,seg3_gyr_z,seg3_mag_x,seg3_mag_y,seg3_mag_z,seg4_acc_x,seg4_acc_y,seg4_acc_z,seg4_gyr_x,seg4_gyr_y,seg4_gyr_z,seg4_mag_x,seg4_mag_y,seg4_mag_z,seg5_acc_x,seg5_acc_y,seg5_acc_z,seg5_gyr_x,seg5_gyr_y,seg5_gyr_z,seg5_mag_x,seg5_mag_y,seg5_mag_z
2.1307700911104366,-6.058302876154749,7.335938252873542,-0.004433033280365929,0.001100038070269013,0.009478330294895136,-0.5665474660926666,-0.034720654581586435,0.18065792449656037,0.14295972810087695,7.597532965786915,6.177769580855166,-0.011897535206084454,-0.0036552541306750118,-0.009826427746651588,0.3608568270325771,0.40928782438487243,0.532187024230466,-1.4480137730681646,-5.98435663024467,7.5504040848882745,-0.004870826970620602,0.003851309097397624,0.002146522736561906,0.6784178978111761,0.15443667922347382,-0.34974375014414566,1.4891136874763267,-6.006200959881427,7.703402912910896,-0.0029397798283052516,0.004354577939390956,0.006151643319541469,0.03558553022921081,0.4292844226781652,-0.8019963212267126,0.27272602047262606,-6.006247293023879,7.7978215036042915,-0.006231649908889938,0.004021361152165829,-0.003332229718504344,-0.2883089518969349,0.45138850856266166,-0.3934656965666344
2.1403977100251406,-6.088051820517193,7.355217838277627,-0.0029263042311479634,0.0015682634073041779,0.011447583606686443,-0.5611970805324014,-0.03398795101419134,0.17623796863265945,0.1574219212980848,7.60318682910739,6.201200210882548,-0.010348918822479323,-0.003139231330365472,-0.011302364657901683,0.36446407927663177,0.4079643312838647,0.5248526662313397,-1.4254583510473526,-5.980491613766608,7.566475486416685,-0.0042611995707478095,0.0034171189443166668,0.0010763235288010937,0.6820649087052427,0.14926963405908708,-0.3533641883507371,1.468566071304763,-6.0250979716441435,7.719412821627247,-0.001985453639123024,0.0033832054854193764,0.005409520634060044,0.039146504059094867,0.42609892467911026,-0.80646539415976,0.28602861594878604,-5.987394679483125,7.783602935804382,-0.007144510692849938,0.002889396096855566,-0.0029759471022228743,-0.28349737826123056,0.448655533092437,-0.39984667824873815
2.1441289881395593,-6.065743034633259,7.32264231356938,-0.0029263042311479634,0.0015682634073041779,0.011447583606686443,-0.5689757698124621,-0.03130316189976046,0.1828697334426705,0.14318799476722377,7.585125933029557,6.1825343561370545,-0.010121967350433912,-0.0027917900928985185,-0.009692078777741314,0.36717698370819113,0.4067955460316968,0.5280234395722678,-1.4497271977277781,-5.986008805852618,7.5487647823852795,-0.005345008329027421,0.002423898430926879,0.0020730324066877775,0.6869545686385343,0.15051213020511284,-0.351941073786173,1.475665113785275,-6.004086019090456,7.724249088342543,-0.003291144533368404,0.004824651080840207,0.00484712230180204,0.0430928479708216,0.4287550728521098,-0.8053072350111763,0.277391737990913,-6.013502327530435,7.807944548766112,-0.006389832480134364,0.001653846439076708,-0.004847368443988264,-0.281016887333387,0.4493627675223513,-0.3952258197551214
2.151294224178682,-6.059173393711351,7.347322441864445,-0.0015549966917176247,0.001977969659847083,0.010827399425230033,-0.5660470806536678,-0.03911890307318478,0.18382448771534995,0.1575028758975795,7.590980819697646,6.205715100653304,-0.009456570080320904,-0.001131975714174128,-0.01067512338563351,0.36378951112603464,0.4078282052885378,0.5321859746609366,-1.4290972456771613,-5.979429970069773,7.555698469364917,-0.005097519772152462,0.0015959956534360702,0.0024035765115194233,0.68428956964876,0.15055628739028967,-0.34801996736993035,1.4774389171999773,-6.028716673383044,7.706921760805818,-0.004241888343819578,0.0025004919489933666,0.005737490504705603,0.039508310801685376,0.42730026331479143,-0.8003633392301945,0.2871063262745221,-5.9956181620385305,7.802737163228417,-0.00613303010657911,0.004631407290210294,-0.003255863207197312,-0.28343506502767246,0.45011986552265726,-0.39301181924545736
2.1445576634312244,-6.068081483827659,7.343373339589805,-0.005049908245132442,0.000989228707867084,0.010775192493838565,-0.5550571667099565,-0.0398584861149892,0.18450426005525347,0.14564561362048883,7.5946899950578155,6.18645228978781,-0.009797682275103576,-0.0024693255291939414,-0.011249624858944953,0.36869162687041146,0.4152255462436881,0.5364322370199988,-1.431625670908382,-5.967400652511453,7.559214304959941,-0.005954631282900093,0.002859100402958473,0.0031442196441263904,0.6889658192577595,0.15993819557928987,-0.33961089112295156,1.477712498295404,-6.014586461356431,7.713755633387831,-0.0037787640119655596,0.0033919182932899833,0.006965005443897278,0.044310452975623416,0.4353079711247578,-0.7943219631310355,0.28243407526156317,-5.992308205286737,7.789574746285729,-0.008267057324425184,0.0014075488091881553,-0.005224294645635993,-0.2779936288926473,0.45152956737489985,-0.38499248638815387
2.1425585822041886,-6.06935878346119,7.342901707430289,-0.002170872300858092,0.001866159669761856,0.012124255916975748,-0.5621554365795085,-0.026420835221425146,0.178935605610802,0.14393927736363127,7.593157189805428,6.188373666803596,-0.010537902584645738,-0.0024845249542073027,-0.010765575408144141,0.3711074876190597,0.40587026917329966,0.5309370822651802,-1.4269010224653307,-5.997232126611441,7.558482591142021,-0.006009871027050395,0.0024371620031743485,0.0008003334358274847,0.688191682208756,0.1515268439296428,-0.3487855074231213,1.4731020502942151,-6.004957717696275,7.69205321147793,-0.004655331790232194,0.0029218293913316406,0.003779832394538689,0.045831001551242284,0.4262836320236194,-0.8014570505738666,0.26913685833548523,-6.013870970480159,7.801699989674388,-0.0065519577126387585,0.00276948312504766,-0.0028750915379983514,-0.2780841724035766,0.4486014776941751,-0.393781323324533
2.149611234837437,-6.066665362829783,7.376542883110355,-0.0014321309397648412,9.526845490155521e-05,0.010419059885271267,-0.5626341813860297,-0.03789891921273517,0.18258928612484007,0.14914123576988622,7.603833287064048,6.180785069827601,-0.00899028996138322,-0.001966504159299174,-0.012241534291162651,0.37015324509548014,0.404931649066914,0.5336438693831637,-1.4412244832652452,-5.974315758458516,7.54720000143961,-0.004385729883344241,0.0037381536247046415,0.0025172971355103997,0.6850470680144892,0.14816443128625467,-0.3438452370069599,1.4802593698244195,-6.011332810841068,7.7011053971553105,-0.0020485636585591805,0.0033324794886731334,0.004755396029186579,0.04268549554920296,0.4245894701689269,-0.7992081900621321,0.28173718583509105,-5.986887153871765,7.7989053102388635,-0.005026037435225564,0.0032063141861427996,-0.0038127284245603786,-0.28153012875098005,0.44375252701207407,-0.3908276180016645
2.1473881513079975,-6.075906643577965,7.340523509548973,-0.0047187971463972704,0.002406945362617003,0.009774913069308057,-0.5606762565043556,-0.03350537613217062,0.1828280042786217,0.13717904537763997,7.599401152703153,6.191334599060066,-0.0104520103088236,-0.004137015118243519,-0.01025954796351524,0.3635427569548978,0.4107647108702933,0.5326321992090569,-1.436326081099681,-5.967340898952129,7.5474408106806,-0.004859921971835064,0.0023107191782239913,0.0024418069757994026,0.6815997798644013,0.15152120645867434,-0.3487500715456665,1.4719355105603136,-6.018552464388698,7.703110914196762,-0.002775745549620727,0.0037323134058404894,0.005493754570814399,0.036867680832572074,0.42926616512218724,-0.7986008357692338,0.28450532891693825,-6.0096248285675244,7.796545950302713,-0.006609544556891746,0.0010109948428690806,-0.004315877683409811,-0.28562682890768637,0.4516058029895682,-0.39421641915359956
2.1410016978500264,-6.076780843855184,7.3721346107177785,-0.002935417607318072,0.0014366947233479257,0.012068512449450895,-0.5643369658298203,-0.03179430214018167,0.18309109937244608,0.15091295071858493,7.613656202995435,6.194518865105873,-0.010166962011010422,-0.003295087953570206,-0.009165154927490721,0.36306249907091315,0.4036737170108607,0.5320085074178972,-1.4443553145516774,-5.979198986015836,7.576227329771363,-0.004936527716376874,0.004784164580484875,0.0027228326008546513,0.6825701490003752,0.14906379571910372,-0.3501911816028767,1.4806607889804557,-6.009765666796079,7.719565865383484,-0.0031137102808732582,0.0029413546262856707,0.005571504487049441,0.03928732251856789,0.42485448734658054,-0.7981692175170603,0.2837319182418132,-6.002870966376618,7.806908189560414,-0.005761202079932878,0.0038666526999113215,-0.0026225099604092177,-0.2857022499829767,0.4440381788152347,-0.3942165512368985
2.148310078422358,-6.070656664267222,7.3431620046944275,-0.0032430100059850026,0.0005422479819490846,0.01059913573019769,-0.5611807207045617,-0.03765357359540187,0.18014053489707477,0.14471136491554554,7.599308750210936,6.186452728910387,-0.009784580109912311,-0.0024781374626592695,-0.011238593852830213,0.3674224082277727,0.4070445886434302,0.5282618543006911,-1.4267897586862284,-5.979821130551549,7.560557153884843,-0.00444254966877081,0.0031273582413586997,0.003383938071346783,0.6889158115781786,0.1515100510779624,-0.35025431770919374,1.4875985614054494,-6.002466070169696,7.726551962066974,-0.0026639612135199732,0.005094809916949348,0.00541775115366291,0.042154348100840816,0.4272887439669565,-0.8026092586223598,0.2758959919867964,-6.0083978815050765,7.791543034699862,-0.006904255224750144,0.0029600264346511286,-0.0041886476693172555,-0.281284475860969,0.44887745698237697,-0.397909059412643
2.1379026398375163,-6.067287346887463,7.344534912010021,-0.0027693623801374623,0.0021450527368812363,0.011568369883586784,-0.5728946690345429,-0.04253056753934801,0.18165703830730734,0.1431819242026135,7.597783095351572,6.188361622400273,-0.010443954439082078,-0.004141910907913922,-0.010253536790068166,0.3653045226575565,0.4040089202870059,0.5378469073699899,-1.4533331390234516,-5.982444600566869,7.533726470510165,-0.005401825506537631,0.0018161147244229422,0.002940637601720696,0.6835872940373192,0.1496425920213804,-0.3426338775323572,1.4823633905312956,-6.019921710872691,7.709404671768904,-0.003792193145960318,0.004653956083178631,0.005580737668048571,0.039365137357500586,0.42533024073170017,-0.7940185250968261,0.298792120977715,-5.998844760621191,7.801603279309664,-0.005992377420236998,0.004093001318698434,-0.004543923311255006,-0.2836865900286822,0.44816824539471806,-0.39130119156823195
2.134653191251696,-6.088430768822176,7.3353077184074795,-0.0036928351695445826,0.0011387969334260904,0.011394849667941827,-0.5746127635632805,-0.04032945625614431,0.17947027030194523,0.14862808109619288,7.608466043525842,6.180799028572996,-0.009238356865153893,-0.0018052558011943933,-0.011186859564878695,0.3701735732774175,0.4032555938544916,0.5358670002137561,-1.43011005934816,-5.968418100996764,7.563440630690201,-0.0031664813676825355,0.002870761357483459,0.0003758869198297082,0.6889462351874595,0.14839723665975132,-0.3450900301686151,1.4656942727936992,-6.008018493946156,7.699735478542476,-0.002048581615057189,0.003332482436513663,0.004754396194763079,0.04514351037359002,0.425059932624244,-0.7985178262441126,0.2665132611428453,-5.999246030131819,7.797811482302879,-0.006311712210325868,0.0028391135125030624,-0.0040877921225456,-0.27712428579786397,0.4449296783122214,-0.3908582723494629
2.1475519926742064,-6.0626649708478455,7.336449966457859,-0.003853758480369662,0.0005610064056065683,0.011278081547313235,-0.5604593684758388,-0.044976669985696785,0.17866527213384717,0.14110245134404326,7.594453364646774,6.182422565904161,-0.010779919432624057,-0.002329190734496036,-0.009705858877424093,0.3632610329892749,0.4055468983262397,0.5266072888477062,-1.4543416011218018,-5.97377627390658,7.54581184274716,-0.005164232152220355,0.002529826430260227,0.002977880036322875,0.6832786671620804,0.14998810854910463,-0.3546003480554876,1.479558827782315,-6.007858447053006,7.706574123800101,-0.004468104651967371,0.0030720355762284646,0.005737237334942157,0.03942496652236324,0.42535883286126736,-0.8042752134006189,0.279701133204908,-6.0109337239901475,7.7798159655348424,-0.006563397048919224,0.0036396831163319045,-0.005325995680708621,-0.28398317360296693,0.4474392756239168,-0.39764633926207815
2.153715862560076,-6.0761524393557025,7.352190163257125,-0.001710775006871718,0.0015287438349105955,0.010096718732493539,-0.5643464266758604,-0.0393623907025427,0.18210710953273612,0.14874175571647008,7.596279628679723,6.185282367538432,-0.009151474291691806,-0.0034567591986322537,-0.010681854667199663,0.36796335757410287,0.40322621703627076,0.5341753815961675,-1.4358089257008604,-5.990754686158416,7.556393187848268,-0.005039692947623679,0.002210815387773526,0.0015388824889691706,0.6882083734189159,0.1476501568598939,-0.34629729144239435,1.481037240596025,-6.03312181056884,7.729461893993352,-0.0032778119346755694,0.0035616280569506866,0.006226388078560481,0.043869554115662214,0.4243430520027746,-0.8011835050746261,0.27886664845754616,-6.004255256096596,7.790132623462738,-0.006552950657872517,0.002769493003444542,-0.0028740845811075,-0.2778567317860433,0.4459130520253803,-0.3923181093316867
2.1387858904122967,-6.07640881109069,7.341183183916724,-0.0030912042201878976,0.0009894707532132699,0.011335833630467064,-0.5636349777529217,-0.04204399824850369,0.1779511697594124,0.14849205805710763,7.594538053407166,6.177362141174941,-0.009610669497841947,-0.0026300832826112366,-0.009106380550459075,0.3703604345874843,0.4092720211490081,0.5299150562069129,-1.444638689943838,-5.970038939040348,7.532783240797212,-0.0038907429585522,0.0020833717786786126,0.003180373289769928,0.6884312282386756,0.15494190857330797,-0.3490714220592242,1.4609498739714746,-5.997562663855425,7.736696613345528,-0.0029512340396800557,0.005615605302054129,0.004766336930450396,0.04707763573989597,0.43140375134719355,-0.8019524244852126,0.29219099020339245,-6.013698763765898,7.804523138566088,-0.005356791630021091,0.0028246262719119944,-0.005807501343655507,-0.27780200090968143,0.4539699706028021,-0.3959798794730211
2.141321869809026,-6.073717683016231,7.353365699838578,-0.0015783464299557815,0.0015832629507909514,0.012688166848512773,-0.568983994280915,-0.036917251689246346,0.18188755107991453,0.1471807634989783,7.615262153480718,6.198337488888942,-0.011674901925612644,-0.002205170636636965,-0.011337979691754626,0.3765218327009521,0.4030229219186247,0.5358211083651805,-1.4261912077054426,-5.986759136368231,7.54355598907148,-0.0038907429585522,0.0020833717786786126,0.003180373289769928,0.6965183172212047,0.14670064444906689,-0.3446214423488035,1.4728117062550043,-6.0392059821074735,7.700297831733558,-0.0034526995374005998,0.002149405522299105,0.00564826971781127,0.052675566143223565,0.4237925712814751,-0.8001220771939286,0.2795965726326429,-5.975860157521223,7.792267051159663,-0.006410312081062888,0.002231067275138919,-0.004164158598946897,-0.2712688545459789,0.44462731428925467,-0.39114318084716354
2.143248292720618,-6.083113426598184,7.338791596047679,-0.0038424988081485643,0.0008231416761237564,0.010043256329020235,-0.5648208903992348,-0.03643435217331364,0.1845541245605919,0.13610017025747537,7.588068700887016,6.180309293653411,-0.008603241440624538,-0.002784858963223574,-0.010629121236926125,0.3569245189100766,0.4021252709966906,0.5271966187568434,-1.4337951298111895,-5.961801415398556,7.573419577847942,-0.002510505914073147,0.004402136690609914,0.0013572430189872956,0.6786581473322024,0.14709018711413574,-0.351610848120975,1.4922359436076003,-5.993442016255951,7.729336753490583,-0.0006942119532729647,0.00320080446120788,0.004587660685474098,0.03330881543353066,0.42393548717457724,-0.8044136074566794,0.2814551697202579,-5.990872578077183,7.8010139834743,-0.007245096454054473,0.0022813696162851853,-0.003050299664842469,-0.290869737169865,0.4426246742420755,-0.398086695678002
2.1377615409248114,-6.072039465316076,7.343675166386435,-0.0023357681410401585,0.001286366088270032,0.012013505003880034,-0.5721703327888571,-0.036180766131209456,0.17921843869269502,0.14493783636568158,7.589637931428657,6.173410230654203,-0.010625880403310063,-0.0034931019889965285,-0.009710713678665418,0.3681988771430815,0.41472582495782806,0.535711412254418,-1.4467260155862136,-5.9882384130127,7.556992891017575,-0.0066085971043051755,0.0013347619528644098,0.002165769341863263,0.6881840905682062,0.15835945704113163,-0.3491107341681846,1.4835782015701362,-6.014330879386592,7.733499328405468,-0.004231174220888893,0.004532999705672083,0.006966493119271855,0.044995752750892,0.4355549744565685,-0.7970189871524509,0.2849785708253965,-6.021781984415781,7.787143359607736,-0.007003848040720921,0.0023519900756838663,-0.004264007188827701,-0.27797272293423464,0.45738974378127434,-0.39036325322605275
2.1407688663744464,-6.06544029334944,7.346841948348415,-0.003239868503165833,0.0006728148682276378,0.009984234584347756,-0.5624197612544602,-0.04009040708073241,0.17648215464339984,0.14942760045111975,7.600619443587749,6.175611002145478,-0.009679576190658333,-0.004140413865494132,-0.010720567465935011,0.37109475854070767,0.417606143579492,0.531983453085036,-1.443633365910973,-5.9786594680230944,7.5480256421712255,-0.005155337853890289,0.0009892110206789447,0.003271175196899916,0.6908765743538933,0.163026545970014,-0.3469834901780143,1.4664154394502185,-6.029841037919002,7.7280658903857,-0.002775806171926633,0.0037313222761585587,0.005490752240571134,0.04472386982833323,0.4372720430420904,-0.7992074057936241,0.2685041102068952,-5.985057921712122,7.783818478426831,-0.0050054770973565615,0.002635092791045568,-0.004492938237992884,-0.27749207243674623,0.4583610446160575,-0.3928075835612599
2.1518233931471356,-6.071500609272568,7.312591059575366,-0.0029251400625496995,0.0016968269113167421,0.010837690115864081,-0.5702347113355143,-0.03593459493450761,0.1755473682314707,0.1456325434480782,7.599781092461212,6.196833995495435,-0.009819493746112162,-0.0029872827371135186,-0.010702659969307056,0.3632812222627544,0.4109755115937487,0.5304337807639476,-1.4386510177687575,-5.971755793215255,7.5482448455866855,-0.004867805704104677,0.003857370686693109,0.0021514348729456604,0.6832829735780918,0.15244445273051224,-0.3534084756977051,1.460228474273829,-6.008466492264941,7.735072155438394,-0.0038537607824655254,0.0013097206924050824,0.005071900683118377,0.04103335661573437,0.4297241853615782,-0.79794217748918,0.27972915243831886,-6.011508113599608,7.78450583424293,-0.00771751322695246,0.0024370976886482886,-0.0037570055160724724,-0.2831925582147332,0.4513375433350987,-0.3949664537869423
2.15391444296711,-6.076773661545981,7.342564523028432,-0.0029322623924415902,0.0015662588261677187,0.011456610342999557,-0.5726414187630156,-0.04082330792199789,0.18336643202992856,0.14980792887697644,7.610802444987655,6.198996611968145,-0.0099584191077462,-0.001834164729524205,-0.01068576013297345,0.36864260427016726,0.4119464047870347,0.5294004873023309,-1.4241862386574826,-5.972954852164124,7.554111997442497,-0.005352889453380674,0.003973561616238001,0.00178362456303057,0.69062669878233,0.1537180718090797,-0.3495566907131368,1.4862995412189115,-6.023488900123591,7.691899578349768,-0.0039040493080531053,0.0032914713634318925,0.005652741747506061,0.04636013090584456,0.4323841984034546,-0.8014485669825575,0.288483041131511,-5.985880184927236,7.790500101980616,-0.006828137791935753,0.004144313401556415,-0.0034280574271763078,-0.277111913288393,0.4507889610261808,-0.39745000944972
2.1384892425683577,-6.081115913197545,7.340412224895547,-0.002947511822192998,0.0013051242122098983,0.012693455591316967,-0.5602177373747086,-0.03765146925883307,0.17720689744875354,0.14343956919108786,7.596337613857844,6.191061539864048,-0.011717885083700464,-0.0027104498107545032,-0.010810041812526493,0.36619487349374263,0.41854422455001594,0.5300532946409519,-1.4310113406887832,-5.981571664717665,7.552182904215233,-0.004621317132415451,0.0030294670540034277,0.0024819843533655126,0.6847747869154993,0.16180041344861384,-0.3469361710843797,1.4747519368861408,-5.993512242223762,7.708569059365394,-0.002148611648392074,0.004000478191223651,0.006062378099882739,0.04203007685095871,0.4385128794431285,-0.8001315299307976,0.26641916152402106,-6.003884350518285,7.799405774388488,-0.007937252216023335,0.001792246278785668,-0.003226514766030306,-0.28138901320841775,0.45791182382874446,-0.390827370869065
2.1410364225201794,-6.0783948273184505,7.352632715513016,-0.0015518290302675433,0.002104530980464128,0.0102184945081497,-0.5655921798113139,-0.037647414353615245,0.17649959125384243,0.14894592862435824,7.606969788969152,6.1836412546812465,-0.00918843052703292,-0.003963982763528727,-0.010150934247660984,0.3668798170369871,0.4071858276134154,0.5214270024842258,-1.4281859076806926,-5.971688628048786,7.543410489922783,-0.003832920580023538,0.002697179694065432,0.0023146912375418736,0.6847324565483415,0.1521668852196034,-0.3563432016467238,1.4622454312937112,-6.017958408682787,7.734025784043251,-0.0025482270321793136,0.006455285573607254,0.00533967051002669,0.041514665277074564,0.4275611938325467,-0.8111423819049403,0.277154252611611,-5.991796010916446,7.815281274380984,-0.0047857211617591,0.0032809440642230215,-0.005022428994951631,-0.28032851038356144,0.4515531823333488,-0.40475166665346657
2.1530742903537767,-6.064506030786647,7.327330744306822,-0.003978585323518611,0.00244470144231532,0.011694431481753342,-0.5638541671948717,-0.03789815267294339,0.18259512038922585,0.13824856083715956,7.602267668870395,6.184359585386618,-0.008806023217821759,-0.0031439730065607537,-0.012220418397960089,0.3716625943475188,0.40060987745072163,0.538336196836874,-1.4382014641132603,-5.980459681588764,7.563332206644614,-0.0028059190390027264,0.003077628746227814,0.0021866468958097064,0.6909099137934896,0.14817815727007955,-0.3431437949430476,1.476180652877069,-6.003870169368347,7.738990908255373,-0.0008691175124960029,0.0017885848743968277,0.0040085424903013875,0.04541257142661131,0.4196773658019883,-0.7951199619805348,0.2824369165260018,-6.007561875724677,7.782964237901502,-0.006257097221034472,0.00459763134284696,-0.0026429851308310344,-0.2790803027375595,0.44275101627111935,-0.38815974174146806
2.1460385867609015,-6.073478912580417,7.323361012040254,-0.003368832688643989,0.002424942719568225,0.011016489509945389,-0.5656203332731167,-0.041548427457279644,0.1711250418636491,0.13774450920415676,7.600493746039826,6.176515829223755,-0.010749674652758022,-0.002351747313764011,-0.009679754203080544,0.3678915526478782,0.409948661774739,0.5265056855271689,-1.4238409597776092,-5.991631296161519,7.555842355239978,-0.005819202404811291,0.001004475306016655,0.0019984470799701516,0.6906079125763256,0.1541653970976465,-0.3529801999017724,1.4715405973130848,-6.021090890354507,7.721867628251823,-0.0036789158455483935,0.002720949149534204,0.005648016548047823,0.04380499773195722,0.42973046020345057,-0.8067823916918575,0.28335941832015227,-5.9860498560427455,7.774664467986377,-0.006432804484772421,0.0028063080543399006,-0.003479934850660113,-0.27734956525307375,0.45176838653989654,-0.39793627707846596
2.1480863496323543,-6.0788358923102725,7.3532856040073336,-0.003523628243603502,0.001978719976552103,0.0102818068575165,-0.5584604133209684,-0.040591283651048284,0.18769389079811113,0.12957845153840047,7.617236705707957,6.1771579178086675,-0.01028344667789494,-0.00317935105202157,-0.011251268608956986,0.37256165100959926,0.408546652366786,0.5301527858701622,-1.4416490600144183,-5.979334082395034,7.552620408384874,-0.005342999615864995,0.0024319352429049554,0.0020759263183416045,0.6911221401731716,0.15275607626224288,-0.34832680600467547,1.4684572442098098,-6.023526911336241,7.711884160446642,-0.004191315381401307,0.003813266721740192,0.005001330351266313,0.04685004995957087,0.42798100155914426,-0.7997610647244697,0.26837516478569856,-5.991735414785918,7.809402420916755,-0.006982318684884433,0.001779759025900248,-0.004947223927865031,-0.27662172096023874,0.450052018027798,-0.3962324658165992
2.133322800499227,-6.075204045210095,7.333282330559354,-0.002759075272169644,0.0024051830687922084,0.010339547526274894,-0.5667381600220727,-0.03350969736616492,0.19164609046944714,0.13668249085560655,7.588561765112595,6.190714889234177,-0.009262179838651165,-0.0023212316956681203,-0.010640908704218337,0.36984398122638085,0.40921658506128517,0.5262573806108569,-1.4079787402402653,-5.980514765513191,7.543656041330764,-0.0063032915339435594,0.0011206552007554677,0.0016296314795484217,0.6893845687313321,0.15244675895801868,-0.35368626206754333,1.4827519263482198,-5.99622964992618,7.714339352510934,-0.0035148321482440896,0.0021006786667097173,0.004992133122113284,0.04409170537853213,0.43021133566710473,-0.8045887591989702,0.3004792861080558,-6.024312941396992,7.807453427837192,-0.005840251504561243,0.002686395082531995,-0.00337907928643559,-0.2797979276177366,0.4498386604445516,-0.3962103115723659
2.14887876644552,-6.073350090687058,7.356204940600628,-0.00260527014237859,0.0028514045840617908,0.01107623493716263,-0.5557938865197526,-0.042054570376929334,0.18401673894154355,0.1433157400704323,7.599018160165863,6.173494078412847,-0.010395640646942535,-0.004172330236242046,-0.01022045443898541,0.36716754355725867,0.4077578926626989,0.527033033168134,-1.4258991041874276,-5.968262322132871,7.540378224341776,-0.005409704792807122,0.0033637780518426964,0.0026512535285447545,0.6859745164791371,0.15099345767889144,-0.35242958031412014,1.4628803203646208,-6.014495824842451,7.689887282505293,-0.0021614443459267783,0.001969004444494647,0.004826415423170854,0.04260393796397521,0.42875834960748765,-0.8052984447848048,0.2713541739877731,-5.985109783332516,7.809941214956858,-0.006235570850245204,0.0040244002556978535,-0.0033252019116906785,-0.2800309514350499,0.4500859736700102,-0.394988633599626
2.1343651363127325,-6.065959995781676,7.327116852133729,-0.005656359698222128,0.001276120300250393,0.010226352034993579,-0.5626293927956608,-0.030330923965489004,0.182596286629235,0.14182772854180414,7.597633077288663,6.17523353123312,-0.00803585617912987,-0.0021236703491431014,-0.010559374683972092,0.3708496561661448,0.4041282898247604,0.5287677374582972,-1.432443976158282,-5.966696899649906,7.552016715194759,-0.0042039287342251885,0.0038461417871529925,0.003427115193668195,0.6903513752291959,0.14924479651162692,-0.3560945825793494,1.4785663482840823,-5.998998111759722,7.704311689505765,-0.0015845203914817908,0.004219908082746018,0.005979882181293643,0.04501142855658191,0.42434782297701384,-0.805598726133529,0.2891724313403918,-6.001516067108088,7.803987257483777,-0.007256488946447638,0.0031555693219047433,-0.005500203762110718,-0.27938053695046816,0.4444632765573623,-0.3986557526565516
2.131243170457975,-6.08710239791374,7.317781048617813,-0.0012974189582754512,0.00040392293295136056,0.011781718351367232,-0.5699592629028856,-0.03789409102168221,0.1823803137343494,0.1458366130349248,7.600499959710038,6.207004133718796,-0.01007032242135307,-0.003846789725327694,-0.011773053687939544,0.36472849019879033,0.4082487621818777,0.5275327509181544,-1.4391152353080632,-6.001395683829673,7.563023011929012,-0.00249171994014364,0.0013178950498042162,0.0019428637053566368,0.6859804308638312,0.150273126225489,-0.3514439634426671,1.4764122483362496,-6.040450614964941,7.7106572248997285,-0.001994932927877876,0.004643222420857073,0.004023175631726608,0.04315040356828299,0.42947841606433423,-0.8023756508062573,0.2845212461287132,-5.997997312383371,7.7909657150899605,-0.005368837642683918,0.002529676938225613,-0.0026713664957676033,-0.28199112023873457,0.45108160010040665,-0.3974159226784457
2.148325893548897,-6.0653055613698825,7.34952997059131,-0.0030981713003070165,0.0009884686558179533,0.011342866097702969,-0.5631458014260995,-0.029103953427826384,0.1764958221857589,0.1304783545534523,7.613411943357812,6.1871643278806365,-0.009480850337997582,0.00047664137444880907,-0.01111296642974569,0.35887231891358856,0.40383391940138275,0.5269119755144128,-1.4212338030507026,-5.9752751319566855,7.535027121868576,-0.0034145321966475416,0.0035138552824138694,0.003259816702256349,0.6766789050311912,0.14996505222088102,-0.3560297875335385,1.4752799102225573,-6.000485524860206,7.744483969353145,8.666574165003887e-05,0.004110701711658826,0.003121078257107542,0.03030869898736969,0.42518904099590366,-0.8087507587252558,0.28925121258549746,-6.003876937722374,7.80216845775373,-0.006785075084570312,0.002998851177598362,-0.00479249097144273,-0.2913355930463994,0.44580349597112995,-0.39930419669122114
2.133756663110893,-6.057836499074793,7.320515222136836,-0.00398156616222343,0.002444699615133545,0.011698445780854962,-0.560982557931781,-0.03813289083352343,0.17061802958068228,0.13775184080042618,7.593002857958294,6.1710036151497505,-0.010646732862775057,-0.004014146484736461,-0.00916971108311399,0.37231481031404606,0.3994778601590661,0.5278485131944103,-1.4427437099651308,-5.963396120075416,7.553363842029427,-0.0074637043478905036,0.002604891695414252,0.0029083183564462566,0.6915960421948181,0.14489569412024947,-0.35238723399390404,1.4775732664322385,-5.997613023742105,7.722937688824432,-0.005588122008213665,0.0013692128313116706,0.007272583491709776,0.04823147000908297,0.4216308378787108,-0.8020019605003839,0.26743636147738437,-5.9931496650106535,7.782811203369412,-0.006016814840621184,0.004670261494297517,-0.003854685687389128,-0.27645049181435155,0.4422369107545663,-0.3955023234417984
2.147374596576879,-6.084194405064832,7.352161021130324,-0.0047461191336572875,0.00201823652289344,0.01164070511209657,-0.5658124662963414,-0.03154711712706572,0.18065735514952797,0.15004966247029172,7.607502902010759,6.184108796211175,-0.011628520187594294,-0.002238473979719343,-0.011296838207606207,0.36350622994419274,0.41093955778417507,0.5279902221158137,-1.4354635779602938,-5.986207437431203,7.575038854635782,-0.007150510599259153,0.0008451452537868291,0.0026635406266629588,0.6849986805318653,0.15368423447531623,-0.3519682990161748,1.4875502928362314,-6.041712703845607,7.71696854919608,-0.0039041211340451387,0.003291483154794011,0.005648742409812061,0.04069731242644142,0.4277858255336154,-0.8023365848986246,0.27714154781293615,-5.9752594068634375,7.7776808858725905,-0.006981291846597498,0.0017817488741330315,-0.004946230898589042,-0.2810054474590986,0.450339697770508,-0.39498180864981525
2.1460264792692145,-6.0737642730189245,7.324839822653139,-0.003982561368991611,0.002444699315415927,0.011699450551176348,-0.5704518271748651,-0.04326455366565616,0.18213268209733635,0.1495509567813333,7.605632217694168,6.176415461575046,-0.00950721991306771,-0.0021659475194150675,-0.009584168345125647,0.3648048753439334,0.40815031255153467,0.5373010038315411,-1.4499175974626735,-5.973580107813587,7.550110141071843,-0.006123509058238341,0.0012255943059492115,0.002535496284930792,0.6813773801107377,0.15230330111789306,-0.3446068249571092,1.4693624227532305,-6.00482480712027,7.733562626875324,-0.004129265800235978,0.003863008289735747,0.005652470601819564,0.03913168088930925,0.4294846416458855,-0.7949782454319632,0.2867074817800606,-6.016670130120269,7.796860972204063,-0.007079908663861106,0.0011727027734540546,-0.005023597368073759,-0.2868021782623291,0.4511293688993456,-0.38712808306871943
2.144287270316849,-6.066971769504131,7.36008386057761,-0.0027844297687433304,0.0020104785443876088,0.012199324525788018,-0.5692554746339079,-0.034226436306972655,0.1757882739918935,0.12879245689007923,7.597653997636924,6.186024081974615,-0.01037651743698787,-0.004184101348847982,-0.010207425864656339,0.3620900965465217,0.4088228680750254,0.5336485713340203,-1.4276111997501777,-5.980063169165798,7.552625763975901,-0.004916732095428793,0.0017069589675126964,0.003311364459706659,0.6850124182960283,0.154448119016859,-0.3492912275414047,1.4626063093025243,-6.037465210179956,7.708854633246896,-0.003453807092353571,0.0021494299102735254,0.00564228868719332,0.039537420984307146,0.4309614459129899,-0.8001090272565952,0.27558454147138906,-5.992715047063966,7.794305640981827,-0.006260066090948841,0.004598660928377766,-0.002639964242705614,-0.28658765660433233,0.45210437746587795,-0.3927446326103365
2.1379258971267454,-6.068031505922191,7.338204035101604,-0.004469339552654194,0.000713332100004412,0.01134716719177893,-0.5673024647114193,-0.04155256455565877,0.176748148007827,0.14983663967885918,7.593509449491746,6.180785498919559,-0.009122775693254807,-0.001344859809835909,-0.011648683691406826,0.36546132995361114,0.4053104893785305,0.5268387387951592,-1.4301344982153317,-5.967785869313744,7.556390644744063,-0.0032879948597631624,0.003196845808216282,0.0018207846332449675,0.6867048874797822,0.15098828221724836,-0.3529214791004709,1.4805846246366068,-6.006474997099662,7.690182068131567,-0.002889679922447271,0.0023688539061148353,0.005561792437451224,0.04186981248089827,0.42583045611048914,-0.8043177310419977,0.27725242406104417,-6.00980310504544,7.770677935039674,-0.0075748347869952146,0.0019026717617033069,-0.0050470794641004,-0.28472801599285835,0.44598162183045925,-0.3973972604941355
2.1315058154117605,-6.072732637139228,7.325437219129988,8.202559662057925e-05,0.0009371929346123411,0.010546602638044715,-0.5716631820497768,-0.03911514866615162,0.1836073425725353,0.1424842924725307,7.601741778646608,6.201363894222488,-0.010312358799461135,-0.003693499983311791,-0.010716306960163667,0.36569842455515356,0.4099520372930148,0.527011756445893,-1.4481543504750671,-5.981631385709472,7.56598476154932,-0.005163212694159657,0.0025378861670493354,0.0029827791534017753,0.6840125261486207,0.15366307892755413,-0.35367190166210083,1.4841085240720724,-6.002797523519724,7.7184203074328686,-0.002487661527225321,0.0032075379575551544,0.006136141000401302,0.03970180940086698,0.43072876648230424,-0.8045083934303793,0.2793752590755499,-5.994228708522279,7.7833507802782345,-0.006237546774925816,0.004025419962831778,-0.0033231879804561095,-0.2834523670471726,0.4523172450672044,-0.3986266440670637
2.133643984408146,-6.077777907776045,7.35561467108578,-0.002940225312070746,0.0015642564296827908,0.011464646655543054,-0.5667727009714175,-0.03643335152039253,0.18480746127133396,0.13759873258660435,7.617900595763193,6.172698044278803,-0.007753534574330887,-0.002300424251149343,-0.011585080572416384,0.3625420243535318,0.4087546260949948,0.529007419290679,-1.4378872328866144,-5.976858218396732,7.553901897020183,-0.0026839482117421653,0.0025687837160446435,0.003960193583256999,0.6850008555449667,0.15417801401323178,-0.35148514061848946,1.4734623813028718,-6.0250204023753735,7.713176097053324,-0.0013632998479827481,0.008205850472202542,0.004448406181133141,0.03752665638176035,0.4295174899882144,-0.8027636170555,0.25758661922921466,-5.981454159868221,7.796338309309263,-0.006313641291119178,0.0028441329339723006,-0.004084778145869008,-0.2856830488350833,0.4481882489452902,-0.39739040145887516
2.1405336010623146,-6.0756997412601,7.335588418733165,-0.003983547012560346,0.002444697159640465,0.01170245529777266,-0.5623826634609247,-0.034969980745292326,0.1835668132023599,0.14788856702072112,7.579976630723286,6.18692516292491,-0.012976591705062605,-0.0012986021353489292,-0.011342369514972065,0.35817039826027414,0.4085464746246982,0.5319739256982502,-1.4338178397030399,-5.98999757856375,7.52713201398871,-0.005884906826735088,0.0019413305048866425,0.0025747094033003667,0.6776848238311894,0.15418916939394373,-0.3499808944549623,1.4495823713408427,-6.00639686333862,7.744027905962366,-0.0023255707090389793,0.0025882808497966732,0.005480296353285627,0.03585303993832071,0.4295231847471545,-0.8007802195739122,0.28588465508799354,-6.015187967558644,7.80323000033838,-0.007223560117478302,0.001709138479476239,-0.0037325164282492464,-0.2880798064688825,0.4504101891701859,-0.39419939918971025
2.1389389606228035,-6.068754420193085,7.370930908375871,-0.0015567932502767018,0.0021005267003012997,0.010226514624113841,-0.5714306163966776,-0.04057726217516596,0.1814078475614575,0.1487650318818543,7.600170199327676,6.188512669575923,-0.006967765676570847,-0.0034194626703820947,-0.008925138795686294,0.3698584760662452,0.40458902987316886,0.5270593362708251,-1.4299357886955117,-5.986565905283247,7.557999010222079,-0.0047990820029580016,0.0029345883986890324,0.0015809895189925723,0.6918351770584071,0.14733092702277284,-0.3529055159900066,1.4772411821681686,-6.033529437494445,7.712571059564532,-0.0044116685572333685,-0.0001736617069673869,0.0065257867075665,0.042862658773493836,0.427043441789074,-0.8038429047760569,0.27492556101575466,-5.991185515911836,7.800726530734327,-0.00559894228586102,0.0027610150822153343,-0.004589786813717695,-0.2793569288503699,0.4466611461708548,-0.3984117202412946
2.133169464430884,-6.061612223127018,7.33142665534204,-0.0033737950104275787,0.0024239384375213772,0.01102451240095091,-0.5577440145000379,-0.03570612083185192,0.1837879525037559,0.13139859506177778,7.5915137900655285,6.168863892645526,-0.01112929741736155,-0.002069908527649267,-0.010719149438415083,0.374550099602823,0.4069031754456614,0.5343134044301646,-1.4324349836833263,-5.974571120507076,7.561552102760448,-0.006130387440280217,0.002772258559622154,0.002246118721407277,0.6928501572688789,0.15059842088916178,-0.345137150975059,1.4781454560370588,-6.005869818260031,7.717175120443505,-0.004816586549872305,0.0035461120904223013,0.004424675021936639,0.0490619797741749,0.42698670645328174,-0.7985825191217358,0.27594510213937207,-6.0002369126023885,7.788503328009693,-0.006752153236340662,0.0015524204221951847,-0.0030258036132118126,-0.274657411733363,0.44759023064869635,-0.3911192677800171
2.138542948700795,-6.07935637588391,7.356011786046209,-0.0035682184113428965,0.001321880567976142,0.01338144727348132,-0.5682099936356322,-0.03326341748096586,0.1901883394508767,0.14468863749283126,7.597341846815473,6.202061419069949,-0.011575658224453295,-0.004400329372428647,-0.010269890363815402,0.367695104504258,0.41199923469018396,0.5330695843567756,-1.4298489016244886,-5.975166341648717,7.538956383024678,-0.006666425146294411,0.0007329650748307532,0.003032308686122158,0.6852701834875337,0.15374540319923177,-0.3468430468728868,1.4594059748629777,-6.022963879731548,7.702016715457021,-0.0042303315625318,0.004531016641058037,0.006958470814015275,0.04418659021335866,0.43386172032544335,-0.8006720537320905,0.28260794046385124,-5.991342740625571,7.781013407962812,-0.006238529754372671,0.004026429791568819,-0.0033221810061123914,-0.2829096399477789,0.455241917751086,-0.39496808902610286
2.131911434682917,-6.084200307619375,7.3431738476925315,-0.0018907717068577133,0.0008143825571276005,0.01060992254463682,-0.5643192158681223,-0.03326292610112267,0.18699569789216733,0.14551238911462236,7.595264716643764,6.184632504545074,-0.009222894579943183,-0.0023446976358391792,-0.010609860063344136,0.36212023509870706,0.4039814418495752,0.5364068685934171,-1.4327401891034817,-5.973209303422899,7.52899077781995,-0.00413520672195299,0.0029193478933612267,0.0028557174657592036,0.6823630896145151,0.1474330873950503,-0.3435781189407972,1.4511049343832918,-6.016616017442175,7.701791448260641,-0.0015436437795312763,0.003500165450042356,0.004015701271788552,0.03568028280885377,0.42706949087928114,-0.795900542599257,0.28367291402446454,-5.998470057664493,7.801055841825541,-0.006958749613953445,0.0012115078466328516,-0.005630454559611489,-0.28585545026787834,0.44818978815059934,-0.3871349479156711
2.149520828456191,-6.0587250350435315,7.312472924219055,-0.0036996451016653603,0.001270360821900461,0.010789997150319542,-0.5645804144700501,-0.03277137465771793,0.18333535959238714,0.14832966490710733,7.575949340960629,6.207166603358392,-0.010770273241974385,-0.003889497562806067,-0.011260903427440277,0.36914806900569846,0.4092844075781922,0.5309014360893483,-1.4273805634410732,-5.982549850026365,7.555510338674295,-0.0046192967701271384,0.003036527717045724,0.0024868899800968404,0.687679451972487,0.15538960693004683,-0.3524910028269454,1.500814509088229,-6.00950915408864,7.711571407612725,-0.0033927887892749326,0.002197181180633815,0.006292441425300592,0.0422115004092662,0.4350998124119197,-0.8023422148773619,0.2788824974618076,-6.025567365482065,7.784006508841639,-0.0058647327837855106,0.0032606555811612523,-0.0026918416661894195,-0.28050726525617165,0.4520438347125236,-0.39596116189331043
2.1414958571644886,-6.083411302999682,7.344180762984326,-0.002518764806129864,0.0005720066954209513,0.012526723162575089,-0.568986519512166,-0.02983589657316175,0.18042911755619478,0.13457455632794413,7.610812375546286,6.1968345853340825,-0.009071936799125324,-0.003502749015292072,-0.010623779508656332,0.35940113298374254,0.40440276629643657,0.5322711450292905,-1.4512688513037157,-5.97757137637436,7.551477963184857,-0.002557416239899789,0.002251762351842103,0.0025201615993271833,0.679903526490247,0.14910213954705775,-0.3467590389573364,1.4752022464870973,-6.046351357889876,7.701019962142136,-0.0011953481994183078,0.0030251184410502964,0.005318262413586306,0.03704748283334382,0.42756421306290116,-0.8015395680517683,0.2734365302845296,-5.983320037696234,7.786502263128528,-0.004436358626508907,0.0030934300667800237,-0.003703851989340467,-0.28883536038154056,0.4482196142457508,-0.39443832132242923
2.1318711006355517,-6.072001961079239,7.327700177415205,-0.002820246044362694,-0.00018686855157082748,0.010435435659026911,-0.5580136936339177,-0.03570098308055169,0.1784181830703201,0.15665624142901569,7.57598349339123,6.192345268801872,-0.00921583090402145,-0.0023495803047182827,-0.010602841229602712,0.3725722112532117,0.41101749387164577,0.5320701566582774,-1.4365344587852347,-5.978471041809212,7.557692138288334,-0.00400968010033835,0.002602313783954862,0.0014146909424991604,0.6920863990263268,0.15517450527827972,-0.3503149035773571,1.4864857104832456,-5.967859234788923,7.7165082974094386,-0.0034484046330240975,0.005442901241303719,0.0054938757325181985,0.047822645182760304,0.43139668844625595,-0.8012337040628831,0.27622804305470905,-6.00597093973831,7.78407174587202,-0.006509858053146365,0.0016270306305069702,-0.00423851807301532,-0.275620745353544,0.4527271797602573,-0.39648422669518707
2.165683766079493,-6.063452761556467,7.364900873982554,-0.001575026049700354,0.0018353902616737308,0.011467370471477691,-0.5628914483028614,-0.04595417484349948,0.1808740204146529,0.16694270175128778,7.630301570386946,6.184247764277276,-0.009388199376434118,-0.003837197986226742,-0.009066117199927401,0.3628358218227219,0.4086056644054162,0.5353552515554867,-1.4240531348853036,-5.976661510946707,7.554657401930319,-0.004439510618254396,0.0031374671064567303,0.003392802326441742,0.6833330066450801,0.15084297657707235,-0.34435593236325085,1.4754810746870837,-6.031230142175309,7.717400242486148,-0.002603516953177793,0.0018450800415333872,0.006208216983550991,0.04105738331281063,0.424832959736156,-0.79478250431003,0.2976012612103477,-5.9804452487190325,7.817054570154665,-0.004040046335591188,0.001755415015217283,-0.003758736320976229,-0.2843951838791053,0.44890830113268504,-0.3888541210216712
2.1467933819814755,-6.059550388192097,7.323368329071913,-0.005394675282346256,-0.00015435182458186487,0.010556777165039081,-0.5636255012196367,-0.03813936026386864,0.1794197654846758,0.16174553209805667,7.585192286488442,6.176902302565468,-0.01010776495190254,-0.0022264653478745954,-0.012228971409395162,0.3642782298267437,0.4134652567326725,0.5335623721499477,-1.420839143738011,-5.956656536155279,7.559503711815111,-0.0037710706657093315,0.003316062015005877,0.0014549277462684342,0.6850136207529965,0.15885442326797952,-0.34836654629867586,1.4987924258568266,-5.982279114236162,7.725135232812046,-0.004428387162526219,0.002355329042471899,0.003763084538043411,0.039299539045540594,0.4331614606145236,-0.8005863494708741,0.31096933451446884,-6.020705649650073,7.827266996311441,-0.009549700449842475,0.0010463182894240627,-0.005503379085207116,-0.28437038110989415,0.4537913560962579,-0.39227195250455116
2.108289937587026,-6.082251646167056,7.312132236418419,-0.002031963979952379,0.0023013692719438678,0.01288400461263223,-0.5689911169246905,-0.044485794057750404,0.18139255543942395,0.13429403192795084,7.595214629820491,6.185518589384348,-0.012410984496954073,-0.005426371384799894,-0.008747892398206012,0.36714892903456753,0.4155617263753606,0.5264278076856314,-1.4411751453839503,-6.004701226004682,7.558612991134446,-0.010535828309041807,-6.808340014797262e-05,0.0035846396601356694,0.6861976009101579,0.15804123861956348,-0.3551998110173172,1.4496484908812741,-6.01508533490868,7.697261363017835,-0.007958134669913018,0.0024255620767212665,0.0075142945901461745,0.04042884592757794,0.43585720042072135,-0.806703694145115,0.26330477126786594,-6.001331602411779,7.765944921867413,-0.0053240481152262665,0.008059473486028059,-0.0008551536673407526,-0.2824267944299388,0.4569462458877465,-0.39814438872992314
2.141374775549751,-6.081729476053329,7.367154175255147,-0.0032365650707485995,0.0009359468123469561,0.008758448441777098,-0.5594677718714376,-0.036922328084950565,0.18086603148462221,0.10690793059437892,7.605368499466703,6.193959383123982,-0.008137416580210511,-0.000994872719755755,-0.010501397129506191,0.3667115640898528,0.41345505880511924,0.5325674664427308,-1.4530208731980971,-5.9581158333791295,7.54397039759791,-0.00019222643351476314,0.0012488888083490583,0.0020173536483816274,0.6872156748930436,0.15617629531421168,-0.3478584742294294,1.4678063237834267,-6.0378111262658205,7.737079912934793,0.002689157785681759,0.0057742941575897495,0.0027241849029263896,0.041052056341229125,0.4331428130442964,-0.7981764744956031,0.2538665883246078,-5.960364707237455,7.777298649207165,-0.006341654549151328,0.0005213339164803475,-0.006213836618930008,-0.28531882237061473,0.456729958128844,-0.39250908172890725
2.1399062525502996,-6.090838613532999,7.277491679976593,-0.003424218072395702,-0.0017046165611852356,0.006250865457839552,-0.5694669228489968,-0.038139077429847776,0.1831097408596682,0.19448801014344197,7.716389073110952,6.144855270965408,-0.014328109735152618,-0.002008316468211101,-0.007719775474774956,0.3653101206608026,0.4121040222079299,0.5404116012215466,-1.4461940145503516,-5.557270272156817,8.140660482833432,-0.03956203305217144,-0.038285954053314364,0.029542985715841172,0.6833311371040707,0.15573143194126504,-0.34392600951306496,1.7817756210105522,-4.9315968213098555,8.482457484246472,-0.037012495319238024,0.0048218603741241725,0.04216781087246332,0.04060521813400785,0.43142849172117687,-0.7952430186807553,0.22874232682186868,-5.975335449626222,7.7418878693616,-0.0050801720855392744,-0.005209483588784441,-0.008434195534814991,-0.2863001047193071,0.45356651199608394,-0.3885964116026034
2.157583358711297,-5.693135131123245,7.50730696165718,-0.041161317304571086,0.002228555722298677,0.021070135052842602,-0.5668208208481432,-0.03129638585349854,0.17407033124443122,0.016425917045288216,7.498796277511392,5.999916426525166,-0.07631621751855679,0.003085765377605483,-0.0037532163133367756,0.3595906816448898,0.40699430681876997,0.5258821525401604,-1.5263901216837894,-6.648177117870326,7.588746668423024,-0.12307323001900479,-0.07732931362012868,-0.01907488395060157,0.6783757564917876,0.1545877652775282,-0.3575589854005836,1.6401509398451708,-7.740543629448106,7.180323637540328,-0.1475486827818848,0.0534380784810101,0.03456770816221608,0.037987138930265146,0.43245204967097006,-0.8054486796787673,0.3747325686350979,-5.991377679602888,8.00119667261882,-0.04567329431027573,-0.0015057621906212103,-0.00815149630879079,-0.2898125555622276,0.45213664517649604,-0.40004729558395213
2.149509440107772,-6.410296070473785,7.174985079629777,-0.046940563459358854,0.008856067820480503,0.039609139537194624,-0.5645731533629564,-0.037900410317470545,0.1855275909846699,0.25132143908967103,7.613464768137069,6.616990799129575,-0.053963586611180475,-0.033476837913695066,-0.004416264638561904,0.3703066445037916,0.4155382732904321,0.5244503292487752,-1.244191335772791,-6.090472063781042,6.900925023285545,-0.03978971459126781,-0.0428681482700494,-0.047582872440012594,0.6852020817720056,0.16215527135554292,-0.358173638902865,0.9225259129936769,-5.863356266441264,7.3653009467915265,-0.03821186329453282,0.07134709262301611,-0.01879864151481954,0.045838913659137184,0.4385025384571775,-0.805571854574849,0.3476284070867029,-6.071153439165031,7.652383436817707,-0.05898716734012863,0.012911390889539224,0.005949042652829664,-0.28025235099096263,0.4593658155752014,-0.4049955243480702
2.0810009852599785,-6.4736871123044635,7.241308617683692,0.051791076135917,-0.004827105084321789,-0.013695286349272274,-0.568007521365216,-0.039848316887163504,0.18236916757720806,0.1908557587166131,7.287960009901273,6.272289518029724,0.05568355404246068,0.006423835993774246,-0.01830319972915804,0.3674208391193581,0.40385640271997764,0.5273332424036115,-1.2623556307009685,-5.670782553249641,6.673953054001508,0.07116439026411674,0.046462560504682164,0.028847214348793476,0.684743420293919,0.15023434400714566,-0.3546111351761646,0.9550538157009048,-5.5459228941877665,7.185772876902049,0.07188030316104245,-0.05352294291543096,4.0511086740711204e-05,0.04529982797431695,0.42702779738806756,-0.8041307615794789,0.08086658155922888,-6.030022067653837,7.661698438151992,0.05673780107975695,-0.004532498843885051,-0.009343693962459982,-0.2817651447799951,0.4496142837574125,-0.3979056397821188
2.2502305210014324,-5.732602090784532,7.483862055415534,0.04537128280102145,-0.00011026207656079489,-0.012374196429029531,-0.5626497359960893,-0.040337198555028646,0.17965706292340217,0.14323957933763654,7.803570272130639,5.960969626491914,0.05414781616721314,0.025767383737368938,-0.011029470914457629,0.3688977345836262,0.4055969198320032,0.5292490959915378,-1.3398632134051365,-6.025275219163285,7.262056841782878,0.11628432528493583,0.13787005270220465,0.021487682306813506,0.6876927346705537,0.14807964509895685,-0.3511830473239027,1.327226523174536,-6.3309963116136,7.188662165581232,0.13763827281479113,-0.0963120808067251,-0.037476619274422134,0.043125630686114066,0.4238614087073056,-0.801659645460331,0.48401346771093706,-6.087851378653151,7.991916189294364,0.045939791348824144,-0.0012126050801106786,-0.0161181920433463,-0.2798188475026035,0.44739773919586023,-0.3957223660671048
2.212236443853019,-5.998300533505681,7.259342488673131,-0.0017174975625168806,0.006664522624785774,0.022235661026973476,-0.5733858791669308,-0.03495990548613061,0.18020139560327122,0.24694468777131737,7.540228580919138,6.179643340514943,0.014440629870190319,-0.013760069620956267,-0.02478072563462587,0.37405518733674115,0.41203599925839157,0.5347288265725106,-1.4069072554830453,-5.5393970755706,8.100006736440537,0.07830444917233235,0.1103421396835157,0.042349527918043285,0.6940765686658498,0.15183389609676678,-0.34393731844642295,1.9601006726195198,-4.830726462266494,8.403980746641484,0.09887692888618792,-0.07474790094131305,-0.004527577929024964,0.04688895666941058,0.42724182254759485,-0.7973215384063468,0.40551580074709703,-5.937458195200669,7.853031864555171,-0.012365593778163209,0.027749283932154437,0.018734192423644172,-0.27558009179717236,0.45321470934740055,-0.3913573431203422
2.0896144247449353,-6.075025052432604,7.477781206750511,-0.008971917539195785,-0.0038346925688367926,0.011207474361888093,-0.5716621006939444,-0.037406149739414876,0.18360892342110968,0.0626100499636248,7.843276798104441,6.113854382481571,-0.03157198375866156,0.010091550045325167,-0.015767155235663428,0.36601097332370314,0.4049388195665892,0.5346531077854618,-1.7353944232114025,-6.007031782261988,8.817654321451773,-0.056560460342024985,-3.0942723814737154e-05,0.04526966876890157,0.6860104059806739,0.14764827713277184,-0.34628547589951725,2.1439133637225463,-6.140962772879752,8.835873257970425,-0.06533157418252225,-0.02850793682745236,0.06450176940732386,0.0407103863693592,0.42387345379502533,-0.8001509908258154,0.12372583747147933,-5.888701170277817,7.718673935802163,-0.008816100511368002,0.008774209822738147,0.00488642556067544,-0.28421011555491704,0.447441494758111,-0.3952036953203853
1.936050269189929,-5.886533669006603,7.265785899727383,-0.05107440619345613,-0.0007809643227655497,0.02084373986866122,-0.5687128032641371,-0.02715648981680269,0.1862903648508875,-0.07643454065052471,7.607650166785278,6.143515593247932,-0.08436627514839072,-0.0045729237327549075,-0.002783374951463838,0.3640092464598299,0.4065568456275063,0.5287847304774966,-1.7603769934947755,-6.157633240650294,8.162657277902452,-0.1631624209483382,-0.12202457355402149,0.0006773036516163331,0.6840331081624612,0.15126189247912034,-0.3502251687132688,1.7118106048967756,-6.209427349323407,8.172849706526327,-0.2062228152952527,0.07091246401264571,0.058019684903964565,0.03856211819026579,0.42974558019420767,-0.7996070152907764,0.06126594626848208,-5.968946526814642,7.709135736224278,-0.05930096361791696,-0.009185230276734969,-0.014043176982073547,-0.2861203844382571,0.45087868123242913,-0.3939690310202181
2.003796517915533,-6.047215321324283,7.450308035963308,-0.058757933657445104,-0.00014393268096424424,0.03363322232095267,-0.5719402766797635,-0.034224975101865174,0.17604511604345097,-0.02177639397099712,7.60554264126476,6.216404371490813,-0.10327728582089965,-0.01748826907263419,0.01011191496756909,0.36546142050599684,0.4072705411248701,0.5272975962277795,-1.6730067166096183,-6.4898166295166355,7.686597690940605,-0.1781889397419482,-0.1622457098812269,-0.03907523114169769,0.6827820454395995,0.15828810053498046,-0.3546963787753473,1.4239844555601662,-7.294441931537665,7.919979736918466,-0.20772863119846322,0.1272193685229598,0.04768099601552182,0.042967532819913376,0.43802410954347215,-0.8021031306234991,0.22273879636619875,-5.821992754240837,7.670237377060343,-0.06285981184053226,-0.0151219923173659,-0.01782794247035833,-0.28369075732916166,0.4530516615134008,-0.3988689219179072
2.286067204248551,-6.391418061594329,7.196170885718251,-0.050943796533400997,0.008271291550007494,0.011835409239152432,-0.5631455405810002,-0.034231630453236704,0.17722407094479598,0.3779881309764143,7.542047162141516,6.436577780324576,-0.06514381830611726,-0.009376153625279805,0.017762661419244975,0.3603664753190548,0.4095272774416123,0.5319422336451409,-1.12419237936757,-6.433862042321545,6.880743415306729,-0.12664598146289535,-0.14157081030641588,-0.09788258935829584,0.672784082808956,0.15928259377027792,-0.3524573733172913,1.0220342708388104,-6.8582835906265895,7.818684307701907,-0.15442904782882688,0.0461787910569767,-0.02537106825102152,0.038419153967700806,0.4375520879608649,-0.7968949867658184,0.3807746220696496,-6.110517632173924,7.761825293075096,-0.0629839926876406,-0.046708969882273445,-0.038081318026823956,-0.2888088458560956,0.4513935204149849,-0.3951712480642241
2.248969193688913,-6.176254752801168,7.258115686151346,0.018089728893245748,-0.009610753336689029,0.00032558696256243356,-0.5658607612693747,-0.03959572825393224,0.17161600947954833,0.2744142845679882,7.2886035159682585,6.2471657828677944,0.00416339114829747,-0.007847614245047785,-0.013678361846624814,0.36503044027360787,0.39978519192208933,0.533028295168722,-1.0331344212179137,-5.846912243132727,6.231989852548249,-0.013430624943080635,-0.03151381439107257,-0.057738157176717445,0.6776958195378324,0.15078881922484536,-0.34847639526189234,0.7777362787601274,-5.492873484053355,7.2934510890837485,-0.050340411622080354,-0.1702997643226457,-0.03532392785875962,0.039429360665793944,0.43094077168308526,-0.7925378942143232,0.34722253701526246,-6.348249631165181,7.966157802211856,0.022079331673206994,0.004975348868906361,-0.008004892160247416,-0.28736143671592246,0.44551970206002844,-0.38932172067186843
2.2844048921862834,-5.989267823730954,7.429752812155291,0.008143454499178608,0.002214343900873454,0.009194225302246633,-0.5711617221735557,-0.041559173502158014,0.1865327113686914,0.23256806548847395,7.7228177328495615,5.8905825215389624,0.004767807936141606,0.008930694136712996,-0.006338036976899489,0.3631458299228119,0.3999126798722143,0.5418312901504453,-1.083082300073842,-5.268928341787358,6.401674030562528,0.04386320002122547,0.1475216058786444,-0.00935515648633791,0.6765000315279959,0.15622516766210398,-0.34291814511420676,0.8783425478218255,-5.0375161745678465,6.524613572120896,0.03140234139747438,-0.3359704208227186,-0.033829864734608237,0.03392615671354614,0.43438191151633826,-0.7875451053235364,0.5977226872341012,-6.030474336263305,7.7973976677802765,0.0064679101261689255,0.018434448327196366,0.0005334664672953006,-0.2861101253066274,0.4457511709728222,-0.3851803346841371
2.2400531373609542,-6.081130941804988,7.206105979844547,0.00848349802595697,-0.001785422151346871,0.027084099670933573,-0.5638501179095939,-0.038875057816237166,0.1835702059979264,0.27988102620186384,7.512533013040828,6.224119261075248,0.0016858849029246377,0.01949865010314144,-0.030950026821464194,0.36501520897691586,0.40882081055000835,0.5331377895448537,-1.2992043228950672,-6.066567454444654,7.648614558945474,0.08998999721134548,0.19479117156654052,0.0318568423205534,0.6837983245336909,0.15837601846054994,-0.34737825386241533,1.9074316459638982,-6.207960238891428,7.010806955527983,0.0942051569700155,-0.32052051613326643,-0.027670019586535737,0.027464863616209763,0.43762067323296766,-0.7949887682695066,0.6480505165672528,-5.898234613761636,8.214984026858605,-0.008567987262679967,0.046796292382967404,0.023964467352194187,-0.28560371252745675,0.4530706240670033,-0.3929964233158744
2.6886745493820063,-5.900725152828403,7.642275447691589,-0.08406816160004317,-0.0493106269245146,0.01815043392044286,-0.5636100846786034,-0.039607531346695535,0.18283636979331525,0.374670570937394,7.730262668098135,6.449985871459467,-0.01365141742144027,-0.03537832659125363,-0.06485386069455074,0.3643029090485313,0.4034673063747234,0.5344442840367015,-1.2320670496799329,-6.844320017082644,8.247087765513886,0.07388137784525138,0.12087029956124146,0.02337446358021824,0.6845418752320933,0.1500849496616302,-0.3465505917752777,2.60487418731041,-6.528478800079232,7.3483673843925335,0.0921751844810825,-0.14838578741025088,-0.020385936586731677,0.025459496198868843,0.43177707791937386,-0.7957031031576456,0.7125178467744863,-6.420008993139811,8.845279949584965,-0.2035443101861712,0.2950065694939435,0.08936674070508997,-0.2807383337048586,0.4500929596377398,-0.39132160557674217
1.8197693417272365,-6.492894654884072,6.804366714443415,-0.011207752604418277,-0.029910649766599698,0.035375252678927466,-0.5660472833698993,-0.028374551185517224,0.182370442505296,0.14973899135181828,7.379502749700249,6.302477354662481,0.009966053986400708,-0.045195397353041025,-0.07430851832758395,0.3743103176502,0.4056865143033601,0.5345774352617176,-1.6289178178623946,-5.66211519264294,8.2887820127487,0.0353566549869956,-0.002833716622564007,0.024315071729969537,0.6906560375675811,0.1503583735669133,-0.3446334824139416,2.158379686581891,-5.786084917678018,7.5705501090190035,0.04812419756182865,0.045758363776017774,0.015171258305483803,0.033502386859417005,0.4305028405079404,-0.7960953465027394,0.14324096550086368,-5.589020045110173,6.8175808264809055,-0.010082505372570872,0.31063615218604074,-0.014091926854159475,-0.27198089583613566,0.4487846678396098,-0.39406791975148686
1.4466422024596919,-5.901133866123203,7.561843015786984,0.039581574821429454,-0.021163878747786805,0.001968119408105098,-0.5704186926793655,-0.0388754475533441,0.18848467222957627,-0.7107175241928048,7.586395490467829,6.200105321179282,-8.643584381739199e-05,-0.011411765280440132,-0.028167260215169042,0.37375370395777396,0.4102103509519684,0.5269452748746377,-2.5096097231233867,-6.56882028748353,9.13905703261044,-0.05904039461578658,-0.14260888635506924,-0.027806991300375228,0.6886637741408298,0.15883142077536594,-0.35058404469340426,1.8423248748783094,-6.967158766140696,10.02881876077649,-0.07465350648710026,0.17241096951237006,0.019020904999107774,0.036914999281530234,0.43952348966436094,-0.7997926458215949,-1.0854949356816315,-6.851661789318259,7.755064276089699,0.0564785261984981,0.22683765974668874,0.043088528776125776,-0.2665825926939692,0.456299362636396,-0.40094111742770916
2.2319026439925134,-4.496299406911586,7.707306667254569,-0.06488537919191961,-0.001434107541198147,0.09206601715443696,-0.5667952079105447,-0.0332545955094006,0.1796834580843449,-0.09422643066085314,8.73916207123499,5.424295694513589,-0.16259584952093162,-0.09276767623284253,0.03258497778003016,0.3689196743520671,0.3980433155284005,0.5303376352288446,-1.6744136587201695,-6.090267645877889,9.077472937694298,-0.3524475829261671,-0.27393390638203763,-0.12456862690412697,0.6761946208796966,0.15878013265727559,-0.3539348224358566,1.84963897770911,-6.160491588553432,10.72604779604695,-0.4147367715497795,0.0680960154656947,0.0567563537250401,0.03307323257799868,0.4366060669832681,-0.7950924830057468,0.13171737918470644,-5.428679701975166,7.073180452129617,0.0010492027849476836,0.039071437278823166,0.11727993404024,-0.2705851292455216,0.44559669352943887,-0.3994490718049244
2.6239302916395157,-5.68015414758815,7.549411623488197,-0.203007567862112,-0.017444346072911444,0.23436029218022086,-0.5702152455092033,-0.038379671160628286,0.1799390581488107,0.48052237184215485,7.599970022179837,5.444475422754518,-0.39409941348131955,-0.23931416087716909,0.0004078643602600735,0.37082687786813356,0.4040846299767462,0.5258381513157148,-1.0018082821314225,-5.949621859005007,7.786766287151727,-0.5966406768969185,-0.38241122927958965,-0.22041787979621805,0.6693166686301655,0.1731134018348185,-0.3594398129478619,2.1883600291957332,-6.495772529680449,8.14400567191559,-0.7002162256938542,-0.054681213526156666,0.09663223979273351,0.03275507436477602,0.45344553587929143,-0.7918625951359871,0.3927611738189782,-6.370764259258472,7.661432523513353,-0.21099743195035925,-0.10554779102796098,0.18936634756859888,-0.26925278559909693,0.4560819194832045,-0.3984814364881286
2.095897123171679,-7.210128264989768,7.969151585689739,-0.19741910617808403,-0.09238787343016355,0.21375977625806603,-0.5671890939736471,-0.021064062330071232,0.19776286912488944,0.1334201838095815,7.840647348622522,6.613266615413585,-0.3367170147293001,-0.09377768979932845,-0.06936772633357136,0.3706507058041847,0.4034786069619321,0.5343947598441796,-1.4460366401349207,-5.785925146301755,7.998318235397696,-0.5595163538987029,-0.3972023970813614,-0.27992324910003796,0.6573917631911025,0.18468375822822003,-0.3504796445789594,1.978496819974425,-6.098920031673291,6.409748785906539,-0.7159964815330289,0.061089082048519885,0.05785144910710893,0.03396719754125123,0.47047043405218425,-0.7715678135996492,0.06348854969185408,-6.476734650327329,7.924392276063342,-0.21036355967936085,-0.1652579579190532,0.18275756532207474,-0.27033883645618745,0.460731752018166,-0.3857771407999519
1.9232684781730212,-6.806800922173767,6.405001771424843,-0.04509890617224666,-0.11429086554044315,0.18954282814731668,-0.5696803684751117,-0.012262885309560037,0.1863088132750179,0.3012580297556693,6.424122992687097,6.586323600754728,-0.25477235063806336,-0.06057847567752765,-0.12074973570133754,0.3681245318301727,0.39767799590227637,0.5222921239995537,-1.2375102703764949,-6.155559487118626,8.135823135940367,-0.4742718554418445,-0.6006931926018759,-0.20770593848639898,0.6448532355512582,0.19157263996754245,-0.3656315728392994,2.5958038532824452,-7.536214694158468,5.358656161695394,-0.6773286442542824,0.5366742804993536,-0.1213406105067744,0.038397175831447944,0.47458944040872886,-0.7711471486698881,0.3335014933612784,-6.897394371715007,7.86365929791296,-0.05686714341741636,-0.04376973083660571,0.18811074980456083,-0.2680294288970286,0.4546046119385016,-0.3960480456855922
2.6619501807835624,-6.9250097325007465,6.7848244956666575,0.019786313597626545,-0.09939423522771082,0.1671901323425365,-0.5664624038384519,-0.018378165305801678,0.19629786959504997,0.9017982447757493,6.736994881786895,7.065069429901843,-0.208275410804925,0.006031450367358146,-0.1363839714501151,0.3664654861272757,0.4095308702101997,0.5314066897597132,-0.512398632314565,-6.668702530349032,8.198338473773424,-0.40071322404278786,-0.8516056669012412,-0.21050347108997175,0.6279819734982653,0.2078918498011642,-0.36768826828235096,2.8915577073893886,-5.744300797353853,5.543288305357835,-0.45397575413155944,1.0772716491741783,-0.09556838412481815,0.054584755833531326,0.4934939243946413,-0.7606373533387444,0.8437688594338417,-6.537328345174788,7.900240480588042,0.0033578238683152216,0.14219562176326625,0.17053309032333722,-0.26612246470964634,0.4689911858400956,-0.38824791562500877
2.8832763647664885,-6.984332922506315,7.060615420390657,-0.06548275401853074,-0.18926085497308398,0.18504566788229831,-0.5583554057534171,-0.029624321639439007,0.20821080973460537,0.9004320217099954,7.140243025830133,6.946461508668814,-0.10986154095645678,-0.012142259495615142,-0.22849826197153866,0.37322553768824185,0.4032723889833826,0.5202158127776954,-0.39821840619106125,-7.448713239338841,8.221121161643886,-0.3974399279612389,-1.084612047358877,-0.16623281882694182,0.615398082028009,0.21272335716603435,-0.3916062368007685,2.143998558286838,-7.564864912718929,6.184418273099986,-0.44394531466384823,1.551253000406043,-0.017882411282224713,0.08070073892628181,0.4923421828480541,-0.7608657379026641,1.3720890828935601,-7.035155069516789,7.320139954375225,-0.10442923516299701,0.2783972268298314,0.13280545731155355,-0.25554723445493405,0.45838742346932304,-0.3971118773602604
2.188782070772729,-6.430076376914406,7.221951494074238,-0.12574238294660725,-0.36499002843806494,0.23930636722137025,-0.5644614288225424,-0.014481230614771145,0.20581303107552673,0.031272905068447335,7.77329319068198,6.279754259404243,-0.20703578443413076,0.023254816174914053,-0.35912871570847005,0.37380198071262294,0.3978080338475985,0.530303180441743,-0.9293031536239806,-6.737778760153815,7.783608214855988,-0.5127159322034368,-1.2987442883297953,-0.2740204955609976,0.5904746082805642,0.21681402639737973,-0.3946954222274064,-0.04117470881388244,-9.155749480716254,7.6421620266199,-0.5554563888576887,1.8637302025488744,-0.09139410174791823,0.1072435554221779,0.49380843193276064,-0.7383853094350663,0.7175689318955534,-6.9285320656299225,7.497723595684574,-0.18299986290273987,0.4514285655301965,0.14839837651041704,-0.24654358033463303,0.44926308957189137,-0.388386310936803
2.226750538448227,-6.922345859317407,6.901036296874018,-0.07241037721027486,-0.5036231671991488,0.26450199823926457,-0.557300086729304,-0.018652989344350213,0.22335312496141554,0.201309509283982,8.037922066291166,6.544733567499551,-0.1445744313333543,0.08024521121277509,-0.34646372383130436,0.3705992290598974,0.40852499648797785,0.5289481946057737,-0.023542858655625942,-7.18962883799541,6.67404686927505,-0.11326568606403656,-1.2365864141903833,-0.3371789939649455,0.5635228274788143,0.23541164643781715,-0.40966622432502114,-0.8114151452085662,-8.493071746775302,9.515654522094437,-0.15847016156472477,1.652259424530223,-0.36435816271178484,0.12231180499590029,0.5117648011136277,-0.7354284603309652,0.4141993965186049,-6.97364912866007,8.078640569737415,-0.12163394735181245,0.7270879343279367,0.19198804863155045,-0.24180422361595375,0.46410971529940953,-0.3952542704882351
2.294714070149571,-7.283029443548053,6.968445397314649,0.02710541623246564,-0.4587037488023988,0.24033155334556167,-0.539230740042205,-0.016467568863480442,0.22351275460533002,0.23350703688418836,7.6845930670053555,7.435648044323292,-0.02405867043000996,0.10638425460442873,-0.18554240031432237,0.3661689513365285,0.4020799317983786,0.5229738301675508,0.5265690343316689,-7.5108386476042,6.014778590512132,0.04293217557068426,-0.9348778967289989,-0.35623393904473993,0.5414670408498197,0.24156914046885855,-0.42402632851802574,-0.6706011600076197,-7.160347622547371,10.87884336627551,0.078595648234353,0.8822617181807523,-0.3568546224898434,0.12969632389233302,0.5085281335130162,-0.7309308569123232,-0.34237803216755675,-7.0276970010442765,8.656070407930226,-0.008626312245155317,0.8978919260822049,0.20805042745314725,-0.23045516546516892,0.4532541179198004,-0.3977755014617733
2.9986916826103864,-6.800251329549188,8.167079509052533,0.08303428061831063,-0.40365902723068103,0.24673628297309655,-0.5423957376886105,-0.018908612878006426,0.2257236492245724,0.10498308681033537,7.275423090238021,7.21194464313629,0.08191587120214115,0.05145543665240701,-0.2102342585928952,0.3653748087826171,0.4017146139524352,0.5149283111367173,0.5392334941338724,-7.237203211406947,5.429965361636402,0.07696277132774193,-0.7208578012955509,-0.2994733853381594,0.5236078500906084,0.2466079701188492,-0.430093941160942,-0.4215530067454122,-6.760120918386008,10.528732167920163,0.07415628957455221,-0.023522061923251424,-0.3014998478431024,0.12240271173424878,0.5083281798123167,-0.7290911740034983,-0.5361389386080357,-6.785010854126094,9.279735320589557,0.03081278998878208,0.9738692248290719,0.23283632931510012,-0.21831138086590396,0.4499590101075355,-0.40225566999791185
2.4352127366907936,-7.341257818077921,8.275927061363804,0.20795222954617662,-0.2578767200349934,0.20970282622980518,-0.5270291664325911,-0.017450332290414754,0.22247748725055796,-0.14040115800107927,7.642780941241453,6.802099421303129,0.10883362126000937,0.117242815577041,-0.26317229487163113,0.36174358754361957,0.38902806620009905,0.5161217513074632,0.4299183467784484,-7.216633178300254,6.65644761522903,0.03883768627757504,-0.5790136878624538,-0.33430033299792783,0.5008931206068715,0.24754416346097005,-0.4316923430211829,-0.18552676327345563,-8.273789925858129,9.185813552536535,0.009980864931308536,-0.7010075621587594,-0.31539790236533954,0.10319161541173118,0.5094235995010211,-0.7250803167643847,-1.8242108686946277,-6.7710982022336585,9.491126377664639,0.1476133190605007,0.9209223275135356,0.24766472886544566,-0.21154642924624206,0.44110211042579206,-0.39986160679674787
2.7297286593171464,-6.908723403334891,8.54457639541928,0.3222254315646324,-0.08609679704144937,0.17497842233598357,-0.5084682878693849,-0.02259079982736974,0.224336988114613,-0.1757713771635042,7.828535130376639,6.557607943185523,0.17419689703383295,0.2030011957297309,-0.2604999453993871,0.36306073045690596,0.3936475591652213,0.4982181478352243,0.5239749378273194,-7.484021073636589,8.069600474325622,0.0854960325040291,-0.546595239550184,-0.4661223281180027,0.4922546956595969,0.26078392266428735,-0.4469417157515112,0.5328181241131934,-9.328704475692618,7.994586634947801,0.1093954521827692,-0.8821326454208633,-0.432165302002043,0.09189654845352349,0.5185524863181519,-0.7319317208460037,-1.9364532900506328,-6.651907179331445,9.805123937374368,0.26108321296371584,0.8378291354581648,0.26192474137043087,-0.19261803948828465,0.4389606044524238,-0.41342225778911845
3.5232794297248913,-7.4365810519516815,9.328569386256591,0.416054183697211,0.1400722984374833,0.13787322210091427,-0.5048686311390366,-0.01403496518014366,0.21016754797348589,0.32372027237878553,7.4458809750481745,7.2500945450056475,0.29387336335038744,0.27548004208623106,-0.3420658560778897,0.3561727788381652,0.3839808615326806,0.489381490923308,0.9828929786826248,-7.579274355364235,8.178199161498357,0.24338742417081577,-0.7153885976871719,-0.5647718614588346,0.4646782186142064,0.2615183997669101,-0.4446053009444247,1.5214107602834321,-8.748304549947761,6.765302359081823,0.250795411168644,-0.6573452537623167,-0.6038031318914356,0.07267873358230081,0.512804612808751,-0.7257435553912552,-2.461287672787436,-6.73933329985047,10.502234049478815,0.3486897561507109,0.6560937020496509,0.28142384249445107,-0.1803239147550186,0.4219912128238675,-0.41180051711947396
3.5849123547382518,-7.6204896813705165,9.756148081920422,0.5552254256122336,0.4418717309373891,0.04565574559800282,-0.48787595167891573,-0.012805897580744123,0.18982319505672557,0.12070090330241248,8.349367338648284,7.9457902914965155,0.43632404765120986,0.3200495257925444,-0.4571116695887693,0.35411345871041766,0.37176834605985065,0.47297516139969603,1.5625439195766782,-7.64860385818989,7.902706198612578,0.3501254545291612,-0.8631733171464144,-0.5351818368631389,0.44237187830994895,0.25909935573525306,-0.4615483055836133,1.8043604612470174,-6.457527328981958,6.032171029956677,0.31909341458088547,-0.2994491611232358,-0.594501964191626,0.05855966504534743,0.5058439612574277,-0.7343009621614088,-2.7398648537671693,-6.699475352670693,10.918955348179756,0.49997251708549184,0.29832461382595965,0.2624991807659399,-0.1732698226965402,0.4038542392815611,-0.42479065483838163
3.444822558102635,-6.92056737323322,9.66833544171783,0.4780143908463048,0.719893619599024,0.029591759654534554,-0.46045232585252255,-0.013768510790891303,0.15551076588970755,-0.0940736948809629,9.026956386780888,7.7783245945764685,0.38364277037908673,0.2727827236509225,-0.507195869754914,0.33834494689675215,0.34622893438043867,0.4488168981290921,2.135971449302862,-7.45903055655963,7.8158613194363795,0.2823095390958487,-0.8457285441279224,-0.4462598544444193,0.40594317059371077,0.25308194003990125,-0.47202420824038815,1.973072565074476,-6.746044440569872,6.827756779269144,0.2905463030204591,-0.07066851579997463,-0.4440730416865815,0.04413175489110827,0.4922590528137211,-0.7304192908516103,-2.4265486077887246,-6.632008482089383,10.634582110335652,0.4216894060033185,-0.05271157055856717,0.19974657650086927,-0.175293329343212,0.37726120787509004,-0.4318590157845501
2.9608410782540187,-6.489349060175315,9.28800931886135,0.35835250394463536,0.9283552143221709,0.05040364017058976,-0.42663002372394204,0.0008819467310258392,0.12972833138244053,-0.5680765518984165,9.465248302560092,7.8770945456288315,0.2608530395925055,0.17418643793048302,-0.4671164407109224,0.34201102551261037,0.3320561121513854,0.4148147835235856,2.532215002816387,-7.783424270716364,7.642719767841815,0.1580545356118698,-0.7225156351726516,-0.359904876012504,0.3904943241654695,0.26539117995075606,-0.4828306008787126,1.9563907593723229,-6.685988515638297,7.790034691978425,0.17037082123898245,-0.07022104296837536,-0.35703237992062886,0.04579232352019332,0.4981208382269524,-0.735315639960623,-1.7960146349829005,-6.70099292956984,10.19078769839075,0.30151766011575737,-0.29681489103875114,0.18853694783244174,-0.16001670483506425,0.3736909593081903,-0.4417322092298143
2.576011649041834,-6.7034206436988715,9.681459421848936,0.14072301615619884,0.9994369692187616,0.13580023621377976,-0.39139393961320795,-0.0010618006731565827,0.09562163808669565,-1.0979405288682842,9.779409703000606,8.523024720909358,0.03139661088568909,-0.03870454814779953,-0.4325164391830295,0.33418898684016857,0.2923556810748527,0.37322529389766806,2.576657226408697,-8.003760312959693,7.308083658714725,-0.0365812721523371,-0.4991770074439641,-0.18223602777443657,0.365283215803915,0.26840701093147945,-0.4942071684048899,1.8557258307275653,-5.713527762015506,7.999826677414804,-0.02462161245673712,-0.2674034354411132,-0.18976656563346625,0.034532098977996036,0.49991223956835945,-0.7375495348760794,-1.426975690377389,-6.985812904704851,9.850874463535822,0.06601579442815106,-0.4191607472991283,0.1737539176095216,-0.15825169381775397,0.36122191252182134,-0.45102284184272695
2.274941174353997,-7.128898838375243,9.67651610563652,0.012417366229287595,1.0195935445466922,0.1807959821225028,-0.3536686012563402,0.005285754999144809,0.0703008409656159,-1.001271659901986,9.136699151177316,8.2141925912972,-0.10129149814305084,-0.2130241874634092,-0.4743262736750839,0.33159136683060264,0.23937612543400882,0.3410713934128959,2.390585607305503,-7.624161948889423,7.068997172485389,-0.1068362389431633,-0.29874846685969575,0.024900420226585705,0.3467944290341838,0.25948651887323504,-0.4832579790183548,1.8510854238857115,-5.893387499376722,7.276173985167551,-0.09792356214093652,-0.4443443484088894,0.02147206323830276,0.028406487050437544,0.49111995258588437,-0.7218378571130029,-1.4257053126548156,-6.835074192128309,9.857335870906418,-0.06435542084039861,-0.5505837198006647,0.15643914604701206,-0.15298030796194276,0.3433462959823669,-0.43983092290567527
1.7679124817481717,-7.190832902155285,9.313108726356576,-0.031237282289523237,1.0770278524643053,0.16820187247855165,-0.3230777943645819,0.023123760603991243,0.03208466881621535,-0.9679980796654235,8.685942827315088,6.977268911100865,-0.13532945001784766,-0.20923460764918447,-0.52586940588492,0.3203002564814719,0.1919777672985773,0.29132142685864454,2.1436750184559195,-6.7251375830834,7.2555653275146765,-0.10548885788358563,-0.1680990474364279,0.1181167002137388,0.3279339850985797,0.2620217154183695,-0.49441888503128545,1.7656355536962565,-6.5081529262754785,6.823032105503362,-0.09132986902750187,-0.4918232296714066,0.12514586937652475,0.01419543851973612,0.4936672866271857,-0.7254817706602866,-1.2332251845054167,-6.9149363433110125,10.027468413243449,-0.09610771403998335,-0.641820602203732,0.1443025648588667,-0.15265904699043095,0.33260070993375124,-0.4483793090024762
1.321314320962444,-7.3314922305145345,8.691303267883164,0.16655741631779952,1.116029368537342,0.1307488476495339,-0.2935381068096812,0.03267575353806334,-0.02053933787413726,-0.9948383682537927,8.21053760533291,6.462660884302244,0.05018562537125039,-0.0837826852565201,-0.5455497657485552,0.31320232148000465,0.1463829110372886,0.2473718072331305,2.0787528197867107,-6.485011316592783,7.401617961726568,0.07202406707986843,-0.061177223987055156,0.11248655588341343,0.31180929739620117,0.2624726788895578,-0.4962908966360621,1.9565896468358441,-6.85344724450555,6.005758044745733,0.06551686768806315,-0.4041285879891537,0.11225282629509938,0.008843476854734881,0.49247899438206344,-0.7239249132883544,-0.9662904423594469,-7.062621651681977,9.096938482433677,0.10794951142351,-0.6383923926692368,0.1654959092983041,-0.14524225354608886,0.32373751417858554,-0.45746507644444706
0.8209406400149719,-7.005612568639449,8.332552024588791,0.3055213118842453,1.1123926972467384,0.09803661493878696,-0.2561026696708243,0.036590073376227696,-0.05513811697726824,-1.19455561463828,8.243724043620924,7.0098893036349335,0.16992777599491318,0.04384637458168864,-0.5338188008336395,0.3154056098213945,0.10648442875764708,0.20766059553837324,1.8898178504956704,-6.63148255387717,7.502735752769362,0.18668515697830154,0.01634467343937611,0.09717435578971986,0.30522229389968375,0.2585642201179552,-0.4959650577685979,1.9168454540910806,-6.754823919640909,6.021571055360751,0.17115343730726248,-0.19694825410346586,0.09310652785119644,0.015319665948561607,0.4889933658645092,-0.7155050839160563,-0.72413428967766,-6.626784372110483,8.700867330215955,0.2634605829798889,-0.6252814615431093,0.1614713698969888,-0.1285203814853568,0.3120953127806298,-0.4588038532719828
0.842672253716017,-6.2190968136016425,8.302269662853652,0.03847951403326711,1.074653163755695,0.11476967704336702,-0.2186727865430831,0.04807520245783575,-0.09168386668940895,-1.3483596588937703,8.197191777659077,7.7824344980288345,-0.08138843328287651,0.019771184049295204,-0.5479212758317089,0.30024380383812616,0.07066195975166982,0.1650932429352159,1.869417106092709,-7.608380385616478,7.5786559830893765,-0.042562348485593385,0.021620506585164175,0.13891910031162663,0.2881119934097534,0.26486231685711364,-0.4988783925602914,1.8862517706921806,-6.807018849022978,7.20485947320227,-0.046224319990837606,-0.043833819015005694,0.13823570038504662,0.004250828047701639,0.49274687483718554,-0.7213992375377838,-0.44148128634037603,-6.297380149531339,9.003166236546168,0.008750996132579583,-0.49805801577704856,0.11870446067404879,-0.1252004913966112,0.3101093252476145,-0.4700574756362421
0.5528100230895695,-5.741472905690057,7.876113861526806,-0.3462254375132181,1.1073541045858104,0.19422647211113792,-0.18436450319521752,0.05955135628515801,-0.11747257088435069,-1.3408661376974587,8.16090692093364,7.090608202543115,-0.4116567507818422,-0.12881728726725286,-0.5228310594473538,0.2870767227916769,0.02438617541307066,0.12535254683457248,2.1341088176420078,-7.0149743226575865,7.416491502703779,-0.3186446502246422,0.010274538984122042,0.23362225456038882,0.26786135771251496,0.2663418195658877,-0.49610110204749613,1.971060141936788,-6.399314400306366,7.239448186629054,-0.30811073609591055,9.058934336498854e-05,0.2348897490845589,0.0012001627954276641,0.4927479921550908,-0.7145073138389775,-0.4109213823911939,-6.191392850884261,8.682942325711716,-0.38073188768273314,-0.4169236342560489,0.1273576109161561,-0.11914805328066631,0.30663087856362986,-0.4725420893928116
0.0548851504786283,-5.631859163956976,7.386807659269311,-0.61714478585758,1.0770574443062932,0.25483450278013303,-0.15052654893094872,0.07126941813262176,-0.1395967581857696,-1.4292557895598397,8.35575401669192,6.415490587803126,-0.6729708395936573,-0.17652092188643584,-0.4104998639780173,0.2956164346598794,-0.014050731283361522,0.08459314779805763,2.181185428883929,-6.126424841475469,7.3031644349310465,-0.5674056152666805,0.12964356487423406,0.26409416187515405,0.27202189392093706,0.2790888101272223,-0.492124646956884,1.960230461504003,-6.21516476526608,6.797431305913789,-0.551015319504953,-0.00917608044331082,0.2634398753179792,0.012621089850867573,0.5029063077873265,-0.7078453455329738,-0.1902579194524149,-6.052821342728321,7.897296845004129,-0.6556176723981441,-0.24246851528620017,0.18451709198105645,-0.09102303706083857,0.31147783476367863,-0.4727380057760871
-0.3980221545911341,-6.621524767694645,7.97875086435828,-0.8703860853241436,0.9190300536455815,0.26945892080113415,-0.12335267762641275,0.08862111936217222,-0.17730903724398797,-1.7695904339343071,8.1912286180853,7.698617232625779,-0.9609778961015578,-0.16528324076518303,-0.38843118534353327,0.27165100281912685,-0.054083038700153116,0.039226571317417865,1.5122122601583652,-6.81069031892498,6.962654452873148,-0.8979891394410032,0.22700329330843738,0.3155555271281587,0.24440717737949688,0.2900126974222918,-0.4952806464341539,1.3760758682591296,-5.853238370864216,6.672912960686338,-0.8879331474029488,0.0030498618282101386,0.30395248768832644,-0.003834686553147981,0.5105702402736633,-0.7023993636393281,-0.5810089671816362,-6.172976981377817,7.141742707329502,-0.9053071293295172,-0.07058917329806087,0.21576882852545048,-0.10008635265230141,0.3169396367489151,-0.48463755179951223
-0.5296376725234297,-6.5049389239821505,8.024704937249151,-1.1445519423173938,0.7250794946604933,0.2607167767547087,-0.09701377270641436,0.10399301859131793,-0.18547681066789448,-1.8491268116418103,8.203527005732575,7.841417473758092,-1.2757667849423593,-0.19383847177279262,-0.4668315383814855,0.2749422910600474,-0.09278460920462113,0.014140131908787722,1.304217603791231,-7.007341611127133,6.994697264031679,-1.2134583733301154,0.26983702078635485,0.44206650333877917,0.24672213955541059,0.29981457850629156,-0.47196962738008386,1.215659255948521,-5.993027885059527,6.929735927918296,-1.21739151543784,0.003289329518590653,0.4437872654834489,0.004266403930644768,0.5214296682957431,-0.6768745926901761,-0.7775237256570834,-6.284537641156745,6.943717991346808,-1.1554824195896911,-0.04671153710781317,0.20105495649244212,-0.07547163334802404,0.3259715105005933,-0.46918321813204594
-0.7823759942261663,-6.4093243928531685,7.651139732357328,-1.6123088218624018,0.5089820732133056,0.26747893847957027,-0.07607681850286745,0.12914031122722155,-0.20117877165252332,-1.7631796038600807,8.291036770385256,7.117745108122263,-1.7094605625110049,-0.16208106486117002,-0.5253274108725218,0.2704052301210993,-0.11362364696584298,-0.040209751147412494,1.3058026504403273,-7.37471000071977,7.578047404504991,-1.6801935738672622,0.29153076310543374,0.43467498970877105,0.24011240059100916,0.32349696188169585,-0.4714837081657598,1.278985967021003,-8.85087453458934,7.736052832907252,-1.673587453551693,-0.03431349189335794,0.45313264719223745,0.007467109162392616,0.5492276137353338,-0.6722103499481007,-0.7532993360523841,-6.000883039794474,6.489338499346682,-1.622444917200594,-0.025184958227116926,0.20901176739135122,-0.06188530910212028,0.34585719923381153,-0.474891469273221
-1.081185181929398,-6.865133250828173,6.304825543781104,-1.7777543181747042,0.2650564159327068,0.22768319047549454,-0.05661880360392687,0.14330389080083825,-0.21834887156063204,-1.7834535976181094,7.532646620645697,7.1253825506331925,-1.8739908710089799,-0.05462202466231803,-0.48402073506699567,0.2720664842381641,-0.14161955010812735,-0.08400068523206483,1.6207211738664988,-8.416620116392155,7.355712253211632,-1.9581306796528124,0.30172628363785914,0.27222408758870054,0.2426218659901936,0.34322125712904966,-0.45561634350096714,1.6298491181858281,-10.29486146698374,7.231246332135029,-1.942146448513455,-0.0721820668205124,0.30388768427182666,0.013845887272017786,0.5676780761695935,-0.6502938725899545,-1.0370808863118648,-6.2449208935388665,5.3343031194287525,-1.7783978327450773,0.0586537383542265,0.18955125594594768,-0.04312971206682935,0.36251702931038066,-0.4701378315430582
-0.760473522068606,-7.002376856854649,5.434127334271526,-1.541124760681803,0.09541283219788434,0.17444265692895652,-0.030760864486824486,0.1713720902290693,-0.22650356250960593,-1.4543797833904757,5.749452223752008,7.410565888578494,-1.623643883705282,-0.04751024886577516,-0.36678338618882467,0.25494701549709414,-0.15687533023636205,-0.12246470271207449,1.4748070949548866,-8.880290974049435,6.116880735441868,-1.719324471885956,0.3454978449610643,0.16620841819336185,0.22289354164585765,0.3655668094803249,-0.44332414310066875,1.7471883045659855,-9.388684069080352,5.486098642282481,-1.7020273298442867,-0.051340574814175165,0.20009723793165668,0.0026238207052787475,0.5935823745027892,-0.6321910044239297,-0.8783070994839163,-6.157262472481453,4.911812093584374,-1.5397480477681935,0.09971327959187316,0.14170071104997792,-0.043655814362765694,0.3818101962496456,-0.46817943224060027
-0.801095060613202,-7.474920693782851,5.348986025869299,-1.0004900938036612,0.01627640654830486,0.08935610812146724,-0.01614937743652695,0.1877289386552004,-0.23632336565139853,-1.5456565554030535,4.91936743190638,7.562901076432667,-1.0349631120269134,-0.07980150406920151,-0.3196850629007555,0.25596711875543876,-0.17048757513259608,-0.1513258740713119,1.1488274642064944,-8.949135677646224,5.765165269216949,-1.0810799363294745,0.29640131339356396,0.1522737818747197,0.22006437439771595,0.37728522978212503,-0.4226945413761467,1.619278151254405,-8.984569817614702,4.552708177538403,-1.080393534128268,0.10820432754289289,0.1840365255698487,0.00865276310426684,0.6010528109376019,-0.6120098999441668,-1.2022729152374725,-6.6388142721883945,4.479803179589375,-0.9959867264578076,0.013296225532283499,0.07025959336243752,-0.024456267335326395,0.389431038156208,-0.4568375196780592
-1.0689045401475492,-7.133996797166903,4.9898257102862145,-0.3986677157452325,-0.08692294070528721,0.049880194141799845,-0.0057164261018958894,0.19213048077257464,-0.25052933560906776,-1.9370336866061793,5.221301416630233,7.205138062838491,-0.44103393166104193,-0.12581596883603335,-0.2750463998591032,0.2498635576835505,-0.18909775166508722,-0.186895138368894,0.8353143634268575,-8.56036588628347,6.431142467809589,-0.4533501069565833,0.20596836974268742,0.14803087212806018,0.20805504117187223,0.38646715863206144,-0.4298198902142985,1.4820835966112813,-9.031055566591828,4.47133220476197,-0.4830460091744369,0.4064657945807094,0.163785130013449,0.008674196529176713,0.6042267258855721,-0.6120009271326107,-0.9781628089661386,-7.043177156845638,4.157248674989417,-0.40012815370711874,-0.10673837408396532,0.03812483062052675,-0.019627236265713978,0.3923132613114661,-0.4685902654683846
-1.0471072523332756,-6.855058289841126,5.526980719404449,-0.11967930515303564,-0.3531152381523338,0.03972102857060911,-0.0023116027223310433,0.2045834040723387,-0.25492911163111265,-2.0063836930335515,5.782856390881204,7.494809401718464,-0.18099509448084222,-0.16857051944636767,-0.2574344121780396,0.24662647178479716,-0.2009837844692548,-0.19768038268983287,0.7025813812449448,-8.306492389048088,6.262062643118489,-0.18237669216251312,0.11266303683467674,0.09252176644470315,0.2000447432271927,0.38827364897164385,-0.4210086441338364,1.1627184165301563,-9.282133509674596,4.166705308189987,-0.19895221040082656,0.7851479293098937,0.1031480547514664,0.014977121050651219,0.6058638311761992,-0.6016095590925499,-0.9068743069060232,-6.419127060772491,4.584005736511684,-0.1347576206214092,0.09361407347135256,0.031004610230682638,-0.013237839539279074,0.3937145881386853,-0.46472865212736525
-0.7994168075010804,-7.872335046192259,5.990101794381119,-0.16819962935758945,-0.5076160570393593,-0.02901016321538818,-0.0009453527408234772,0.21461186889006983,-0.2768995984119639,-1.5586969672414686,5.183131817399557,7.716018736597949,-0.19240617146272754,-0.1121062847747049,-0.3047577569251819,0.24589055842615812,-0.21542296136530895,-0.2326214391720435,0.5366479893700578,-7.857885834066977,5.892375495013671,-0.1907175779949961,-0.007438023821337031,0.014116847040178631,0.19119551202976554,0.39253599907304465,-0.4315107405353921,0.758545688295856,-8.866429403819454,4.676556683797448,-0.1901113157372771,1.122431610780253,0.019544719002531394,0.030192563047287256,0.602609887383768,-0.6097067079514201,-1.0559389908093453,-6.4902111629471095,5.679471828051643,-0.1712251764084625,0.14573256263054488,-0.05339834048006745,-0.004565869138064443,0.39289539821429353,-0.48041464244446774
-0.9896382012153445,-8.367844590660148,5.622101144334646,-0.09621345934446945,-0.47422885876417414,-0.1627659746636227,0.0036429481899030846,0.22682727493690577,-0.289117346513804,-1.415768249024814,5.064718712803848,7.487774816725041,-0.05303732367522005,0.09971082556443213,-0.2448390505058973,0.24759186805146408,-0.2264602491461215,-0.23613269507305204,1.1457915298954318,-7.145411650920937,5.809561046783931,-0.054041469560892105,-0.07737174806314975,-0.04312778415768256,0.1809927071740579,0.39410823166759146,-0.4217088619529471,0.6899567065443907,-7.775274796239027,5.8353227159119125,-0.05956416712856838,1.2720712705334036,-0.0399571888752599,0.041693795118826815,0.5993124935016235,-0.5935622768551384,-1.7277574682816388,-6.666669730235405,6.309979626719805,-0.10317653016237859,0.08978196283668738,-0.1873025026550459,0.0032867397312217965,0.3908638917248128,-0.47192442935354917
-0.8991558563827011,-7.99647455290848,5.706363135676595,-0.052003260788944454,-0.23258686959868427,-0.31607293799153646,0.008220277818998043,0.22512791678982166,-0.3015919585059483,-1.3503841090238986,5.261244681464486,7.24063117318279,0.07582818744287127,0.3499697931837424,-0.030792740216768248,0.254077228113589,-0.23963707890417657,-0.2528351249379498,1.519868707168517,-7.268323141390026,5.600936775166107,0.00940389250723506,-0.02385474603354357,-0.13350117771910294,0.17435994061949797,0.39572439036852647,-0.4290171148143431,0.6450727098208493,-8.725198468587394,6.977997651924914,0.00242265301017345,1.1408177246855105,-0.1264654933520113,0.0538815294445971,0.5980121694196644,-0.5942740768876745,-2.0991759403691597,-6.305149352981897,6.88599590101477,-0.05324414814450828,-0.10972901760885535,-0.33299298052055265,0.008852138576823994,0.39202964011004726,-0.4807523936371025
-1.0348247949406046,-7.6040010670167275,5.62377409726623,-0.14637304313680094,0.0746747068597575,-0.4076086376823748,0.014556578999417312,0.24734489876120677,-0.30697270198934967,-1.954664283679067,5.742431524869335,7.429154422737843,0.06301539511717404,0.5411402104728933,0.26747337305342944,0.24936401915388687,-0.24812001019398688,-0.2643917121086737,1.3427403661147141,-7.310095046193048,5.994858259767613,-0.02273484452360149,0.09693753122612568,-0.22948313911542953,0.16285087298011833,0.40297709650426333,-0.4341690412288824,0.40131493888371034,-7.961549644493566,7.036961565845814,-0.007927887194759564,0.8795203322174027,-0.22647145557843934,0.05533209987697245,0.6024034304903899,-0.5967285857243766,-2.1079116122669515,-6.873125836263473,5.988464581784856,-0.12477823997490643,-0.49383960655888975,-0.42423327047218445,-0.0003933234769899589,0.3982251573784152,-0.4848374138560049
-1.259834389447927,-7.992339732824304,5.254909237894343,-0.19219155583638337,0.16557680596915875,-0.46387885962527103,0.017674645213757768,0.2512612304965588,-0.3191911218062353,-2.5137952693255303,5.475411326725598,7.771211373690888,0.03717130265748529,0.6384718224545852,0.4801239901486555,0.2412566797643699,-0.2646459415468697,-0.2745818712312288,0.6871173989793441,-7.90257769793595,6.118203820621311,-0.024119263461509863,0.1608842048626581,-0.2402189513356191,0.14671494885416497,0.40389090374420983,-0.4382436831677157,-0.13472935045966106,-7.777517705603177,6.513715903682614,0.016403937312438922,0.7656945330584385,-0.2270230015638715,0.05436835362216238,0.5984976055616246,-0.5945254291747476,-1.4714852808189884,-7.184049632753136,5.637053233291184,-0.2016709365015282,-0.5859439313674527,-0.4788288484471778,-0.013118554270587782,0.3993291298641213,-0.4906086269001121
-0.9576509094564842,-7.285104677688139,4.851871870990471,0.019186825862275325,0.12944530832233167,-0.5084976468034706,0.016648214969503375,0.25615403661651615,-0.33016780337336604,-2.4555778683411846,5.574864261279487,7.523898904265573,0.20477736418532536,0.6780292626034163,0.6504896128223555,0.24964087810867291,-0.28554113094201133,-0.2687198647262385,0.9472702655000494,-7.9880916323747195,5.760453412704197,0.18250758630766498,0.23514159396659928,-0.22379403633027664,0.1506673650314889,0.3961688816946465,-0.4308484439675757,-0.01686709340399785,-7.661224907565993,6.611140454137967,0.1899065326827229,0.6427334423952027,-0.19583580639208653,0.06834681430430369,0.5878843245069315,-0.5872375129285271,-0.8943693958467798,-6.938172043756924,5.305148846781823,0.005706379524698545,-0.47158106350595386,-0.5284917532983023,-0.007011313601557573,0.39365283613552937,-0.482106546747744
-0.6080448728382944,-6.527357228675483,5.015995353332075,0.029025288657511517,0.049088874406297445,-0.5018401845148223,0.014426965639695316,0.2546959495010821,-0.33504159321071353,-2.4313255692145512,5.529985636206237,7.099320127056199,0.20992038341157362,0.6213918306654185,0.7703415118131812,0.24571284828998163,-0.30151452618944147,-0.27504420176760885,0.6772846734125307,-7.61475184118441,5.483588328664827,0.264928964323142,0.27524426829957804,-0.19189933783079413,0.14672272833386824,0.398281105107664,-0.4376889771761265,-0.24994990411788937,-7.279521560134239,6.7267571491698925,0.28585213874274096,0.47268788459845623,-0.14769294933759472,0.06797455301952494,0.5844853254700291,-0.5931018191179234,-0.41787107162902337,-6.638393646701937,5.122321168924199,0.01708334026604834,-0.28933744364238345,-0.5256292433311194,-0.011993750460529926,0.390528504714834,-0.4918372746814605
-0.7544400762866452,-6.708460038035154,5.503908075834113,0.11067803592240172,-0.13553874045621145,-0.5041819828146413,0.008988900798089323,0.2630133665224426,-0.35014505092314724,-2.8523510785319823,5.610725060685082,7.2929615036569215,0.24199681052606573,0.5620845954796778,0.7759586733020377,0.23538083643556662,-0.31393484326198934,-0.28796362907138673,0.16913748732449624,-7.766955920614168,5.231741839426338,0.3098199417105966,0.3074589517996083,-0.16067255573285905,0.1364044739956568,0.3983740784319262,-0.4495987380625992,-0.7276773113574614,-7.413341588941026,6.750968989213692,0.32608645541913167,0.25920799921590204,-0.11356807114535154,0.06259251465585265,0.5804072151854305,-0.6057142865037528,-0.3553685941333085,-6.534782333667482,4.7181420225853845,0.10801610538856747,-0.10147835599601837,-0.5242056381021013,-0.021580558145464866,0.3937984488892415,-0.5056864046002795
-0.3112518609537907,-6.627944747163066,5.470758254464121,0.00317269390160842,-0.384576557014316,-0.49803797671404665,0.0060372858733120805,0.26570573735296754,-0.35501149661243325,-2.5936942308934654,5.639009703410339,8.117659681642426,0.11585802964760114,0.4479164033921018,0.6757243558755741,0.2324608795242813,-0.3242100986844573,-0.2890089652083686,0.4966205570683208,-8.030899043886357,5.003951783310002,0.19044736492605063,0.2854610775535221,-0.07986668692080398,0.13223919510705945,0.4007833323398769,-0.452046245445066,-0.35525507140674945,-7.067351136741835,7.10962890033437,0.19940869385334672,0.0018545784353707637,-0.05309500609783654,0.062360617703637884,0.5808953985897929,-0.6052206016171513,0.012573092365907257,-6.844428201950088,5.157203270099467,0.0015597437851624192,0.10361249094581189,-0.5093512838634342,-0.023241268872244595,0.39967431633090195,-0.5071393356688417
-0.3836934306579617,-6.902860187540933,5.289252358453441,-0.18377963545885487,-0.5610653712947571,-0.4677724732062445,0.0025991732149428255,0.2652237365475021,-0.3591455532849877,-2.6538930449458764,5.876708478084211,8.000921245152025,-0.09054393665853785,0.27518164434614145,0.6536957627454292,0.2285655629765467,-0.3317924713969862,-0.2893537463581461,0.7830360072731516,-8.204129722901682,5.072978738942228,0.030216880313080743,0.3204770310717331,0.0471584239939412,0.1351858540170892,0.40009062817590707,-0.44887954871042895,-0.07788439056267821,-6.988572010062921,6.446004641976672,0.03072768413286086,-0.2858545369243349,0.057439095375930095,0.058428461849479404,0.5801921913823352,-0.6063732576638483,-0.22218052213591388,-6.9484069833455235,5.393400731186268,-0.16586218763709382,0.34401573627103654,-0.49878837635928736,-0.01810660667733209,0.39889106876759167,-0.5049781949055631
-0.40981016693393035,-6.894850782631589,5.307765890809254,-0.26884995273446016,-0.6211114325205365,-0.4668524145679935,-0.015506687538469932,0.2794045947355299,-0.3692999385164565,-2.7149094340678728,5.594880289109851,7.575859071178684,-0.19759488668867825,0.15669577679477026,0.7355451099709466,0.2199475514657333,-0.34640287957973476,-0.302010827037867,0.34024336592625254,-7.89188341076612,5.327081349312088,-0.01945606548091426,0.41801381224209255,0.13630279316593238,0.13078581688712895,0.39958438741051994,-0.45007102449383013,-0.28224406535378965,-7.467183643667916,5.386146867757779,-0.02189633701027623,-0.44133262266648576,0.1420807285695485,0.05105874260734949,0.5773166698291181,-0.6077136218267397,-0.6237032374427172,-6.740315065249686,6.018256993408107,-0.2310379537731461,0.5045885883782222,-0.5188589165050465,-0.01666948207106595,0.3998528883690862,-0.5103592745296017
-0.002254060044869031,-6.781317389966009,4.932421030371183,-0.31818225525440735,-0.5655523115267673,-0.45590283688298056,-0.019643332721373936,0.2801367090820584,-0.36659344720585446,-2.269492708767545,5.370760386499838,7.1351116784821285,-0.2487894898315395,0.07940025313533491,0.8536545663589031,0.21460468755064258,-0.3571386730203837,-0.30083215049846407,0.42379038014720255,-7.631930462718503,5.427179790764079,-0.04436690572927811,0.46413707213910194,0.17592140589522193,0.13958804432439592,0.39790914752611756,-0.44790114558653327,-0.028725063533128675,-7.4763750513775715,5.028943314988253,-0.04101796427267251,-0.4188735270488525,0.18015359583583132,0.0527876103664346,0.5731464142179931,-0.6050715220160823,-0.430795913446123,-7.1533963785616645,5.865071676017946,-0.28997058284819266,0.5874766478174935,-0.4978427976508247,-0.008308961405787095,0.400502470390983,-0.5028493976063577
0.5321836550152922,-6.660935701611683,5.280768413113232,-0.347309558409844,-0.4736280451790473,-0.41025871194532054,-0.023600916062761903,0.28869503409895053,-0.37828571995332344,-1.9894485078499324,5.285059292734028,7.3134957952239485,-0.3369796936365633,-0.006335468463235077,0.9692720477481847,0.20883684319537993,-0.36136081968083994,-0.32123527815260233,0.4562202185347649,-7.487908275427351,4.775627943747258,-0.13288324962704479,0.5261871850589237,0.21294667381605778,0.14953416910220196,0.4058493143102208,-0.45854782142197303,0.023149074013212576,-6.807777539070927,5.14995879330483,-0.13657984175717944,-0.43147273849843815,0.20285817137656126,0.049965753302716964,0.582719255311439,-0.6162244788039292,-0.3516934014453566,-7.332947213637524,6.071331882950186,-0.31253453011096516,0.5852064042164054,-0.44064008817903005,0.004430060781629448,0.41258330921862074,-0.5139235439359467
0.4953849454155986,-6.540186643772715,5.435687266161526,-0.2841943022099267,-0.37607222542187263,-0.30398370852342244,-0.036497207240803936,0.29138123212495554,-0.36967646005387544,-2.0778371007309,5.279163055764171,7.10196592399977,-0.3556929267837328,-0.19954418188831025,1.0325184585539122,0.18787577181073434,-0.37946216193672394,-0.3208025346452681,0.3077801077516607,-7.395942458249059,4.8075755753093725,-0.16006888558548368,0.6048559857612058,0.34354526499758564,0.14986281631190476,0.39943216805134213,-0.443823031919107,-0.18397254350664466,-5.612899077923182,5.712472422410965,-0.16958772737585853,-0.5731041357055077,0.3342701293680528,0.039574113358339415,0.5703079889007302,-0.605574704423745,-0.7652227887958836,-7.665404300921111,5.998178909070701,-0.22505764257064792,0.5402020560610099,-0.3640207909076073,0.0005029861091099949,0.40261175395833626,-0.5026667235053124
0.765663321417341,-6.248105351267739,5.049611383201345,0.03442459068365257,-0.17450095162792498,-0.21939114907901724,-0.032592403066119414,0.28771655380170225,-0.3694545295592514,-1.574373063309802,5.26211300522785,6.805943162060157,-0.08473130360647903,-0.4063086614911443,1.1856765837341232,0.17390795044246488,-0.3911025297834615,-0.33004379904018466,0.35128067100660304,-7.457869398548169,4.403333111005222,0.11522802530740131,0.7701890680840937,0.4933382189588721,0.1618060989182993,0.39499545450740803,-0.44822973051475257,-0.32775074378083663,-6.33630633017385,5.194877984684811,0.12013738251087698,-0.8013658547740399,0.49845398685105097,0.03723936270972564,0.5674122215251307,-0.6121344028707173,-0.8896502495141084,-6.986990138516844,6.2585998903136355,0.10137607504641956,0.36187108959669834,-0.2527663478160829,0.00605817360756482,0.4020685021884916,-0.5105177414247652
1.3364123283992242,-6.080921519741795,5.429212944376348,0.1105459128461619,0.08360548348721035,-0.15283881105556457,-0.03195972070572827,0.2860263527789755,-0.3902113695772701,-0.9223987884533689,5.493531152086569,6.384278692976143,-0.01380527763924282,-0.5295561068963603,1.375171465795838,0.1489146245292786,-0.3927925911476272,-0.34203300674472475,-0.11576636041464207,-6.69721745944856,5.445897385624588,0.1567001665817058,0.9606620260239597,0.5440153064517641,0.17397725819027157,0.3981071036934239,-0.4544355548209548,-0.24946857820132418,-6.842742122402103,5.383983730648077,0.18898007371467598,-0.9711764997783059,0.5434536893951079,0.024575970827231883,0.5689973258265594,-0.6243553635687961,-0.4747538042944194,-6.596733759659912,6.271872891878484,0.1542873330378922,0.11425529839096348,-0.18444959153830195,0.004104523623890152,0.4103885935653924,-0.5224666706329123
1.035913120413792,-6.440199056656074,5.497806205050679,0.15799066177580223,0.2540400271934467,-0.10576594626436672,-0.03732235239381933,0.29335281678352715,-0.38920191647390673,-0.9884745804929737,5.791222215740704,5.998620017134655,0.01967367969844995,-0.5435237661308954,1.49745759932327,0.12912077019238316,-0.4036459817319535,-0.34684507971942347,-1.1160357655292465,-6.197841815035292,6.236411552295565,0.1488363496987481,0.9530095960037136,0.5385750207224529,0.19326950764694123,0.39495562576289567,-0.4540135515567222,-0.4412571101315425,-6.68399148961095,4.863898438686787,0.21026947780696637,-0.8400608315065107,0.5300406934569984,0.024767744773878317,0.5682706216398876,-0.6270473951025008,-0.226535853977397,-6.865905483982243,5.794593091180025,0.1795958510591239,-0.10003497534810606,-0.10349893967308454,0.009951421852098944,0.40813318776722973,-0.521042647882187
0.3215559560223556,-6.537670208402814,5.860064816328301,0.037269199838842235,0.1770717403925371,-0.07914581756941036,-0.029780427821371594,0.2894458215531682,-0.3943686660336842,-1.306930501182213,5.551621791261939,6.227644373930096,-0.11976500199278066,-0.4572404255323129,1.4691789184247432,0.10416010101605294,-0.41605236934217554,-0.3569655936754796,-1.9728805207326632,-5.993054466402685,5.905856513667467,-0.0634096861832349,0.8525748352044907,0.4768546481572547,0.19448891142344654,0.38810473675971247,-0.4554037548857026,-0.5266807126070817,-6.8984514742632,4.399121197410865,0.013891393883360878,-0.4960862313804021,0.48643271794130744,0.01798388471920278,0.5585709265572254,-0.6340353309251853,-0.17370723537299254,-6.301707448031088,5.135863354985273,0.05546073930353296,-0.08890774416855912,-0.07912082234003634,0.0017653352448192459,0.40040251575889657,-0.528554358763051
1.0484520895938372,-6.958581066830488,6.171040161483685,-0.10419182714024215,-0.0816143160017209,-0.1100618424466406,-0.030029389064108396,0.2852964312734969,-0.3948603321872726,-0.3913356027265791,4.4534206963142005,7.395565620452568,-0.231829150521361,-0.3993123766283458,1.1608503882921202,0.08851931190158449,-0.4195414447108013,-0.3597213982673865,-0.8718229120658033,-7.669777710334818,4.951982383918412,-0.2703533497127505,0.5350347183695604,0.42566810813508266,0.21015230077950414,0.38893712962660915,-0.44817307158495706,0.8423470635951145,-7.8078949003541105,4.820515131616017,-0.20196034139132987,-0.14928144645522684,0.46807894544332235,0.024678275080755662,0.5602205946448903,-0.6290228458241911,0.5762107887647819,-6.634174373285068,4.900473703115314,-0.07555974482735668,0.033016929841526245,-0.13051784442927516,0.008644873920119138,0.40253100689864013,-0.5254291216387537
1.532335540106882,-6.055372015547108,6.359515864433337,-0.2325253452550618,-0.37159469049756255,-0.06423076943362128,-0.041051558863718064,0.29410025901739356,-0.4033445590208955,0.38633005712252577,4.220838979530182,6.8464080468407165,-0.30967570431618496,-0.4914132171850668,0.6818403128072563,0.07508368190531897,-0.4193349348167023,-0.36059714838419465,-0.10779405499689779,-7.374728345491652,4.862478583476053,-0.379639888449692,0.11549353515756393,0.40581709279639017,0.21726300083670075,0.396838810593375,-0.44122458062676795,1.9003652930481347,-7.546830076005126,3.7128189984072146,-0.3124781357661288,0.1864114937497615,0.4699753412511208,0.03291154736809489,0.5664911326084052,-0.6215829701470947,1.1180264560382576,-6.667395599083046,4.8979844772359735,-0.22003560665688673,0.0883387264406587,-0.1439068079313077,0.009721558038311779,0.4088684979928666,-0.5200649554463029
0.7811605284823759,-6.476248993173941,5.488191760538223,-0.16543104113207807,-0.6703833917071453,-0.026328422478014507,-0.04563800290080392,0.2979996546636615,-0.39306488778643744,0.004689474587140814,4.149764882222182,5.660887603420653,-0.2180875963217749,-0.5121151904094293,0.2546584327378624,0.05644963434535722,-0.41903281381070223,-0.3707122148906897,-0.9742706625424167,-5.5290434216967075,5.230002333482035,-0.2497084445296701,-0.31216044832373946,0.4202880443349474,0.20209056518997803,0.39992707522141735,-0.44728341484906187,0.7278931954794183,-5.959309390181303,4.2470787099645,-0.1821328655469011,0.6278997563904726,0.463739201101718,0.03270656919611823,0.5696638025434014,-0.6205927729785549,0.4192828512385698,-6.731709213120571,4.837828161557816,-0.15683594572561207,0.21295487770024604,-0.07498946407346913,0.00021485391599120702,0.41408959163441983,-0.5253692665153094
1.3511008049063782,-7.088832839267273,5.223153894722348,-0.09649672227148143,-0.7688749625972825,-0.03941859710705141,-0.06392890884505734,0.2906824062671981,-0.38785715683688493,0.5298825291545164,4.090254636750227,5.973556591387252,-0.13525893641764744,-0.33326251538355367,0.05410810313061676,0.05983114458293542,-0.4259565358180798,-0.37698321888348924,-0.6392065021296451,-6.047491047258305,4.600084450623144,-0.20706233138165397,-0.5571405210236949,0.32522397222412736,0.2049952959211676,0.3959599972756727,-0.45262328459950235,0.19830924623902696,-7.886287307066667,4.676322832230715,-0.19836072010432004,0.8885309232607189,0.3446721809562677,0.05420298470159733,0.5660954549213024,-0.6187919940738423,0.15685463129120908,-6.68320196980233,5.781470322043413,-0.06903395442722382,0.2978788936113735,-0.06436273741074125,0.010635182095355081,0.4093475873436909,-0.5298365296529656
1.9090552701369354,-7.714652507082025,5.611508807928703,-0.1734034290242997,-0.6580309166766894,-0.09597366442545785,-0.06372020928474545,0.2994791774468312,-0.3963950923781444,0.8733785541941838,4.245451220058809,7.032745225861438,-0.21453367813479637,-0.13772154043419463,-0.06242081219744021,0.0656793542732336,-0.41935121222946997,-0.37688309541942194,-0.29802078195603765,-6.9017677502154955,4.298738690163156,-0.28586063839666565,-0.7305203569795415,0.2032998420632292,0.20769908088558967,0.40260897093756504,-0.44807846016839087,0.020576949263911584,-7.839458117456241,5.776884554008455,-0.3056356329849159,0.8757695419980251,0.21713172649679538,0.0754181634863334,0.5715393778489618,-0.608901258899479,-0.06510278333168885,-6.779716706768354,6.521999396033285,-0.1420663184092948,0.18740835530069253,-0.1286880987975122,0.01998815340916279,0.41438156482910565,-0.5262392945648144
1.7179149828860143,-7.462506115943637,5.897677158099581,-0.32984176112150543,-0.4970198895879584,-0.14671981802823136,-0.07291517609823871,0.30532982191357505,-0.37998750152444144,0.5835997951416365,4.736942617995777,6.729018412756421,-0.28595638559063435,0.02850954736725301,-0.15426153754858923,0.06445667757503774,-0.41543691817462186,-0.3761998204060712,-0.44745944260886406,-6.8106679262989065,3.825015952424449,-0.25259030427912854,-0.7695323745131156,0.12060716278224591,0.19598343967889564,0.4062752063571188,-0.4468380912859927,-0.6461373442284466,-8.075092594313261,5.54142380826449,-0.2405774617672989,0.6567873345953316,0.13577751460298565,0.08334386988059435,0.5748898250053246,-0.6039058731281505,-0.37505941298682627,-6.762424148669599,6.880815371615796,-0.29569667241934183,0.036017702879479724,-0.23286835892498134,0.012745978800172421,0.41884786596299756,-0.520817218014793
2.0441741634438113,-7.023411802199465,5.7695970901604605,-0.3676845625808095,-0.3285366833380706,-0.17499584703637672,-0.09296104106262779,0.3102300623285097,-0.3859911738760375,0.7897702008460373,5.120991536613142,6.464132493520393,-0.3159772493093879,0.18751193611932057,-0.18372360206749905,0.056849019549455544,-0.4265515598384582,-0.38378813010259166,-0.04354235231565688,-6.709791554454115,3.980417721534393,-0.29830105500503834,-0.686606495260775,-0.002571066431767183,0.17913145919661516,0.39841641912617654,-0.44934045158851016,-0.41314745432485206,-8.356675993006645,5.56389178298395,-0.3145767527421898,0.3696403760042031,0.0013465606746651789,0.07727369650146945,0.5705267628135072,-0.600391153728583,-0.22051274898039244,-6.912855774045891,6.87943139649706,-0.3274429188959466,-0.0899385765492376,-0.2672015447096057,0.0019186513611833696,0.41065536917340084,-0.52123035828318
2.0566221968658427,-6.959959623078577,5.46471983748697,-0.5907190770917982,-0.12727011205040062,-0.1353441336944185,-0.08268429127372647,0.313149539097218,-0.3816425522354151,0.6189451878033608,5.471847286533634,7.300126506032862,-0.5885491408317527,0.25899119494616873,-0.14449015249338376,0.06145615933370854,-0.414844815234966,-0.38521959082400875,-0.023297676289908222,-7.084824497670094,4.195398542454243,-0.6166502840680606,-0.5614388887788261,-0.10906541361301207,0.16893495542356668,0.4102767727342845,-0.4367296936375839,-0.4213647158054625,-7.872105219778771,5.211819478688229,-0.634615662710758,0.08478082759252878,-0.11960340827046385,0.07682597433119934,0.5802614286123333,-0.5881453903533004,-0.22037243563360912,-7.13424957326562,6.7308315288416045,-0.5440648384234273,-0.26689842544995696,-0.2747079463951193,-0.005425653920263184,0.42415600465072256,-0.5082385981006103
1.6995147691626897,-7.483428154969588,5.170843102203097,-1.0040378302053685,0.03772042597822336,-0.10389631981700206,-0.08992929093732281,0.32900976355477995,-0.3671890193444489,0.15255992512369362,5.288092603855956,8.596479492148235,-1.0283012865463563,0.23937627237401618,-0.05809496298672985,0.07449536838145449,-0.3964757985241137,-0.39951269484257673,-0.2960885621909933,-8.133413930966396,4.237701409764194,-1.0796972283792972,-0.42429117255620485,-0.09749384980574173,0.17210244669494598,0.43301479851056296,-0.434331838587122,-0.5147859056419679,-7.967386125943091,4.442872803681413,-1.1037555890805395,-0.06699400700546086,-0.14055117458357694,0.08363366843478824,0.6038882650602789,-0.5850234676358088,-0.12667858018750874,-7.105803419873684,6.245309120049953,-0.9604177490166061,-0.3455099756900984,-0.33597082924787225,-0.003965550645459297,0.44489440261871704,-0.5036078730873985
1.8036349999093648,-7.951627508318533,4.924552816767623,-1.1519274815582456,0.11351815333592805,-0.110494906493819,-0.08401023784280773,0.33729642793387904,-0.35573449574316013,0.17539969155627322,4.399541096864255,8.515886829646716,-1.1258955200986795,0.169181794184963,-0.06733258833641216,0.07002225143548617,-0.3868351416852136,-0.4074356943694138,-0.29247397019115295,-9.152977599691685,4.796079142048626,-1.117095132058914,-0.4704252647248833,-0.0682511858856747,0.16241279118571272,0.44149263814387757,-0.41875432937466484,-0.15080824520899688,-8.860590697870029,4.74204955154721,-1.1114377035450074,-0.04523168672458517,-0.10442109656888948,0.07648701290789421,0.6141351286634302,-0.5653306719460566,0.4448371529669223,-7.760000113317155,5.534946274659948,-1.1214273544987898,-0.36729385856414953,-0.37100761268187527,-0.016897376697467752,0.4574745862654713,-0.4854500620856688
1.9086118201810598,-7.932160672634181,4.463752459158079,-0.7849922002081788,0.12207625791966757,-0.1486289543314264,-0.08372064244282121,0.3524264676076465,-0.3483977523256397,0.35325975630622564,4.327581353671871,7.73902365603065,-0.7732412344163287,0.1311025957989117,-0.092429308085149,0.07894664209051516,-0.3899670008025862,-0.4221084787985997,0.14636207490148495,-8.16114076282168,3.570866580328352,-0.7793421738180824,-0.48230791401588174,-0.053965744506628555,0.1594967592757882,0.44347783135661223,-0.4158320400651655,-0.16519191651425452,-7.92341691040604,4.052073226921371,-0.7922415809535867,-0.04345678510183456,-0.0921554780833701,0.08122993490062376,0.6148204779779307,-0.5597979018181735,0.6871422043786137,-8.224108361845717,5.159104257937326,-0.7464880440955164,-0.36362831935173645,-0.3092671428294347,-0.019795512955530052,0.45896849968502984,-0.4829876409347347
1.9167377951711255,-7.7400400844136374,4.401473158670248,-0.5882162411943626,0.1544627956158877,-0.10757631557038924,-0.08392684288753752,0.3602320461931585,-0.3413094384695809,0.30336247462341154,4.640128040903044,8.113527214175942,-0.5903583402981715,0.09163020803422954,-0.05297932035230654,0.08127887140478447,-0.3708160636146042,-0.4316903309289361,0.20495078187323196,-8.029766989936636,4.045454593335768,-0.6116337570598791,-0.37753810188688114,-0.005314081432169012,0.15852273228366873,0.4613383703894235,-0.41262090305842647,-0.11064827156072216,-7.31063037773514,4.611174785125566,-0.6161079050201409,-0.19813582345979144,-0.03715108378773568,0.08146535737663804,0.6321345813229634,-0.5531579905525531,0.7257526693596982,-8.442621337310374,5.0640183949790165,-0.5655286302265586,-0.3588019424107832,-0.2256259150836205,-0.024472774284817325,0.47586185685898486,-0.4775823883179984
1.5998063211992004,-8.163090174158704,4.625642654618461,-0.5966934094110347,0.1108408333280855,-0.06401074678966735,-0.07999399862574669,0.3660852825746017,-0.33668375691164265,-0.10743359333586419,4.838171531748563,8.832569332763526,-0.6092374047792135,0.027156128255738793,-0.061982096592859276,0.07785097969375993,-0.3715758957655381,-0.4331175612957292,-0.18278094979015136,-8.580431550601972,4.06109652555551,-0.6274403214859631,-0.3553501389216054,0.06754210517882245,0.15222613113576244,0.4612021636613842,-0.4030636888873711,-0.4468403153862291,-7.932226960790947,4.811448409896209,-0.6312564007973702,-0.2840788488007056,0.02900353746383113,0.07481200767160083,0.6323948744668988,-0.543026074781994,0.8324310946457028,-8.315123072753511,4.544478135331617,-0.5841236782321891,-0.3340473128945714,-0.17325167728311983,-0.03659245362843699,0.47695850023964265,-0.4665114187622865
1.765442359038607,-8.032730785648965,4.324986060118639,-0.782851048578937,-0.054957305813840715,-0.028525059991923618,-0.09169937391221557,0.37634528068086004,-0.33515424677356004,0.13016337399239675,4.963134125206925,8.797168150713013,-0.8037238364534977,-0.03788422326371441,-0.13837575335721375,0.07407368631226816,-0.3639641130772744,-0.4461434588470224,0.1757057249553195,-8.542561503153854,3.535898269746133,-0.8185348739442182,-0.3222477587639793,0.1279238853917241,0.14468164134423955,0.4685869453112651,-0.39749454364153763,-0.22933978666622518,-7.9657945447630665,4.571596196310856,-0.8284949445230297,-0.45677494421763604,0.0878589154995509,0.06620953015295566,0.6448878831840396,-0.5372188154684584,1.244526199603604,-8.47675005188713,4.321062896532028,-0.7765042198682829,-0.2012424599529883,-0.17522220943652955,-0.043047204775446435,0.4880103067692594,-0.4625593017268101
2.3121336616079584,-8.253797476589506,3.7754133255278255,-0.9405528317208365,-0.13774599471595522,0.047605079609513046,-0.08846169995116589,0.3829227264654464,-0.32271147637172554,0.7370095719983256,4.087304175613678,7.867945895906748,-0.964258447601865,-0.06632934243670777,-0.13377522135790107,0.07741496601813745,-0.34866970111153184,-0.452501234130036,0.6525203407179984,-7.918645441780927,3.3262699387386485,-0.9606852769002935,-0.22604237497866533,0.16252058932643226,0.14790268051840672,0.4801905668684654,-0.3869068909557079,0.18237620019999048,-8.040282849680368,4.3940452411027096,-0.9628075259321792,-0.6785180264887005,0.11867913895978205,0.06429538779568722,0.6568321773666944,-0.5259163628800018,1.2979936699800316,-8.972223115150214,4.470765183495993,-0.9406939246989188,-0.1187288681352655,-0.1302207664155895,-0.04601969820566349,0.4995142835829718,-0.45008524640077907
2.238348716765367,-9.19058690360167,3.761927607942405,-0.7214799063469548,-0.08189004314768643,0.060001543562306824,-0.0908149857515588,0.3902329433091075,-0.3051152310722214,0.6727946338110916,3.9948233479635937,7.745980940199113,-0.7494186046828296,0.0697554630743809,-0.06491449076684924,0.07611598468500255,-0.34416799581164703,-0.4615924995474109,0.43996595656459325,-8.35449770833178,3.3465513131164215,-0.7777140772976673,-0.1173342244143697,0.07201069998351946,0.14819765085535566,0.48470738336405356,-0.3767073106581906,0.1477078972968327,-9.659390888043681,3.220620598572089,-0.7751960263002653,-0.8476428685952797,0.04949028432777478,0.053240757968456086,0.6593224615448615,-0.5169200298995668,1.1339236855328398,-9.197187057894137,4.405307340615201,-0.7226368108417339,-0.16777947664765192,-0.0693747522253465,-0.04908170985358416,0.5029627780700608,-0.4390773029306973
1.8388593117306187,-9.440380507126592,4.118917225484733,-0.468759553114333,-0.08769572474756109,0.02948438613996863,-0.09060990471699011,0.38804226788222357,-0.31317534031114036,0.12974534722274012,3.9348539038846635,8.136332433427647,-0.5095060132832572,0.2688447682430743,-0.03744235416649255,0.07219119112791396,-0.33171444557761687,-0.46101547606199433,-0.15829300746001176,-8.801837528018877,3.948036045521592,-0.5435243275729543,-0.07814485714346969,-0.07722039644675832,0.1372656410489056,0.492157892809054,-0.3652622727988544,0.1160099531128822,-10.314478289512214,1.7978611139153475,-0.5374266469523589,-0.6963489501260964,-0.0829751638794896,0.03994576163736429,0.670144790655026,-0.5134748253791439,0.8711065982869717,-9.180006473539091,4.316377326256624,-0.4782311024960119,-0.19784576053807354,-0.06389736790009573,-0.06262443648347982,0.5106669908395025,-0.43141390746712605
