# sampling frequency: 40
# units are seconds/meters/radians/a.u.
seg1_acc_x,seg1_acc_y,seg1_acc_z,seg1_gyr_x,seg1_gyr_y,seg1_gyr_z,seg1_mag_x,seg1_mag_y,seg1_mag_z,seg2_acc_x,seg2_acc_y,seg2_acc_z,seg2_gyr_x,seg2_gyr_y,seg2_gyr_z,seg2_mag_x,seg2_mag_y,seg2_mag_z,seg3_acc_x,seg3_acc_y,seg3_acc_z,seg3_gyr_x,seg3_gyr_y,seg3_gyr_z,seg3_mag_x,seg3_mag_y,seg3_mag_z,seg4_acc_x,seg4_acc_y,seg4_acc_z,seg4_gyr_x,seg4_gyr_y,seg4_gyr_z,seg4_mag_x,seg4_mag_y,seg4_mag_z,seg5_acc_x,seg5_acc_y,seg5_acc_z,seg5_gyr_x,seg5_gyr_y,seg5_gyr_z,seg5_mag_x,seg5_mag_y,seg5_mag_z
1.832998,-7.371274,6.193286,0.005963,0.002094,0.000417,-0.325928,0.417969,0.01709,-0.044007,8.402737,5.019866,-0.012421,0.006648,0.004622,0.074707,0.398438,0.527344,-1.575836,-7.069902,6.729076,-0.019966,0.006151,0.005377,0.634521,0.139648,-0.205322,2.186559,-7.253783,6.341795,-0.006999,0.000189,0.010712,0.093262,0.317383,-0.586426,0.4804,-6.090247,7.693513,-0.022929,0.006125,0.002513,-0.246338,0.404053,-0.390137
1.852894,-7.381706,6.209198,-0.005706,0.00118,-0.001145,-0.322754,0.416748,0.011719,0.011366,8.382772,5.03791,-0.008819,0.001527,0.003694,0.079102,0.398438,0.529541,-1.568087,-7.05948,6.699095,0.013215,0.002633,-0.002707,0.63916,0.137939,-0.211182,2.175836,-7.198182,6.352758,0.006789,0.005182,0.005336,0.095459,0.314453,-0.592285,0.433929,-6.141838,7.651228,0.006344,-0.000522,-0.002411,-0.242676,0.403809,-0.397461
1.818023,-7.408208,6.211626,-0.000209,0.001523,-0.001375,-0.319336,0.416504,0.011475,-0.038366,8.408411,5.051414,-0.006433,0.011243,0.005443,0.073975,0.398438,0.530762,-1.578959,-6.983752,6.741394,0.00264,0.008433,-0.001206,0.642578,0.137451,-0.209717,2.161429,-7.1723,6.355807,-0.007793,0.002225,0.011125,0.098389,0.318848,-0.59082,0.47413,-6.075024,7.689419,0.01742,-0.007709,-0.010014,-0.239746,0.405518,-0.395264
1.835793,-7.372882,6.21275,0.006792,-0.000972,0.000604,-0.321533,0.416504,0.016602,-0.035646,8.379411,5.036952,-0.013394,-0.000866,0.004967,0.076904,0.391113,0.534668,-1.572585,-7.02702,6.735967,-0.020822,-0.000821,0.003732,0.640625,0.136475,-0.203857,2.180242,-7.224286,6.339917,-0.00881,-0.001984,0.010274,0.096436,0.319336,-0.58252,0.463806,-6.090563,7.658495,-0.015807,0.00174,0.005505,-0.241455,0.403564,-0.390625
1.841566,-7.364704,6.222959,-0.002392,0.00376,-0.001573,-0.314697,0.424316,0.026367,-0.006298,8.395563,5.025367,-0.007715,0.010845,0.004611,0.085693,0.39502,0.533447,-1.547709,-7.056583,6.715074,0.003022,0.006164,-0.001331,0.646973,0.141846,-0.197754,2.170549,-7.222758,6.343516,-0.002899,0.002328,0.00738,0.103271,0.322754,-0.577393,0.420686,-6.111016,7.665211,0.009413,0.003466,-0.009533,-0.236816,0.4104,-0.383301
1.823531,-7.410481,6.191091,-0.005765,-0.000965,-0.000323,-0.317139,0.416504,0.016357,-0.031036,8.406122,5.07338,-0.012515,0.005513,0.005794,0.080078,0.406494,0.527832,-1.611991,-7.007234,6.708109,0.001962,0.005222,-0.000881,0.645996,0.136963,-0.205566,2.168152,-7.182011,6.35691,-0.0016,0.003453,0.006545,0.103027,0.314941,-0.584717,0.471735,-6.10541,7.684573,-0.007697,-0.010691,-0.000307,-0.236572,0.402588,-0.390869
1.842443,-7.397726,6.199955,0.012884,0.002946,-0.001358,-0.319824,0.414062,0.017578,0.003208,8.381916,5.02068,-0.006503,0.005185,0.003481,0.080078,0.394531,0.531982,-1.558056,-7.02792,6.729064,-0.011177,-0.002292,0.001509,0.64502,0.134521,-0.202148,2.170502,-7.216362,6.343092,-0.013785,0.001167,0.01375,0.101807,0.313477,-0.582275,0.472934,-6.109292,7.649907,0.011512,0.008551,-0.0051,-0.237305,0.401611,-0.386963
1.817102,-7.340289,6.210111,-0.001634,0.001015,0.000171,-0.324219,0.418457,0.019775,-0.040188,8.409019,5.049917,-0.010491,0.010477,0.006197,0.081055,0.400879,0.534668,-1.57795,-7.033955,6.700914,0.00409,0.010655,-0.000788,0.638672,0.136963,-0.206055,2.180868,-7.232092,6.332279,0.007914,0.002519,0.004136,0.093994,0.319824,-0.582764,0.418587,-6.068654,7.697154,0.002897,-0.005926,-0.005082,-0.244629,0.405029,-0.391846
1.853671,-7.403783,6.217633,-0.009301,0.000443,-0.000534,-0.322754,0.413818,0.017822,-0.007336,8.382246,5.053147,-0.007678,0.000107,0.003262,0.078857,0.4021,0.533447,-1.587222,-7.013344,6.758028,-0.006332,0.000274,-0.000525,0.639404,0.135742,-0.206543,2.181893,-7.173122,6.361358,-0.008711,0.002941,0.01207,0.094727,0.313721,-0.587158,0.49299,-6.115529,7.660062,-0.006681,-0.00436,0.001867,-0.243896,0.402832,-0.391357
1.840449,-7.396644,6.190732,0.010981,0.003153,0.000277,-0.318848,0.416504,0.013184,-0.016031,8.407603,5.055541,-0.005492,0.012251,0.004462,0.081055,0.395752,0.528076,-1.570135,-7.028421,6.691472,-0.006706,0.006093,0.000592,0.644287,0.13623,-0.209229,2.168551,-7.231985,6.335147,-0.012666,-7.9e-05,0.011416,0.099854,0.313721,-0.589355,0.424697,-6.109662,7.666069,0.002729,0.007418,-0.008206,-0.240723,0.404297,-0.394043
1.826605,-7.345329,6.218404,0.000339,0.0003,-0.001005,-0.320801,0.416016,0.022217,-0.040376,8.384403,5.027692,-0.020767,0.00218,0.006026,0.06958,0.386719,0.531982,-1.579643,-7.039977,6.719861,-0.000756,0.001669,0.000636,0.639648,0.135498,-0.198486,2.178348,-7.217979,6.345305,0.005365,0.004137,0.005575,0.0979,0.314941,-0.579102,0.465288,-6.110797,7.659129,0.002734,-0.013259,0.001979,-0.240723,0.402588,-0.385498
1.841802,-7.396991,6.201022,-0.005846,0.002195,-0.002062,-0.314941,0.414307,0.021729,-0.003846,8.381029,5.026819,0.004522,0.009993,0.002782,0.067627,0.393555,0.530273,-1.555632,-7.022927,6.726794,-0.002077,0.004718,-0.000949,0.647949,0.132324,-0.203613,2.144001,-7.207012,6.363672,-0.009554,0.001809,0.012152,0.10376,0.312744,-0.583008,0.470042,-6.079138,7.686616,0.012217,0.008015,-0.008351,-0.235596,0.399902,-0.388428
1.81739,-7.373159,6.187471,0.009768,0.001309,0.001181,-0.321533,0.414307,0.011963,-0.054852,8.428321,5.044291,-0.0158,0.006636,0.0052,0.079346,0.387207,0.528076,-1.586993,-7.012655,6.724181,-0.004874,0.006044,0.000881,0.638672,0.137695,-0.211426,2.17871,-7.199413,6.33793,0.001233,-0.004776,0.006248,0.097168,0.313232,-0.591064,0.431394,-6.077581,7.671998,-0.014153,-0.003641,0.00114,-0.243896,0.400879,-0.395752
1.839224,-7.362458,6.215216,-0.006242,-6.5e-05,-0.002251,-0.318115,0.41333,0.016846,0.009269,8.381389,5.062437,-0.015735,0.002394,0.004494,0.079346,0.392822,0.530029,-1.56296,-7.03261,6.723024,-0.011728,-0.000233,0.000656,0.645752,0.134766,-0.205078,2.204599,-7.203757,6.345352,-0.017256,0.005622,0.014437,0.101074,0.311768,-0.583252,0.486688,-6.117661,7.646906,0.004741,-0.00621,-0.004454,-0.236084,0.401855,-0.390869
1.831165,-7.423547,6.160928,0.001891,0.00226,-0.000899,-0.317871,0.419434,0.013428,-0.047354,8.399542,5.024382,-0.000287,0.012709,0.004408,0.07666,0.390869,0.52832,-1.578957,-7.043996,6.706822,0.000372,0.00702,9.9e-05,0.643799,0.138916,-0.207764,2.154347,-7.238367,6.344229,0.002561,0.004527,0.006943,0.098145,0.320312,-0.59082,0.459434,-6.099508,7.685761,0.002307,0.003026,-0.005491,-0.239258,0.407471,-0.393555
1.841863,-7.36358,6.235291,0.010036,0.001932,0.001734,-0.310791,0.413574,0.020264,-0.021402,8.414127,5.043785,-0.008793,-4.4e-05,0.003891,0.075439,0.395508,0.530029,-1.583134,-7.006774,6.723172,0.005099,0.001446,-0.000379,0.651123,0.133057,-0.203369,2.159759,-7.15822,6.367645,0.003885,-0.000772,0.006042,0.107422,0.311035,-0.582031,0.447874,-6.119158,7.641961,0.001725,-0.000388,0.003746,-0.229248,0.401123,-0.385498
1.829632,-7.400974,6.213892,-0.010525,0.001435,-0.002927,-0.328125,0.413818,0.011963,-0.01196,8.401463,5.037459,-0.01489,0.010329,0.005126,0.076904,0.397461,0.535889,-1.570843,-7.005374,6.727144,-0.010002,0.006789,-0.0005,0.635254,0.134766,-0.210449,2.195011,-7.215999,6.342423,-0.019047,-0.00297,0.013932,0.088623,0.314209,-0.588623,0.435953,-6.067328,7.677511,0.012126,-0.004514,-0.013853,-0.249023,0.400391,-0.396729
1.82495,-7.420571,6.182502,0.003524,0.001059,0.000947,-0.318115,0.422852,0.020752,-0.043787,8.388967,5.04243,-0.013347,0.002929,0.004694,0.06958,0.397705,0.531006,-1.593677,-7.051666,6.721378,-0.010888,0.003186,0.001303,0.645752,0.142334,-0.203613,2.188911,-7.229281,6.3616,0.003021,0.004518,0.006189,0.100586,0.322754,-0.581787,0.491851,-6.099258,7.678267,-0.026844,-0.003061,0.00523,-0.239014,0.411865,-0.390869
1.844395,-7.35367,6.226318,0.007598,0.001081,0.000247,-0.313965,0.42627,0.017334,-0.003615,8.3941,5.045054,0.001388,0.005995,0.00413,0.078613,0.388428,0.52832,-1.561456,-7.050398,6.711535,0.003562,0.000555,-0.001472,0.648438,0.147217,-0.20459,2.154615,-7.203864,6.35117,-0.005395,0.006408,0.009722,0.103271,0.327148,-0.58667,0.434838,-6.15314,7.644879,0.016612,0.009041,-0.006062,-0.235352,0.414307,-0.389893
1.821016,-7.363178,6.189358,-0.007469,0.000556,-0.000611,-0.321045,0.416748,0.01416,-0.034664,8.412413,5.033249,-0.017674,0.008839,0.005592,0.070068,0.393555,0.526367,-1.583537,-6.996393,6.709199,0.002028,0.009632,-0.000966,0.640869,0.138184,-0.207764,2.144963,-7.202006,6.355109,-0.002549,-0.006129,0.007657,0.098633,0.317627,-0.587402,0.42997,-6.052008,7.695273,0.016269,-0.013367,-0.006998,-0.241455,0.40625,-0.394531
1.843301,-7.407804,6.191545,0.004131,0.001981,0.000494,-0.316162,0.421143,0.016846,-0.006998,8.367864,5.053789,-0.01276,0.001439,0.004579,0.070801,0.392578,0.532715,-1.5852,-7.023884,6.720547,-0.015381,0.00054,0.001444,0.646973,0.14209,-0.211426,2.19599,-7.188772,6.312554,-0.006163,-9.4e-05,0.011766,0.101807,0.323486,-0.586426,0.495293,-6.093079,7.670881,-0.020765,0.001033,0.002019,-0.237305,0.410645,-0.394775
1.829215,-7.356996,6.21866,0.001143,0.002167,0.000653,-0.322266,0.429199,0.016113,-0.022812,8.413135,5.045055,0.000176,0.011643,0.005273,0.082031,0.397461,0.527588,-1.565953,-7.061475,6.697946,-0.005895,0.005283,-0.001129,0.643066,0.146729,-0.205078,2.16527,-7.225523,6.346501,-0.008785,0.008309,0.010113,0.0979,0.326172,-0.585205,0.410636,-6.126221,7.66639,0.000286,0.010017,-0.005159,-0.23999,0.411377,-0.392334
1.831487,-7.390983,6.205219,-0.00217,-0.000229,-0.000935,-0.321533,0.416992,0.009766,-0.035038,8.415139,5.051469,-0.014559,0.00053,0.005376,0.078857,0.394531,0.526855,-1.583897,-7.016697,6.729308,0.010365,0.003102,0.000222,0.643799,0.136963,-0.218018,2.1581,-7.196313,6.380747,0.004909,0.002721,0.007465,0.100098,0.31543,-0.595703,0.453499,-6.11358,7.655778,0.013371,-0.016204,-0.002115,-0.23999,0.404053,-0.400879
1.844345,-7.386203,6.204197,0.00711,0.004449,-0.000946,-0.314941,0.413574,0.022217,0.007544,8.39179,5.038757,-0.009652,0.009223,0.005275,0.078857,0.393799,0.534424,-1.556783,-6.999864,6.727805,-0.005417,0.005232,0.000414,0.648926,0.133057,-0.199463,2.180529,-7.194477,6.358945,-0.010454,-0.001077,0.01077,0.101318,0.311035,-0.580078,0.483131,-6.049667,7.702099,0.00876,0.004286,-0.007478,-0.235107,0.397705,-0.385498
1.815636,-7.370989,6.190571,-0.002369,-0.001359,-0.001029,-0.316162,0.422607,0.011963,-0.038818,8.373861,5.067931,-0.012994,0.006545,0.004937,0.07373,0.390869,0.520996,-1.603364,-7.041081,6.723396,-0.014762,0.006437,0.00319,0.647217,0.141113,-0.210693,2.178593,-7.207794,6.365131,-0.003688,0.002948,0.008931,0.103516,0.320068,-0.59082,0.42518,-6.112728,7.663921,-0.024473,0.002365,0.002833,-0.236572,0.406738,-0.394287
1.854497,-7.391114,6.212456,0.000538,0.00143,-0.000911,-0.314697,0.415771,0.015137,-0.008986,8.405571,5.047914,0.000306,0.003164,0.003852,0.082764,0.390137,0.533203,-1.580428,-7.04721,6.720702,0.000802,-0.001485,-0.003092,0.647217,0.137939,-0.208008,2.164682,-7.22435,6.353367,-0.009098,0.001801,0.011401,0.104004,0.315674,-0.588623,0.443622,-6.129191,7.646604,0.018672,-0.005663,-0.005713,-0.234131,0.405273,-0.391113
1.84311,-7.384706,6.195249,0.002581,0.000208,-0.001628,-0.314453,0.419434,0.014648,-0.033424,8.425342,5.051794,-0.017546,0.010632,0.006858,0.077148,0.398438,0.539551,-1.561135,-7.010985,6.714225,0.00341,0.007443,-0.000458,0.647217,0.138428,-0.209473,2.186984,-7.213549,6.345688,0.002579,-0.002611,0.007442,0.102295,0.318848,-0.5896,0.484273,-6.058389,7.697467,0.000553,-0.005037,-0.0081,-0.235352,0.406494,-0.396484
1.840138,-7.383651,6.235749,0.000256,0.003089,0.001287,-0.317383,0.416504,0.011963,-0.009481,8.366807,5.032031,-0.010373,0.001973,0.00478,0.084961,0.389648,0.533447,-1.581724,-7.011687,6.727012,-0.011267,0.002583,0.001805,0.644531,0.137451,-0.209717,2.168947,-7.164232,6.34689,-0.005062,0.005081,0.009501,0.0979,0.315918,-0.59082,0.475779,-6.12417,7.652607,-0.011678,0.006911,0.006261,-0.238281,0.404053,-0.395752
1.816669,-7.371374,6.2009,0.000737,0.00256,-0.000817,-0.315918,0.411377,0.010742,-0.039678,8.406576,5.047708,0.002302,0.009682,0.004071,0.084473,0.401123,0.531494,-1.572074,-7.055501,6.712681,-0.002987,0.006854,8.8e-05,0.645996,0.132812,-0.212402,2.159095,-7.227854,6.351283,-0.010915,-0.000366,0.01096,0.101807,0.310791,-0.590088,0.418083,-6.106156,7.677186,0.016118,-0.000333,-0.01146,-0.235352,0.399902,-0.396484
1.839336,-7.393975,6.20535,-0.000608,-0.000923,0.000453,-0.317871,0.418701,0.014404,-0.033586,8.385748,5.037307,-0.024856,0.000279,0.005628,0.071777,0.392578,0.537109,-1.589785,-7.01671,6.702221,-0.000681,0.003207,0.000931,0.644531,0.138184,-0.210693,2.192902,-7.223133,6.347277,0.000348,0.005519,0.007598,0.098389,0.318359,-0.588379,0.471186,-6.095067,7.666791,-0.003428,-0.011137,0.002895,-0.237305,0.406738,-0.395508
1.850961,-7.399697,6.223301,0.005022,0.001246,-0.002157,-0.332031,0.413574,0.012207,0.012362,8.370816,5.028237,0.003449,0.008268,0.003644,0.077637,0.403076,0.525879,-1.545718,-7.039633,6.710022,-0.002306,0.003647,-0.000843,0.633789,0.134033,-0.211182,2.146503,-7.215408,6.347591,-0.004806,0.004896,0.010706,0.090088,0.314941,-0.59375,0.460295,-6.102266,7.68378,0.002656,0.007139,-0.007019,-0.252441,0.402588,-0.398926
1.82686,-7.353757,6.212099,0.003862,0.001174,0.001958,-0.313721,0.410156,0.016602,-0.055268,8.434691,5.050357,-0.006374,0.009197,0.006989,0.078857,0.393555,0.520508,-1.601679,-7.014225,6.729022,0.003787,0.011591,2.7e-05,0.650146,0.132568,-0.208252,2.160837,-7.17079,6.366764,0.009636,-0.005275,0.001582,0.104004,0.3125,-0.588867,0.446344,-6.127565,7.691319,-0.012198,-0.00261,0.001462,-0.232422,0.397217,-0.393555
1.853775,-7.389999,6.213997,-0.011193,-0.001634,-0.001653,-0.320801,0.418701,0.015625,-0.002357,8.384273,5.060975,-0.023326,-0.001304,0.003408,0.076416,0.398682,0.530518,-1.579845,-7.010825,6.746018,-0.016929,-0.0039,-0.00066,0.640137,0.138672,-0.208252,2.191337,-7.175676,6.360651,-0.02872,0.001689,0.018071,0.0979,0.318604,-0.587891,0.452153,-6.109374,7.61355,0.02149,-0.000201,-0.003058,-0.242188,0.408203,-0.391113
1.816308,-7.392632,6.19956,0.010168,0.003757,-0.000646,-0.324951,0.419922,0.021729,-0.028069,8.367341,5.045565,-0.007067,0.015357,0.006506,0.073242,0.390625,0.531982,-1.552199,-7.063842,6.706954,-0.004823,0.006901,-0.000205,0.640137,0.139404,-0.201416,2.173471,-7.276337,6.333052,0.000216,0.002785,0.009258,0.096436,0.321289,-0.57959,0.450975,-6.036885,7.715453,-0.001817,-0.003837,-0.009786,-0.243896,0.406006,-0.385986
1.835597,-7.347136,6.241744,0.004831,-0.002722,0.001047,-0.32251,0.419922,0.018555,-0.019041,8.392043,5.034443,-0.001563,-0.002673,0.003784,0.073975,0.397461,0.524658,-1.586496,-7.015981,6.721409,0.0088,0.000858,-0.003616,0.641357,0.138916,-0.204102,2.151059,-7.160564,6.348102,0.01443,0.003869,0.003365,0.098633,0.320312,-0.587158,0.475859,-6.148868,7.661878,-0.023703,-0.000734,0.01031,-0.240723,0.406494,-0.391113
1.831812,-7.411284,6.21591,-0.013457,0.003578,-0.001578,-0.31958,0.416992,0.013916,0.015354,8.416408,5.050104,-0.011562,0.011862,0.004357,0.075195,0.391846,0.525635,-1.543138,-6.994413,6.693673,-0.007703,0.006685,0.001324,0.642822,0.13501,-0.209229,2.165779,-7.200255,6.338314,-0.024992,-0.005844,0.015688,0.098145,0.315918,-0.587891,0.432358,-6.106667,7.678045,0.026012,0.004215,-0.015064,-0.23999,0.399658,-0.395508
1.822733,-7.417296,6.187085,0.013844,0.001335,0.000484,-0.321777,0.418213,0.015381,-0.054259,8.370253,5.037188,-0.021425,0.005191,0.005912,0.073975,0.397217,0.533447,-1.597634,-7.060169,6.720118,-0.011776,0.006672,0.005077,0.642578,0.13916,-0.209961,2.204015,-7.231727,6.342114,0.003227,0.003269,0.005369,0.097412,0.318604,-0.588623,0.477349,-6.080481,7.685327,-0.006841,-0.014733,0.003179,-0.244141,0.407227,-0.393799
1.832239,-7.344471,6.223717,0.005291,0.001868,-0.001605,-0.324463,0.417236,0.015869,0.019998,8.394595,5.018367,0.007646,0.002786,0.003713,0.075439,0.397217,0.535156,-1.570288,-7.044374,6.717643,0.00437,-0.000925,-0.004558,0.638428,0.137695,-0.207764,2.153208,-7.211674,6.348767,-0.003123,0.012867,0.011191,0.092773,0.317871,-0.588867,0.453416,-6.120739,7.640693,0.006051,0.011503,-0.005233,-0.245361,0.406006,-0.391357
1.825497,-7.407034,6.178473,-0.016436,0.001109,-0.000138,-0.326172,0.418213,0.016846,-0.037332,8.431648,5.063394,-0.012087,0.010224,0.004873,0.077393,0.39624,0.533936,-1.581796,-6.996648,6.709954,0.007453,0.011494,0.000616,0.636475,0.137695,-0.208984,2.142559,-7.21197,6.375112,0.000756,-0.00408,0.006434,0.091553,0.317627,-0.58667,0.419213,-6.079906,7.679088,-0.002812,-0.007134,-0.006199,-0.248291,0.408203,-0.392822
1.843793,-7.416655,6.184734,0.015876,0.002581,0.000502,-0.318604,0.415771,0.014404,0.003414,8.356663,5.03881,-0.023039,-0.001496,0.003898,0.071777,0.394043,0.532715,-1.581115,-7.015634,6.731707,-0.022092,-0.002663,0.001772,0.643311,0.134521,-0.207764,2.18578,-7.198559,6.358755,-0.010655,-0.005558,0.01096,0.102051,0.316895,-0.590332,0.501744,-6.141499,7.646206,-0.005612,-0.007427,0.001183,-0.239502,0.400879,-0.394775
1.831758,-7.322306,6.226369,0.000807,0.002053,-0.000359,-0.312012,0.416016,0.017334,-0.033166,8.394507,5.039806,0.006763,0.013606,0.004923,0.083008,0.400146,0.534668,-1.567329,-7.065309,6.728878,-0.001932,0.007794,-0.000359,0.650391,0.137939,-0.202393,2.192622,-7.233268,6.331252,-0.006752,0.002114,0.01023,0.107666,0.314941,-0.583984,0.441539,-6.078443,7.671024,0.014391,0.011404,-0.009996,-0.231445,0.403564,-0.391846
1.815981,-7.413758,6.209463,-0.013309,-9.1e-05,0.00062,-0.318848,0.422119,0.016113,-0.042752,8.42628,5.054396,-0.018185,-0.002424,0.005829,0.075439,0.39917,0.53833,-1.60804,-7.02094,6.720497,0.006522,0.002314,-0.002698,0.643066,0.144043,-0.205322,2.169751,-7.174572,6.360286,0.005692,0.007085,0.00713,0.101807,0.320068,-0.58667,0.457905,-6.106838,7.658797,-0.009883,-0.012857,0.004148,-0.240234,0.410156,-0.391113
1.840577,-7.382291,6.198879,0.015061,0.003181,-0.000421,-0.324463,0.41748,0.020752,0.008642,8.376325,5.041132,-0.011793,0.010032,0.005379,0.079346,0.400635,0.5354,-1.533709,-7.014573,6.715946,-0.00777,0.002275,0.001407,0.638428,0.136963,-0.200928,2.139405,-7.194132,6.343667,-0.017778,0.001773,0.015432,0.094238,0.315918,-0.580078,0.472768,-6.082228,7.650633,0.011531,0.007028,-0.00925,-0.243896,0.405029,-0.383545
1.826418,-7.341413,6.195806,-0.004283,0.0015,-0.000678,-0.318604,0.42041,0.014893,-0.055858,8.390185,5.043811,-0.008648,0.0071,0.004702,0.07666,0.401611,0.532471,-1.588568,-7.035871,6.706831,-0.00772,0.009552,0.000938,0.646484,0.138428,-0.209229,2.185757,-7.228054,6.343462,0.003428,-0.005097,0.00503,0.100342,0.322754,-0.589355,0.439681,-6.095071,7.706242,-0.012215,-0.003977,-0.000747,-0.240234,0.407959,-0.390381
1.829715,-7.409916,6.218158,-0.003946,0.001615,0.000333,-0.325439,0.415527,0.016113,-0.004965,8.383221,5.062037,-0.007141,0.001272,0.004049,0.072754,0.4021,0.527832,-1.559917,-7.037992,6.72741,-0.00106,-0.000942,0.000446,0.637207,0.135986,-0.206055,2.175802,-7.184294,6.361728,-0.006301,0.007118,0.010682,0.092041,0.313965,-0.586182,0.476806,-6.126993,7.650582,0.010863,0.001072,-0.002508,-0.248535,0.402588,-0.393066
1.826973,-7.374482,6.172914,0.011607,0.001614,-0.000909,-0.312744,0.421631,0.015625,-0.031802,8.42512,5.046366,-0.007434,0.010605,0.005145,0.085693,0.397217,0.530273,-1.582193,-7.015527,6.696837,0.007674,0.009018,-0.000478,0.649902,0.140137,-0.207764,2.161379,-7.22382,6.365126,-0.002522,0.000625,0.010326,0.105469,0.319092,-0.588623,0.429209,-6.046773,7.685607,0.012228,-0.00105,-0.009885,-0.234863,0.408203,-0.394531
1.85004,-7.375666,6.239393,-0.004006,-0.000531,0.001157,-0.32251,0.41626,0.021729,-0.022644,8.392079,5.010994,-0.010845,-0.001686,0.006801,0.07959,0.386719,0.52832,-1.573033,-7.017506,6.731339,-0.013487,-0.001521,0.00101,0.641357,0.13623,-0.202148,2.187969,-7.192303,6.351495,-0.00133,-0.001053,0.005991,0.098145,0.31665,-0.582275,0.492774,-6.097057,7.678049,-0.023869,-0.013694,0.006605,-0.243896,0.404785,-0.387939
1.878184,-7.423274,6.220189,-0.004759,0.0024,-0.002607,-0.320312,0.42334,0.017578,0.028315,8.442701,5.053841,0.002331,0.011692,0.000294,0.078613,0.393799,0.529785,-1.531393,-7.046278,6.705791,-0.006155,0.006403,-0.00279,0.643555,0.143799,-0.205566,2.202618,-7.223255,6.355571,-0.012495,-0.004121,0.01285,0.097412,0.321289,-0.586182,0.480761,-6.114172,7.689624,0.009857,0.009369,-0.010642,-0.243652,0.408447,-0.394043
1.760044,-7.363054,6.204184,0.008597,0.00371,0.006032,-0.321045,0.423828,0.013916,-0.095879,8.384937,5.064063,-0.037241,0.009093,0.010173,0.07373,0.389893,0.52832,-1.640015,-7.01931,6.725306,0.000676,0.010301,0.001669,0.644531,0.144287,-0.211914,2.184057,-7.165172,6.37097,0.006226,0.011647,0.005591,0.097168,0.322266,-0.588623,0.447889,-6.139876,7.64058,-0.00926,0.005074,0.005283,-0.240479,0.411865,-0.398193
1.86468,-7.383498,6.226698,-0.00311,-0.000897,-0.005526,-0.31958,0.423096,0.018066,0.011903,8.361324,5.043403,0.011216,-0.002983,0.000338,0.082764,0.39624,0.530762,-1.570133,-7.035193,6.720238,-0.012744,-0.007411,-0.001999,0.642822,0.141602,-0.205566,2.116882,-7.236072,6.363961,-0.034802,0.00252,0.021565,0.099365,0.323486,-0.584229,0.392314,-6.051745,7.624676,0.055417,-0.003733,-0.008998,-0.243896,0.40918,-0.39209
1.638902,-7.421766,6.186863,-0.009499,-0.000506,-0.002648,-0.323486,0.419189,0.024414,-0.189822,8.444017,4.999939,0.011659,0.020248,0.008678,0.07251,0.394775,0.53418,-1.862895,-6.923696,7.204927,0.084266,0.016313,0.028624,0.640137,0.141357,-0.201416,2.476785,-6.788566,7.113681,0.274124,-0.039677,-0.038541,0.095703,0.315186,-0.583496,0.372446,-6.010413,7.555848,-0.030842,0.00386,-0.00961,-0.242676,0.409668,-0.387695
2.24802,-7.127525,6.344695,0.065209,0.013755,0.003758,-0.325928,0.41626,0.010742,0.371326,8.623876,4.859756,-0.073265,0.014824,0.008008,0.075439,0.401123,0.523438,-1.392949,-6.402011,6.728262,-0.225917,-0.151712,-0.07689,0.634277,0.141113,-0.212891,2.864998,-6.413454,6.383963,-0.719047,-0.007878,0.185193,0.094482,0.325684,-0.585205,0.623205,-6.004907,8.075941,-0.011831,-0.091904,-0.01215,-0.247803,0.405273,-0.396973
1.446507,-7.214454,6.124919,-0.242256,-0.034974,0.041128,-0.319092,0.428223,0.01123,-0.627257,8.208048,5.35504,-0.148853,-0.020081,0.013231,0.078369,0.392334,0.533936,-1.591054,-8.293537,6.151901,-0.414024,-0.050175,0.057711,0.644287,0.148193,-0.21582,1.326835,-10.580233,4.811799,-0.268577,0.336053,0.202274,0.109619,0.337646,-0.585938,0.520208,-6.215353,7.517545,-0.160603,0.113995,0.0216,-0.238525,0.417236,-0.399658
1.999333,-8.626943,5.837976,0.01054,0.04856,-0.053394,-0.318115,0.414795,0.012207,0.581643,7.989461,5.354983,0.002554,-0.046489,-0.006259,0.074219,0.388916,0.533203,-1.01342,-7.548977,5.86047,0.626947,0.037985,-0.1148,0.644287,0.134277,-0.214111,0.771928,-5.701163,6.2667,1.426626,-0.11083,-0.550582,0.101318,0.304443,-0.597168,0.189538,-6.493214,7.230934,0.048984,0.000926,0.005106,-0.239502,0.404297,-0.396973
1.829122,-6.71441,6.49885,0.451551,-0.041641,0.017504,-0.318115,0.414551,0.013916,-0.274373,8.451439,4.580618,0.327571,0.143319,0.021686,0.080566,0.394775,0.528076,-1.452268,-5.373987,6.912372,0.226736,0.224052,0.085286,0.645264,0.132812,-0.20752,2.546207,-4.361406,6.513783,-0.763817,-0.288049,0.272678,0.101562,0.313232,-0.58667,0.617695,-5.995634,8.100969,0.224505,-0.151045,-0.072771,-0.242432,0.4021,-0.394287
1.985891,-6.642486,6.350224,-0.353365,0.041161,-0.008884,-0.313965,0.420166,0.020752,0.025838,8.895315,5.223791,-0.143072,-0.125069,-0.042197,0.070801,0.397461,0.531982,-1.776879,-7.157732,6.997504,-0.445625,0.081579,0.106837,0.650879,0.13916,-0.199707,2.498448,-10.085599,6.151253,-0.340756,-0.068094,0.088904,0.104248,0.32251,-0.577148,0.861698,-5.963098,7.796322,-0.076406,0.117754,0.070496,-0.234375,0.404785,-0.390869
1.777258,-8.582758,5.99933,0.02691,-0.029318,-0.021228,-0.322998,0.413574,0.018555,0.258961,8.142814,4.822916,-0.04586,0.12004,0.035918,0.07251,0.394287,0.532959,-1.875497,-7.631194,7.510728,0.196377,0.05846,0.03528,0.645264,0.134033,-0.205078,3.323009,-6.058066,7.820857,1.060524,-0.082782,-0.31665,0.092041,0.303711,-0.594238,0.070923,-6.161697,7.394492,0.00254,0.085419,-0.005466,-0.240479,0.402588,-0.393066
1.518704,-6.202583,6.527267,0.274729,0.052571,0.063328,-0.322754,0.416748,0.01416,-0.765268,8.674568,4.965265,0.031725,-0.007269,-0.025512,0.072998,0.407227,0.53418,-2.417461,-6.386357,7.327939,-0.042977,-0.122564,-0.065044,0.641846,0.137695,-0.207764,2.933483,-5.514298,7.349747,-0.984071,0.19063,0.384287,0.09668,0.320557,-0.58374,0.157905,-5.676803,7.700078,0.082748,-0.104216,-0.041821,-0.243896,0.404297,-0.394531
1.859026,-7.432634,6.168275,-0.505867,-0.060026,-0.035752,-0.322021,0.420898,0.014648,0.359824,8.471036,5.058311,-0.249285,-0.053086,0.051934,0.073486,0.395508,0.524902,-1.371909,-7.064253,6.738693,-0.51036,-0.26503,-0.034343,0.640869,0.144287,-0.21167,1.626841,-10.305224,5.985953,-0.799942,0.110213,0.26536,0.103027,0.337158,-0.577637,0.595806,-5.930016,7.573193,-0.21971,-0.039205,0.013937,-0.243408,0.4104,-0.396484
1.841635,-8.31958,5.85573,0.14826,-0.009607,0.02638,-0.325439,0.420166,0.016846,-0.284929,8.077641,5.366938,-0.059265,0.01369,0.004335,0.079346,0.393066,0.526611,-1.61472,-8.550957,6.07117,-0.237506,-0.145638,-0.073642,0.632812,0.14502,-0.20752,1.882253,-9.380532,5.272862,0.586127,0.085956,-0.194116,0.096924,0.327881,-0.581055,0.18224,-6.203421,7.646855,-0.060968,0.034316,-0.041098,-0.248047,0.407715,-0.391846
1.855484,-6.86387,6.426739,0.058722,0.029031,-0.017832,-0.321533,0.4104,0.02124,0.311912,8.188896,5.197575,-0.01669,-0.00714,0.023402,0.078369,0.391602,0.521484,-0.57443,-7.120031,5.652846,0.517778,-0.061483,-0.220663,0.634766,0.137207,-0.210938,0.603785,-4.831233,6.367025,0.589855,0.09997,-0.2464,0.099121,0.311279,-0.582764,1.011621,-6.712733,7.667462,-0.19092,-0.15284,-0.001618,-0.246094,0.403809,-0.386475
2.264703,-7.702296,6.027271,-0.077999,-0.01681,-0.000488,-0.322998,0.415283,0.026123,0.205119,8.393743,4.668099,0.16405,0.025773,0.004958,0.073486,0.389648,0.536133,-0.958668,-5.399358,6.206234,0.16688,0.226787,0.056795,0.635986,0.138428,-0.200195,1.056632,-5.524481,5.436824,-0.600112,-0.650836,0.122914,0.090576,0.323242,-0.573242,0.630437,-6.480128,7.802031,0.319428,0.103575,0.005861,-0.243896,0.403809,-0.384521
1.524305,-7.344425,6.047036,0.124204,-0.005432,0.02523,-0.32251,0.422852,0.018799,-0.158605,8.55555,5.212288,-0.139083,0.029293,-0.032658,0.080078,0.390381,0.533936,-1.701344,-6.607266,6.886594,-0.401775,0.230262,0.114516,0.641357,0.143311,-0.202393,2.983937,-8.102401,5.578622,-0.185304,-0.480536,-0.086994,0.082031,0.332031,-0.578369,0.405182,-5.693177,8.466506,0.025608,0.029405,-0.025486,-0.245117,0.406494,-0.391602
2.736391,-6.389858,6.913864,-0.112129,-0.106465,-0.054373,-0.324219,0.415039,0.02124,0.416149,8.483893,4.743269,0.095702,-0.040255,-0.032656,0.081299,0.39209,0.529785,-1.440354,-8.963862,6.789374,-0.320878,0.054248,0.099078,0.642578,0.135986,-0.199463,3.658135,-8.359193,5.943996,0.131858,-0.155715,-0.035017,0.081055,0.324707,-0.578613,2.32794,-5.850586,9.1093,-0.372037,0.008431,0.162956,-0.241211,0.407471,-0.386963
1.240418,-8.893814,5.044533,-0.250153,0.120107,0.117399,-0.315186,0.417969,0.022461,-0.121395,8.309528,5.877452,-0.168459,-0.043154,-0.052132,0.080566,0.400391,0.529297,-1.705908,-7.832602,6.961288,0.824952,0.130324,-0.063618,0.648193,0.136475,-0.201904,3.383545,-6.886542,6.468599,0.471727,0.12336,-0.113752,0.088135,0.316162,-0.584961,-0.19322,-6.613522,6.423537,0.01303,0.906467,-0.028986,-0.224365,0.407227,-0.392578
1.426835,-7.096775,6.768237,0.474372,-0.101769,-0.116967,-0.314941,0.417969,0.018066,-0.641724,7.861501,4.622956,0.044059,0.152567,-0.005792,0.075684,0.391357,0.533936,-3.118095,-5.001622,8.170928,-0.001701,0.014139,-0.073945,0.647705,0.142334,-0.20874,2.803174,-6.84329,8.923098,-0.544356,0.34304,0.187423,0.095215,0.328125,-0.581299,-1.465178,-6.340238,7.542274,-0.147657,0.127186,0.045584,-0.22168,0.411865,-0.398438
1.295569,-6.155615,6.637609,-0.059367,-0.02685,0.151861,-0.320557,0.413818,0.019043,-1.046466,9.451204,3.638916,0.417554,-0.260667,0.026058,0.078857,0.401855,0.521729,-2.671095,-7.571081,7.993634,-0.967095,-0.571514,-0.050389,0.640137,0.14209,-0.211182,2.01214,-9.508463,8.276116,-0.498964,0.012326,0.213206,0.093262,0.325928,-0.574951,-0.112799,-7.342372,6.022064,0.141978,-0.220651,0.172761,-0.226562,0.401611,-0.397461
3.055596,-5.52434,7.020133,-0.323066,-0.091207,0.208381,-0.319336,0.426514,0.019287,0.993532,9.82181,4.721101,-0.960122,-0.215859,0.057926,0.081055,0.384277,0.520508,0.001334,-7.827398,6.36779,-0.168874,-0.34398,-0.434938,0.631104,0.155029,-0.217285,3.361287,-6.842947,6.636169,-0.073866,-0.290026,-0.093148,0.086426,0.337891,-0.574219,0.924794,-4.746753,7.642681,0.438314,-0.108977,-0.007121,-0.227783,0.405273,-0.40332
1.069996,-10.286592,5.885627,-0.905272,-0.049403,0.072271,-0.321289,0.431885,0.035889,-0.083369,7.440249,5.262692,-0.335521,-0.039287,-0.03195,0.080811,0.389893,0.52832,-2.292582,-5.477126,7.410744,-0.230819,-0.140621,-0.340508,0.623291,0.164795,-0.206543,3.046226,-6.175217,5.815711,-0.927489,0.22858,0.337856,0.090576,0.351807,-0.551514,0.41117,-5.93327,7.868696,-1.108191,-0.06501,0.435877,-0.2229,0.422607,-0.381836
2.100691,-8.183608,5.014807,0.803654,-0.210607,0.319542,-0.319092,0.430664,0.023682,-0.183941,8.292805,6.033575,-0.284115,-0.089056,-0.135638,0.078369,0.392822,0.511963,-1.929562,-7.12957,6.709928,-1.182334,-0.800954,-0.224687,0.612793,0.172363,-0.220947,3.296452,-8.492464,5.096378,-1.203197,0.229872,0.131446,0.094238,0.366455,-0.546387,0.127889,-8.85128,7.953465,-0.50903,-0.109312,0.118321,-0.226807,0.422363,-0.384277
1.916798,-6.523267,6.069831,-0.414534,-0.152905,-0.033127,-0.319336,0.439697,0.037354,1.096788,6.955132,5.872533,-0.471599,-0.129471,-0.112186,0.078369,0.383057,0.522705,-0.465522,-9.322946,6.292984,-0.437577,-0.850072,-0.366209,0.602539,0.188965,-0.222656,5.237257,-9.242755,4.228932,-0.030483,1.066647,0.075889,0.105713,0.377686,-0.535645,1.344636,-7.449317,7.711959,1.074406,-0.050908,0.174938,-0.223389,0.418701,-0.388184
2.978272,-9.964762,4.75514,-0.223015,-0.202302,0.239772,-0.313721,0.434326,0.032471,0.554111,7.896148,5.88085,0.468496,0.103162,-0.20353,0.08374,0.381104,0.523926,-0.726461,-7.855014,6.736072,-0.059023,-0.9995,-0.334991,0.596436,0.189453,-0.245605,3.246284,-6.087131,6.023586,-0.177844,1.934058,0.173769,0.137451,0.371826,-0.53418,1.965041,-4.420025,8.163296,0.002194,0.159089,-0.03744,-0.215088,0.409912,-0.395264
1.395897,-6.932611,5.760836,0.489473,-0.322588,0.109836,-0.306885,0.42334,0.040771,0.02098,9.944564,5.235719,-0.036215,-0.001149,-0.42181,0.071289,0.395508,0.514404,-1.38947,-7.306409,6.647745,-0.4086,-1.23186,-0.520335,0.582031,0.194092,-0.250488,1.081469,-9.76283,5.903131,-1.510011,2.079945,0.775569,0.170654,0.382568,-0.500732,1.722224,-7.434464,7.543629,-1.290358,0.733176,0.432017,-0.200928,0.416992,-0.379395
1.746986,-7.52524,5.703047,-0.795747,-0.624341,0.135025,-0.315186,0.435547,0.051025,-0.211611,8.460056,5.614277,-0.716825,0.007932,-0.275937,0.074219,0.377441,0.523926,0.104994,-8.295802,6.265822,-0.582499,-1.454403,-0.43063,0.558105,0.218262,-0.270264,-1.173114,-12.922682,5.805053,-0.102823,1.988113,-0.140072,0.186279,0.399414,-0.49585,0.000388,-9.312936,8.134027,-0.097734,0.757411,0.138131,-0.194336,0.429199,-0.384766
2.317462,-10.151414,5.279385,0.22027,-0.461894,0.161641,-0.313477,0.431152,0.056396,0.405657,7.349706,6.10003,0.145221,0.082016,-0.25058,0.087402,0.377441,0.516113,1.64322,-9.698435,5.32221,0.045638,-0.851009,-0.574075,0.539307,0.224854,-0.281494,-1.458975,-7.954572,7.760323,1.355092,0.983582,-0.494378,0.186523,0.381836,-0.504395,0.428825,-6.658434,8.814772,0.885655,0.884302,0.14875,-0.182373,0.409668,-0.398682
2.763669,-6.933946,7.599876,0.420731,-0.565745,0.101814,-0.312256,0.425537,0.061035,-0.527345,8.933628,5.966888,0.457859,0.121839,-0.102967,0.078125,0.377686,0.501465,0.122296,-8.286785,4.68276,0.620654,-0.549534,-0.34087,0.525391,0.223877,-0.295166,-0.773702,-5.663085,7.955451,-0.324089,-0.114151,-0.277152,0.181641,0.385986,-0.499756,-0.051245,-5.628908,9.354823,-0.299312,1.013028,0.28612,-0.168213,0.409424,-0.395264
2.096214,-9.537286,7.08948,-0.538439,-0.143437,0.209548,-0.310303,0.421631,0.070068,0.157526,9.021292,6.03376,-0.18248,-0.015093,-0.360678,0.085938,0.363281,0.49585,0.993176,-6.376944,6.370366,0.102498,-0.649901,-0.580507,0.501953,0.230957,-0.295166,-0.248444,-10.166127,6.363994,-1.026773,-0.77826,-0.091145,0.159668,0.400635,-0.479248,-1.649193,-8.111903,8.823879,-0.546318,1.360968,0.367604,-0.151123,0.408447,-0.389404
2.739226,-9.462114,7.266027,1.006433,-0.282063,0.097351,-0.292969,0.426758,0.054932,-0.685028,7.823975,5.231866,0.17823,0.29775,-0.146912,0.09082,0.350098,0.489502,0.155031,-8.527571,6.872018,-0.525274,-0.293003,-0.236984,0.501465,0.246582,-0.30835,1.028474,-12.055902,5.813039,0.182108,-1.048783,-0.739707,0.144531,0.405273,-0.495117,-3.004654,-8.153899,9.17799,0.762076,0.669171,0.280521,-0.131348,0.400879,-0.4104
3.221766,-7.207891,9.305285,0.072238,0.127405,0.195947,-0.282959,0.421143,0.056396,0.358026,8.932647,6.328904,0.57569,0.033429,-0.452598,0.083252,0.354004,0.47583,0.479732,-10.015659,6.39453,0.29268,-0.829481,-0.875138,0.476318,0.251465,-0.316406,3.046736,-9.15274,5.737208,0.647486,-0.730678,-0.851825,0.119629,0.394287,-0.489258,-1.291321,-5.98565,9.614159,0.679203,0.624939,0.147062,-0.118652,0.379639,-0.415771
3.911025,-11.58149,8.290678,0.187837,0.368518,0.094247,-0.266357,0.411621,0.039307,0.112158,9.408561,6.446918,0.515755,0.462535,-0.406932,0.078857,0.342773,0.457764,1.821868,-8.435529,6.720386,0.735927,-0.743265,-0.57258,0.455078,0.245605,-0.337158,2.91149,-7.913748,5.104546,0.335597,-0.049757,-0.762339,0.104248,0.385254,-0.499268,-3.76504,-6.57237,10.095638,-0.010265,0.741659,0.495046,-0.103271,0.368896,-0.422607
3.262417,-8.19724,9.012037,1.364918,0.772854,0.21377,-0.251221,0.4021,0.015381,-0.808586,10.235787,6.308665,0.690441,0.110418,-0.564187,0.085449,0.320801,0.429199,1.808985,-8.078001,7.083133,0.144335,-0.861098,-0.652107,0.419922,0.245117,-0.348389,2.370218,-7.467841,5.733882,0.275529,-0.049887,-0.40574,0.087402,0.374023,-0.494873,-3.333276,-7.873508,9.365343,0.444921,-0.466465,0.080877,-0.109863,0.349609,-0.427979
2.784779,-7.160663,8.681761,-0.161812,0.921959,0.216546,-0.217529,0.41333,-0.008545,-0.252682,10.715905,5.848745,0.235766,0.241846,-0.450854,0.092529,0.299561,0.406982,3.054606,-9.210163,6.821949,-0.064411,-0.753931,-0.371645,0.405029,0.261475,-0.367676,2.816151,-8.245282,5.696776,-0.095392,-0.001497,-0.397144,0.086426,0.384277,-0.501709,-1.013723,-6.536149,9.501402,0.793138,-0.399868,0.170769,-0.094971,0.342285,-0.445801
2.289041,-9.923323,7.80914,0.192603,0.993767,0.311232,-0.190186,0.411865,-0.034424,-2.311073,10.858811,6.245893,0.280521,-0.042807,-0.384563,0.107422,0.259521,0.374756,2.83696,-9.65865,6.573959,-0.022975,-0.387163,-0.307333,0.376953,0.266113,-0.378906,1.881637,-7.757106,5.950854,0.324647,-0.077474,-0.260597,0.07373,0.379639,-0.506592,-1.73503,-5.837648,9.751916,-0.072835,-0.343324,0.170375,-0.090576,0.330566,-0.454346
1.912969,-7.795599,8.646908,0.209565,0.965722,0.399179,-0.15625,0.408691,-0.046631,-0.869178,11.351488,6.607445,-0.213132,-0.403642,-0.460143,0.121094,0.207031,0.345703,2.406132,-9.393873,6.241268,0.02565,-0.333283,-0.004031,0.358154,0.260254,-0.375732,2.086783,-6.240567,5.971664,-0.092231,-0.596235,-0.110958,0.062988,0.370117,-0.491943,-1.327945,-7.676973,9.049562,-0.558103,-0.612155,0.206285,-0.086426,0.321045,-0.443604
1.607913,-9.135195,7.904687,-0.398622,1.082723,0.335348,-0.124268,0.416504,-0.073242,-1.305602,9.491468,5.66587,-0.603235,-0.176743,-0.412124,0.125244,0.156006,0.30249,2.386283,-7.947051,6.596173,0.326062,-0.102799,0.028138,0.334473,0.259033,-0.397461,2.704795,-7.784028,5.215941,-0.515931,-0.522305,0.25883,0.052734,0.374756,-0.490967,-1.360592,-7.80916,9.674812,0.223025,-0.642325,0.0892,-0.085449,0.310547,-0.452393
1.078851,-9.756922,7.040561,0.354505,1.072811,0.351243,-0.086426,0.425293,-0.099854,-0.852128,8.336371,5.266851,0.027215,-0.268868,-0.556841,0.127441,0.109131,0.253418,1.927298,-6.817883,7.078993,0.063814,-0.087071,0.08617,0.315186,0.262695,-0.401123,2.275157,-9.094279,4.614294,0.075236,-0.444521,-0.018423,0.043213,0.376953,-0.489014,-0.630585,-6.863879,9.011,0.149287,-0.805777,0.089822,-0.081299,0.304199,-0.460205
0.397401,-7.910233,6.946045,0.508574,1.149222,0.354743,-0.04126,0.422607,-0.123047,-1.287187,9.097176,5.810667,0.494559,0.13339,-0.47485,0.135254,0.064941,0.219971,2.115565,-7.940446,6.619208,-0.042613,0.024153,0.180353,0.308838,0.263184,-0.404053,3.087853,-7.400834,4.89635,0.5689,-0.282391,-0.062349,0.045166,0.365479,-0.489746,-0.493156,-7.450329,8.479166,0.233243,-0.570728,0.255719,-0.065918,0.292969,-0.465332
0.629682,-7.5531,6.949351,0.086618,0.974161,0.26351,-0.016113,0.438232,-0.152588,-1.880025,10.28869,6.224492,0.070116,-0.104811,-0.582774,0.144775,0.022217,0.182373,1.521502,-8.416022,6.494602,-0.106337,0.032658,0.092592,0.281738,0.272949,-0.41333,2.679442,-6.949501,6.031756,-0.272228,0.130123,0.180879,0.036621,0.37207,-0.489746,-0.345861,-6.209458,9.061602,0.604266,-0.647456,-0.055291,-0.070801,0.281494,-0.481201
0.363711,-6.796447,6.827198,-0.210709,1.14081,0.423093,0.012207,0.442627,-0.171631,-1.412102,9.342918,5.524927,-0.813105,-0.16888,-0.460865,0.154541,-0.028076,0.150146,2.095272,-8.475525,6.450147,-0.244504,-0.130793,0.259072,0.261475,0.273438,-0.418213,2.046414,-8.472898,5.538768,-0.356324,-0.162699,0.360182,0.031982,0.372559,-0.483154,0.184908,-4.872503,9.056344,-0.354093,-0.418458,0.162975,-0.067139,0.280029,-0.48291
-0.430581,-6.488107,6.053397,-0.639649,1.039795,0.395008,0.063965,0.456055,-0.186523,-1.797932,8.267797,4.731151,-0.577069,-0.220231,-0.415647,0.163086,-0.072266,0.123779,2.652477,-6.94217,6.80541,-0.073568,0.115968,0.137401,0.258301,0.283447,-0.424805,3.165325,-6.943538,5.195412,-0.047933,-0.071663,0.145125,0.042725,0.376953,-0.479248,-0.086826,-6.373873,8.234703,-1.125786,-0.273392,0.221522,-0.039795,0.295166,-0.478516
-0.767624,-7.405764,6.224645,-1.095917,0.924145,0.416236,0.07373,0.469238,-0.204834,-1.616009,10.04701,6.367112,-0.480897,-0.152479,-0.391763,0.169189,-0.108887,0.07666,1.396563,-5.794854,6.570233,-1.05267,0.322922,0.370766,0.23291,0.29541,-0.42627,1.978712,-5.624127,5.646403,-0.876677,0.248909,0.469964,0.029053,0.385498,-0.475586,0.081353,-6.953738,6.838449,-0.681699,-0.057533,0.212346,-0.047363,0.298096,-0.489014
-1.27685,-8.214151,5.997434,-1.037143,0.639495,0.322416,0.109131,0.480713,-0.198486,-2.632839,10.437341,6.376407,-1.497573,-0.219354,-0.47606,0.17627,-0.146729,0.049316,0.90165,-8.830646,5.779494,-1.929226,0.083469,0.561547,0.228271,0.309814,-0.400879,1.075226,-7.162593,5.518731,-1.431027,-0.146722,0.668704,0.039795,0.395996,-0.441406,-1.161078,-5.463697,7.096566,-0.852742,0.03478,0.149299,-0.025391,0.30249,-0.474365
-1.156376,-6.049969,6.088132,-1.366005,0.572184,0.323627,0.132812,0.505859,-0.215576,-1.459305,9.296945,5.630341,-1.778933,-0.302058,-0.577635,0.178711,-0.179688,0.005615,1.727372,-8.62775,6.325044,-1.087045,0.232036,0.331197,0.221924,0.327393,-0.406738,2.362163,-8.307865,5.808243,-1.969956,-0.16154,0.747596,0.042969,0.425293,-0.430176,-0.394626,-5.336817,6.504377,-1.712722,-0.287666,0.221772,-0.01709,0.327637,-0.47876
-1.882546,-7.934425,4.291968,-2.376948,0.186417,0.139502,0.156494,0.527344,-0.208008,-1.99811,8.988509,6.16092,-2.088734,0.032112,-0.550979,0.182861,-0.213379,-0.038086,1.12115,-6.489013,6.947397,-2.057563,0.223654,0.256168,0.219727,0.348145,-0.387939,1.619058,-11.62476,4.637094,-2.618993,-0.016418,0.784634,0.058105,0.451416,-0.396973,-0.346461,-6.321467,5.225839,-2.101865,0.223018,0.237639,0.003662,0.348389,-0.463867
-1.000359,-8.880323,3.482149,-1.219167,0.077613,0.145558,0.162109,0.545654,-0.20874,-1.938026,6.193264,6.220523,-2.430744,-0.210868,-0.383805,0.197021,-0.229492,-0.079346,2.017123,-10.609597,4.389119,-2.918307,0.195015,0.33449,0.199707,0.380127,-0.366699,1.99229,-12.518709,3.161435,-1.317744,-0.244466,0.265259,0.041748,0.467529,-0.38208,-1.556913,-7.026229,4.679048,-1.546087,0.04954,0.151816,0.00415,0.370117,-0.459229
-1.096036,-7.661218,4.105027,-1.230404,0.019094,0.019971,0.180176,0.561523,-0.203125,-1.312523,3.704103,6.304993,-1.19571,0.004669,-0.335352,0.205322,-0.244629,-0.113281,0.891727,-13.101091,3.73975,-0.931528,0.401024,0.180408,0.199463,0.391113,-0.35498,2.747283,-9.291473,3.332306,-0.638016,0.214256,0.241173,0.049072,0.467773,-0.36377,-0.391265,-6.764928,3.833496,-0.952144,-0.117673,0.029827,0.015137,0.378174,-0.445801
-1.513567,-9.922663,2.489583,-0.453603,-0.036319,0.001316,0.188965,0.570801,-0.217529,-2.845051,5.347277,6.133344,0.155519,-0.093434,-0.279704,0.208252,-0.270508,-0.130859,0.659036,-9.29981,5.082843,0.501147,0.177335,-0.025233,0.181396,0.390625,-0.370117,1.512361,-10.056407,3.600398,-0.886453,0.405977,0.45406,0.053223,0.473877,-0.359131,-1.477258,-7.514196,4.373376,-0.791305,0.090607,0.108582,0.020996,0.388428,-0.454102
-1.789275,-6.813702,3.869189,0.493068,-0.379074,0.00069,0.194824,0.574951,-0.2229,-1.960781,7.508095,6.758447,0.094277,-0.246017,-0.248296,0.206055,-0.285889,-0.144043,0.623396,-7.590559,5.232295,-0.335916,0.127131,0.177564,0.169189,0.397949,-0.363281,2.325283,-11.408334,2.475677,-0.03666,0.613154,0.234918,0.053467,0.4729,-0.352783,-0.280244,-8.100924,4.249757,0.206475,-0.232863,0.003364,0.023193,0.382812,-0.452881
-0.783657,-7.528359,4.600612,-0.913983,-0.530478,-0.184324,0.198486,0.584473,-0.235107,-1.980958,6.889506,7.329449,-0.605614,-0.168618,-0.245652,0.210205,-0.295898,-0.173584,0.267602,-9.528992,4.288182,-0.517879,-0.012129,0.034079,0.16333,0.407715,-0.374268,1.697538,-8.933777,3.605654,0.349131,1.409932,0.105804,0.068848,0.468018,-0.365479,-0.481805,-5.076856,5.870632,0.5883,0.382707,-0.157089,0.035645,0.373291,-0.473877
-1.486173,-11.240423,3.578606,-0.067775,-0.418852,-0.289132,0.202637,0.587158,-0.231201,-1.283909,4.664674,7.121251,-0.396468,0.041572,-0.269587,0.217041,-0.305176,-0.194092,0.991586,-8.675195,4.789961,0.515737,-0.186341,-0.147676,0.149658,0.405518,-0.371582,0.491028,-8.13958,4.543769,-0.0337,1.258264,0.237043,0.083496,0.464355,-0.351562,-2.165293,-5.323385,6.161349,-0.870871,0.208388,-0.055782,0.042236,0.375977,-0.45459
-0.293312,-7.414981,5.308238,0.509854,-0.195776,-0.314481,0.20874,0.59082,-0.249268,-1.350316,5.12492,7.002725,0.444007,0.374258,-0.062435,0.223145,-0.324707,-0.202148,2.014242,-6.303614,5.201039,0.217703,-0.010237,-0.194026,0.137939,0.410156,-0.381104,1.429524,-9.341283,4.523268,-0.321253,1.07297,0.134021,0.093262,0.466064,-0.352539,-1.968169,-8.106909,5.579335,-0.269141,-0.075865,-0.311753,0.047119,0.385742,-0.461914
-1.555548,-8.33449,4.662952,-0.65792,0.203425,-0.45832,0.207275,0.60498,-0.253906,-2.048205,6.632795,7.011848,0.234312,0.689212,0.212201,0.228516,-0.327393,-0.199707,1.354205,-7.813885,5.336526,-0.570987,0.182916,-0.096412,0.129639,0.423096,-0.380371,0.311098,-10.139047,4.625035,0.230994,1.132323,-0.060194,0.094971,0.467529,-0.355713,-3.115261,-6.379538,5.085819,0.538115,-0.364769,-0.544478,0.038086,0.382812,-0.47168
-1.039202,-9.500473,3.394724,0.030637,0.300735,-0.4075,0.20752,0.610352,-0.266846,-2.83555,6.414199,7.226999,-0.196164,0.720779,0.420826,0.232178,-0.343262,-0.203613,0.771212,-9.722101,4.921244,-0.209162,0.26715,-0.209507,0.114502,0.42749,-0.384277,0.149298,-7.702461,5.221843,0.353104,0.732319,-0.28623,0.088867,0.464111,-0.361572,-0.922815,-5.748024,5.928949,-0.529334,-1.141815,-0.448608,0.017334,0.387451,-0.472412
-1.763431,-7.984777,3.306893,0.174918,0.159199,-0.492232,0.217285,0.604492,-0.264404,-2.705328,5.23962,6.381723,0.053208,0.744958,0.608269,0.226562,-0.358398,-0.207764,0.840945,-9.445405,4.756387,0.37297,0.161852,-0.211314,0.115967,0.424072,-0.381104,0.336964,-8.759228,4.744981,-0.317335,0.675395,0.128519,0.105225,0.455322,-0.346924,0.207315,-8.518135,5.046131,-0.569109,-0.159133,-0.463316,0.02417,0.385986,-0.458496
-0.416625,-7.080865,3.512497,0.188802,0.184981,-0.489658,0.218994,0.607178,-0.278076,-2.591184,6.275701,5.930275,0.577867,0.733792,0.679677,0.2229,-0.379639,-0.201416,1.14622,-8.244753,4.452658,0.507212,0.432997,-0.182007,0.107422,0.42041,-0.391846,-0.159112,-9.878428,4.513015,0.529616,0.532907,-0.214825,0.102539,0.45166,-0.358643,-1.326198,-7.633356,5.296614,0.782969,-0.405952,-0.611604,0.018799,0.376465,-0.474609
-1.829646,-7.575283,3.595624,-0.04767,-0.038216,-0.521297,0.21167,0.613281,-0.292969,-3.186964,7.146188,6.300698,0.162748,0.744642,0.776475,0.21875,-0.387939,-0.210938,-0.31527,-8.030219,4.396567,0.192428,0.378298,-0.075757,0.101562,0.42749,-0.405762,-0.51144,-7.225433,5.185856,0.703333,0.406965,-0.184845,0.098145,0.447998,-0.377197,0.962562,-5.167238,5.253712,0.417397,-0.379851,-0.636718,0.004639,0.374268,-0.491455
-0.22802,-7.540507,3.529178,0.217326,-0.330017,-0.583492,0.205322,0.619629,-0.298584,-3.175646,6.72392,6.521871,0.129499,0.46111,0.582783,0.217773,-0.400146,-0.205322,0.536571,-9.107969,3.631013,0.01017,0.170673,-0.022557,0.096191,0.430176,-0.405518,-0.864772,-7.754598,5.314794,-0.120775,-0.093661,0.013436,0.095459,0.449463,-0.373779,0.433003,-6.406885,5.67026,-0.655675,0.382712,-0.331259,0.010254,0.384521,-0.484131
-1.197407,-6.929569,3.923445,-0.295318,-0.430568,-0.580128,0.19873,0.626709,-0.294922,-2.777769,7.270366,6.719931,-0.047493,0.445072,0.644478,0.21875,-0.415527,-0.208984,1.141965,-9.205629,4.039961,0.045873,0.326355,0.068709,0.094971,0.434082,-0.401611,0.439816,-8.676309,4.203128,0.017574,-0.454362,-0.019434,0.088379,0.448486,-0.371582,-0.075321,-8.293707,5.340246,-0.309132,0.271314,-0.5253,0.013428,0.388916,-0.479492
-0.322956,-8.481453,3.68219,-0.334805,-0.556007,-0.613701,0.186768,0.628418,-0.297363,-3.48714,6.684898,6.538425,-0.506694,0.233022,0.691726,0.204346,-0.418457,-0.226074,0.29738,-8.874217,4.316804,0.095288,0.493336,0.229439,0.097656,0.43335,-0.408447,-0.097754,-7.91713,4.015706,0.119821,-0.268196,0.057549,0.081299,0.447754,-0.376221,-0.0647,-6.72248,6.044686,0.421309,0.59923,-0.553223,0.01416,0.379883,-0.491455
-0.381906,-7.26802,3.845545,-0.080734,-0.477295,-0.574802,0.181885,0.63208,-0.294189,-2.289695,5.409555,5.872823,-0.484487,0.122012,0.863122,0.200684,-0.4375,-0.22998,0.234526,-8.281223,4.592444,0.034387,0.353639,0.180301,0.101074,0.430176,-0.407227,-0.150853,-8.157253,3.833756,-0.199833,-0.662068,0.143015,0.078613,0.445557,-0.37207,-0.592331,-5.747713,6.354575,-0.582073,0.530913,-0.502446,0.02124,0.387451,-0.478027
0.704579,-7.761821,4.162937,-0.568752,-0.443031,-0.531461,0.17749,0.645508,-0.303223,-2.344802,5.900256,6.201195,-0.098949,0.159317,0.938623,0.192383,-0.442139,-0.246582,0.949437,-7.98966,3.82374,-0.108213,0.505912,0.293282,0.11084,0.442627,-0.417236,1.088348,-8.28014,3.234318,0.019109,-0.43611,0.109871,0.076416,0.449951,-0.385498,0.432628,-8.581773,5.316284,-1.022721,0.599187,-0.291604,0.03125,0.408447,-0.482422
0.114636,-8.220363,4.41721,-0.192102,-0.247487,-0.389154,0.166016,0.635498,-0.295166,-2.507986,6.779521,5.937388,-0.482017,-0.028293,1.047284,0.172363,-0.451172,-0.24292,0.142155,-8.336805,4.092276,-0.328551,0.601316,0.425617,0.113037,0.43335,-0.401611,-0.467964,-6.487319,4.473202,0.267336,-0.322302,0.155909,0.070557,0.435059,-0.379395,-0.86432,-8.924755,5.227137,0.010544,0.769996,-0.406727,0.032715,0.39502,-0.473633
0.929772,-7.697297,4.399373,0.09394,-0.226195,-0.269517,0.166016,0.636963,-0.303467,-2.150225,4.603527,5.500635,-0.739176,-0.358398,1.247122,0.164307,-0.464111,-0.255371,0.661077,-9.335696,3.754106,-0.091367,0.554873,0.644871,0.123535,0.433838,-0.409424,-0.732803,-6.554326,3.803095,-0.291355,-1.087805,0.465556,0.064209,0.437012,-0.381592,-1.407204,-7.58407,5.629061,0.417659,0.265636,-0.251402,0.039551,0.390625,-0.487061
1.208996,-7.071501,4.890376,0.250839,0.11728,-0.117108,0.160889,0.643066,-0.313232,-0.761498,4.85153,5.082515,0.506584,-0.434411,1.42357,0.145752,-0.47583,-0.265625,0.568837,-8.096891,4.381286,0.762882,1.093769,0.597094,0.133545,0.434326,-0.421143,0.417719,-8.970499,3.561492,0.026522,-1.119201,0.428537,0.052002,0.44751,-0.387207,-0.360341,-6.445018,5.504804,0.456675,-0.019025,-0.223314,0.032227,0.393311,-0.498535
1.278433,-7.421717,4.480763,-0.035335,0.327445,-0.086315,0.168945,0.646973,-0.317383,-0.805236,7.550869,5.703839,0.189097,-0.256392,1.560998,0.114502,-0.47876,-0.258301,-1.658132,-5.693599,5.675615,0.349729,1.015708,0.66243,0.154053,0.431885,-0.42334,0.463027,-7.537096,4.137726,0.712058,-0.865356,0.186884,0.050049,0.437256,-0.398193,0.014952,-6.672333,5.445148,-0.170918,-0.056594,-0.0892,0.037598,0.398682,-0.49707
-0.729021,-7.640218,4.012742,0.276267,0.261459,-0.003102,0.165283,0.638184,-0.324463,-1.672409,6.925336,5.503873,-0.415212,-0.252801,1.59213,0.100098,-0.488281,-0.269775,-2.058148,-6.126796,4.506039,-0.215052,0.823771,0.602923,0.160645,0.423584,-0.425537,0.028331,-5.823797,4.566686,0.112788,-0.551927,0.418797,0.04248,0.427979,-0.405762,-0.300423,-7.534883,4.81926,0.264571,-0.135684,-0.004313,0.033447,0.387207,-0.503174
0.703442,-6.980631,4.442671,-0.321182,-0.171942,-0.184744,0.167236,0.642334,-0.318848,-0.610798,6.248052,6.566897,-0.355063,-0.360086,1.18829,0.08252,-0.500244,-0.275146,-2.033753,-7.38705,3.252881,-0.749315,0.311817,0.537473,0.173584,0.432129,-0.412354,1.279953,-8.201717,3.952728,-0.932114,-0.522907,0.612774,0.046631,0.438477,-0.388184,0.877897,-5.463399,5.263875,0.418063,-0.219544,-0.324177,0.027832,0.381348,-0.507812
1.105076,-8.218214,4.072376,-0.082594,-0.314632,-0.139018,0.161621,0.648193,-0.313965,0.324095,6.268804,5.747101,-0.30725,-0.417451,0.756177,0.064697,-0.496582,-0.291992,0.508248,-9.332034,2.374524,-0.592615,-0.108336,0.398783,0.173584,0.438477,-0.402588,3.233454,-10.553707,2.222224,-0.181483,-0.168128,0.566373,0.053955,0.439941,-0.385254,1.96866,-5.911028,4.971177,-0.695663,0.066511,0.016413,0.031982,0.391602,-0.493408
0.046157,-6.178909,4.160436,-0.106832,-0.591216,-0.154825,0.143066,0.651611,-0.318848,-0.349604,5.87837,5.368401,-0.540006,-0.381601,0.303241,0.063477,-0.495117,-0.292236,-1.908218,-7.277616,3.60396,0.67741,0.067219,0.306431,0.16626,0.435791,-0.420166,2.544506,-6.406381,3.736942,1.014178,1.06402,0.249042,0.053955,0.43335,-0.399658,0.741394,-8.077163,4.775112,-0.61285,0.505624,-0.082571,0.025879,0.405273,-0.493652
1.151413,-8.621551,3.745483,-0.512062,-0.923423,-0.247287,0.137451,0.6521,-0.316162,0.345715,4.499686,5.717194,-0.270936,-0.503601,0.10073,0.047607,-0.502686,-0.293701,-1.427425,-3.54989,4.03782,0.14635,-1.035279,0.097545,0.163086,0.426514,-0.42749,-0.763566,-4.728015,4.87446,-0.711619,0.970501,0.718793,0.080566,0.434326,-0.392334,-0.317646,-7.580334,5.35306,0.480629,0.241931,-0.01709,0.035889,0.393799,-0.504395
2.164983,-8.594994,4.509937,0.079477,-0.562774,-0.213979,0.138672,0.654053,-0.313477,1.350405,5.251082,6.829508,0.086236,-0.047722,-0.068791,0.057617,-0.49707,-0.300293,0.881403,-6.66833,3.041694,-1.539362,-0.619449,0.357625,0.169922,0.444824,-0.407959,1.038402,-11.056877,2.952981,-1.271869,0.440915,0.658175,0.102783,0.450439,-0.374756,0.618986,-5.312023,6.180051,0.212405,0.094875,-0.269452,0.042725,0.393555,-0.505615
1.346249,-7.798971,5.017868,-0.403473,-0.480698,-0.268592,0.126953,0.660156,-0.301025,-0.141335,6.41572,6.65923,-0.173304,0.056218,-0.148977,0.056396,-0.5,-0.291504,-1.704494,-10.421438,2.558837,-0.212453,-0.803658,-0.033889,0.157471,0.448975,-0.408203,-0.472828,-9.966547,3.007443,0.861433,1.232015,0.043669,0.112549,0.443359,-0.37915,-0.510153,-5.895386,6.690585,-0.80071,0.313455,-0.074283,0.043945,0.402344,-0.491211
2.158152,-8.812703,4.575124,-0.370109,-0.303275,-0.287357,0.111084,0.654053,-0.300537,1.135969,5.704067,5.991178,-0.546009,0.066078,-0.212938,0.047852,-0.495605,-0.30957,1.191132,-5.831834,3.424224,0.932104,-0.84926,-0.335619,0.133301,0.430176,-0.423828,-1.893666,-5.404724,4.724827,-0.065313,0.170273,-0.010531,0.10498,0.433105,-0.381836,-0.627657,-8.174515,6.019197,-0.691229,-0.269542,-0.288767,0.027832,0.402588,-0.486328
2.055609,-7.159295,4.859781,-0.309883,-0.072844,-0.149878,0.108887,0.661621,-0.293945,0.364301,6.030033,6.438971,-0.213627,0.428736,-0.203022,0.063477,-0.497314,-0.308594,-0.189709,-4.312098,4.223248,-1.152334,-0.309506,-0.087837,0.129395,0.445068,-0.405029,0.816775,-8.739561,2.621946,-1.564805,-0.175406,0.261706,0.103516,0.451904,-0.354004,0.311649,-7.348385,5.951858,0.062714,-0.253178,-0.323997,0.020264,0.40918,-0.482178
1.466866,-7.790693,4.081356,-1.352519,0.105323,-0.167511,0.117676,0.68335,-0.281738,-0.403933,7.66603,8.043995,-0.819752,0.230644,-0.123539,0.061768,-0.489258,-0.31665,-0.299835,-9.547479,2.868715,-2.205549,-0.631427,-0.031856,0.133057,0.477295,-0.38623,-0.854274,-9.342125,2.584799,-0.522483,0.421023,-0.184089,0.119141,0.469727,-0.350342,-0.45916,-5.400915,6.244769,-0.729934,-0.395322,-0.366511,0.020996,0.425781,-0.479492
1.756255,-9.393963,3.22974,-1.212296,0.12026,-0.129069,0.109863,0.694092,-0.262695,-0.115456,5.839454,7.754959,-1.953382,0.182558,-0.088189,0.067139,-0.475342,-0.341309,-0.030894,-11.679212,2.704247,-1.066777,-0.291429,-0.195963,0.121826,0.484131,-0.368896,-0.480075,-7.412839,4.08103,-1.430744,-0.39041,0.05631,0.108643,0.477539,-0.326904,1.004432,-7.190988,5.48384,-2.064983,-0.582429,-0.322241,0.003906,0.448242,-0.445801
1.540315,-9.065011,3.017639,-0.710502,0.174288,-0.174772,0.11499,0.690674,-0.260498,-0.088898,3.085767,6.623509,-0.901085,0.093988,-0.11883,0.070312,-0.463867,-0.350342,-0.397731,-9.295678,2.73193,-0.027006,-0.671918,-0.266057,0.119385,0.476318,-0.376953,0.944391,-11.352044,1.269935,-1.317966,0.028811,0.272631,0.119873,0.484131,-0.314697,1.153432,-10.707671,4.193695,-1.296168,-0.157851,-0.187221,0.005127,0.457764,-0.436523
1.936083,-8.6126,2.977242,-0.520001,0.177711,-0.087907,0.118652,0.705566,-0.254639,0.226351,5.609344,7.290311,0.24286,0.159712,-0.139593,0.072754,-0.461426,-0.346191,1.439924,-7.026173,3.275654,-0.584854,-0.299008,-0.127459,0.116455,0.492188,-0.368652,-1.04079,-8.606869,3.11928,0.522046,0.139009,-0.405653,0.115234,0.491455,-0.320557,0.219085,-9.552315,4.563202,0.203682,-0.439446,-0.392293,-0.004639,0.465088,-0.440674
1.067446,-8.707539,2.820935,-0.676757,0.19137,-0.076408,0.113281,0.705811,-0.24585,-0.777313,7.419343,8.38879,-0.671948,0.09818,-0.030817,0.078613,-0.457275,-0.35498,-1.278114,-9.634342,2.843205,-1.310263,-0.24556,0.198315,0.111572,0.500488,-0.349365,-0.131104,-5.520322,3.961864,-0.910756,-0.538592,0.185393,0.11084,0.491699,-0.307129,1.627558,-7.03657,4.704414,-0.226636,-0.571146,-0.190684,-0.017822,0.462891,-0.431885
1.379694,-8.855897,2.253338,-0.689515,-0.096902,-0.081872,0.107666,0.712402,-0.240967,-0.258966,5.774834,7.667075,-1.114189,-0.142623,-0.17801,0.071045,-0.445312,-0.374756,0.79024,-10.438643,2.055857,-0.490197,-0.653135,-0.112669,0.101562,0.504639,-0.348633,-0.314811,-10.361788,1.880433,-1.689104,-0.338046,0.376194,0.107666,0.505371,-0.287109,1.717562,-7.855988,4.466539,-1.286287,-0.10892,-0.112761,-0.025146,0.477295,-0.421143
2.079553,-8.32835,2.482665,-1.032514,-0.171699,-0.02857,0.108887,0.7229,-0.226807,0.507766,5.427786,7.514158,-1.020449,-0.087927,-0.142738,0.072998,-0.440186,-0.387695,0.952042,-7.423909,2.610839,-0.357166,-0.040877,0.083368,0.105469,0.505859,-0.342773,-0.478752,-9.446833,2.288017,-0.107948,-0.776217,-0.143746,0.101807,0.508789,-0.288086,1.403211,-9.897003,3.732547,-1.35459,-0.101139,-0.090131,-0.026123,0.494141,-0.400146
2.408149,-10.523472,1.873154,-1.090078,-0.050156,-0.010717,0.106934,0.72876,-0.211182,0.854218,3.93154,7.53365,-1.175295,0.057971,-0.084509,0.074707,-0.427002,-0.391846,0.450164,-7.410467,2.866626,-1.299601,-0.287743,0.069708,0.102051,0.513672,-0.326904,0.78535,-7.127072,1.992913,-1.234825,-0.891752,0.098328,0.097168,0.51416,-0.27002,1.347838,-10.221587,3.874185,-0.579066,-0.174655,-0.067218,-0.029297,0.497803,-0.392578
1.200992,-10.726114,2.079663,-0.21243,-0.058539,0.008567,0.096924,0.733398,-0.203369,-0.248254,4.059525,7.846989,-0.063671,0.425627,-0.055132,0.077148,-0.432617,-0.402344,0.272271,-10.664023,2.318216,-1.040635,0.136636,0.028182,0.096436,0.526611,-0.30835,-0.237949,-12.659223,0.12703,-1.537572,-0.686494,0.211065,0.086914,0.531006,-0.246582,1.048783,-9.197741,3.850463,-0.238247,-0.18751,-0.115897,-0.041992,0.504395,-0.385498
2.429712,-9.229142,2.484528,-0.149459,-0.150251,-0.060612,0.106201,0.725586,-0.20874,0.070865,5.594447,8.434811,-0.257229,0.259915,-0.134467,0.085693,-0.427002,-0.400879,-0.320385,-10.386953,2.172312,0.1525,-0.274633,-0.340252,0.101318,0.516357,-0.320801,1.112695,-12.035946,-0.781101,0.51502,-0.523278,-0.569091,0.084717,0.520264,-0.265869,1.032881,-9.031986,3.773546,-0.264018,-0.297428,-0.040541,-0.036621,0.499023,-0.391113
2.290623,-8.35137,2.581296,-0.044507,0.139422,0.032844,0.107178,0.722168,-0.197754,0.459118,4.473321,7.707635,-0.502577,0.514051,0.074428,0.083496,-0.414795,-0.409424,2.045622,-8.425037,2.519525,-0.183765,0.065233,-0.348939,0.096924,0.511963,-0.302734,1.696819,-7.816183,0.846971,-0.088563,0.211307,-0.272375,0.082275,0.515869,-0.250244,1.306233,-8.330163,4.251253,0.103012,-0.447103,-0.120119,-0.040527,0.490723,-0.377441
1.458355,-7.975096,2.411287,-0.69359,0.111177,0.017124,0.106201,0.732178,-0.192871,-1.199229,5.108541,8.573951,-0.195215,0.388802,0.046564,0.099121,-0.430176,-0.406738,-0.625799,-8.971739,2.052544,-0.761814,0.228315,-0.208474,0.094727,0.521973,-0.298096,-0.400778,-8.803282,0.845921,-0.843262,0.332208,-0.095603,0.08252,0.525879,-0.241699,1.320595,-7.378953,4.427084,-0.48814,-0.436062,-0.032478,-0.050049,0.500732,-0.378906
2.025949,-9.903441,1.854515,-0.868393,0.114291,0.057081,0.109375,0.742676,-0.17627,-0.58692,5.774118,9.41088,-1.038141,0.11806,0.114181,0.094238,-0.408691,-0.419678,1.091351,-10.766595,0.738504,-1.285437,-0.170274,-0.156813,0.091797,0.535889,-0.274902,0.374767,-9.277991,1.178043,-0.782306,-0.066377,-0.059382,0.082764,0.539307,-0.22583,1.333498,-8.618631,3.842682,-1.200481,-0.402609,0.02313,-0.051514,0.516602,-0.354248
2.920021,-9.443926,1.926296,-0.196304,0.199845,0.146829,0.108887,0.742188,-0.179199,0.132351,1.798967,8.207042,-1.264818,-0.107574,0.166191,0.09082,-0.395996,-0.43042,1.596356,-12.136674,0.784294,-0.462376,0.15532,-0.009068,0.091064,0.53418,-0.269775,1.371605,-10.509375,0.217946,-0.789313,-0.03474,0.142684,0.081055,0.538086,-0.217773,1.734975,-10.912564,2.798887,-0.886514,-0.616664,0.050253,-0.061523,0.522949,-0.343506
0.924398,-9.274266,1.394201,-0.462141,0.389578,0.140441,0.123291,0.745117,-0.17334,-0.821012,3.318669,9.355639,0.773738,0.060473,0.088869,0.078369,-0.397461,-0.429443,-0.044541,-10.948893,1.255458,0.172052,0.275234,-0.031351,0.101562,0.539062,-0.275879,0.709971,-10.9974,0.233252,-0.029979,0.317436,0.026472,0.092041,0.543945,-0.218262,1.748387,-9.915027,2.979343,0.454744,-0.568366,0.0332,-0.057861,0.524414,-0.349365
1.676512,-11.039492,0.435658,-0.091187,0.06327,0.082076,0.117188,0.737793,-0.171875,-1.102002,6.142905,9.734991,-0.012849,-0.347074,0.070471,0.078857,-0.404053,-0.42041,-0.288541,-10.114028,1.218255,-0.035304,-0.196338,0.0589,0.094971,0.529785,-0.272949,0.259282,-9.370676,1.099234,0.220019,0.447517,0.121144,0.089844,0.530762,-0.218018,1.90169,-8.265889,3.280387,-0.004538,-0.496414,-0.027473,-0.071045,0.512939,-0.348145
0.341713,-9.063493,1.39619,0.282606,-0.134343,0.006257,0.111328,0.751953,-0.167725,-0.215562,4.833997,9.059986,-0.311204,-0.180523,-0.047394,0.07959,-0.401367,-0.425049,0.59208,-9.770037,1.300295,0.050227,-0.045655,0.104528,0.091064,0.543945,-0.268799,-1.026733,-9.267826,1.586798,-0.179755,0.400133,0.223216,0.092041,0.547119,-0.209961,2.193118,-8.846018,3.151247,-0.19711,-0.25677,0.126353,-0.07373,0.532959,-0.340088
2.637513,-8.816052,1.47751,-0.29117,-0.352599,-0.116025,0.11084,0.741699,-0.169678,-0.194982,5.09254,8.593262,-0.018635,-0.26316,-0.069983,0.075684,-0.397217,-0.420654,1.139656,-9.461173,1.59847,-0.18368,0.051849,0.127416,0.096436,0.534668,-0.275879,-0.132442,-9.970676,1.378989,-0.177426,-0.451137,0.155252,0.095459,0.539551,-0.215088,2.35752,-8.952034,3.426389,-0.074615,0.034888,-0.182304,-0.071533,0.520264,-0.344238
1.276708,-8.948168,1.921996,-0.106007,-0.310613,-0.043941,0.103027,0.746094,-0.165039,0.183112,5.151336,8.612788,-0.384976,-0.255344,-0.028684,0.075928,-0.390381,-0.432373,0.709605,-9.858502,1.958683,-0.305128,0.268979,0.254956,0.098877,0.541748,-0.263916,1.408888,-9.483641,0.39471,-0.129239,-0.08475,0.140336,0.092041,0.541992,-0.207031,1.773198,-8.175784,4.004799,0.003621,0.114256,0.103344,-0.073975,0.523926,-0.338135
2.347241,-8.491592,2.240027,-0.501463,-0.259524,-0.091577,0.102539,0.750732,-0.163818,-0.371565,4.816708,8.476236,-0.498941,-0.277567,0.094915,0.079102,-0.397461,-0.435547,0.202806,-9.484098,2.108006,-0.237276,0.246817,0.105099,0.104736,0.54541,-0.268066,-0.2497,-9.362454,0.777325,-0.356766,0.170291,0.248941,0.101074,0.547119,-0.209717,1.407596,-7.668961,4.251754,-0.443304,0.094303,-0.159875,-0.073486,0.530029,-0.339111
1.850367,-9.706939,1.924324,-0.619077,-0.159078,-0.077248,0.099365,0.748535,-0.152588,0.359523,3.820304,8.450362,-0.862276,-0.32877,0.130878,0.0625,-0.384521,-0.441895,0.442558,-8.995283,1.796792,-0.483931,0.266231,0.198051,0.105225,0.541992,-0.263184,0.629637,-9.615047,0.706159,-0.482333,-0.062149,0.210683,0.100586,0.542725,-0.203369,1.467197,-8.691973,3.996321,-0.870509,0.066078,0.098911,-0.076904,0.530029,-0.326904
1.92992,-9.954614,1.984426,-0.316168,0.099603,0.002764,0.09668,0.745361,-0.152588,-0.257944,3.191886,8.331193,-0.283133,-0.147085,0.268203,0.068604,-0.383545,-0.449219,-0.000536,-9.624121,1.488025,-0.497227,0.392357,0.137039,0.108154,0.539551,-0.25293,-0.288532,-10.177579,1.009822,-0.495269,0.471697,0.266189,0.104492,0.542236,-0.197021,0.61135,-10.078217,3.261999,-0.560113,-0.007726,-0.086943,-0.07959,0.532959,-0.322266
1.880383,-10.226873,1.685605,-0.370825,0.120828,-0.033892,0.103271,0.745361,-0.141357,0.314769,4.30733,8.698894,-0.092045,-0.196247,0.238908,0.053711,-0.376953,-0.446045,0.150759,-9.628808,1.350839,-0.205531,0.391962,0.05316,0.119385,0.538574,-0.24585,-1.531956,-10.740834,0.986891,-0.29645,-0.196515,0.019868,0.111572,0.539307,-0.187744,1.018388,-10.046433,3.06101,-0.192146,-0.414269,-0.036137,-0.077637,0.529053,-0.310303
1.663037,-10.217977,1.170203,-0.14571,0.256787,0.094872,0.107422,0.747803,-0.13623,0.189468,4.500627,8.981451,-0.437541,0.070488,0.340076,0.050293,-0.374023,-0.449951,0.042967,-8.872012,1.130164,-0.140602,0.580707,-0.059156,0.119141,0.538574,-0.237793,0.754566,-10.099141,0.624932,-0.165384,-0.261549,-0.108742,0.109863,0.541748,-0.182617,1.828421,-9.951696,2.737585,-0.268991,-0.417554,-0.026376,-0.082031,0.535156,-0.30249
1.26473,-9.852401,0.856505,-0.356672,0.093012,0.005546,0.114258,0.747803,-0.131104,0.016014,3.799183,8.744306,-0.436281,0.078571,0.162928,0.058594,-0.374512,-0.450195,-0.501683,-8.879568,1.0267,-0.457327,0.439303,-0.080791,0.128174,0.543945,-0.231201,-0.438267,-9.630484,0.981881,-0.325732,0.208031,-0.090734,0.113037,0.54126,-0.179443,1.843362,-9.926425,2.5523,-0.264328,-0.311749,0.005063,-0.077393,0.537354,-0.297607
1.350495,-10.263034,0.658064,-0.231914,-0.191165,-0.008557,0.10791,0.754395,-0.128906,0.333293,3.992197,9.190386,-0.211023,0.215502,-0.017805,0.054688,-0.371338,-0.460205,0.127131,-9.537832,0.410209,-0.342001,0.305548,-0.174835,0.122803,0.550781,-0.226318,-0.372754,-9.895497,0.717801,-0.346304,-0.36748,-0.18356,0.105225,0.55249,-0.173096,2.289656,-9.592091,2.543181,-0.101,-0.201149,-0.024207,-0.084961,0.542236,-0.297852
2.126511,-9.980077,1.106174,-0.031197,-0.185525,-0.071709,0.108398,0.751953,-0.126465,-0.071497,3.123586,9.436435,-0.393289,0.279564,-0.105101,0.067627,-0.369873,-0.457031,0.134633,-10.278892,0.393761,-0.294341,0.339671,-0.100074,0.128174,0.552002,-0.220947,1.095695,-10.124882,0.644495,-0.121435,-0.031091,-0.205573,0.104736,0.550293,-0.175049,2.00216,-9.305647,2.957737,-0.10393,0.081432,-0.023331,-0.080078,0.538574,-0.296875
1.559004,-9.629507,1.295794,0.036266,-0.198175,-0.053342,0.092041,0.760498,-0.119629,-0.395189,2.791218,9.135374,0.196234,0.141933,-0.211027,0.068359,-0.374512,-0.463135,-0.224984,-10.98408,0.523138,0.026009,0.143357,-0.086623,0.111816,0.557129,-0.213623,-0.711302,-9.745808,0.646374,0.113583,-0.021474,-0.141039,0.087402,0.557861,-0.171631,1.114786,-9.444534,3.123527,-0.051322,-0.042423,0.006613,-0.096436,0.546143,-0.289551
2.299189,-9.157191,1.422468,-0.03532,-0.053953,-0.009831,0.098877,0.753662,-0.122803,-0.01661,4.067094,9.493112,0.078779,0.091343,-0.143916,0.067139,-0.359863,-0.455078,0.701638,-9.821264,0.501915,0.221422,0.181678,-0.153042,0.117676,0.553223,-0.2229,0.60811,-9.595317,0.268557,-0.185577,-0.439448,-0.108467,0.0896,0.55249,-0.172363,1.699316,-9.200376,3.133707,0.053634,-0.210944,-0.079538,-0.092041,0.540771,-0.290283
1.748639,-9.813495,1.086747,-0.092394,0.018756,-0.023023,0.093506,0.756592,-0.126953,-0.368108,2.907585,9.172658,-0.341927,0.016108,-0.146957,0.071533,-0.375732,-0.459229,-0.160945,-9.859355,0.538041,-0.130647,0.193333,0.042787,0.11377,0.554688,-0.223389,0.486622,-10.495476,0.307437,-0.037954,0.076145,-0.03199,0.083252,0.554932,-0.174072,1.620205,-9.092801,2.985326,-0.027074,-0.123929,0.037692,-0.097168,0.542725,-0.294434
1.594121,-9.618105,0.960594,0.042013,0.1043,0.035945,0.103027,0.749023,-0.126221,-0.373158,2.843048,9.229162,0.311295,-0.005903,-0.201614,0.069824,-0.359863,-0.458008,0.142313,-10.561251,0.193553,-0.035878,0.034545,-0.042782,0.12085,0.546875,-0.220703,-0.848711,-9.688301,0.561982,0.275033,-0.27318,-0.171874,0.090332,0.548828,-0.177734,1.538014,-9.384,2.876234,-0.14101,-0.194891,-0.042585,-0.090576,0.536377,-0.287354
1.551505,-9.721246,0.816013,0.041777,-0.040752,-0.022098,0.098145,0.752441,-0.127686,-0.617902,4.416797,9.439273,0.351642,-0.118353,-0.287386,0.077637,-0.372314,-0.440674,0.042758,-10.193854,0.600298,0.224677,0.113753,0.048223,0.12085,0.551758,-0.2229,0.925077,-9.024639,0.056419,-0.005559,-0.476193,0.001088,0.083496,0.551758,-0.178711,1.906555,-9.871445,2.61466,0.00513,-0.145957,0.044498,-0.09668,0.539795,-0.289551
1.388827,-9.258846,0.836437,-0.029261,-0.064842,0.028946,0.097656,0.762939,-0.129639,-0.371766,4.49204,9.437626,-0.246783,-0.215124,-0.306792,0.072998,-0.365723,-0.459473,-0.410271,-9.859639,1.469472,-0.125905,-0.056456,0.08451,0.119385,0.560547,-0.227295,1.092236,-9.87177,0.197123,-0.149603,0.173607,0.164009,0.083984,0.559326,-0.180908,1.911729,-9.346786,2.739043,0.093132,0.007761,-0.037474,-0.0979,0.546631,-0.293457
1.989563,-10.036097,0.907301,-0.105158,-0.164077,0.00935,0.101807,0.756104,-0.125,-0.181619,2.90248,8.780748,-0.165501,-0.293903,-0.249118,0.073486,-0.361328,-0.467773,0.339076,-10.566494,1.014474,0.05048,-0.187064,0.164958,0.126221,0.549316,-0.228027,-0.09669,-9.726233,0.38305,0.378201,0.240085,0.132793,0.090332,0.551025,-0.184082,1.674476,-9.566025,2.746401,-0.17657,0.082593,0.11839,-0.090576,0.541992,-0.290283
1.71204,-9.902576,1.181125,0.225305,-0.02038,0.084359,0.107422,0.751465,-0.127686,0.119327,3.649469,8.735635,0.504196,-0.225545,-0.229852,0.074219,-0.364258,-0.452637,0.354071,-9.350601,1.103064,0.498981,0.092042,0.145286,0.135254,0.544189,-0.229004,-0.192347,-8.51955,1.190017,0.173976,0.118945,0.149788,0.10083,0.54834,-0.183105,1.295079,-10.20664,2.685121,0.034269,0.009999,0.075401,-0.084717,0.541504,-0.289307
1.686736,-9.515412,1.270993,-0.010647,0.001909,0.099347,0.094238,0.74585,-0.122559,-0.255843,4.732695,9.260423,0.068144,-0.146805,-0.151013,0.069336,-0.370117,-0.450684,-0.368609,-8.460528,1.589327,-0.011983,0.085128,0.192283,0.121582,0.538574,-0.226074,-0.464218,-9.71586,1.304649,-0.155985,-0.106442,0.274977,0.088623,0.543213,-0.177734,1.450097,-9.602417,2.741559,0.349737,-0.094358,0.051634,-0.098145,0.531006,-0.288818
1.02355,-10.219661,0.77793,0.141554,-0.020148,0.060358,0.095703,0.754883,-0.135498,-0.449074,3.662854,8.783708,-0.117936,-0.164655,-0.164732,0.072754,-0.364502,-0.449219,-0.664786,-10.111881,1.17887,-0.214736,-0.003998,0.310462,0.125244,0.549072,-0.233643,0.050022,-10.111792,0.852045,0.257694,-0.146289,0.113816,0.090088,0.548828,-0.192627,1.357089,-8.769854,2.82673,0.23521,-0.08445,0.068118,-0.0979,0.54126,-0.302734
1.611355,-9.041639,1.152475,0.165971,-0.11811,0.059983,0.105469,0.750488,-0.130371,0.046329,3.725433,8.799556,0.207381,-0.106701,-0.236794,0.07666,-0.368408,-0.446533,-0.183307,-9.783897,1.150911,0.392794,-0.066011,0.029304,0.13501,0.54126,-0.233643,0.063159,-9.404509,0.990828,0.141093,0.031851,0.143017,0.101807,0.544922,-0.187744,1.679726,-8.915071,2.791155,-0.096244,-0.03237,0.047277,-0.087158,0.536377,-0.293457
1.549304,-9.87195,1.015582,-0.061096,-0.087005,-0.001067,0.103271,0.75,-0.134033,-0.082461,3.857954,8.83344,0.074969,-0.002126,-0.213055,0.072754,-0.374023,-0.457764,-0.436063,-8.81656,1.50524,0.202491,-0.034007,0.190983,0.137451,0.539551,-0.239746,0.198662,-10.290949,1.288685,0.032296,0.052721,0.156075,0.102295,0.541016,-0.192383,1.539645,-9.553624,2.78587,0.045536,0.072175,0.090623,-0.088135,0.532715,-0.300537
1.660991,-9.722788,1.088814,0.257687,-0.050807,0.0375,0.099609,0.748779,-0.137451,-0.009825,3.539958,8.72761,0.098029,0.008556,-0.234606,0.073242,-0.373291,-0.450684,-0.250191,-9.44582,1.317934,0.013126,-0.195829,0.017324,0.133301,0.537354,-0.241943,-0.620425,-10.234814,1.857854,0.331236,0.076899,0.00901,0.099121,0.540039,-0.197021,1.23105,-9.11302,2.91084,0.27854,-0.004289,-0.032365,-0.091797,0.533447,-0.306152
1.799825,-9.423688,1.341504,0.06083,-0.00624,0.004033,0.108887,0.75,-0.126465,0.12048,3.620967,8.902045,0.245684,0.133685,-0.177715,0.083008,-0.374512,-0.448486,0.108519,-9.735266,1.170621,0.177839,-0.06903,0.054545,0.142578,0.536621,-0.231689,-0.731109,-10.051478,2.007514,0.074001,-0.423018,-0.081495,0.103516,0.539551,-0.186035,1.512341,-8.858663,2.998446,0.110323,-0.092208,0.041345,-0.083984,0.533203,-0.293457
1.628238,-9.724531,1.049531,0.131969,0.13986,0.031174,0.105225,0.743408,-0.13501,-0.320054,4.222148,8.91721,0.220035,0.170057,-0.163332,0.087891,-0.373291,-0.450684,-0.47252,-9.607704,1.498449,0.158447,-0.04818,-0.066036,0.137451,0.533203,-0.244385,-0.017465,-10.428315,1.881545,0.098714,-0.562489,-0.130461,0.094482,0.537842,-0.195557,1.397582,-9.251359,2.915256,-0.030573,-0.047137,-0.012306,-0.08667,0.530762,-0.298828
1.07691,-9.156497,1.142378,0.008946,0.047593,0.034924,0.10791,0.751953,-0.13916,-0.654346,4.336147,9.073173,-0.059752,0.148234,-0.141299,0.0896,-0.375244,-0.435791,-0.626262,-9.614341,1.500686,-0.043168,-0.1489,-0.0231,0.134033,0.540771,-0.243652,-0.52682,-9.823421,2.009791,0.149772,-0.609417,-0.203822,0.088379,0.54541,-0.202148,1.349326,-9.382452,2.826404,0.020955,-0.090575,0.025659,-0.08667,0.535889,-0.300293
0.996656,-9.888337,0.79296,-0.075422,-0.011312,-0.002396,0.107666,0.755615,-0.131592,-0.896799,3.781273,8.762479,0.004299,0.086547,-0.20185,0.094482,-0.370361,-0.438232,-0.917815,-10.435483,1.337146,-0.02243,-0.240351,0.011119,0.13501,0.542969,-0.238037,-0.270362,-9.724302,2.050062,0.043452,-0.794586,-0.121078,0.08374,0.548828,-0.201416,1.592448,-9.346345,2.736474,0.017666,0.039103,-0.002775,-0.084229,0.537598,-0.300537
1.722423,-9.39484,1.376478,0.268601,-0.181003,0.024145,0.102051,0.75293,-0.140381,-0.149722,4.273256,8.624585,0.221277,-0.018122,-0.214329,0.098145,-0.377197,-0.446045,0.167862,-9.652002,1.326697,0.343264,-0.393393,-0.156271,0.124512,0.538574,-0.253174,-0.453132,-10.279255,1.091759,-0.186285,-0.929871,-0.123752,0.067383,0.544678,-0.207764,1.334779,-9.383959,2.835377,0.07583,0.117939,0.057622,-0.089355,0.535645,-0.306885
1.875585,-8.520743,1.969353,-0.251767,0.112503,0.078005,0.107422,0.750977,-0.134277,-0.262918,4.637854,9.175204,-0.274911,0.148435,-0.120135,0.094238,-0.371094,-0.436768,0.075927,-9.076141,2.137534,-0.398414,-0.062526,-0.068149,0.12793,0.539795,-0.243652,0.713897,-10.977049,1.047923,-0.292892,-1.07666,-0.227789,0.062744,0.546875,-0.19751,1.037899,-8.791892,3.240243,0.042903,-0.046414,0.008682,-0.083984,0.533936,-0.301758
1.751269,-10.064985,1.199623,-0.300243,0.118732,0.06969,0.112305,0.755371,-0.139648,-0.664831,3.732819,8.857426,-0.369046,-0.093911,-0.00709,0.089844,-0.368164,-0.447266,-0.446849,-11.45917,1.570572,-0.592668,-0.430854,-0.099252,0.125,0.547607,-0.246338,0.867937,-10.225046,1.470317,0.055517,-0.626334,-0.208765,0.05835,0.550537,-0.207275,1.403248,-8.644881,3.068011,-0.267728,-0.23096,0.060837,-0.083008,0.539062,-0.306641
1.095417,-9.339505,1.027084,0.051002,0.204479,0.122837,0.109375,0.748291,-0.129639,-0.257586,3.944262,8.606643,0.044058,-0.032604,0.019691,0.09082,-0.371338,-0.440186,0.720358,-10.630637,0.888315,0.474001,-0.1684,-0.150102,0.118164,0.536133,-0.242432,-1.298231,-9.212397,1.639689,-0.102229,-0.894578,-0.216242,0.045898,0.54248,-0.197266,1.638356,-9.486128,2.59223,-0.328425,-0.142426,0.087273,-0.087158,0.536621,-0.292725
1.21402,-9.274806,0.926808,-0.182648,0.043619,0.056522,0.114746,0.750732,-0.130615,-0.858919,4.61693,9.084081,-0.027256,-0.030571,0.054397,0.096924,-0.36377,-0.44458,-0.515946,-7.961487,1.480822,0.24153,0.019194,-0.121749,0.120361,0.538086,-0.247314,-0.9806,-9.456768,2.298839,-0.130163,-1.532473,-0.230622,0.037598,0.545898,-0.199219,1.40891,-9.520036,2.5544,0.103267,-0.047997,0.031362,-0.084229,0.537598,-0.292725
1.494418,-9.797556,0.912202,-0.026669,-0.092036,0.032996,0.108398,0.74707,-0.135254,-0.126232,4.383698,9.299056,-0.240644,-0.194058,-0.002999,0.101318,-0.370361,-0.449707,0.313942,-9.141016,0.931167,-0.793616,-0.270547,0.14266,0.116943,0.5354,-0.23999,-0.562315,-8.774808,1.133333,-0.197211,-1.965904,-0.309913,0.015869,0.543945,-0.203857,1.723739,-8.688858,2.660653,0.090244,-0.116574,0.019423,-0.089111,0.53418,-0.302246
1.599075,-9.024593,1.006023,-0.356282,0.029344,0.046054,0.111328,0.751709,-0.111816,-0.22128,4.102377,9.510073,-0.473275,-0.006536,-0.017179,0.087158,-0.361816,-0.454346,-0.040665,-11.575382,0.921042,-0.61423,0.112209,0.032438,0.120361,0.544434,-0.222168,1.37921,-9.712432,0.814485,-0.758052,-2.083817,-0.007536,0.007324,0.551758,-0.176514,2.013487,-8.671062,2.532516,-0.495281,0.063732,0.046893,-0.084717,0.540039,-0.279297
1.119462,-10.580584,0.268861,-0.347853,-0.177498,-0.054454,0.108154,0.757568,-0.121094,-0.71081,3.063869,9.129407,-0.448534,-0.180693,-0.055642,0.085205,-0.35498,-0.466309,-1.075734,-10.4797,1.183571,0.321317,-0.380012,-0.039499,0.114258,0.546875,-0.237549,0.866596,-11.13317,0.371417,-0.216414,-1.482484,-0.133984,-0.008301,0.557129,-0.183105,1.275367,-9.933781,2.574299,-0.470775,0.163841,0.089282,-0.087402,0.547852,-0.28418
1.248604,-10.105607,0.620107,0.143631,-0.119675,-0.013808,0.113525,0.763672,-0.115723,-0.148978,2.986603,9.013792,0.153575,-0.08391,-0.060325,0.09375,-0.354004,-0.465088,0.528697,-8.902638,1.351352,0.026234,-0.293779,0.054394,0.119141,0.553223,-0.231689,-0.559483,-9.972232,1.012953,0.275411,-1.655516,-0.316557,-0.016846,0.563477,-0.181152,1.249622,-10.116693,2.175055,0.095611,0.085228,-0.059417,-0.081055,0.553711,-0.279297
1.89158,-9.633394,1.184545,0.007437,-0.168823,-0.051438,0.108398,0.753418,-0.118896,-0.214917,3.895506,9.2944,0.154988,-0.083863,0.040459,0.087646,-0.361084,-0.45752,-0.292548,-10.121172,1.085378,-0.147197,-0.225946,0.129691,0.116455,0.543701,-0.233398,0.235131,-9.331634,0.809768,0.112472,-2.092994,-0.296952,-0.032959,0.552246,-0.184326,1.287119,-9.234084,2.677557,0.2711,0.108532,-0.018531,-0.081787,0.543213,-0.286865
1.350065,-10.083303,0.95702,0.091417,0.107355,-0.02496,0.106445,0.753418,-0.123291,-0.13543,3.546279,9.394912,-0.061646,0.033066,0.066303,0.085938,-0.355225,-0.452881,-0.075914,-9.901748,1.004754,0.341809,-0.251119,0.068565,0.11499,0.544678,-0.238525,1.198533,-9.175436,0.847315,0.166556,-1.900581,-0.29137,-0.051758,0.554199,-0.186768,1.10332,-9.000162,2.86683,0.028665,-0.032495,-0.041743,-0.087646,0.544189,-0.287354
1.533765,-9.625261,0.904352,0.130483,-0.065636,-0.052581,0.113037,0.74707,-0.123535,-0.649769,3.314331,8.964207,0.138092,-0.05286,0.048443,0.080566,-0.360596,-0.454102,-0.487922,-8.824366,0.860888,0.286705,-0.373329,0.233582,0.12085,0.534912,-0.243652,-0.406716,-8.18701,0.665409,0.490438,-1.744919,-0.249189,-0.05835,0.544434,-0.189697,1.565423,-9.524191,2.547689,-0.071137,-0.046483,-0.038139,-0.080811,0.533936,-0.285889
1.064948,-9.130733,1.101061,0.020965,0.025607,-0.03798,0.110596,0.762695,-0.128418,-0.066277,4.580306,8.873796,0.279388,-0.014031,-0.041326,0.076172,-0.363525,-0.459717,0.141972,-8.617937,0.939381,-0.103527,-0.300067,0.308585,0.124023,0.549805,-0.248047,-0.648222,-7.680467,1.014028,-0.09451,-2.293069,-0.0587,-0.07251,0.55835,-0.1875,1.462908,-9.352588,2.645272,0.137442,0.074537,-0.063076,-0.08252,0.549316,-0.291992
1.895761,-9.367691,1.068198,-0.251958,-0.146586,-0.069411,0.10791,0.748047,-0.118408,-0.220492,4.66384,8.952902,-0.485748,0.012113,0.012555,0.086182,-0.359375,-0.452148,-0.43917,-9.463831,1.350239,-0.460912,-0.240957,0.240702,0.126709,0.537842,-0.235596,0.962185,-10.680971,-0.01654,-0.842696,-2.523855,0.155885,-0.081299,0.548828,-0.164307,1.391115,-8.831226,2.805839,-0.135069,0.016783,-0.049049,-0.082275,0.533936,-0.284424
1.378263,-9.982498,0.867447,-0.23013,0.025368,-0.003306,0.107666,0.761963,-0.117432,0.077374,2.425722,8.663754,-0.636826,0.044759,0.013426,0.083984,-0.348633,-0.467773,0.185519,-10.281877,0.452924,-0.125246,-0.367405,0.147515,0.124268,0.548584,-0.237305,0.171193,-11.938496,-1.10543,0.432029,-1.883358,-0.282986,-0.09668,0.55835,-0.165283,1.545772,-9.57574,2.664534,-0.469756,0.053997,0.03111,-0.082764,0.552246,-0.278564
1.992445,-10.125184,0.739567,0.147517,0.024031,-0.016688,0.106934,0.759277,-0.11499,-0.272135,2.283249,8.795977,0.486021,0.118602,0.051299,0.091309,-0.359131,-0.458496,0.041635,-9.392261,0.590674,0.361607,-0.012298,0.253209,0.129883,0.542969,-0.241455,-1.306752,-7.35855,0.958847,0.932275,-2.417299,-0.582724,-0.116699,0.547119,-0.170166,1.242216,-10.469378,2.316999,0.049859,-0.0002,-0.001424,-0.081787,0.547363,-0.278076
0.973314,-9.099802,0.940992,0.089054,0.026523,0.016318,0.110107,0.753418,-0.122803,-0.331689,5.21115,9.196378,0.427494,0.074002,-0.080414,0.083496,-0.354004,-0.454834,-1.060064,-8.985336,0.918143,-0.176561,-0.237068,0.266617,0.136963,0.536133,-0.243164,0.978613,-8.687731,0.32621,-1.083447,-2.745774,0.095174,-0.122803,0.549316,-0.150879,1.565288,-9.170129,2.552984,0.456505,-0.087109,-0.089878,-0.080566,0.540039,-0.291748
1.779214,-9.091138,0.847118,-0.30749,-0.071745,-0.012578,0.10376,0.756836,-0.119141,-0.13682,4.676378,8.993914,-0.787472,0.115724,-0.031647,0.084961,-0.356689,-0.461914,-0.013453,-10.017677,1.017473,-0.526732,-0.213787,-0.051778,0.128174,0.54248,-0.237061,0.49967,-14.025744,-1.320725,-0.616506,-2.503215,-0.071558,-0.142334,0.553223,-0.133545,1.781729,-8.169403,2.768772,-0.2359,0.064501,0.006222,-0.087402,0.544922,-0.284668
1.42298,-10.002109,0.667073,-0.361458,-0.075104,-0.011465,0.103271,0.765869,-0.108154,-0.272842,1.967995,8.937013,-0.698198,0.167034,-0.067383,0.091309,-0.341797,-0.463623,-0.789247,-10.486173,0.738818,-0.211783,-0.210966,-0.053042,0.122803,0.550781,-0.228027,1.655876,-9.976605,-1.155349,0.961973,-2.437275,-0.678823,-0.164307,0.551514,-0.13208,1.454145,-9.665302,2.524871,-0.779986,0.151155,0.084476,-0.085938,0.556152,-0.270996
1.938071,-10.285204,0.698691,0.059837,0.010293,0.022117,0.104736,0.75708,-0.111084,-0.443886,2.046431,8.85723,0.423945,0.091347,-0.082288,0.088379,-0.346436,-0.461914,-0.046851,-10.338233,0.271405,0.15908,-0.380816,-0.021659,0.122314,0.542725,-0.23291,0.442736,-7.713722,-0.495353,-0.342629,-1.88766,-0.307663,-0.172363,0.543701,-0.115479,1.242655,-10.80298,2.106388,0.018235,0.051693,0.009339,-0.084229,0.550049,-0.271729
1.675684,-9.30982,0.908979,0.340185,0.008669,0.019231,0.100342,0.762451,-0.113525,0.051011,4.438877,9.175856,0.588101,0.081666,-0.088238,0.102295,-0.35791,-0.455322,0.249962,-9.454803,0.623815,0.415995,-0.159531,0.039466,0.120117,0.543701,-0.235352,-0.685972,-11.185605,-1.165046,-0.329444,-2.381079,-0.42864,-0.193604,0.546143,-0.099365,1.551097,-9.240522,2.42628,0.760341,-0.143131,-0.067655,-0.091309,0.551025,-0.280029
1.626085,-9.086673,0.898882,-0.119018,0.071601,0.03128,0.102051,0.765625,-0.109375,-0.518317,4.451878,9.362705,-0.307143,0.151374,-0.032587,0.095215,-0.348389,-0.455078,-0.491052,-9.116521,1.103486,-0.088302,-0.117235,0.039672,0.122314,0.545898,-0.234619,1.750015,-9.570685,-0.939898,0.552007,-2.430711,-0.670242,-0.208008,0.541992,-0.095947,1.844894,-7.945931,2.885577,-0.025104,0.025261,0.000328,-0.089111,0.553711,-0.278809
1.399807,-10.054256,0.448759,-0.066991,-0.02427,-0.00712,0.101318,0.764404,-0.11792,-0.418846,2.873049,8.943294,-0.174088,0.051375,-0.041159,0.098877,-0.346436,-0.459717,-0.402942,-10.387172,0.96532,-0.242174,-0.232603,0.015728,0.121338,0.546143,-0.240723,1.399471,-8.452867,-0.976801,-0.333492,-2.057782,-0.269024,-0.218506,0.538574,-0.08667,1.423054,-9.486837,2.443076,-0.493672,0.081049,0.102714,-0.088379,0.552734,-0.282471
1.465192,-9.536083,0.707181,0.01017,0.005101,-0.023456,0.107178,0.76001,-0.104004,-0.390158,3.845298,9.288671,0.293144,0.224091,-0.098619,0.100098,-0.353027,-0.462402,-0.303652,-10.058671,0.860524,0.166701,-0.12978,-0.142634,0.123291,0.540771,-0.227783,1.5406,-10.440931,-2.256585,-0.329999,-2.120279,-0.191816,-0.221436,0.532471,-0.055664,1.487139,-10.070752,2.29191,0.064567,0.065306,-0.082313,-0.081543,0.548584,-0.269043
1.488484,-9.56843,0.828865,-0.138163,-0.079179,-0.037932,0.104248,0.758545,-0.112061,-0.793589,4.509475,9.22954,-0.251445,0.130449,-0.044947,0.094727,-0.344482,-0.459717,-0.653042,-8.935121,1.394147,-0.13562,-0.184206,-0.1191,0.118652,0.539307,-0.240723,2.838565,-8.936501,-1.843139,0.228154,-1.738101,-0.249321,-0.231201,0.526611,-0.061768,1.453185,-8.881904,2.633762,0.174977,0.105191,-0.04498,-0.082275,0.546143,-0.282959
1.550655,-9.310737,0.928788,-0.165636,-0.03789,-0.010602,0.094727,0.75708,-0.112793,-0.391148,3.254526,8.884668,-0.507463,0.123097,-0.080351,0.111816,-0.345215,-0.458008,-0.204569,-10.033585,0.792278,-0.583844,-0.327988,-0.074045,0.109131,0.541504,-0.233643,1.990437,-8.978051,-1.14878,-0.609035,-1.17064,0.131206,-0.240967,0.530029,-0.046875,1.448765,-8.879837,2.648066,-0.440995,0.099737,-0.001854,-0.091064,0.547852,-0.278809
1.755553,-9.923425,0.726291,-0.206768,-0.04007,-0.010102,0.094482,0.759766,-0.107666,-0.655557,2.695803,8.93848,0.005762,0.12782,-0.024994,0.100342,-0.338867,-0.460449,0.211495,-10.899069,0.284532,-0.028285,-0.173863,-0.130288,0.105469,0.546631,-0.233643,-0.390876,-11.438347,-1.179934,-0.26518,-1.382539,-0.126943,-0.245605,0.529785,-0.035156,1.40724,-10.21794,2.25935,-0.336547,0.109614,0.070519,-0.088623,0.554932,-0.272461
1.519812,-9.861222,0.682683,0.072388,-0.000511,0.018279,0.103027,0.760986,-0.107666,-0.510882,3.909456,9.232623,0.20447,0.076729,-0.057394,0.117676,-0.344482,-0.456787,-0.100704,-9.321123,0.808106,0.331995,-0.092014,-0.092211,0.108887,0.546387,-0.236572,0.898983,-9.103115,-0.991973,0.509078,-1.8139,-0.445761,-0.245605,0.525391,-0.02832,1.241122,-9.794234,2.345367,0.301255,0.009671,-0.066393,-0.08374,0.551025,-0.275879
2.006557,-9.327829,0.855895,-0.052767,0.008699,0.010375,0.106201,0.759277,-0.102051,-0.259487,3.832695,9.028755,-0.283561,0.109107,0.01965,0.10791,-0.348389,-0.458984,0.125432,-8.838689,1.097631,-0.210503,-0.136014,-0.058523,0.111084,0.542236,-0.226807,2.260074,-8.056818,-1.446111,-0.378912,-1.614747,-0.145038,-0.248291,0.522461,-0.009766,1.795978,-8.724957,2.546633,0.047464,-0.048336,-0.008702,-0.081055,0.550049,-0.269531
1.694014,-9.725922,0.601633,-0.118491,0.045071,0.030483,0.096924,0.760986,-0.099609,-0.312374,3.02747,8.807504,-0.119859,0.173611,0.009168,0.116455,-0.336426,-0.459717,0.285724,-9.950364,0.488809,-0.285497,-0.085725,-0.069211,0.10376,0.547363,-0.2229,0.611215,-10.323997,-1.367265,-0.466997,-1.256826,-0.033124,-0.259277,0.523682,0.006836,1.631199,-9.373861,2.351457,-0.345396,0.069601,0.068742,-0.089111,0.556152,-0.264648
1.492322,-9.561369,0.491459,-0.102599,0.048665,0.026429,0.104492,0.76001,-0.108887,-0.725823,3.900147,9.254671,0.08803,0.259649,-0.008788,0.111816,-0.344727,-0.463379,0.007101,-9.800768,0.388419,-0.072131,0.081238,-0.218055,0.105957,0.545898,-0.232178,-0.419917,-9.859102,-0.530093,0.09104,-1.849834,-0.206637,-0.254639,0.520264,0.007568,1.467969,-9.885334,2.170057,-0.118357,-0.009133,-0.009556,-0.082275,0.553711,-0.27417
1.496357,-9.710046,0.456875,-0.182623,-0.077777,0.013953,0.106934,0.755371,-0.101074,-0.887961,3.813842,9.245526,-0.415003,0.147739,-0.007756,0.115723,-0.333008,-0.466797,-0.157285,-9.308584,0.527697,-0.153853,-0.001338,-0.095865,0.107666,0.539307,-0.224854,1.129882,-8.384414,-1.071916,-0.094475,-2.091587,-0.190498,-0.253906,0.509521,0.0271,1.713483,-9.475375,2.394161,-0.039222,0.046939,0.018376,-0.079346,0.547852,-0.269531
1.660682,-9.615303,0.670642,-0.067383,-0.027753,0.056859,0.111328,0.76416,-0.104248,-0.608866,2.769995,8.906132,-0.249166,0.156705,-0.032797,0.123047,-0.336182,-0.458984,0.264843,-9.730683,0.521895,-0.318692,0.057726,-0.022568,0.111572,0.549072,-0.223633,0.992016,-9.25428,-1.653808,-0.376531,-1.873539,-0.084993,-0.251953,0.516846,0.038086,1.439822,-9.472609,2.167061,-0.202681,0.149573,0.058007,-0.072266,0.556396,-0.270508
1.410246,-9.450212,0.690345,-0.110583,-0.043853,0.047233,0.112305,0.759033,-0.098389,-1.031047,3.482725,9.106171,0.132612,0.173292,-0.022196,0.122559,-0.330811,-0.458984,-0.272443,-10.068935,0.562506,-0.172332,0.094253,-0.02484,0.11377,0.546387,-0.21875,0.658976,-9.930041,-1.394416,-0.082372,-2.054227,-0.146341,-0.255127,0.509033,0.057129,1.087173,-9.639262,2.27798,-0.05939,0.015664,0.070183,-0.070557,0.553711,-0.266357
1.360583,-9.597334,0.644529,-0.228577,-0.042731,0.071883,0.105469,0.762451,-0.094727,-1.012639,4.07269,9.387623,-0.340647,0.100728,-0.019935,0.120361,-0.335693,-0.467041,0.066247,-9.854248,0.530147,-0.281418,0.071954,-0.065853,0.105469,0.549316,-0.210449,0.438379,-9.848888,-1.82088,-0.216747,-2.139266,-0.142561,-0.263672,0.508057,0.07373,1.389098,-9.180652,2.2803,-0.104195,0.044329,0.022229,-0.077148,0.556152,-0.263184
1.68581,-9.778206,0.494293,-0.126025,-0.036812,0.07223,0.107178,0.761719,-0.098145,-0.894586,2.614762,9.159148,-0.510345,0.059955,0.036724,0.129639,-0.326416,-0.469727,-0.373172,-10.751726,0.62112,-0.465689,0.130862,-0.072369,0.105713,0.550781,-0.209961,2.468522,-10.473888,-4.407012,-0.258035,-2.589257,-0.113996,-0.258789,0.503662,0.090088,1.140472,-9.475043,2.316603,-0.285859,-0.006114,0.12725,-0.072754,0.557373,-0.263184
1.353209,-9.452401,0.714006,-0.201539,0.037285,0.091752,0.114014,0.761719,-0.086914,-1.05903,2.847445,9.325059,0.059035,0.076191,-0.05658,0.124512,-0.331055,-0.470947,-0.502351,-10.92441,0.388463,-0.16854,-0.116085,-0.274104,0.108154,0.551025,-0.199219,4.31686,-9.758574,-4.358624,0.070334,-1.254858,0.066121,-0.253174,0.500488,0.103271,1.200853,-9.568829,1.96465,-0.104161,-0.050985,0.027008,-0.067383,0.557617,-0.255371
1.307852,-9.743695,0.501774,-0.28843,-0.001919,0.061687,0.108398,0.769775,-0.077148,-1.214443,4.11463,9.657303,-0.241885,0.006273,-0.042777,0.129883,-0.320557,-0.455322,0.029078,-9.54121,0.138536,-0.104091,-0.088818,-0.29775,0.09668,0.559082,-0.191895,-0.40431,-9.161555,-2.225619,-0.133742,-0.862123,0.286265,-0.253418,0.509033,0.117188,1.135757,-8.953434,2.151005,-0.131429,-0.086765,0.04235,-0.075928,0.56665,-0.248047
1.353883,-9.868554,0.415441,-0.188668,-0.001584,0.057381,0.114258,0.757812,-0.080078,-1.028026,2.578764,9.291884,-0.713711,-0.044032,-0.060977,0.121826,-0.30835,-0.470947,-0.037899,-9.660165,-0.221012,-0.459938,-0.122605,-0.131077,0.0979,0.550781,-0.193359,0.578393,-9.936972,-2.305606,-0.315807,-1.595163,0.055849,-0.242676,0.494385,0.128662,1.228712,-9.415575,2.189009,-0.438323,-0.095772,0.06995,-0.069824,0.555176,-0.246582
1.373388,-9.933951,0.421004,-0.130999,0.028738,0.058183,0.113281,0.766602,-0.080811,-1.17524,1.73614,9.294713,0.086377,-0.039806,-0.091835,0.124023,-0.309814,-0.479004,0.396687,-10.812852,-0.600729,-0.228266,-0.043923,-0.073203,0.095215,0.556641,-0.190674,0.393227,-10.334806,-1.587073,-0.013925,-0.720964,-0.073333,-0.245605,0.499756,0.129395,1.00385,-10.049875,1.792697,-0.118718,-0.101379,0.043708,-0.072754,0.567871,-0.246826
1.360864,-9.979278,0.34323,0.045003,0.061099,0.037527,0.107666,0.762207,-0.083252,-1.109817,3.602987,9.758753,0.363483,-0.11109,-0.116528,0.127441,-0.317627,-0.46582,0.227449,-9.978824,-0.563236,0.374487,0.100456,0.007174,0.089111,0.552002,-0.198486,-2.156421,-9.135865,-0.831748,0.302824,-1.330251,-0.345638,-0.255127,0.491943,0.132324,0.976498,-9.467076,1.941319,0.221653,-0.259422,-0.023647,-0.081299,0.559082,-0.250732
1.443309,-9.495419,0.410903,0.023775,0.080254,0.032486,0.105713,0.770508,-0.080322,-0.889356,3.511751,9.638271,-0.328614,-0.133866,-0.083167,0.118164,-0.312256,-0.472412,0.231326,-8.718906,0.067158,-0.017494,0.141656,0.133127,0.09082,0.558594,-0.196045,1.123093,-8.417368,-1.847412,-0.096446,-1.831092,-0.282336,-0.255615,0.496582,0.148438,1.478626,-8.909978,2.055788,0.015477,-0.293605,-0.01199,-0.085449,0.56958,-0.24585
1.198345,-9.453742,0.246869,-0.230867,0.094382,0.006761,0.11377,0.762451,-0.079102,-1.033085,2.567172,9.389166,-0.194629,-0.098853,-0.119655,0.124512,-0.317383,-0.481201,-0.325457,-10.21779,0.295583,-0.628108,0.180515,0.189013,0.099365,0.553711,-0.1875,1.45638,-10.36315,-3.230937,-0.291864,-1.264506,0.051693,-0.244629,0.485596,0.155762,1.253427,-9.094585,2.018996,-0.274787,-0.181037,0.002309,-0.080078,0.561768,-0.242432
1.225307,-10.140454,-0.21751,-0.243554,0.035341,-0.047978,0.111572,0.765137,-0.070801,-0.93586,3.149216,9.48115,-0.01002,-0.105297,-0.159519,0.119873,-0.310303,-0.469482,-0.435839,-11.270624,0.405532,-0.085576,-0.019649,-0.006613,0.097656,0.55835,-0.18457,2.099447,-10.566339,-4.216369,0.284268,-1.510133,-0.215882,-0.24585,0.488281,0.166016,1.364464,-9.678286,1.769337,-0.325794,-0.248576,-0.043629,-0.084961,0.569824,-0.235107
1.246802,-9.879326,0.015024,-0.023796,0.00463,-0.032925,0.118896,0.768555,-0.070801,-0.876127,3.071379,9.417917,-0.262677,-0.046456,-0.091265,0.125488,-0.30249,-0.474854,0.206277,-9.616372,0.31844,0.255654,0.023429,-0.116486,0.10498,0.55542,-0.188477,2.394107,-8.875084,-3.495067,0.12145,-0.613805,-0.066325,-0.236328,0.483887,0.168945,1.450237,-9.925967,1.815511,-0.112667,-0.093496,-0.04807,-0.075684,0.565186,-0.232178
1.47668,-9.553702,0.252283,-0.166225,0.020813,-0.067143,0.10498,0.772461,-0.074707,-0.952445,2.35049,9.485797,-0.196034,-0.056737,-0.128244,0.127197,-0.303223,-0.480469,-0.458703,-9.512474,0.133829,-0.36942,-0.009189,-0.049476,0.093506,0.561768,-0.184326,0.240556,-9.776157,-3.263668,-0.276145,-0.808284,0.127856,-0.244873,0.488281,0.174072,1.166022,-9.453649,2.04219,-0.011138,-0.133679,-0.094479,-0.093506,0.570801,-0.23584
1.376039,-10.050662,0.088203,-0.117807,0.063461,-0.033736,0.107666,0.765381,-0.067139,-0.913832,2.535724,9.326347,0.04901,-0.086271,-0.133559,0.117188,-0.305176,-0.480469,0.112291,-10.708677,-0.339522,-0.155051,-0.197177,-0.033647,0.093994,0.553467,-0.181641,2.223707,-9.743327,-3.554897,0.20392,-0.710564,-0.142939,-0.240967,0.480469,0.183105,1.48378,-9.573693,1.865553,-0.228721,-0.17523,-0.032802,-0.092041,0.565918,-0.228271
1.417953,-9.623507,0.140022,0.049973,0.054895,-0.025087,0.108398,0.775146,-0.072266,-0.814784,3.008394,9.277895,0.003419,-0.100601,-0.148814,0.125732,-0.313721,-0.486572,0.268732,-9.63213,-0.137461,0.285676,-0.021619,-0.093215,0.093018,0.561279,-0.190186,0.152354,-8.755436,-2.071601,0.053199,0.094859,0.059546,-0.240234,0.487549,0.17627,1.29127,-10.028689,1.741866,-0.082283,-0.093666,-0.035088,-0.089844,0.57373,-0.23291
1.457175,-9.391935,0.175036,-0.150761,0.074573,-0.011333,0.10791,0.760986,-0.06958,-0.768485,2.848343,9.323835,-0.183394,-0.102434,-0.124046,0.123535,-0.304199,-0.481689,0.039533,-9.10022,0.063216,-0.21518,-0.090199,-0.027064,0.093262,0.549805,-0.186279,-0.314791,-9.759167,-2.350324,-0.257822,-0.819631,0.061361,-0.23584,0.47583,0.182373,1.369595,-9.54299,1.814061,0.085392,-0.228089,-0.074157,-0.092041,0.561279,-0.22998
1.492727,-9.949662,-0.057278,-0.025121,0.084715,0.001382,0.105713,0.764404,-0.064697,-0.702639,2.295875,9.080345,-0.051336,-0.126708,-0.11933,0.126465,-0.306396,-0.479248,0.418969,-10.354227,-0.13275,-0.166409,-0.042409,0.050524,0.08667,0.554199,-0.179932,2.078296,-9.746017,-3.478274,0.149342,-0.36095,-0.175045,-0.244873,0.475342,0.189209,1.749243,-9.297411,1.817454,-0.043555,-0.142357,-0.008271,-0.101562,0.565186,-0.224609
1.472283,-9.546447,0.080665,0.086528,0.066397,-0.001298,0.114258,0.765137,-0.061279,-0.60085,2.742298,9.236687,0.233118,-0.101968,-0.141053,0.126953,-0.307373,-0.483887,-0.114594,-10.025599,0.074176,0.28378,-0.043032,-0.071351,0.098633,0.553955,-0.177979,0.531699,-8.81188,-2.712712,0.005383,0.058738,-0.045786,-0.23291,0.477051,0.192139,1.426263,-9.684494,1.685068,-0.086474,-0.082809,-0.013891,-0.090576,0.569336,-0.217285
1.404759,-9.469051,0.100672,-0.083858,0.083665,-0.010188,0.111328,0.771729,-0.06543,-0.771063,3.464539,9.481044,0.016678,-0.047658,-0.128821,0.109619,-0.30957,-0.487549,0.362815,-9.086905,0.036307,-0.004424,-0.08848,-0.123236,0.091309,0.560303,-0.185791,0.50578,-9.574542,-2.524823,-0.265735,-0.313292,0.127635,-0.23584,0.480713,0.193604,1.494749,-9.503807,1.720746,0.101597,-0.155109,-0.048371,-0.095459,0.571777,-0.227539
1.41572,-9.850231,-0.087648,-0.051199,0.01788,-0.019702,0.107178,0.777344,-0.063477,-0.782457,2.730478,9.249782,-0.252548,-0.126098,-0.126155,0.123291,-0.302246,-0.479492,0.209348,-10.022137,-0.051189,-0.257607,-0.006959,0.001316,0.087646,0.56543,-0.179932,0.769076,-10.035808,-2.581841,-0.00157,-0.006686,-0.014035,-0.238525,0.488037,0.198242,1.687494,-9.290241,1.668033,-0.091013,-0.080112,-0.031883,-0.098633,0.578369,-0.220703
1.733652,-9.727112,-0.001462,0.093584,0.027238,-0.001177,0.109863,0.779297,-0.069824,-0.380157,2.080396,9.197179,0.1105,-0.116979,-0.118422,0.124756,-0.308838,-0.492188,0.503887,-10.402733,-0.10798,0.242567,-0.070142,-0.053008,0.09082,0.567627,-0.190674,0.07064,-8.940651,-2.525235,0.139513,-0.156457,-0.184113,-0.236816,0.48877,0.189697,1.603197,-9.928151,1.541438,-0.095205,-0.07496,0.02031,-0.097412,0.57959,-0.224609
1.54938,-9.72324,0.080185,0.100832,0.07004,-0.001136,0.109375,0.767822,-0.065186,-0.59289,3.026158,9.306278,0.3954,-0.074589,-0.105418,0.118896,-0.314209,-0.484375,0.422339,-9.135988,0.331181,0.409801,0.042039,0.039906,0.089355,0.553711,-0.189941,1.31859,-8.555142,-2.997886,-0.141418,-0.198943,-0.177825,-0.241211,0.47583,0.198486,1.586698,-9.821342,1.652663,0.279972,-0.100936,-0.063748,-0.100098,0.571533,-0.225342
1.446631,-9.469303,0.155412,0.14266,0.057089,-0.001759,0.106689,0.773926,-0.06665,-0.548344,3.643654,9.214369,0.056721,-0.083815,-0.072666,0.117432,-0.318604,-0.478516,0.175194,-8.958211,0.472087,-0.060523,-0.035591,0.039978,0.085205,0.562256,-0.189697,0.776075,-9.408209,-2.854985,-0.139924,0.214712,-0.008171,-0.244385,0.485352,0.19873,1.562215,-8.946886,1.901305,0.236509,-0.105898,-0.039915,-0.106445,0.572266,-0.225342
1.570665,-9.080611,0.231174,-0.054097,0.041181,-0.004522,0.108643,0.775879,-0.067383,-0.440157,3.086259,9.115676,-0.210982,-0.038224,-0.036326,0.12207,-0.313965,-0.487549,0.69068,-9.978053,0.307613,-0.266838,0.032334,-0.031676,0.0896,0.562744,-0.187012,0.204818,-9.366169,-2.690747,0.056065,-0.091958,0.069585,-0.241455,0.483398,0.197754,1.684469,-8.991365,1.83057,-0.185664,-0.097032,-0.009827,-0.102783,0.574463,-0.223389
1.675603,-9.705552,0.017308,-0.179825,0.087994,-0.003271,0.109131,0.778809,-0.062256,-0.428542,2.602502,9.157255,-0.115388,-0.034452,0.003685,0.119873,-0.302979,-0.483154,0.359529,-10.154115,0.184476,0.045461,0.101821,-0.087495,0.0896,0.564941,-0.180664,1.386296,-9.114175,-3.167396,-0.019384,-0.074917,0.127684,-0.237305,0.484131,0.202393,1.663645,-9.719758,1.627664,-0.225661,-0.068622,0.014154,-0.102295,0.581787,-0.216553
1.436799,-10.049127,-0.155468,0.036528,0.081072,0.013222,0.109131,0.768555,-0.073486,-0.541857,2.666784,9.182173,0.075413,0.003152,0.027134,0.115967,-0.299072,-0.484375,0.349372,-9.222774,0.24349,0.180144,0.062452,-0.053889,0.087646,0.555176,-0.19751,0.716561,-9.163915,-2.961113,-0.043002,0.293764,0.018889,-0.243408,0.475342,0.192139,1.581985,-9.959559,1.485225,0.021906,-0.09983,-0.023353,-0.105713,0.57251,-0.226074
1.345685,-9.585749,-0.108904,0.088252,0.034847,0.000726,0.11084,0.776367,-0.065186,-0.593396,3.179025,9.318181,0.147004,0.020277,0.011922,0.121338,-0.30127,-0.475342,0.328396,-9.427096,0.170185,-0.110745,0.086894,0.007809,0.088379,0.563232,-0.183105,0.409596,-9.284901,-2.591491,-0.123788,0.188119,0.011112,-0.239746,0.481445,0.201904,1.754878,-9.578936,1.536774,0.169225,-0.06378,-0.03486,-0.10376,0.575684,-0.217041
1.441055,-9.935098,-0.119115,0.043013,-0.040528,-0.026643,0.105225,0.772705,-0.066162,-0.520696,3.040758,9.332917,0.034551,0.055264,0.069201,0.118652,-0.308594,-0.471924,0.68425,-10.301918,0.106619,0.056821,0.145634,-0.007379,0.081787,0.555908,-0.189209,0.417781,-9.583719,-2.922439,-0.186923,0.310288,-0.066572,-0.247803,0.476562,0.201416,1.699473,-9.447498,1.664872,0.056567,0.047234,-0.013332,-0.111084,0.570312,-0.219238
1.371097,-9.983664,0.108578,0.231304,-0.023817,-0.019526,0.112305,0.769043,-0.075439,-0.852435,2.854087,9.709896,0.241295,0.076759,0.119257,0.116699,-0.305664,-0.473633,0.566005,-10.418547,0.129893,0.22379,0.335678,0.048173,0.092285,0.554932,-0.195557,0.50794,-9.824665,-3.261821,-0.224382,0.405049,-0.135424,-0.243164,0.474121,0.194092,1.468777,-9.797447,1.742063,0.110167,0.059534,-0.015292,-0.102539,0.569336,-0.227539
1.490653,-9.87003,0.139194,0.256925,-0.060539,-0.05575,0.107422,0.766357,-0.076172,-0.874897,3.382105,9.593438,0.422387,-0.052106,0.131129,0.119385,-0.318848,-0.47998,-0.070305,-10.867954,0.302613,0.255532,0.307663,0.135535,0.096191,0.552734,-0.195801,1.57792,-10.253889,-3.97938,-0.164194,0.487011,-0.207223,-0.252197,0.4729,0.197266,1.653489,-9.711492,1.675795,0.344343,-0.010849,-0.073023,-0.105469,0.566895,-0.231689
1.196835,-9.649443,0.12735,0.309116,-0.129063,-0.054799,0.103027,0.769531,-0.080322,-0.48542,3.890525,9.109753,0.26892,-0.020276,0.131241,0.108887,-0.314209,-0.475586,0.431747,-10.037208,0.698124,0.657993,0.271253,-0.002976,0.092529,0.554443,-0.202881,1.823208,-9.374721,-3.932661,0.165156,1.001361,-0.216137,-0.259521,0.479492,0.189697,1.862625,-9.328811,1.797924,0.28633,0.124343,-0.062871,-0.109131,0.568115,-0.233887
1.563096,-9.362754,0.535042,0.164841,-0.199459,-0.079823,0.108643,0.765137,-0.087402,-0.633415,3.539961,9.34991,0.041618,0.052927,0.17013,0.11499,-0.316162,-0.479248,0.155521,-8.573373,0.883647,0.268939,0.444065,-0.053998,0.099854,0.551025,-0.212158,1.013145,-8.282045,-3.104494,-0.083446,1.07304,0.086972,-0.257812,0.474121,0.176514,1.446921,-9.371115,2.007387,0.147286,0.192382,-0.025188,-0.101074,0.562744,-0.243896
1.768036,-9.932704,0.586674,-0.013689,-0.14517,-0.085842,0.105957,0.769531,-0.085693,-0.61236,3.063353,9.660273,-0.027152,0.017853,0.157621,0.12085,-0.322021,-0.467285,-0.184606,-9.816326,0.34281,-0.357751,0.244219,0.06177,0.103027,0.556396,-0.206299,1.784085,-9.118928,-3.432019,-0.184592,1.011204,0.250119,-0.257568,0.481445,0.174072,1.476689,-9.454334,2.115722,0.043512,0.040736,-0.067184,-0.101318,0.567139,-0.244385
1.779854,-9.777614,0.518121,0.078169,-0.047597,-0.053663,0.105713,0.769043,-0.084229,-0.535696,3.006258,9.61631,-0.029561,0.00996,0.127642,0.112061,-0.32373,-0.469971,0.369055,-10.503958,-0.038393,0.116989,0.229944,0.082093,0.104492,0.555908,-0.206299,1.334862,-8.924847,-3.370376,0.315135,1.466109,0.175096,-0.257324,0.485352,0.1604,1.721498,-9.579266,2.066445,-0.042579,0.029382,-0.038266,-0.102051,0.56665,-0.241211
1.615901,-9.751249,0.448328,-0.037715,-0.037229,-0.066305,0.102539,0.768555,-0.081543,-0.606201,2.745625,9.163647,-0.077252,-0.034584,0.124402,0.106445,-0.320312,-0.476318,-0.335775,-9.112656,0.385695,0.328798,0.244848,0.207687,0.106201,0.551025,-0.208008,1.198791,-8.426742,-3.267469,0.067115,1.301474,0.114518,-0.263428,0.485107,0.15332,1.537115,-9.758659,2.026676,-0.020053,0.001145,-0.049607,-0.106445,0.563232,-0.237305
1.3161,-9.977464,0.327071,0.093559,-0.010405,-0.036454,0.098145,0.764893,-0.091309,-0.590246,2.666383,8.95979,0.104455,0.069484,0.001656,0.113525,-0.318848,-0.476807,-0.590319,-8.994568,0.097257,-0.089336,0.038,0.106241,0.102783,0.550293,-0.214355,2.52228,-9.712466,-3.294296,-0.035335,1.729951,0.292632,-0.266846,0.48584,0.134277,1.591506,-9.805668,2.058684,0.077324,0.006073,-0.03868,-0.109619,0.5625,-0.247803
1.416048,-9.268941,0.635681,0.01461,-0.092974,-0.042523,0.0979,0.765869,-0.085205,-1.004239,3.33235,9.084362,0.04683,0.055749,-0.087537,0.112061,-0.321045,-0.472412,-0.3776,-9.74714,0.013732,-0.1915,-0.026538,0.043942,0.10791,0.549316,-0.203857,0.355155,-9.192827,-2.484312,0.405549,2.030304,0.368628,-0.264648,0.48877,0.120361,1.351748,-9.413227,2.199333,0.032965,0.03591,-0.043053,-0.106445,0.559082,-0.241211
1.71564,-9.455262,0.587598,-0.1456,-0.028306,0.01334,0.094971,0.764404,-0.084961,-0.273947,3.067881,8.791759,-0.280263,-0.010309,-0.120164,0.112793,-0.314941,-0.471191,0.260978,-9.506358,0.262985,0.04442,-0.087965,-0.060378,0.10498,0.548584,-0.20752,0.805739,-8.30788,-2.087548,0.078114,1.650778,0.418141,-0.264893,0.493896,0.107178,1.553154,-9.518726,2.096466,-0.167514,-0.066559,0.016726,-0.109863,0.561768,-0.23999
1.859608,-9.634037,0.54997,-0.059649,0.02875,0.046541,0.100586,0.768799,-0.073242,-0.42941,2.422856,8.803568,-0.099604,0.11121,-0.067338,0.110107,-0.322266,-0.471191,0.461119,-8.960889,0.489726,-0.048257,0.05928,0.014387,0.106689,0.550781,-0.198242,0.672238,-9.429102,-2.493637,-0.139088,1.949893,0.498513,-0.255127,0.499756,0.103516,1.626595,-9.776654,2.003049,-0.057033,-0.06006,0.041817,-0.106201,0.567383,-0.22876
1.634276,-9.845981,0.313078,-0.001877,0.12467,0.078256,0.109619,0.769775,-0.084473,-0.481228,2.893729,8.884692,0.178206,0.06764,-0.077244,0.119141,-0.319824,-0.475342,-0.048852,-9.719014,0.526758,-0.156322,0.020742,0.042749,0.112793,0.552734,-0.207031,0.897051,-9.67015,-3.050102,0.144704,1.684637,0.227382,-0.246582,0.505615,0.078613,1.527794,-9.673034,1.961007,0.063801,-0.163428,0.033255,-0.099609,0.566895,-0.239746
1.510586,-9.544429,0.196341,0.191949,0.071937,0.094797,0.108887,0.759033,-0.085938,-0.532426,3.282013,9.036835,0.102641,0.167954,-0.053147,0.11792,-0.324219,-0.479736,0.077809,-10.140666,0.556116,0.085303,-0.021574,-0.075404,0.11084,0.541016,-0.203125,2.516634,-9.251187,-2.990328,-0.045175,2.100931,0.316706,-0.248535,0.498535,0.069336,1.829024,-9.556902,1.805507,0.146857,-0.146072,0.05835,-0.103516,0.555176,-0.241943
1.485699,-9.031415,0.462395,-0.004058,0.089275,0.096035,0.100586,0.767578,-0.087646,-1.001897,3.312666,9.538155,-0.018202,0.087634,-0.045303,0.124268,-0.316406,-0.4729,0.097365,-9.915597,0.004724,-0.007734,-0.023335,-0.116799,0.098877,0.549561,-0.205322,0.034828,-9.762951,-2.506592,0.036842,2.551967,0.504781,-0.248779,0.512939,0.048828,1.528943,-9.15883,2.025754,0.118286,-0.039188,0.055357,-0.111572,0.562256,-0.243652
1.616444,-9.568146,0.288433,-0.171714,0.064049,0.098959,0.108398,0.768799,-0.087891,-0.712702,3.151492,9.44068,-0.190656,-0.043449,-0.069036,0.120361,-0.32666,-0.477539,0.177011,-10.022754,-0.245971,-0.194903,-0.006059,-0.035547,0.106689,0.551758,-0.206055,-0.386035,-9.048167,-1.849724,0.156146,1.982892,0.489613,-0.236084,0.520508,0.032715,1.566441,-9.071577,1.95125,-0.139686,-0.192286,0.08736,-0.101807,0.565918,-0.242676
1.316432,-9.583967,0.136952,-0.095272,0.074435,0.090552,0.106689,0.769531,-0.077393,-0.703753,3.056969,9.285326,-0.114028,0.025778,-0.121858,0.118408,-0.318848,-0.475098,0.11977,-9.953573,-0.095302,-0.146274,0.025637,-0.110202,0.101318,0.549072,-0.193604,1.074639,-9.436322,-2.191506,-0.173511,2.25278,0.767592,-0.230469,0.52417,0.030518,2.021324,-9.468535,1.704792,-0.198337,-0.062083,0.079808,-0.109619,0.566162,-0.228516
1.215913,-9.810719,-0.05862,-0.190195,-0.056853,0.04514,0.101074,0.769775,-0.075439,-0.99901,3.300605,9.354657,-0.084567,-0.028522,-0.14708,0.122803,-0.30957,-0.469727,0.270471,-9.645144,0.278382,-0.087352,0.076605,-0.019313,0.098145,0.548828,-0.191406,-0.844276,-10.151738,-2.005553,0.096538,2.44172,0.530037,-0.222412,0.529053,0.015625,1.445639,-9.56206,1.711286,-0.092515,0.073861,0.077779,-0.109863,0.569092,-0.22876
1.196108,-10.151884,-0.062709,0.049936,-0.10583,0.022187,0.098877,0.773193,-0.076904,-0.662417,3.108997,9.092789,-0.002782,0.019979,-0.114244,0.130127,-0.319824,-0.470703,0.020129,-9.843532,0.871494,-0.068081,0.162345,0.007804,0.095215,0.551758,-0.195312,1.444095,-9.503652,-1.880307,0.072218,1.886063,0.361974,-0.221924,0.5354,-0.001465,1.552619,-9.616787,1.762433,0.012609,0.017213,0.035148,-0.110596,0.572754,-0.231201
1.480795,-9.56724,0.438022,0.049158,-0.146665,-0.001379,0.104492,0.77417,-0.081543,-0.817381,3.401827,9.41165,0.077424,0.107812,-0.055752,0.117676,-0.308838,-0.468018,0.513404,-10.033708,0.405681,0.01322,0.102149,-0.10538,0.100342,0.553223,-0.200195,0.870667,-10.04157,-1.883118,-0.090038,2.924583,0.502862,-0.204834,0.539307,-0.018311,1.456463,-9.382779,1.919913,0.06891,0.1588,0.018152,-0.104736,0.572754,-0.236084
1.808576,-9.928318,0.510677,-0.013941,-0.030738,0.012517,0.110107,0.770264,-0.074463,-0.586956,3.166137,9.380604,-0.073435,0.054852,0.037082,0.127441,-0.315674,-0.473633,0.908535,-9.894641,-0.004161,0.065042,0.392733,0.016685,0.105469,0.553223,-0.191406,-2.443605,-9.726009,-0.898966,0.221174,2.144067,0.27155,-0.194336,0.540527,-0.02832,1.276783,-9.483735,1.940372,-0.037246,-0.041524,0.023999,-0.102539,0.568359,-0.231201
1.243967,-9.979592,0.239216,0.116368,-0.019885,0.009449,0.106689,0.772217,-0.073486,-0.843413,2.907272,9.178315,0.139962,0.147043,0.028494,0.128174,-0.310547,-0.474365,-0.172653,-10.042421,0.294671,0.063439,0.440495,-0.010096,0.10791,0.550293,-0.186523,1.652451,-9.658928,-1.48248,-0.236784,1.639905,0.285552,-0.188477,0.546387,-0.026123,1.747025,-9.784496,1.785882,0.067307,-0.074644,0.009778,-0.101562,0.573975,-0.226807
1.317082,-9.769314,0.251673,0.11268,-0.081611,-0.022024,0.113037,0.768066,-0.083008,-1.001081,3.796676,9.482414,0.355601,0.143733,0.007868,0.12793,-0.316162,-0.46875,0.376649,-10.019386,0.57091,0.060921,0.42637,-0.100961,0.114502,0.548584,-0.196045,0.40172,-11.131911,-1.033757,-0.127449,2.539058,0.379277,-0.173096,0.542725,-0.048584,1.560936,-9.454056,1.892831,0.228857,0.049562,-0.028382,-0.097412,0.56665,-0.239502
1.025499,-9.98116,0.141031,0.092231,-0.199912,-0.071377,0.105469,0.771973,-0.079834,-1.304843,4.237568,9.754074,0.082697,0.154508,0.045742,0.131348,-0.318604,-0.468994,0.017759,-10.599648,0.581133,-0.011481,0.564474,0.028552,0.112549,0.552002,-0.190918,-0.63441,-10.228479,-0.535269,0.326644,1.605317,-0.006412,-0.174805,0.546631,-0.054688,1.616541,-9.322495,1.954558,0.052771,0.047878,-0.019493,-0.098877,0.570801,-0.236816
1.371651,-9.922995,0.332348,0.170479,-0.261662,-0.088533,0.098877,0.770264,-0.080566,-1.248326,3.28127,9.591415,-0.102204,0.032437,0.063848,0.125732,-0.313232,-0.464355,0.07358,-10.760118,0.375028,0.283919,0.532923,0.001931,0.110596,0.548828,-0.192627,2.205085,-9.155704,-1.306077,0.108829,1.692927,0.141308,-0.172119,0.549316,-0.065674,1.546149,-9.762556,1.979259,0.023862,0.21941,-0.021087,-0.102295,0.568848,-0.237305
1.329861,-9.902295,0.523648,0.156589,-0.256473,-0.101137,0.106445,0.764404,-0.089844,-1.040819,2.897828,9.257542,0.261045,0.050195,0.091215,0.129395,-0.326172,-0.458984,0.039004,-9.859553,0.651397,0.385564,0.610862,0.109903,0.123291,0.544922,-0.205322,0.497347,-9.865121,-1.448656,0.062786,2.233231,0.18708,-0.157715,0.544189,-0.087158,1.121081,-9.854004,2.112266,0.201026,0.162691,-0.042949,-0.092285,0.562256,-0.246582
1.735634,-9.620361,0.741516,0.234588,-0.226099,-0.061338,0.0979,0.762207,-0.088379,-0.841736,3.827903,9.056637,0.246662,-0.023655,0.1131,0.125488,-0.326904,-0.468506,0.217083,-9.331709,0.445008,0.168189,0.539321,0.056343,0.119629,0.543945,-0.202148,0.308069,-9.26116,-1.671183,0.334206,1.823757,0.1946,-0.155029,0.544434,-0.0896,1.328063,-9.554085,2.196125,0.206903,0.036297,-0.051544,-0.099365,0.558594,-0.248779
2.108901,-8.954047,1.039551,-0.013353,-0.078723,0.003142,0.097412,0.760254,-0.091797,-0.199555,3.613258,9.12286,-0.266492,0.0544,0.194119,0.127197,-0.328369,-0.466309,0.905109,-9.226158,0.563937,-0.175731,0.744339,0.002127,0.124756,0.541016,-0.197998,1.03797,-8.797096,-1.200194,-0.192685,2.065467,0.422839,-0.143799,0.542969,-0.10083,1.523593,-9.302494,2.298829,0.014853,-0.071559,0.004691,-0.101807,0.558105,-0.252441
1.462349,-9.940371,0.420994,-0.191049,-0.011017,0.011819,0.099609,0.767822,-0.081787,-1.329002,2.659234,9.39666,-0.178277,0.051011,0.209861,0.116211,-0.323486,-0.468262,-0.448332,-10.511894,0.229327,-0.278265,0.740134,0.207021,0.13208,0.546631,-0.182861,0.859422,-10.127802,-0.883501,-0.047364,2.047059,0.411609,-0.128174,0.549072,-0.101562,1.632347,-9.498352,2.053366,-0.094827,-0.100644,0.036292,-0.097168,0.565186,-0.240479
1.572052,-10.077963,0.218945,0.282182,-0.034632,0.033133,0.096924,0.763916,-0.092285,-0.918504,2.654729,9.248131,0.208345,-0.18809,0.158484,0.125977,-0.324707,-0.4646,0.302636,-10.822152,-0.543049,0.30565,0.557828,0.180045,0.134766,0.541748,-0.195557,-0.35178,-9.612366,-0.282283,0.562468,2.191291,0.221541,-0.116943,0.545166,-0.124756,1.487425,-9.873113,1.947566,0.097975,-0.093685,0.033358,-0.099854,0.559814,-0.247559
1.022695,-8.93687,0.575741,0.152049,-0.131259,0.016584,0.095703,0.767578,-0.0896,-1.186602,3.597754,9.393887,0.285926,-0.093042,0.052033,0.123535,-0.331787,-0.464355,-0.68155,-9.129653,0.286968,0.498068,0.808775,0.318387,0.141846,0.539062,-0.193604,0.028283,-8.665448,0.175374,0.29699,1.43621,0.230962,-0.113525,0.549316,-0.128418,1.630466,-9.349568,2.026548,0.332661,-0.078071,-0.003163,-0.104492,0.562012,-0.252686
1.461042,-9.875097,0.388336,-0.033207,-0.171895,-0.030853,0.094971,0.770508,-0.087158,-1.196228,3.47017,9.586592,-0.087591,-0.276131,-0.021554,0.116699,-0.334717,-0.463867,-0.957899,-9.523149,0.372516,-0.276737,0.329303,0.309474,0.147217,0.54248,-0.185791,2.673407,-10.047694,-0.755463,-0.017866,1.882122,0.462211,-0.095459,0.553223,-0.132812,1.517563,-8.85421,2.320084,0.11502,0.072945,0.027792,-0.101807,0.563477,-0.251221
1.157587,-9.489672,0.75525,0.108929,-0.190314,-0.01031,0.087402,0.770752,-0.101074,-1.106291,2.809077,9.700845,-0.120499,-0.244186,-0.082225,0.111084,-0.332275,-0.473877,-0.217812,-11.304327,-0.627781,-0.281829,0.458311,0.326237,0.14917,0.541748,-0.195312,-1.306622,-10.697905,0.373469,0.311584,2.408026,0.53054,-0.081543,0.550049,-0.155518,0.992804,-9.095575,2.452316,-0.124062,0.056593,0.033913,-0.103271,0.564209,-0.260254
2.013834,-9.598214,0.791562,-0.189988,-0.11916,-0.042268,0.097168,0.77417,-0.088135,-0.807909,2.692293,9.485678,-0.059462,-0.471069,-0.163609,0.113525,-0.328369,-0.47168,-0.639375,-10.725719,-0.555468,0.254945,0.304411,0.204955,0.16333,0.545898,-0.189697,-1.026505,-9.79732,0.273768,0.237105,1.018932,0.440325,-0.062744,0.555664,-0.15625,1.352475,-9.520712,2.193772,-0.135763,-0.143753,-0.029242,-0.097168,0.56958,-0.252197
1.568269,-9.918293,0.437379,-0.014853,-0.012541,-0.01003,0.093994,0.776855,-0.085693,-0.130399,3.134406,9.275284,0.070263,-0.324819,-0.244951,0.100342,-0.32666,-0.472168,-0.046571,-9.113106,0.367541,0.001575,0.420723,0.13293,0.163818,0.543213,-0.188477,2.340598,-10.405764,-1.307383,-0.099934,1.285662,0.632294,-0.049561,0.555176,-0.15625,1.820922,-9.494771,1.972185,0.000785,-0.134322,-0.007296,-0.099854,0.568359,-0.247803
0.847833,-9.314359,0.113691,-0.175312,-0.165748,-0.063395,0.085449,0.765381,-0.075684,-1.641597,3.639693,9.726183,-0.110911,-0.32478,-0.385141,0.104004,-0.318359,-0.477051,-2.280953,-9.90771,0.162006,-0.391918,0.21315,0.298995,0.163818,0.53418,-0.175537,1.615084,-10.108524,-1.676337,0.532687,2.242195,0.501604,-0.036621,0.545166,-0.16333,1.728141,-9.021806,2.228165,-0.098335,0.008757,-0.058365,-0.109863,0.562744,-0.243164
1.367992,-10.267432,-0.11242,-0.085291,-0.400685,-0.126405,0.087158,0.77417,-0.078613,-0.725638,2.600771,9.136566,-0.136904,-0.610959,-0.56428,0.103027,-0.327637,-0.479248,-0.856429,-10.754882,0.298715,0.155271,-0.297502,0.292865,0.168213,0.538086,-0.183838,0.703003,-7.776809,0.064521,0.858922,2.46498,0.438622,-0.016602,0.545654,-0.182129,1.888497,-9.777852,1.564818,-0.304593,0.138408,0.022089,-0.104492,0.568848,-0.241943
1.239017,-9.38213,0.476784,0.300044,-0.455196,-0.084653,0.081055,0.767334,-0.071533,-0.722624,3.090927,8.761182,0.461162,-0.465409,-0.649856,0.099365,-0.325439,-0.477295,-1.643218,-9.628787,1.307228,0.549555,-0.124118,0.395304,0.172363,0.526611,-0.184326,1.482907,-8.685348,-0.138221,-0.048657,2.71041,0.865465,0.015137,0.541016,-0.170166,1.47991,-10.225562,1.837749,0.181059,0.327776,-0.017416,-0.103027,0.564209,-0.236328
2.124781,-9.178881,0.948261,-0.180751,-0.441461,-0.095134,0.080078,0.771973,-0.080322,0.098054,4.032485,8.632701,0.033099,-0.601921,-0.627913,0.109375,-0.320312,-0.486572,-0.705423,-8.263048,1.734293,0.337554,-0.682683,0.166078,0.175781,0.528809,-0.207031,0.175293,-10.816074,-1.282231,0.588411,3.402608,0.770143,0.043701,0.539551,-0.192627,1.031051,-9.050891,2.489822,0.257527,0.157744,-0.042918,-0.100342,0.56543,-0.253174
1.162943,-10.665005,0.330191,0.1584,-0.243502,-0.056215,0.083008,0.77002,-0.082764,-0.040624,2.725387,8.509762,-0.006971,-0.192657,-0.452938,0.094727,-0.330078,-0.47998,-0.234021,-8.573593,1.673114,0.180575,-0.17821,0.395419,0.182861,0.525391,-0.210205,-1.042783,-7.557436,-0.148245,1.272079,3.624703,0.453145,0.077881,0.532715,-0.208984,1.09426,-9.33758,2.37793,-0.04689,0.091183,0.08242,-0.09375,0.560547,-0.251709
2.830869,-8.796502,1.271466,0.258777,-0.264414,-0.014487,0.078125,0.779541,-0.08252,0.368892,3.572901,9.04928,0.343579,-0.445262,-0.405946,0.100342,-0.32666,-0.490234,-0.575151,-9.560974,1.788706,-0.282589,-0.583204,0.076955,0.174561,0.536865,-0.204834,-0.679677,-7.922118,0.16738,-0.641326,3.537771,1.118975,0.112549,0.542725,-0.18335,0.812332,-9.608303,2.504402,0.050444,-0.041963,-0.045783,-0.099854,0.575439,-0.253906
2.838063,-9.540609,1.277321,-0.382444,0.292807,0.078221,0.073975,0.767578,-0.065674,1.794855,3.813498,8.907632,-0.308048,-0.165581,-0.069637,0.10083,-0.321533,-0.481689,1.934488,-10.539018,1.410992,-0.030123,-0.236803,0.194567,0.172852,0.521484,-0.196289,-0.670466,-12.770418,-0.332063,-0.196974,3.710343,0.977752,0.141357,0.525635,-0.164062,1.251098,-9.342941,2.477419,-0.015162,-0.529234,0.023117,-0.106934,0.560547,-0.237061
2.449768,-10.837949,0.226102,0.232229,0.457929,0.118228,0.078369,0.777588,-0.079346,0.420387,2.382927,8.144082,0.03613,-0.001457,0.069171,0.097412,-0.322998,-0.483154,-0.25474,-9.416365,1.489829,0.625735,0.109103,-0.027429,0.17334,0.527832,-0.211914,-2.165628,-10.205758,1.029815,1.267911,3.680575,0.458569,0.16626,0.526855,-0.177734,2.045464,-9.711039,2.070216,0.010156,-0.661016,0.024814,-0.112061,0.571045,-0.244873
0.743199,-8.894614,0.240968,0.460612,0.435937,0.14823,0.080322,0.777832,-0.095459,-0.177876,4.193735,8.371105,0.88312,0.137813,0.066132,0.098389,-0.329102,-0.473877,-0.379791,-7.914294,0.91959,0.353689,0.031129,-0.046896,0.170654,0.529541,-0.225342,-3.702725,-8.497317,1.802431,0.003922,3.051083,0.511963,0.189941,0.525879,-0.170166,1.920747,-9.847172,1.835027,0.324003,-0.509937,0.006833,-0.115967,0.571777,-0.255615
1.712578,-8.983108,0.249089,-0.130103,0.033061,0.038339,0.095215,0.7771,-0.088867,-0.259014,6.040857,9.565719,-0.085039,0.082334,0.038902,0.105225,-0.334961,-0.475098,-0.084504,-8.495031,0.363921,-0.329525,0.352773,-0.156823,0.185791,0.529053,-0.214355,-3.171036,-11.159104,0.554149,-0.220324,2.06477,0.349349,0.219482,0.52417,-0.158203,2.050653,-8.836403,2.085664,0.307713,-0.446436,-0.020596,-0.104492,0.568604,-0.254395
1.656086,-10.052136,0.3306,-0.184435,0.135703,0.065905,0.081055,0.776611,-0.082031,0.213609,3.058752,9.211905,-0.976107,0.153723,0.07844,0.095215,-0.319336,-0.488525,-0.538233,-10.476338,-0.264872,-0.516342,0.539242,-0.0011,0.170654,0.5271,-0.200928,-1.61789,-9.76825,0.738932,0.42632,1.852071,-0.036708,0.213379,0.51709,-0.150391,2.307843,-8.85224,2.21216,-0.362625,-0.226877,0.059625,-0.121094,0.568604,-0.241699
1.712413,-9.850977,0.079366,0.097499,-0.014592,0.048054,0.081299,0.769775,-0.088379,-0.535177,1.559356,9.044236,0.235049,0.142402,-0.115278,0.103516,-0.329346,-0.475342,-1.149547,-10.953865,0.160437,0.155375,0.482232,-0.148677,0.171143,0.52124,-0.204346,-2.025972,-8.779502,1.102665,-0.045231,1.71005,0.256935,0.220947,0.510254,-0.148682,1.729072,-10.279165,1.768461,-0.293585,-0.160125,0.082946,-0.122559,0.566162,-0.244629
1.259808,-9.323133,0.221438,0.034666,-0.058435,0.02337,0.092285,0.78418,-0.083008,-0.259009,4.131294,9.644776,0.488343,-0.002393,-0.204843,0.104736,-0.329346,-0.476562,-1.354024,-9.540745,1.290846,0.259169,0.275929,-0.014674,0.18335,0.53125,-0.199463,-1.181088,-9.636343,1.377463,0.071332,1.624689,0.24101,0.241943,0.521729,-0.131592,1.900233,-9.970276,1.944163,0.354456,-0.169262,-0.045408,-0.114746,0.57666,-0.241699
2.121683,-9.863224,0.364863,0.056692,-0.106038,0.044012,0.088867,0.772217,-0.090088,0.097918,3.589576,9.305858,-0.393243,-0.059673,-0.126265,0.103516,-0.32373,-0.47876,-0.594988,-10.022818,1.241977,-0.15151,-0.053887,0.003151,0.179688,0.52124,-0.205078,-1.001251,-10.006817,0.292985,0.030694,1.972441,0.457851,0.254883,0.504639,-0.125488,1.803895,-8.887277,2.303531,0.223455,-0.036713,0.064519,-0.115479,0.565674,-0.251709
1.074043,-9.189919,0.607427,0.166051,0.062912,0.071665,0.095215,0.776611,-0.09375,-0.442987,2.311669,9.045656,0.053549,0.044325,-0.146741,0.105713,-0.327637,-0.473633,-1.229724,-10.599653,1.198579,0.159364,0.151256,-0.03534,0.18457,0.5271,-0.21167,-1.881812,-10.529151,-0.22197,0.31227,2.422635,0.338055,0.275146,0.507324,-0.118408,1.300367,-9.176531,2.323622,-0.14283,-0.037635,0.059196,-0.108398,0.570557,-0.247559
1.903057,-8.979159,0.819211,-0.242811,-0.024067,0.073231,0.090088,0.782715,-0.088135,-0.443815,4.007542,9.707356,0.18626,-0.244966,-0.12055,0.099854,-0.325439,-0.475098,-1.080317,-9.37632,1.527577,-0.036354,-0.422309,-0.06003,0.177246,0.530273,-0.211914,-1.771658,-7.667962,0.230789,0.39462,2.639043,0.357646,0.282227,0.505371,-0.104492,1.165959,-9.423414,2.299332,-0.086096,-0.161472,0.074819,-0.113037,0.575684,-0.248291
1.679533,-10.591396,0.147862,-0.106986,0.264253,0.099368,0.09375,0.779297,-0.085205,0.57484,3.187419,9.202946,-0.481636,-0.200026,0.098252,0.100342,-0.330322,-0.482666,0.316551,-11.017684,1.601174,-0.502388,-0.117739,0.187007,0.181396,0.528809,-0.202637,-2.453967,-10.052902,1.259933,-0.869421,3.01728,0.953122,0.304688,0.495605,-0.066162,1.588701,-9.499108,2.040833,-0.003412,-0.301853,0.045776,-0.114746,0.571777,-0.242432
1.551096,-9.179632,0.352234,0.346822,0.238328,0.143133,0.095215,0.783203,-0.088135,-0.308592,2.623309,8.851086,0.268697,-0.163046,0.169737,0.09668,-0.320557,-0.481689,-1.293496,-11.438087,1.23397,0.400203,-0.274981,-0.111276,0.17334,0.531738,-0.207764,-4.006371,-13.483106,0.380292,0.108097,2.597573,0.566551,0.320557,0.496338,-0.050049,1.698072,-9.310726,2.049497,0.131614,-0.229762,0.03117,-0.11792,0.57666,-0.245117
1.192055,-9.529966,0.226165,-0.143738,0.213797,0.060887,0.10498,0.780029,-0.083496,0.206778,4.413236,9.311935,0.362849,-0.207927,0.236219,0.09375,-0.334961,-0.477539,0.399882,-9.364597,1.008867,0.463906,-0.117016,-0.125514,0.179688,0.526123,-0.211182,-2.399632,-9.818071,0.696506,1.277329,2.311425,0.20924,0.333008,0.483643,-0.046387,1.866398,-9.366957,1.977173,0.046155,-0.215858,0.03734,-0.110596,0.56958,-0.243408
1.868798,-9.845823,0.064157,0.322712,0.084014,0.107588,0.099121,0.781738,-0.095947,-0.046809,3.870498,9.392505,-0.294481,-0.239197,0.246057,0.088379,-0.333496,-0.478516,-1.44409,-9.917763,0.646783,0.020019,-0.122281,0.021298,0.169434,0.530273,-0.218262,-3.069473,-7.411877,0.882694,0.139563,2.313557,0.545379,0.338623,0.482666,-0.0354,2.215206,-9.533218,1.80987,0.155888,-0.081605,0.047193,-0.118408,0.574707,-0.248779
