# sampling frequency: 40
# units are seconds/meters/radians/a.u.
seg1_acc_x,seg1_acc_y,seg1_acc_z,seg1_gyr_x,seg1_gyr_y,seg1_gyr_z,seg1_mag_x,seg1_mag_y,seg1_mag_z,seg2_acc_x,seg2_acc_y,seg2_acc_z,seg2_gyr_x,seg2_gyr_y,seg2_gyr_z,seg2_mag_x,seg2_mag_y,seg2_mag_z,seg3_acc_x,seg3_acc_y,seg3_acc_z,seg3_gyr_x,seg3_gyr_y,seg3_gyr_z,seg3_mag_x,seg3_mag_y,seg3_mag_z,seg4_acc_x,seg4_acc_y,seg4_acc_z,seg4_gyr_x,seg4_gyr_y,seg4_gyr_z,seg4_mag_x,seg4_mag_y,seg4_mag_z,seg5_acc_x,seg5_acc_y,seg5_acc_z,seg5_gyr_x,seg5_gyr_y,seg5_gyr_z,seg5_mag_x,seg5_mag_y,seg5_mag_z
12.01100184176099,-0.15327858518723872,1.8023760028568154,0.3964701810428564,0.16846016922216517,-0.13399250944170013,-0.8326862841953172,-0.27503673222780217,0.10855516961641089,-0.8209397281720483,-0.5253331095615532,11.469637656473905,0.24098755460867943,-0.05746898344697995,0.40128059732723115,-0.09305585148189337,0.2611911307291757,-0.8530753831135877,-9.233131219635597,1.2185940139289861,-4.874455960548822,-0.31559607832663655,0.19873188100219785,-0.18392329959027956,0.6091863752606954,0.09827672405964781,0.5523667936858977,-9.604642543768398,-0.14917440934978013,1.047594339576767,-0.3745245532518748,0.30555279039113215,0.15041073606852834,0.6243629196381683,0.21237066174679134,-0.07434861784950764,9.122961441233313,-0.14391931393643478,9.387136146462524,0.3923324150983776,-0.4918726417472685,0.07931937938257998,-0.7224930952162049,-0.2621259380022661,-0.3496063722564852
10.671087950788612,0.1100834923042658,1.472242041958177,0.5138397464821579,0.16717770176274485,-0.14551626073218862,-0.8337509371000328,-0.2742780619732906,0.11292437865666062,-1.1009941553019746,-1.172027693314283,10.676859522678065,-0.06314133341594107,0.0019890432712487624,0.4147526328335024,-0.0906335997166307,0.26609241892798075,-0.8496702451754218,-9.446728791654195,0.2706591760108282,-4.335415120241862,-0.418435841850647,-0.008411359383205086,-0.1418539490252805,0.606357508326219,0.096098070797737,0.5563567218596108,-9.181838453484014,1.088691670238003,1.292729462367784,-0.4266761575289013,0.566221012624523,0.1269539505680386,0.6234481886381918,0.21080161349543153,-0.06109772668013391,9.389237527304083,-0.03141217171569835,8.306133297096178,0.5306076145377193,-0.05172750800959171,0.13476436694730826,-0.7225756898685832,-0.26236516913647273,-0.34179466139471976
10.23136190347755,-0.35355389551628963,1.8666659373576862,0.40314991981235276,0.16152693303611823,-0.12967754895986755,-0.8380897197315552,-0.27197636256479213,0.11281859534362224,-1.356727784042024,-0.9510979214718139,10.4209984164132,0.1199868715323166,-0.03991519417741087,0.41738555312764114,-0.09677813715572366,0.27090840167568137,-0.8486243752822539,-9.397043393834597,0.3044914065018578,-4.357065757773121,-0.3819669057044238,-0.21389156535848658,-0.1543003411016452,0.603603371525155,0.09897420524829477,0.5544215071161417,-9.469258978870652,-0.28768170381794106,0.9048565862958353,-0.4143286788697921,0.8554207819242491,0.08730527551138578,0.6158680190771204,0.21631335107411243,-0.04179655396215735,7.677366220463889,-0.2530163080823928,6.6549742948443,0.4031658620696086,0.221473662800218,0.05371573618153898,-0.7296141715814412,-0.2593029570603532,-0.34040176607251027
10.066164642950152,-0.2057176437748762,2.0598597724930032,0.4224241123826503,0.2528782547473242,-0.14201922908774509,-0.8374221384364882,-0.27883026842505765,0.1086873086586905,-1.3444635450525466,-0.5965740698829443,10.179050290818886,0.24579945848948903,-0.06761362697721361,0.4657075095199347,-0.09308102387450681,0.262901593312599,-0.8538045292589928,-9.346196357484828,0.3837098498167279,-4.541450671283457,-0.43377261662059935,-0.3258510679136795,-0.2256795122726766,0.6106024393984442,0.09334574496682835,0.547272065965601,-9.98356347423529,-0.4089744286659982,0.32560795282255933,-0.526208807341534,1.0977590977800595,0.06963266149092913,0.6137565781520468,0.2069730837124808,-0.02376438138553298,6.592394004084426,-0.05063939928555593,4.576315725298432,0.4011401531823356,-0.2362326143248759,0.052362356785068245,-0.7305260084937873,-0.2675873904923734,-0.3379647418305896
9.677320385069438,0.03522358376918268,1.7615792336009102,0.505741241805757,0.30197490422395246,-0.16037604675482423,-0.8306134405581344,-0.2807030566603756,0.10812012400890254,-1.0693647636050199,0.016608385324486323,10.10553736830268,0.34570947637903976,-0.09758234243186541,0.5070013304294577,-0.08370516792964347,0.2571328832460926,-0.8500005092183307,-9.284749133983718,0.24253906215844023,-3.804544477049113,-0.4462254122175186,-0.42576444735814056,-0.268779647977898,0.6219077716808158,0.09203811347862166,0.5502407294487556,-9.479812538673556,-0.48394455716316187,-0.08114910940844361,-0.5809098295750017,1.412056554960012,0.0072785908392892845,0.6166059432788312,0.20634104956443455,0.004228807736286776,7.980539278829535,-0.0741045661000217,5.24046720066094,0.4951024666023599,-0.7558130355735175,0.07833580187502906,-0.7305106853867289,-0.2680665548472367,-0.31599019801909217
9.500760142515594,0.19155517481021625,1.2994646603553708,0.49989546243642935,0.08178521085867001,-0.18582486191915035,-0.8347158660652739,-0.2925710349843864,0.10436490837472384,-1.1105042750928378,0.10982450450157102,10.145996774342652,0.48525943702719787,-0.104507029720387,0.4983396157000456,-0.09045250072621974,0.2431582893002643,-0.8560691987128973,-9.565675844851683,0.28792965383635816,-3.1564270055942574,-0.4390751577908681,-0.607791634096283,-0.31448376265952804,0.6246814299561472,0.08582648027671158,0.5390296053866191,-9.427087705244894,-0.5644420149476984,0.35576521946410167,-0.6286516658097486,1.7927152458279296,-0.07304845009125763,0.6033747440016208,0.19796713692130952,0.03149509671612523,9.645937656948544,0.534090629509997,5.713105952390494,0.5204509979477914,-0.4858199721175079,0.050495310602984796,-0.7407868289970511,-0.2778834209678288,-0.3077855167900373
9.560928083667655,0.18192962622161343,1.8191654324626385,0.5054320691705789,-0.142209594408403,-0.206126002656493,-0.8312738268158069,-0.2889907621582681,0.11714448290972643,-1.0603148658765005,0.4193489224803702,10.204759967928439,0.5210561650560877,-0.11924058280892465,0.4988532924592472,-0.08749526484875532,0.24147834546378616,-0.8551243946743178,-9.836535672499556,0.5516041088282935,-3.326520061737856,-0.5076273055639512,-0.8113766037011717,-0.3444420398575569,0.6357302074709612,0.09049920818957129,0.5321600349283936,-10.498273300296878,-0.055955779173253256,0.9614320306978534,-0.6783892239484337,2.0679394560747615,-0.10673669043426634,0.5991134283775912,0.20326875565032934,0.0724129815710943,8.17394648164279,0.11849175367205421,4.582132032565536,0.5362335382442619,-0.28910463105642165,0.02939191810294314,-0.742059533271016,-0.2737035769118944,-0.29486111392185416
9.07158330134582,0.25150732577465296,1.6395415562175748,0.45457257854557886,-0.21946631314757142,-0.20495692651587955,-0.8288057795939091,-0.3000390848855882,0.11525654519267506,-0.9773170324710466,0.5910291338253045,9.699947619199174,0.7882408415817451,-0.1721883435191757,0.5500783851058179,-0.08712245129331436,0.21880071445673321,-0.8666519121417013,-9.587587007319886,0.47847460403062336,-3.988138888676228,-0.4564861187684817,-0.8699164600135906,-0.347296777861688,0.6475685666543645,0.08818358880510556,0.5121755549073619,-11.353827268474964,-0.5297289519350915,0.3912487869043214,-0.6088074080555145,2.1015486029019534,-0.1801902871371656,0.5895624191538555,0.1995891036096175,0.1011863752476734,7.605038562034152,0.5730999467582426,4.536627721346905,0.4634738409780318,-0.5371931959620847,-0.008118803921235145,-0.7429764482074823,-0.2800318379937233,-0.28827411607158154
8.942986754921277,0.26082624886466177,1.1958164564157683,0.6189369551400827,-0.3182476990677931,-0.2715345629141502,-0.8311629350359754,-0.3031576990778496,0.12887748982738245,-1.3016186463728177,1.2877300397065596,9.678974733037633,0.6537895859438365,-0.21829362183559664,0.6423487684298027,-0.09141310555712821,0.20825832936569494,-0.8673648326005677,-9.485181680957135,0.5178853682431523,-4.224190702475069,-0.49218377263886315,-0.7703666121074921,-0.3683200507520609,0.6547623580414328,0.08940800970347146,0.50615809224084,-11.499867951633385,-0.21544753941389308,-0.19748878535967251,-0.6550323269637593,1.957007415088908,-0.25736352539059193,0.5730892266133187,0.20127049561967578,0.13530888191747883,8.356639915214982,0.6314149007191655,5.4271183229791085,0.6703596869589897,-0.4521450786845571,0.017582030331591822,-0.7508342984624315,-0.2879379512146144,-0.2741871349858683
9.36483151952785,0.1357029182341011,1.271323063225647,0.7595584402379809,-0.40218746110445514,-0.34081294511300186,-0.8258770698631227,-0.30743601733884596,0.14854385614737278,-1.313388665667416,1.0961076682617175,10.178432966943792,0.5368925136999295,-0.2794145913388884,0.7437524596731717,-0.09005435915173887,0.19947289139063343,-0.8627585006767711,-10.177594577998597,0.6575982426198008,-4.209365048861635,-0.5459756148031755,-0.6623895092184565,-0.425864335066494,0.6600564727736437,0.09064548153658492,0.5028635861072233,-11.812069603483582,-0.5184381168066319,-0.5126805645723024,-0.6857410268701601,1.7761272332939344,-0.3063317105813451,0.5631028022500185,0.20232100188383242,0.1725970494646385,8.074796351985773,0.3995743770495672,5.394078030125232,0.825068836840027,-0.26407219941893517,0.03862599875072592,-0.749156614416335,-0.2921116319410462,-0.2543908562841707
9.508988966277894,0.1441961779529566,1.246093826062069,0.7929390142496734,-0.4169629604446517,-0.3495114989524493,-0.8284951788681749,-0.31616590241143067,0.15727724276752922,-1.2932876189748612,0.9122768327221273,10.216759204923536,0.5204124020538798,-0.3813435841740703,0.8645308756121927,-0.1032119176457875,0.19080330743493082,-0.8694857867945688,-10.239918889601372,0.6968297353659261,-3.93089054682572,-0.5828280659645669,-0.585605794725495,-0.47050726414894384,0.6620293131859583,0.09077233213846754,0.491589123120795,-11.586409225541061,-0.3300366161480078,-0.5203673333613323,-0.7145342341949971,1.5553689689932935,-0.3920884680988573,0.5413227517536168,0.20334112272842164,0.19618894071643572,8.077282888411434,0.2773835516789163,5.028073467779565,0.8560534630032153,-0.2882604672981028,0.02201636987067268,-0.7594901839975251,-0.2963149329320761,-0.25449156124686106
10.032869837254529,0.04333483339462182,1.2274442296951604,0.8641561006793,-0.4460173646528416,-0.3839105316944058,-0.8322719845017691,-0.3241339294731239,0.17428570524801745,-1.7312503833686594,1.0923965987156454,10.420645930320221,0.4985060585429595,-0.435294940210835,0.9449301571871906,-0.11436131042102762,0.18530844089013948,-0.866947313159024,-10.340941583160708,1.3293113069527354,-2.9427853812820435,-0.7214362246702897,-0.607680678217201,-0.5281340879728954,0.6624509084185672,0.09515868186434938,0.4905498206902686,-10.938078596890147,0.06726839277263716,-0.40635255394358705,-0.82953782150981,1.3999626780063688,-0.44817345136899306,0.5245639369150535,0.2059184952123562,0.22346946054809963,8.441933802286231,0.404350221183677,5.108143899838752,0.9273936224755933,-0.3766397880509851,0.016726339273899236,-0.7683913201434898,-0.3037093597560492,-0.2328469346560438
9.557686251488471,0.18203500478762735,0.8669041242255142,0.9692521758415586,-0.44548805607524694,-0.4504587623464569,-0.8205123488077285,-0.3297887599366905,0.187514842475054,-1.5762885095538566,0.5211608554101743,10.166696956534045,0.576956029491037,-0.4921434720876043,1.0011594125859753,-0.11156524417809191,0.1728913046705246,-0.8691979903168244,-10.451773713940321,1.3224779405950604,-2.2184816509305616,-0.8279219426531543,-0.7954944898657941,-0.5752533622531789,0.6778532284875901,0.09813308536291808,0.480684960360843,-10.67475149864171,0.4161369595804038,-0.4295979279683983,-0.9288479850461785,1.4008100493328632,-0.5388507567172155,0.5169013188594721,0.21196429327177463,0.2469223740634607,8.234737268351513,0.6158857140719937,5.162058506977592,1.0653282025880604,-0.4643299990573963,0.019464641092283012,-0.7630146648249929,-0.3099093406681032,-0.22033783847461466
9.280193581595706,0.8142730738665782,0.4346595711677529,0.9603894157809895,-0.44734096231429465,-0.4570100108975408,-0.8156313298306047,-0.34016295713390293,0.1976511111799724,-0.7346970481260962,0.14417315872447317,10.036103224565409,0.832213140753662,-0.5951933390436668,1.0613727599368545,-0.12150367476713146,0.15718199228939828,-0.878901627930577,-10.469450513340334,1.1760203072560005,-1.8828494927161064,-0.9264455181803877,-1.0895890779092583,-0.5727258625252791,0.6910535862003573,0.0950298480829922,0.4550669772505459,-10.678014231963875,0.7269989451494573,-0.4863825800967156,-0.9913239559403761,1.4795505681242846,-0.5788616767551897,0.49689121493336197,0.2085433951491309,0.2648738460337693,8.32063974966327,0.6025400277149604,4.891394277397579,1.0602517186625784,-0.39513571660707025,-0.009854411776778395,-0.7674430865586156,-0.3186125781343564,-0.20890124433321117
10.068932909283149,1.306711604753729,0.926316638828603,0.8885296829779488,-0.4536576802313176,-0.4018756278753979,-0.8201372706320981,-0.34420761541875733,0.2285598529507432,-0.04176554910656868,0.3983933755788974,10.298209048392426,1.0875911679030776,-0.6525506552243415,1.0716268672516112,-0.14099757704887467,0.13986163789136194,-0.8684950968391774,-10.431558306389276,0.9687541293912252,-2.181429281951254,-0.9708513528726834,-1.4117164134429667,-0.5137741887132976,0.6981798687128499,0.10038848319431838,0.447776918657105,-10.809278451338852,0.9031797076108333,-0.4941498265461192,-1.0050351620571807,1.4957425882807558,-0.5966198251968192,0.4750599407364692,0.2124474842207664,0.30602857388441623,8.539915025638056,1.0585314769988368,4.62036659746032,0.9729075769244139,-0.4457783553005269,-0.018690872334459888,-0.7768517273012602,-0.32233123542564823,-0.17847347221092508
9.913786964960357,1.5038710519572045,0.7741596875033037,0.7757928688828539,-0.4795338810612153,-0.34592724041607237,-0.8049939540176194,-0.3489661875188671,0.23405571316382268,0.23417894529140573,1.1508748888335558,10.617735193398476,1.3674129168270104,-0.6790066215541944,1.0164717084475134,-0.14224634135047648,0.11325125340056237,-0.8753760515673279,-11.118387338327638,0.9496282083860468,-2.8064164971855474,-0.9571216340524211,-1.6617747853988813,-0.43692573693400705,0.7267030750060136,0.09790473886697657,0.41940694992476363,-11.590744663275151,1.1248923272628604,-0.4379971777041454,-0.9526561908307192,1.2697552448792289,-0.5783460994798828,0.46388013386920174,0.21696076796385413,0.32670774304724726,8.5811177938812,1.4462850138010217,4.6864289614998995,0.80516012273353,-0.6022505945484384,-0.06765162481255953,-0.7714958054292548,-0.33195026377331277,-0.17035773462597326
9.64262893233791,1.9667170865515282,-0.14874079466345375,0.7861837604552013,-0.4918069751122416,-0.3223463491533066,-0.8082068626814306,-0.354506025037482,0.2503431834457711,0.6641407222680619,1.4198364086500765,10.502188563737269,1.3334853809732632,-0.7589603136181851,1.028258698785562,-0.16130959624959917,0.08961603093950918,-0.8779277923197556,-11.068585899525162,0.8133188612517537,-3.583124681975064,-1.0271374235373492,-1.7586069949123322,-0.3589287661688205,0.7378523343222197,0.10037094360081246,0.39180630344844364,-11.293293597893253,0.8776442885620168,-0.40780110042973866,-0.9708953770703492,0.7148707135425624,-0.5685240551608808,0.44552237958347973,0.21990671523932806,0.34476328394845485,8.834046762797831,1.3489780847869934,4.328210912694945,0.8172211599115098,-0.6116311582209395,-0.008656491679583685,-0.7802512359905248,-0.33348892252520196,-0.15237637872793225
9.76483421337306,2.4661144482565165,-0.3222795056970938,0.9184701004922543,-0.44684817433283436,-0.31376001739412407,-0.8001073529445837,-0.357875472332609,0.26568152875900747,1.2746856606901493,1.1411154686024663,10.547645272440672,1.237654787147911,-0.8189215964668227,1.116279024984833,-0.17619337486992812,0.06967246457576712,-0.8734308251555377,-11.045998104553822,0.36825151751886426,-4.494949964656941,-1.1422751504989301,-1.664441809971968,-0.2970321973926153,0.7574252317882043,0.09489347946919814,0.36609152183410876,-10.980399214292097,0.6107190443791859,-0.2662114519458666,-1.0387636091122783,-0.1895655087481718,-0.5804641644555509,0.45025623914995333,0.2249462734315013,0.35428794183378626,8.752641792806122,2.1249012158064136,3.973029341128133,0.9569655616583677,-0.6401180513128312,0.1104739028021938,-0.777334635963916,-0.3367095090740664,-0.13256929808574627
10.177814826687861,2.5653399760773756,0.05073833004779704,0.9709705333564557,-0.41356496548867117,-0.2851203126626273,-0.795109995111919,-0.3557980110746804,0.28338381966764725,1.6006346402038412,1.6954304655400778,10.446658679483793,1.0331757377480815,-0.8739544314300535,1.1296202075580446,-0.19307620230846953,0.05385848910899028,-0.86915069167437,-10.461410928452153,0.016111269814130337,-4.577106930709272,-1.1288645758460212,-1.4907541024614341,-0.26670779167355796,0.774370993731242,0.09434031170135937,0.3459845209988146,-10.43685772831547,0.5094294318207602,-0.32431073520380677,-0.9898707828955418,-1.2922334175430468,-0.5454400999787105,0.46840914427963704,0.23708031953845357,0.35292512510837615,9.089210134266965,2.196969807659487,3.982409873181984,0.989312500398003,-0.774343838977861,0.16776216303827202,-0.7831471681470554,-0.3339053535808198,-0.1077258233772909
10.784731045216272,2.232982438587757,0.06668863223966034,0.8898959300659016,-0.3840335089197986,-0.22496641363521505,-0.8000124377339685,-0.35983191585858565,0.300362968778598,1.7388610060896685,1.3557834878170583,10.077137839227635,1.0222576877481093,-0.8200690429326449,1.028151884359711,-0.21630034779743093,0.03651443222802007,-0.8657884041766647,-9.486670861203796,-0.42076639182369546,-4.598391270411039,-1.069966728908417,-1.3324522671452375,-0.2647671944360538,0.7791848283995944,0.09100110620578983,0.32834867138945,-10.072318683096238,0.24869902271994668,-0.4886810789242454,-0.9170361486876718,-2.3421371819305774,-0.5126598543619106,0.48995600130661404,0.23906882045318986,0.33639369403387115,9.309795383965161,1.7336560602091258,4.076086760828226,0.8772866475350205,-0.947611418294868,0.1819084500757278,-0.7973905878664164,-0.3363137750161448,-0.07978827318247264
9.591631626797948,2.1014872815122274,-0.2420211728354958,0.8261575550250483,-0.2802708503784032,-0.1389761934728425,-0.7934220913953961,-0.35290825018908073,0.31761276833785634,1.7368815073829582,1.0976059920691434,9.202661669178273,0.8905747139911822,-0.7399304961701153,0.899649650140526,-0.22565302339018506,0.02907022597361813,-0.856436163883632,-8.633189908333643,-0.5718549068657865,-4.512525024270745,-0.9464462828691338,-1.1951362942132557,-0.3027261940804037,0.7954633603381464,0.09515174623959535,0.3140566931066748,-10.380422427571235,-0.14692827388336321,-0.5199852043527664,-0.7743390749218386,-3.3241891953010345,-0.4736765239539027,0.5363365152783466,0.25675054442814854,0.30328211622502466,8.622468170660937,1.4912049115519026,3.985198788641356,0.7599242209478155,-1.1484226372057067,0.22170336888587358,-0.7951691665893235,-0.3295034398360893,-0.045101461737126765
8.560167863539228,2.036895402975697,-0.4223235475849144,0.7175522046559858,-0.19863909768761226,-0.08921233560548335,-0.8048570121961561,-0.36484442995593147,0.3139250681258314,1.8774945032251371,1.1586920974397863,8.023595982070072,0.48429919589959897,-0.6812813876637203,0.7761172279153437,-0.25265215883536,0.011468888783592961,-0.8650014246114867,-7.251428052069997,-0.9397933708752568,-4.097252970847694,-0.7451750346199496,-1.031082184294235,-0.35107351409809623,0.7933117684686427,0.08502191417118075,0.2863858995565648,-10.368755397721188,-0.1643572777395872,-0.7471920698125448,-0.581060855360137,-4.186304694784121,-0.4258942617629167,0.5740321331059218,0.2631918536333973,0.23399914799819593,7.970369588728492,1.8183124398069763,3.717600332977739,0.6482757785983377,-1.100257640215564,0.24103871260857182,-0.8130654993953401,-0.3379539986412426,-0.029404365414018606
9.241353086635154,1.7690822933092205,-0.7330689948734104,0.5907968848066859,-0.09384011110491094,-0.06071461174654175,-0.7874045729531021,-0.35647156595458074,0.3177596885610756,1.8355076808449577,0.8988943354856579,7.877079957847322,0.12951180951214739,-0.5639505139077338,0.643636416236754,-0.25096225164652175,0.01684935179702227,-0.8610991429130144,-6.727898760500917,-0.8576488485430575,-3.8030865150679896,-0.5504332961203127,-0.8795523815520331,-0.39442274086223145,0.8121019187470242,0.0954798124288084,0.2665923164158358,-11.281127456337984,-0.6021745361511447,-0.8159971785860763,-0.4053324940280483,-4.881932940812042,-0.37813431719996937,0.6340645704097354,0.2863340640563724,0.15311229683496647,8.555804138414077,1.7943286117370538,3.150596537055217,0.5483111013061479,-1.0702367566234299,0.19747661619189474,-0.7999779756009526,-0.33037437382328455,-0.005351988534584541
9.901284799569959,1.4039217826266055,-1.2712896166540566,0.5307797414338589,0.0014561566456322424,-0.04759819164872911,-0.7961563447720623,-0.35528554078905694,0.3273160822498894,1.5686306579006857,0.8317803337738959,8.467779585299917,-0.22096337959701012,-0.35745362072032794,0.5141890137604997,-0.26686016479693675,0.024482340021879313,-0.8555575168681558,-7.11685722522286,-0.6496208426281938,-3.14027137860969,-0.3742395466134578,-0.7617149841706481,-0.4617561574256082,0.8047618166120726,0.10359593327128633,0.2578441163084554,-12.557026926309941,-1.008031718378938,-1.0160255105853184,-0.26762599402581383,-5.392218808162311,-0.39999710059364973,0.6575853046004876,0.30452909004111517,0.05640722785436687,9.606370412629293,1.3898581571335005,2.163044028020704,0.47251636094995564,-1.1378565654877861,0.13824829348657663,-0.8141576025334083,-0.3276547653443493,0.025756255224549142
10.27606755546898,1.4877550952698402,-1.7177295173237837,0.3758779574379389,0.013070322101738353,-0.023235154796983834,-0.7982407453688494,-0.3515714750111856,0.3262875184211662,1.937538242508037,-0.017397164084868983,8.28967534632314,-0.22185241086119184,-0.13722813237549708,0.354814184779597,-0.2723596802958317,0.031273533828167326,-0.8613500252162594,-7.3096603467157735,-0.6720955432194354,-2.3372211750744922,-0.22285101468515947,-0.7709243280664808,-0.5077416360857558,0.8075198901536604,0.11393387688217407,0.24227564196967394,-12.834007556284945,-0.451745336203691,-1.1168879194105346,-0.168833848859177,-5.558747897499764,-0.42907407306006673,0.677344063039761,0.3235015951292783,-0.05457285057243035,10.545970749954849,1.0865628027028906,0.5994337827685481,0.30711575734850927,-1.2614878767543207,0.09630647024539579,-0.817371026783955,-0.32856093611916193,0.05233802965954265
9.536058448517737,1.6136953872051314,-2.466560224764711,0.40311878927713457,-0.08391855362082871,0.022976434969882022,-0.7968125136605105,-0.34501297676642567,0.33437657874735843,2.502706599025509,-0.322496229262924,7.74909776736817,0.6082054134707382,0.12582996411897046,0.24644056500038083,-0.26763317022134725,0.028136891887490894,-0.8557862465675543,-7.294813199157971,-0.919018318505574,-1.8613975260453717,-0.2595175585383795,-0.7662052934741972,-0.5029927296456661,0.8118403989790937,0.12238316180369427,0.23060804539607208,-12.66547271435978,-0.01732508945043484,-0.9792620157110496,-0.25397284414319005,-5.524407818238808,-0.3711531491604939,0.6819494631288338,0.34231646958080786,-0.16567131097757165,10.496531008459712,0.9237771408863273,0.660882397511579,0.3470102836291053,-1.2311898033238073,0.1461592238729141,-0.8131475967252904,-0.32154568656355503,0.08265050013313034
9.076249148596204,1.8586133902708728,-1.963893286362197,0.359486523662774,-0.06687625518941027,0.07000500968284096,-0.7970444789468896,-0.34622773402753976,0.3326621768392617,2.25723292086249,-0.11473021901658012,7.484491732241541,1.5072489023188789,0.33543880590321246,0.22870286902171028,-0.25828448405792687,-0.006178999695891223,-0.8608332462560264,-7.31774519609747,-0.8332239482790191,-1.5062412588223424,-0.37334418383166357,-0.7412627801436626,-0.49804078900603815,0.8137433603029454,0.13239026521319117,0.2087108068132836,-11.918599827188592,0.008997180484351705,-0.9499256207032238,-0.41090737366112284,-5.307540681848587,-0.26860283955154973,0.6664661448247431,0.35045158618512307,-0.2746132130957576,9.147603328708183,1.6570364764899865,1.2153613446179916,0.2769592650855757,-1.0798072735428055,0.1425805710372592,-0.8116177105927708,-0.32107821994999963,0.10146544497457845
9.019299620166997,1.6339844690699845,-1.6269809252475944,0.3213129898542953,0.05830824074512149,0.060012911195029287,-0.7979273766593994,-0.34107810410005834,0.3338593828529589,2.137685135035685,0.49645565574206546,7.531454430060316,2.672523098660224,0.5295425888841815,0.2283476528769107,-0.24723391214205145,-0.05709293315588793,-0.85958380879737,-7.836073519200881,-0.8059829493364196,-1.1330626027292918,-0.45421484088912417,-0.6992453740067429,-0.5007894456997249,0.8156255637501204,0.14278194484017034,0.1982872933118932,-11.162985035012392,0.3078312714732266,-0.8755128464412048,-0.5181527050885474,-4.9073350466642705,-0.17810301350343136,0.6370941862445787,0.36061772438369505,-0.36395868756588756,9.159022627508474,1.731746174492291,1.2497989585497677,0.2480069119083636,-1.0433601040851257,0.13203672714496112,-0.8137341110910855,-0.3171212035307353,0.12512509104100145
9.524459042565818,1.8868311452493969,-1.6696483263837498,0.3478805524998244,0.2571886931097947,0.09951164763429823,-0.7931998428152959,-0.34339020062748443,0.3381267388728756,2.4642252094160964,5.064745293262825,9.161043957140707,0.2052287891959972,0.6812712784029573,0.32554604136334564,-0.2287542159840847,-0.06521768509495543,-0.8512348218625467,-7.900422529143588,-0.672154546337238,-0.9312122607749566,-0.3924556186002331,-0.6391566324474656,-0.4615717170034619,0.8226776827561774,0.1480006679451368,0.19954876098016658,-9.963252707264614,-0.32687780781452047,-0.8252615442929181,-0.4898851445238895,-4.327447447186129,-0.11024909934807749,0.6087991595777233,0.36105850755374713,-0.42904253249010005,9.266489093089495,1.725267430088493,1.340584127451265,0.2350565593515127,-1.1074107470386885,0.14221560237204212,-0.806537574880335,-0.3179734316399197,0.16084329680245132
9.483411507520167,2.2628622355456858,-1.539728522965409,0.49593597424779734,0.3080240186967589,0.11108322179243259,-0.8142854985930827,-0.332383334914463,0.331995123050256,2.013435801134806,3.46253356735255,8.536262223339993,-0.024881715476308023,0.8405017959518443,0.3488128287988851,-0.22988491710257034,-0.059836012547563606,-0.8612228840156025,-8.548822561641087,-0.9347489508465563,-0.5931986981008577,-0.19540776509990204,-0.5598781286324837,-0.3438721894013088,0.8034906341464131,0.15566385040528014,0.1842015343502802,-8.55112511452153,0.5229188958161289,-0.6782321670273126,-0.28033127922280154,-3.598110354842022,-0.12841187879992885,0.557133459452395,0.3654451983377404,-0.49103062012413873,9.684102786330639,1.489883245271356,0.12071282648855106,0.4309483722499882,-1.081575653639297,0.19771391337691285,-0.8224756046509978,-0.3091203904172355,0.18387385672050202
8.976531032545775,1.9914376622876373,-1.5645057167214147,0.43083712908481603,0.22851450022093708,0.14576644331508148,-0.8033430633771454,-0.3316683807219791,0.32468806112033727,1.865246578425449,2.4568793834022253,8.62300024175178,-0.24189375963524093,0.8861012552967741,0.3621889776995007,-0.1999917288075911,-0.053887096473345074,-0.869069317479465,-9.075741452863408,-0.5742709250390539,-0.47347630400114316,-0.22814558389318731,-0.5182740693842796,-0.2593121047056917,0.8138779594487296,0.15702790544529313,0.166885422895578,-7.404478523670524,0.3131129243304396,-0.5378683727578992,-0.27396124236574027,-2.6917563900945765,-0.010585681623641326,0.5366631159919641,0.36396964429718826,-0.5383258296477831,9.740418203084236,1.0457280502862991,-0.42168596703670624,0.36818991566780424,-0.9227978944002228,0.21031145676603213,-0.80648459427137,-0.3084353232063648,0.19770490183485356
9.165023273300433,1.5950929735325177,-1.4472204605555352,0.4730279217513051,0.12531050587114956,0.1839511314560413,-0.8035803958647465,-0.3177427455116712,0.32809353587134665,1.435109864435223,2.4128604045967155,8.551763825989822,-0.04742370800198072,0.9102290287984921,0.37187406394624595,-0.17884626478167526,-0.04706526286056579,-0.8717008499775073,-8.693306420189261,-0.43579028281450827,-0.5490567434124131,-0.28114745950116693,-0.4797638767412328,-0.16043279503662247,0.815864954146643,0.16576564419889186,0.1608766805525978,-6.444540313875673,0.9142150620357439,-0.35433105918931906,-0.2632000721899905,-1.7270940536051822,0.09142909284688362,0.5181319672079301,0.3715969351302707,-0.5596597233686107,9.680326565093102,1.3174360997140802,-0.4464249762669282,0.40467216970675013,-0.8224197000391812,0.22531097152667592,-0.8043029953308091,-0.2974788451576039,0.21969417078199152
9.819805096840836,1.4689232487223582,-0.758241976832396,0.42546184513625146,0.06782830681299183,0.19635268570900422,-0.8081576924731585,-0.31006287000712335,0.3331074829186605,0.8005501522385776,3.251172027250774,8.746735455349148,-0.3292321570706696,0.9949011965518076,0.3349010271294718,-0.1640495772570562,-0.03982375573936708,-0.8737819280424564,-8.522836354092572,-0.18802255078012495,-0.7798029172843306,-0.3774770350980161,-0.4034671552053413,-0.10119410959201164,0.8074350535222927,0.1670704432083789,0.1551657277416895,-6.005481456541242,0.5113438149455046,-0.3769753915075497,-0.32335314444487506,-0.8129911814340024,0.23528342180051043,0.5026639517019827,0.37526595429079856,-0.5666532025247567,10.054591028832496,1.1561347734249372,-0.20377793907044991,0.37139263119169097,-0.7201359826504147,0.2231804827659314,-0.8061164706608749,-0.292064546648022,0.2401818027797696
9.602711150640006,1.4291958094047907,-0.6138987702543904,0.3281660192258148,0.013139514300550301,0.19853938411919128,-0.8051365329570397,-0.30793667179265144,0.33146955668987527,0.5727099257525221,3.1467031787541906,8.53363353492941,-0.573718013861211,1.0843865557099035,0.25570443700248807,-0.13594651409257927,-0.024863593853541362,-0.8801267304131617,-8.273060241848198,-0.09080208866341931,-0.9811193756673949,-0.3118736981815376,-0.3013906226089363,-0.011757233346706284,0.8121587762141926,0.16923298889213415,0.14820790954230387,-6.14113439286146,0.11248064170392477,-0.3118147280950273,-0.22732995900569808,0.07092316810961562,0.22302803837132865,0.5037765578895066,0.3772739264169951,-0.5628121380353345,9.852300657852787,1.2551880456483424,-0.1315203399633118,0.29136540772458486,-0.6905896983811125,0.2150326433576319,-0.7988317723043947,-0.28706670842373133,0.25368023679779245
9.367999106948776,1.283064278292018,-0.5298776558073475,0.19893656854868957,-0.03694130250432721,0.20399159246487664,-0.8135344408772959,-0.31042222153872756,0.3429910964317101,0.3396508418057907,1.8664364445246093,8.793272305915242,-0.6885410386818465,1.1374428554828402,0.18401486764652092,-0.11815609790670081,-0.016630227391063953,-0.874665338408573,-9.000354133078641,-0.3540799251042579,-0.9926687732236694,-0.35253178634145965,-0.19001606318329411,0.03873598838576098,0.8040702280550149,0.16215230536808017,0.1552933316545603,-6.690044802561549,0.30923136600110757,-0.2963432565291289,-0.24678312456757717,0.9284092945754042,0.27211680903550256,0.5023884360642972,0.376820586770808,-0.5368489998012232,9.49005315338768,1.1035669580156855,-0.30798067136358237,0.1581004174246763,-0.6767836129001604,0.20196318035956204,-0.8047082952940839,-0.28816844749178666,0.2775483865077631
9.57758452259332,1.5128072291489234,-0.7795986218667983,0.31844057714806373,0.023728701718908285,0.20168120846361254,-0.8081431343789103,-0.28710665266509067,0.3350485402097396,0.2520204871037221,2.1586752713189252,9.696519998437438,-0.3089139009536197,1.1125045214956948,0.1761449507969281,-0.0904178980179456,0.006635150383416529,-0.8844070695146018,-10.09628851379895,-0.3113426944450968,-0.9159242881920031,-0.37334063633759834,-0.09103648881709475,0.1052066122441558,0.8079177197333786,0.17281854285100234,0.14555990883713227,-8.084576704801071,-0.11416615702226288,-0.4366945473814047,-0.25732743625266635,1.8831922966540309,0.3254850678211639,0.5256808032913707,0.3951598598689774,-0.5123457322397343,9.395595816763318,1.2362070722776044,0.07580557612376221,0.2763126321367091,-0.7568217087224757,0.208145978109297,-0.7956403956867726,-0.26879847207837676,0.2859286845451609
10.409936003620999,1.2926257167438522,-0.837186731890031,0.3057767046017138,0.1662099586002385,0.22256956858704488,-0.8134660954678601,-0.2965036964910266,0.3337042535665846,-0.018315822242888163,2.345860425226948,10.570184115930129,-0.2664649815904124,1.0643644132398764,0.21467882137871627,-0.07010823802119015,0.0009942808218648192,-0.8860810179623596,-11.039730395639408,-0.4550178652939143,-0.5481117065258787,-0.351805778436514,0.00036046192963730254,0.1912999616410723,0.8069125244808827,0.15991620733949471,0.1496477686503901,-9.682221709363432,0.2540028040407317,-0.5362900715013396,-0.2156615430145316,2.915229875299934,0.34389786392521116,0.5459144559189717,0.3913173229891076,-0.46009145653264594,10.280755150316791,0.8526544832615581,-0.15874045378777088,0.2615945040361081,-0.849209177054941,0.22349759526619623,-0.7937929750816445,-0.2768828891287106,0.3059730376418318
10.053735326622288,1.20779747351246,-0.9592007547109132,0.3855711969214091,0.31360574855761036,0.23792866583539862,-0.8156106116097461,-0.2776477886778111,0.32997898028040706,-0.3449753950339127,2.3110536328608258,10.947194499593717,-0.10027665537638639,0.9712677706019222,0.2913174536781091,-0.049450646492483055,0.014630404219357518,-0.8811249239437354,-12.057845670629098,-0.5513794454840681,-0.024973891202872772,-0.44109459129977113,0.07950384030934946,0.2640582599108638,0.8041121663418382,0.1636536535300839,0.15820356547275194,-11.83098745407018,0.027187832352928865,-0.6661510744395458,-0.3202254831106632,3.994302296987468,0.44977101418519505,0.5786849524705193,0.4105320042875097,-0.38833186851567186,9.872132221145316,0.9545211900996142,-0.5213728183366251,0.34914191892465385,-0.9837467645644266,0.23639333019912703,-0.7895736113114726,-0.2586369469936128,0.3331045132002607
9.47592437873193,0.917949306893472,-1.4382001469189412,0.47861434788298257,0.5058058093776523,0.24946854763349502,-0.827193166967026,-0.2810328717225851,0.32066630514511285,-0.6069195475747439,2.0274986738870657,10.702800860895705,0.18436664257878377,0.797451476360382,0.44507775833878066,-0.0424414735489287,-0.003846423379355023,-0.8834293534902394,-11.894084389017799,-0.5416734806283885,-1.9801350804955218,-0.5070174621939046,0.15153878991282843,0.3378087382191408,0.7953221903546903,0.14650790229020058,0.16152133966118115,-16.591774797021195,-1.3767431283243265,4.221990313736051,-0.3878772559049113,4.8810115473843005,0.48535438242772005,0.5962624087989233,0.40456335793238,-0.30564584626456553,9.298533054887464,0.7024022323269292,-0.7456193608627316,0.4265174588048766,-1.0999258814135615,0.23693471121013573,-0.7921176325444341,-0.26492805030855837,0.35603405076748873
8.827346963945551,-0.06528607182408049,-1.4760200829866874,0.892567986216744,0.7493491990162636,0.23852862384139617,-0.823438112652726,-0.26012066522180893,0.3073131300033889,-1.365246995900489,3.8546670086693653,10.64463330183016,0.6966503919632125,0.5508489340294097,0.8637036560691203,-0.022914493221750723,-0.005587195090897785,-0.8860634505177416,-11.841411684140816,-1.7367715640875507,-12.392739956284778,-0.32772607466500336,1.561478702989393,0.32084964910411284,0.7995771971625087,0.14618594004011143,0.1912346960918326,-26.967451954349293,-3.046858766657895,24.659193536298393,-0.15763772857244515,1.5941085328935325,0.2895271826539774,0.6167514611732022,0.4172106400177681,-0.28536176229075305,8.703853111167733,0.3119370883065136,-1.17475708214066,0.8405441114490575,-1.2052346921016706,0.21552790881671563,-0.77465420435899,-0.2430206898875422,0.3842726884186844
8.997414750455482,-0.13367365518962757,-1.0738284583709663,1.1348572164165738,0.9146364742603942,0.21622611632441793,-0.8234172483892963,-0.26231856738340087,0.29412803899988876,-1.63967906975609,1.8607472001381336,8.619046411962165,0.7805110624474842,0.4705693448379326,1.1208774228576013,-0.00983211260156079,-0.03574003441279819,-0.8791741763080636,-10.2410158697813,-1.792484084540854,-3.4633641305179346,-1.1641166450469262,2.9267599170605867,-0.05053677763963521,0.7877047929630763,0.13237685252613804,0.2502506148049792,-14.18063368771441,-2.169478901452864,14.022238076130183,-0.9355339816219889,-2.589363554977742,0.6423621400709566,0.6153183690623939,0.3926254661069323,-0.3206927910441858,9.025364187153231,0.09828525443986637,-1.9443721410402792,1.0951352094309272,-1.3179895791880623,0.06425717988173338,-0.7599110011863621,-0.24572328063951088,0.4188473554371531
9.249820814960508,0.46686684820677093,-0.6759332660897771,0.9823691898134761,0.9159680956810153,0.2239862114968429,-0.8374780416158518,-0.23829314016798117,0.2730179235346285,-1.682159223547087,0.7330676043705936,10.643583216773935,0.8246032693778299,0.35954995941769125,0.9740772157735393,-0.010350621351464365,-0.03866050249262032,-0.8855236884051474,-12.721184499029519,-0.7659591483999193,2.9939333384167957,-0.94480477798017,2.3404914442965943,-0.1255692329684442,0.7635305092095318,0.13871784572133838,0.2906971640929164,-4.267768410261796,-0.6578850389518414,2.789310336792742,-0.7305286245947262,-2.385928534564998,0.5030083063461855,0.6021571550089505,0.39716310566113533,-0.3610217938450929,9.426429161657522,-0.01420655766308217,-2.3935515271875816,0.9438368067313634,-1.2343655232559403,0.027233102269699848,-0.7533928755758669,-0.22483583489750794,0.44087294403089305
9.433308091907385,1.053846099638656,-0.054816072725204945,0.7097687722294084,0.8302636287747517,0.23928832606656666,-0.8435658765061773,-0.24693848669424334,0.2635954572550931,-0.7280024123931143,1.8443408025682693,10.105665607446085,0.9002233891744678,0.144608330995913,0.7437908205993209,-0.01409057062693667,-0.07240647701241514,-0.8799440940537403,-10.968037203978835,-0.2780593833271738,0.7380179564298232,-0.74922861871872,1.293633138199941,-0.05096665522487193,0.7489561244502149,0.11915907849764881,0.32126526119720017,-3.924982599477755,-0.31669216209572165,0.6533806107882153,-0.5449454250792366,-0.6903695671286212,0.5501899091239771,0.6007661177499272,0.37464473175503926,-0.36461170108195273,9.417167218367771,0.8053544191344503,-2.8036644693646995,0.669923481081986,-1.0380118420655111,0.0027713988812325856,-0.7467174156672669,-0.23178579101941052,0.468533229367677
9.794842387358587,1.3300138771330379,0.38751111440714525,0.3701427401381135,0.7485717552300701,0.18051795304850113,-0.8493575654988232,-0.23776372967053813,0.24953079493534872,-0.8356961029180145,3.8523302439211022,10.696207414347734,-0.1072520320465381,-0.04163652369912293,0.49115093266952137,-0.016747755282648637,-0.06878770491462602,-0.8730742888738453,-10.952900748115823,-0.7642339437452507,2.113890166298239,-0.5855078022944463,0.516567201919304,0.07938592272303964,0.7468611651327537,0.11713989740782557,0.3376941352360588,-1.7141860673008844,-0.05429584387112791,0.39925771497223517,-0.3743456367258135,0.7143393460768912,0.45212980045202167,0.6079652256453537,0.37299559718395264,-0.34411258098677655,9.710740195646322,1.3822584259781636,-3.078455182960477,0.33795178869140113,-1.034980978589678,0.0531653488546349,-0.7378266352718387,-0.22388081177476818,0.49767173437569073
10.417304362017276,1.4096130782344418,0.056600393852454745,0.43901670532519027,0.5472944770509374,0.1771079440735396,-0.8449276868146602,-0.23909010716947404,0.23669547185511763,0.43537638689249825,2.5560514040412508,9.916566726902772,-0.017956401551689535,-0.11294514207275136,0.30292421277520964,-0.014086701412447764,-0.07411225464269659,-0.8814128396767843,-10.654797228111741,-0.653494125134432,1.2264848499578307,-0.5496874641614932,-0.40807545741377876,0.1470643832144357,0.759683916020402,0.1007377725545323,0.3229934641299391,-5.379520527897035,-1.9637606275160393,3.7719767623592566,-0.4035065515820296,2.3156279444048344,0.4601426708291933,0.6323030030785467,0.3651283938367533,-0.30615031306050317,9.845945542810865,0.5644396262593534,-4.24723508405375,0.43157383022942347,-0.8052799910655882,0.04577138288833862,-0.7235948370668958,-0.22829270914361366,0.5070940661179167
10.118654334124612,0.8627865148794884,-0.3214525272778055,0.3684598529670503,0.26904249127211244,0.22315535293063213,-0.8412049813657105,-0.21891052312189574,0.23408704458814544,-0.14734722092476,5.6889638869553,9.705137799566021,-0.09530439040545904,-0.1268046994801761,0.3194871496448426,-0.014410686641116575,-0.06118808530005035,-0.875521862137003,-10.10236196239629,-2.0601214332902535,-5.598237901440296,-0.44152101309541414,-0.2497428777176892,0.21062385897966662,0.7636027480414984,0.10815958291849087,0.32746397109356934,-16.17764421555031,-1.1290830143718185,16.23351620351973,-0.24282241385032932,1.369407150863406,0.2928603408948854,0.640253343868557,0.37695851139071923,-0.28192973420734513,9.460265954261462,0.6724873052966966,-4.690474998588764,0.38919202578698253,-0.5678014864750134,0.08610328292574021,-0.7126639795205154,-0.2094431402487975,0.5235506964771465
9.692325931145406,0.6756878446056246,-0.010607172503197093,0.6023385060765539,-0.0555425914904864,0.268564329682827,-0.8575075982979041,-0.22804321499948668,0.23247917947217986,-0.020813942099030203,4.264958998532274,8.737106550850395,-0.7031770303077267,-0.05382908517889734,0.39022372397947475,-0.027421060120063928,-0.0620404179562317,-0.8836989840011744,-8.957912300751872,-0.9704595393565759,-2.5733859943030475,-0.6056597200928237,0.41194466202512053,0.05054790716826521,0.7472866558293779,0.08801206314140907,0.3314554709066323,-10.240640810555051,-2.6066838478285748,9.369645033658905,-0.44740700144834117,-0.6899118133217834,0.4465121079221177,0.6309640559468053,0.35255457743728585,-0.2939756526656138,8.778869162662714,-0.03895829940076127,-4.978559841191774,0.6503705084925427,-0.26799346304498506,0.0064563426417529515,-0.7237751820256645,-0.21582913434714188,0.5239315668822403
9.67454709249855,0.7099128001565451,0.4586407064988358,0.5010708828303816,-0.29420153304693714,0.2988805881793159,-0.8491998091735312,-0.20577522542407015,0.2443881870351169,-0.04099035298804256,3.128531782593191,9.216782470544706,-0.5393143699644203,-0.03555005586228199,0.316114866853916,-0.0225400056760853,-0.03587139573452164,-0.8805163565528918,-10.082335584729064,-1.090634021568799,0.7087296967029807,-0.48700422606390625,0.23746907984438398,0.0204086998056527,0.7522638172574553,0.09721683021653624,0.3410112890930313,-5.202833136871175,-1.1348416374724832,2.256944957654931,-0.36300778423624097,-0.5752235393874405,0.33599991925070516,0.6340309680876685,0.35958729932680633,-0.30102369443229526,9.10060218673385,-0.0023204382930537486,-3.81341919512689,0.5637711743332126,-0.14633605173665287,0.06928566636814666,-0.7156647813301261,-0.19448827134615937,0.5340101911400995
10.219816529324833,0.9856637223011843,1.1941168903760073,0.40170506965196046,-0.3961382590124353,0.3574212535139877,-0.8449431397386459,-0.2000168386711758,0.2559658067527533,-0.047461088110999236,2.943120346958567,9.253578799870825,-0.15363023649032664,-0.06120209652574534,0.24006936688753033,-0.022303995069063248,-0.03489238804923733,-0.8802725452620799,-9.992005705898144,-0.5274977151109618,0.06470769637114723,-0.35818067904084305,-0.11823374000706476,0.0682725972245261,0.7557148565381684,0.08867219422569285,0.3381192011505651,-5.989638099186116,-0.702448311010584,0.6791906384208496,-0.24274659045889288,0.450123678948409,0.2719908459627496,0.6414720862399604,0.3549343846851955,-0.2873412316795042,10.01919357153476,0.4114828803047048,-2.655573879368767,0.5128743587471444,-0.05239412285163144,0.07795575088672801,-0.7133621048795475,-0.18647092080512265,0.5384225675367919
9.747907823461727,0.6483793540676538,1.0147367438215034,0.3104274076519382,-0.3336614913482485,0.2921316620614069,-0.8480105729412333,-0.1891982863240121,0.2622357128652356,-0.5314562520952757,3.5822742719895557,9.144101658150216,0.18273914414249556,-0.03760134701051716,0.22432777900666448,-0.024775431227252127,-0.03345022020758107,-0.8817105888054015,-9.993047228024789,-0.3978834563751343,-1.1944296923716466,-0.2840584291173716,-0.25574931173118454,0.08184742630893514,0.7547965034911132,0.09198764744945678,0.3305258465162815,-8.582788212438938,-0.2933125030312288,4.960422952592433,-0.15381178345810922,1.0392318690797575,0.2785002460042531,0.6418424895690051,0.36049739467295444,-0.270805608248562,9.585088862463047,1.0783617266205132,-2.403542892805088,0.3887118749444861,-0.12268863617395556,0.13063440860246933,-0.712723698224588,-0.17622529452423827,0.5425739549019211
9.299219158218028,0.12757106141167918,0.3416522432329096,0.38178715236489513,-0.26760040857862566,0.22561448073352244,-0.8440749407876872,-0.18562984827213827,0.27478311077962064,-0.5689401737274223,4.398055508421769,9.163842733734027,-0.041824411994587175,-0.07736720805334063,0.31536998914344744,-0.021226779538236755,-0.03977569175323141,-0.8751661428460238,-9.92867767037396,0.05611027175626375,-2.248004371181455,-0.4067492164975497,-0.13115595343312852,0.05269127585925849,0.7608845563487573,0.08236348123346972,0.33687484659893885,-10.675417406177864,0.02460429841455731,7.720202984816929,-0.3080972981648137,0.6571283179305409,0.33662397158895224,0.6490642643643013,0.34979632595917753,-0.25191202404150775,8.794454472395278,0.2639601909507919,-3.168391723671007,0.41254397040857466,-0.2451641916220858,0.12250021015009858,-0.7061432212369481,-0.1714598149968189,0.55264632197669
9.599439701606132,0.06565973798059005,0.21574371932065284,0.4698586911967527,-0.3028524575592543,0.2327677705679948,-0.8395543906279971,-0.17303875195949073,0.28221105375862626,-0.174961252545223,3.6405988839648686,8.776036675144855,-0.297557160732343,-0.07826124916014865,0.39294648413085426,-0.020218638365759878,-0.02120519778972451,-0.8768454142141208,-9.329002592371861,-0.01920110000303,-1.0641983114719653,-0.5154124418618077,0.0016754336612258569,0.07135830677009859,0.7644578834158642,0.08382093959931336,0.33312333200036476,-8.129182310495334,0.2578664422332886,2.4708669063008397,-0.3930672661620454,0.47816312585869397,0.3592499427556511,0.6573251638736649,0.3543438292290179,-0.2459449367028651,9.010262630993704,-0.08948390961403346,-3.736990215322434,0.5124163078667493,-0.28884468915736,0.049165792618414396,-0.7000764382022056,-0.15594162157467908,0.5609989648232635
9.969978830419038,-0.10622428692881025,0.26040229549049565,0.5020295174168301,-0.42704501441072995,0.25878843706619514,-0.8401045293968002,-0.1669211295717803,0.30099883142540856,-0.49213493010328335,3.6777966965402142,8.695056043979712,-0.2667741401092737,-0.019632087415777193,0.3753582325840968,-0.024825538036467733,-0.01955636861124474,-0.8716699945437728,-8.851130586079883,0.05445760480520208,-1.868146673531031,-0.49721748408193334,0.046190639476141826,0.09828921682980994,0.7581373093257167,0.07753369491036136,0.3435829823956792,-8.740351571780193,-0.421793553771556,2.9614017710986595,-0.3784776868247952,0.7911563815417363,0.3625646615509279,0.6588546594065801,0.3480398514580286,-0.22174158950299078,9.390430570190784,-0.4317792881826275,-3.8206630358391878,0.5566768890986885,-0.23053653052113499,0.0334709370452103,-0.7008588136804734,-0.15177101202665508,0.5736842601926642
9.988210883947566,-0.4484226702921939,0.4796604995550632,0.4218502299899078,-0.582180890797708,0.2484548675301997,-0.8507345571291842,-0.16617695503851573,0.2968352709691655,-1.044435142242121,3.6274015561406365,8.96279274665699,-0.29862225997458347,0.05890638894872124,0.3092860552218516,-0.0369347264902974,-0.020381700481772787,-0.8876681783248503,-9.240861763555685,0.09175295227712668,-2.068360531548587,-0.4117606835423274,0.1741304404234171,0.06985876519594414,0.7473060980050582,0.0670406593122284,0.3336703308198618,-9.241696163220666,-0.7595091716513784,4.341633899041795,-0.3168414406207784,0.6433359460742685,0.28343079445796954,0.6483280267842055,0.33813233526524755,-0.22462197359601443,9.570104178451738,-0.32501487979906596,-3.533124102374523,0.48339767597074856,-0.08657559441034184,0.016920871714398985,-0.7126266551515634,-0.1496050457302606,0.5579395880743194
9.63388082253809,-0.13783910395656165,0.5882679619588848,0.3907432084565337,-0.6660271267432681,0.1920725160797358,-0.8437325268332266,-0.16317127467276668,0.31336396756851786,-0.8491314064495097,3.657087788750315,9.307620103133958,-0.3548108142170177,0.03565102741382023,0.24659798409961914,-0.03429518764896252,-0.014740705398866287,-0.886217665939619,-10.039521503388736,0.028067137447583736,-2.0419084671810634,-0.3346557542504858,0.21817710080301056,0.014565021017195782,0.7484867000568176,0.0620189873891796,0.34127981647216743,-9.693602259976153,-0.6190057838686936,3.307915588191199,-0.26347203455400897,0.6521999999317114,0.1959656273381805,0.6543687827619553,0.3369122199143873,-0.2084800105261807,9.343522187944124,0.292160421560715,-3.043893794413057,0.4470153905240247,-0.08511425254775093,-0.017840250471654537,-0.7077392896326242,-0.14651927164719694,0.5633578223432097
10.000960033392367,0.015358942143122488,0.6534241236002932,0.407192798646353,-0.6235731954123117,0.12586859055312197,-0.8408017046562144,-0.15982282306293166,0.32686457263582236,-0.37419765141000494,3.3205996118543104,8.922504835005986,-0.4534172010436187,0.013258331149939307,0.24520588674803304,-0.0338711053128051,-0.006684691086708976,-0.8840064962097077,-9.105866459293784,0.10397792536564646,-2.3511521380244904,-0.3241805315050629,0.3305084614289097,0.005208902090633965,0.7462217347408073,0.06087614633572827,0.3496419126473987,-9.53794482450246,0.09042624224375004,2.585010119576009,-0.2651720871758641,0.6815104688126478,0.18847500005719858,0.656226130549125,0.3363738645253079,-0.1929098728365986,9.773005699687776,0.27866581870543045,-2.4155141665604996,0.43788270100881416,-0.19660704108844176,-0.02868158178471584,-0.7042861091202836,-0.1407205020849304,0.57071418325829
11.189417958109523,-0.5125168448824907,1.1718092602487868,0.3831378048482626,-0.5114384749670765,0.08651121114286688,-0.8317894884464239,-0.15197999580671528,0.3458816806866576,-0.7576964015390278,3.650033928512031,8.867643208419294,-0.49871199133386346,0.1485315226540571,0.19275763424279674,-0.02625529322359891,0.012195457942586932,-0.8837960565426355,-8.342194023454708,0.294161794436782,-2.796931784256509,-0.26836159481379473,0.5278240876440587,0.0014107858496789217,0.7481076712135449,0.06420163631327949,0.3603082091475905,-9.492255825870231,-0.3145048799841848,3.010058385851981,-0.22380093047783936,0.5999524835612055,0.16397379885821695,0.6657431166503939,0.3385633908540451,-0.18061228510550192,11.115889900219798,-0.37355435802844217,-1.8442441316009277,0.4183815886002274,-0.3271458963946265,-0.07027552141753537,-0.6941719382505509,-0.12942738721369182,0.5815509444498482
11.024566587971789,-0.6320602099859278,1.3333129728576871,0.36468334783955936,-0.29491901124243547,0.10324948560315034,-0.8371050439020004,-0.14623594471579135,0.3491694363441767,-0.6666455493444305,3.7347511088975325,9.78593452579476,-0.6752147508499725,0.2859849070841594,0.14109774487097299,-0.026913594892144864,0.028302347596438415,-0.883755343008749,-9.74374897082281,0.2695336709416984,-3.4842725233998384,-0.21964526449083038,0.7807547098447047,-0.020589370560171464,0.7315506708581232,0.06543495195076159,0.37575981093410127,-11.04692794573485,-0.29400724489559166,1.3976936867344336,-0.1817735716667747,0.47211377577322594,0.07458886181362509,0.6598123058363227,0.33984484886836375,-0.16988071474300442,11.07148195225089,-0.8690894855061083,-0.6702271859306856,0.4312402155714498,-0.45440755097681984,-0.14921600744604585,-0.6973308944940951,-0.1237487945448468,0.5905493982477356
11.403316407370713,0.1622129380852245,1.7067215083512193,0.2774420761177561,0.03936424678204164,0.08801837599474174,-0.8364827127941787,-0.14014512454602368,0.3496691539161999,-0.3851724400853695,3.308692800520346,9.379141309755202,-0.9562963843931275,0.3696084532799608,0.1418362855605954,-0.018628447082289924,0.05110070580902246,-0.8857401471753,-8.974872027951122,-0.1499967572711104,-3.2101653064630016,-0.2404001854941903,1.0465110939204594,-0.03448834826086486,0.7246198313088085,0.06585201071953814,0.39591645840150125,-10.040202854883667,-0.15363692211298166,2.7843248289498326,-0.21522400304864495,0.4471775332078985,0.09013649427294,0.6609597188632391,0.33874814195131175,-0.15989535334324761,11.54808582597982,-0.9008486151892612,-0.44461790291390524,0.2626921279357617,-0.6426566315492236,0.00418660427877814,-0.6883627547783733,-0.12073616017773114,0.6028447924345589
12.015888947362077,0.049855422203118324,2.1584811925499428,0.15169769677495548,0.3692851227450247,0.1506962782930147,-0.8347093315625509,-0.14726952561499915,0.3399470211555505,0.14195414083468155,2.272222214982114,8.898382489533908,-1.0544322972032962,0.5951643268524053,0.030717718224229744,-0.0011798071799624804,0.06178794731788322,-0.8875955725955715,-7.846385980847802,-0.2861015444245568,-2.432820602964585,-0.17361624986062218,1.1280519647315614,-0.027678927826015567,0.7209649396273031,0.050392749549309404,0.41278682700645825,-8.13913076445349,-0.5258327595962066,3.477245179738147,-0.15314832495956282,0.3617082117715235,0.07360836733773424,0.669333841145575,0.3283929566617435,-0.15473637014699715,12.366876672470218,-1.1518449427356656,-0.5595762328720132,0.1491159003579542,-0.8424151686302076,0.10610282617430943,-0.6739754030185053,-0.1283242773529287,0.615200746993932
12.522276292363667,0.11403135827480787,2.061421241176778,-0.02407217616188501,0.7030389569286702,0.25122156212490665,-0.8488207738522772,-0.137651166938069,0.32690309418298397,-0.16769965848853435,1.7159290425493565,10.640137724960915,-0.7599413222935525,0.835735914556687,-0.16494237534916562,0.008931595203851518,0.08287465558674599,-0.8793482214319267,-9.792944744590656,-0.4388302806204954,-3.309486428207523,-0.03711130083692456,1.106754389995523,-0.004875052905279868,0.7016412692171677,0.05808775435846008,0.439934427247872,-9.542368765714007,-0.7222253947563252,3.1229162121342315,-0.020178944906844347,0.2175007138259817,0.01393475879356909,0.6599350917308694,0.33085040580103636,-0.14485649088825303,12.956105617373764,-1.512518101085065,-0.8835862380633999,0.03188714330492763,-0.9839263107378071,0.2038511051423059,-0.6740043981837656,-0.11952513352536735,0.634483099474433
11.424572292199853,0.08915505617003776,1.7182265317843497,-0.13362934521461578,1.0814831069576878,0.3447639766327958,-0.8563394568700765,-0.12330626119453397,0.2983857641907328,-0.5527836385328125,1.5214434828194732,10.715777173305097,-0.5734633451610122,0.8648247258478653,-0.2748871457487713,0.027914415950544218,0.10384697124193223,-0.88803193023394,-10.438064938267841,-0.3409746351911699,-3.4714261289776602,0.05145528004652478,0.9853218085695944,0.028191191345476395,0.6899337646157119,0.06583489785993489,0.44470743893594095,-9.958423717153643,-0.2932070952250857,2.8719845031198354,0.061178856970878985,0.45495657694216235,-0.003294437251945671,0.6622960901944944,0.3403998839013876,-0.14457502993950194,12.093511912072975,-1.5982404243001826,-0.8428085342038707,-0.04269932095715191,-1.0788634918020574,0.38784156623867705,-0.6596925892056373,-0.1063573714821963,0.6441406061168324
10.829920210543124,-0.29428400469542876,0.9414216980333447,-0.18974729720927103,1.4109309774466372,0.4280554978892955,-0.8615308932543443,-0.1226931289290468,0.2711525293095601,-1.0598487015195164,1.1158043129154749,9.634997862310069,-0.4409858666820274,0.8844729993728281,-0.3306329926733484,0.050464512746201104,0.10236087965487482,-0.880685293227705,-8.853635788558773,-0.004036280514691348,-3.0661858204518335,0.11844585312802917,0.8534329808550768,0.023946314279890808,0.6855606491521384,0.05848687122473512,0.46662011236276524,-8.480949953643595,-0.5499698950787094,3.412748257981217,0.09626394105442673,0.4941873896652836,-0.025741112728144302,0.6650595149561599,0.33226116678328993,-0.132617775185245,11.309081896032597,-1.255957912406497,-1.5650370737373356,-0.03239097982305352,-0.9788033935293564,0.4922502479070156,-0.6464880236388654,-0.10952685695632437,0.6608762894020203
10.533541633385068,-0.4225811229027275,0.5303444977443121,-0.20908098832489222,1.5864682983318088,0.4701359048894921,-0.8729864005023702,-0.1097180388368664,0.23228417844680507,-1.4742131477953955,0.6986883059710061,10.068702202234386,-0.3599231449772913,0.9501278424503947,-0.37583994379019103,0.06864143349368498,0.11451718758394863,-0.8813235860078831,-9.225633946546171,0.23753915412903526,-4.3448259788747094,0.22471674519012294,0.7555325287996245,0.0333981890497377,0.6719668620109445,0.06355229144420295,0.4734182478542154,-9.703751767310592,-0.0867762507656066,2.423092654103967,0.18863396982243094,0.4940435986491363,-0.10331852779555778,0.6605518347209042,0.3361708430200279,-0.12832696854539594,10.650778563963945,-1.13264626856249,-2.226757961507852,0.00868028604595262,-0.5489740436530762,0.5489083697506815,-0.648016417217004,-0.09850946352346347,0.6632964745221832
9.902000988076104,-0.37424508903328396,0.015198593335178201,-0.21564036238528392,1.7182149679663279,0.49827835695303235,-0.8727565549264888,-0.09189568437079568,0.1897864051134059,-1.4589526897951712,0.808617188344886,10.189957576695283,-0.8045667754280363,0.8792676365949026,-0.3869630084622381,0.09061113883781996,0.13770172467466488,-0.8817321211729422,-9.319923240837175,-0.43562884160049387,-4.5819254902989055,0.24557746215087362,0.6679781559527157,0.06337618445083036,0.6713644686856722,0.0722286007215889,0.4845548778922841,-9.920758145544498,-0.1999986379183758,2.4430727444749367,0.23546504102744314,0.5543417113521524,-0.12448080960176752,0.6661460667260541,0.34192048218666615,-0.12153370101599476,9.814691962716624,-0.8589083988174466,-2.4115472091743446,0.05541175069632766,0.030206062230445318,0.5894748746208769,-0.649390097127555,-0.08285801185656691,0.6588780590570928
9.319680623694907,-0.5481785350862333,-0.36441746127539665,-0.10043968908091606,1.7694126037152895,0.5435854787435077,-0.883671316556538,-0.09065587084468989,0.1472745889915358,-1.3945604376102303,0.8470831009782358,9.191311296597153,-1.5055975704371958,0.8414510692866228,-0.3360056616725554,0.10314331756978466,0.16003477849620562,-0.8742366128356606,-7.987592515019035,-0.7668249492518653,-4.29357262836845,0.06051485019021629,0.5998509406968738,-0.018177490793044107,0.6586843571140296,0.06439181103140859,0.4936936394540373,-8.948436550094813,-0.9134362363529923,2.74928038569414,0.030353698543397506,0.46233753738807654,-0.05301886087672507,0.6614056794945011,0.3373288792885097,-0.11298039973984586,8.804660442266602,-0.5219466019911013,-2.789492275207732,0.22734574025624885,0.7832715363802584,0.49677940019776184,-0.674028736126721,-0.07898871180497943,0.6390975616068374
8.154023758292192,-0.7073701079686966,-0.4764189752862589,0.05606800924234921,1.6800330815679627,0.5473688217453148,-0.8762775388536471,-0.07324970207305967,0.12131232865130814,-1.7365705663162467,0.6888090367729427,8.56191473679369,-2.621986873850232,0.832548637364423,-0.2652410248768632,0.13128401471261292,0.21961564455082377,-0.8531413214535236,-7.623231170504953,-0.37557345590215796,-5.390029147789314,-0.25206780161133197,0.6451906650433372,-0.1223006883904035,0.6605699838132485,0.06393619451444271,0.5146639125934283,-9.904246739850361,-0.15620598165425909,1.4581563301141363,-0.27237269231594113,0.29963597343226384,0.07171747204039869,0.673084459719815,0.33739498281983016,-0.09610310778373023,7.543140864428366,-0.37664154760300883,-2.9445398425672704,0.39349254492036895,1.6706818090612825,0.38663294859312275,-0.6907857442631155,-0.06061640550346759,0.6152358305614954
7.5762705721073145,-0.7824966252084649,-0.45671058109382084,0.16451496501114732,1.445840381816844,0.49080261625332056,-0.8848451264175818,-0.05814731655645715,0.0864194711007689,-2.326072229950991,-0.6860689576770497,8.514160378939824,-3.2751256681514573,0.7182304989320347,-0.223937386428236,0.1353857551428418,0.2879786764251541,-0.8337474076558312,-8.396899132757495,-0.2979193413534239,-5.424193675265197,-0.44888478607240506,0.7387907552941947,-0.17427976834264028,0.6459034652146175,0.06465937896887719,0.5266657430971836,-10.142976875177489,-0.4263251870764918,2.0424471815518026,-0.4452430762452876,0.15085761467516157,0.14584156887579594,0.6659944932622852,0.3381237122859191,-0.08996139312116605,6.99780604883059,0.036173324988553725,-3.200137872329142,0.47765425010728346,2.610563825608731,0.2683712273485327,-0.7400231971668088,-0.04482667417411656,0.5624857016507194
7.6463464334896685,-0.8566800315669134,-0.5259989365049466,0.1801501558648687,0.991762977512525,0.3731642377698515,-0.8886244127671359,-0.046089814667836536,0.06263282659394565,-2.70203588765337,-1.3674929161626304,8.531781684960961,-3.4405936642672383,0.6119162095181734,-0.2607780773263979,0.1421273339506171,0.3612518455400129,-0.813879590260761,-8.376630391396162,-0.059341320460677194,-4.780495291018719,-0.48445471054683786,0.6914554520254976,-0.21348493702412427,0.6299268465122752,0.06432795513617955,0.5335781284367812,-9.16631076444856,-0.40773194767696574,2.4704585492691375,-0.49735754077359223,0.05626250359263214,0.14804797573129305,0.6673036837683907,0.33424438141752244,-0.08874676139416907,7.513130571495998,0.2466718735708806,-3.8009817047135668,0.4692234772358899,3.746438373731453,0.1403403401345758,-0.7948566774784751,-0.030897636919858494,0.47965028130362647
6.9321323918002955,0.4983972340579245,-0.7643838882142411,-0.2605139227275558,0.40397589194806083,0.2228280724771224,-0.887210252227837,-0.04490226338979651,0.05582823623661218,-2.4211812344267,-6.964064998646704,6.467522095023247,-1.5275103104264314,0.5400901586615225,-0.35854573095759784,0.15250790770417721,0.39134607032548224,-0.793163034752942,-8.58855094486471,-0.20238416872955045,-5.300783922551941,-0.24958514893878822,0.647176323628694,-0.21207068193329015,0.6266264214009738,0.06132415152463181,0.5502860825888594,-10.092086615435992,-1.2223756937505548,1.6653680191436808,-0.39364983774913226,0.038725538308908763,0.08577426898416032,0.6656187573318042,0.3303853529271325,-0.08301368263894063,8.170305522292676,0.5203650123567822,-4.042047516376911,0.0716045233841023,4.934795410687346,0.0945544266761508,-0.844567713182305,-0.03001616887609829,0.3731907502444471
5.714525506831253,-0.977822438293671,-0.24047416872801883,-0.3619096626430217,0.06235704536898971,0.10266326120119093,-0.8880635355652365,-0.04219598218375524,0.05336446177860185,-1.7161595594945132,-0.7460096684127403,9.05599197930118,0.3787929631254229,0.21608812363050184,-0.34056147530880676,0.14832548565227646,0.38716899229775537,-0.8009447848729381,-8.79384926992234,0.7846171340891609,-4.978702731240342,0.5207780125925319,0.6595055063592794,0.13853513487907407,0.616112488030753,0.07152375692357239,0.5550059966550748,-9.643000823054145,2.1526253604755885,2.2332436973323038,0.5834105413092223,0.054075035669028396,-0.3513717765454043,0.6627958916454101,0.33979861039402054,-0.09009614112301631,8.797739525292505,0.29543813859021933,-2.2595614202265892,-0.20359650391955864,5.728779960079695,0.24475202101519658,-0.8854876096506967,-0.019788978286691676,0.23531782365019488
7.336987332626823,-0.5848295126144726,0.8201309048649786,-0.3297412444863532,0.057264031528910846,0.05748952077245863,-0.8876461937029295,-0.043670438940012504,0.05484076393056575,-2.632065578323607,-2.873242062934021,8.435083319186102,0.12855448843322062,-0.13686571264932412,-0.32998493239186777,0.14402356821373294,0.3797957496679451,-0.7994537327363902,-9.154201966322534,-0.9776096965022089,-4.5847383684065885,0.269753549163174,0.5204151842415436,0.165812285228542,0.607804970677789,0.06888062328186476,0.5657033446433509,-9.155827859103812,-2.867961100722556,2.9258597443906624,0.30042553890723994,0.14654592330509858,-0.1287412916509332,0.662549674119157,0.33839563053918603,-0.08444984238342643,10.704932757735232,0.4004659264903647,-1.112375663680397,-0.031264993019569004,5.871775179991291,-0.017367856480503856,-0.907599874946713,-0.021875843181173228,0.09837230161902086
8.297129416367646,-1.130746845545961,1.8508856604338317,-0.21267490302691755,0.3606471247198389,-0.05109930655893616,-0.8933079444853207,-0.042558235147595436,0.047621730906522566,-2.535471050583341,-2.279072767550211,8.476545608724217,0.09309254023977688,-0.38573926875243003,-0.2524928812839009,0.1300141436437873,0.38527080873345954,-0.8029684555488084,-8.410412792501164,-1.4440747125475137,-4.680370304400668,0.20246362726391415,0.4141830244038374,0.02191965968780217,0.5992246898591175,0.0758945861458692,0.567738225478954,-9.005987827545146,0.23924104704811466,2.2957690991809163,0.08472938539806901,0.15141837930371796,-0.15780044832984758,0.6561841615222198,0.34934393788693985,-0.08212213329564277,10.368450183492937,0.03798792766145109,0.19753245773356898,-0.008650671668038356,5.355670381598394,-0.16780719186735202,-0.9159523390031516,-0.014936896060399446,-0.030139784201889425
8.235017146813261,-0.26140637707635495,2.3561278850547063,-0.17369504959223947,0.6082958476924016,-0.11889815568095218,-0.8852809363258282,-0.053251444663302706,0.028284374720615766,-1.4525335533418293,-2.131792949152935,8.546802079430877,0.3056139529828999,-0.5336290155356255,-0.17059284301120287,0.12542787770749494,0.3715707596995516,-0.8124756743971425,-8.28599662180904,-0.38932170402765126,-5.542189604995408,0.24570372366809742,0.4592691869326857,-0.00441883048113524,0.6000834945320176,0.07082161750989302,0.571447624453479,-10.38841113895174,-1.496975918525038,1.7629601459109987,0.23807591030057917,0.20098681237313173,-0.051148668141390886,0.6639566830268184,0.3391276075967797,-0.08573725277678132,9.533913830973955,-0.018909523941127063,0.4757619386561426,-0.017112297578886798,4.653566247060237,-0.22959403139949455,-0.8913572504506245,-0.027897410957936436,-0.14512597247545586
8.62117667759899,-0.2510114920172091,2.9137632523709764,-0.08732652435826303,0.7170739651233379,-0.16449282943885307,-0.8830060028797071,-0.050619049830227976,0.01759157203570092,-1.628410235506388,-1.56071714092457,9.346791307713426,0.6109948538845666,-0.6494998347813349,-0.1331517478240357,0.1117708260825568,0.3667960021784103,-0.8160156607711389,-8.550572872074227,-0.563212068501042,-4.98562294576767,0.2482585238390298,0.5207169429787807,0.10010864513167295,0.595520207156028,0.08015848077988845,0.5802123085094815,-9.356355500808876,0.18638497196552797,2.24297075072545,0.2549754389926449,0.1416778831962903,-0.1029274104965549,0.6635884052398426,0.3467470234878088,-0.08092421527940466,8.772059483298102,0.2859317236050376,1.0253803193630637,0.07873014508700583,3.929050118364601,-0.2635918132789634,-0.8726106201028497,-0.02413054116682377,-0.2301512126314277
9.555534195127727,-0.5836663103978197,3.203292779603873,-0.07717946794423565,0.8178679557122603,-0.24002287649491374,-0.8885559779717583,-0.06049841390818819,-0.005248144838479508,-1.921615441552808,-1.6372695526282737,9.613624044742867,0.6286050219482315,-0.7034016161830685,-0.1466639818173174,0.09035808105801238,0.35267039591483956,-0.8238946230251681,-8.453414865169925,-0.24994714515802519,-4.941731145060958,0.24469928867415883,0.4337990067866187,0.1282107056813269,0.5824923397523696,0.07839696114151536,0.5873285682346685,-9.284894876396917,-0.5383610923213826,2.5770066523113213,0.22083050248486868,0.23012433562691872,-0.10753067752297335,0.6572232115250694,0.34986140315938713,-0.0804596033610583,8.536183014216599,0.11410452653635286,1.517776296871168,0.07017840596049656,2.9832114259147655,-0.32521907772982467,-0.8538156236659902,-0.03549854701093401,-0.29929501688796767
9.52808619995351,-0.53250307383674,3.1244664061523992,-0.039547961115078294,0.8669449628976483,-0.31045874775730725,-0.8855716295993017,-0.061791107243331485,-0.018851513161549066,-1.6485886403799686,-1.3106031240039355,9.569383947453789,0.5977927370504292,-0.6893635927052503,-0.12560738852179856,0.07723028670173554,0.3466726362932111,-0.8245132019291641,-8.325646143306033,-0.3072722649285642,-5.275508680057789,0.20143260278836841,0.40079411958734124,0.1278887547171815,0.5802633158215523,0.0881843512170854,0.5909132937226909,-9.624360734236358,-0.5411679007192579,1.6785626408682317,0.17811025962952226,0.2559246571399138,-0.11833654788154736,0.6598102589802431,0.36143599364209616,-0.07410156823829754,8.189043575136022,-0.07535100952985133,1.564583986300272,0.08449073324894249,2.0053139086658445,-0.38063819886129513,-0.8337033367007435,-0.03784232715914737,-0.3369365419054854
9.103195804521569,-0.45536320182297424,3.260502699336933,0.026966020760826905,0.8013031858106947,-0.36635276015468715,-0.8752898059607368,-0.07571321430136665,-0.04374938531420611,-1.5239909848654423,-0.9761485462859564,9.582918881431151,0.7086825735487401,-0.6577927995186759,-0.10348775986423643,0.06922307016464976,0.327092300036092,-0.8408351338425858,-8.222315042806938,-0.7463849967930825,-5.679242124116026,0.22405944847660675,0.4481914517367873,0.11579290611876826,0.5798517806403642,0.08331212299698743,0.5922035281843008,-9.970795508906606,-0.8348440160916232,2.2238983962134786,0.2565599275011362,0.2507582476962358,-0.12619664885378304,0.664097002653547,0.3533687089684696,-0.07882325667296367,7.705240533225217,-0.11194605221630251,1.4287456297082286,0.1375736385362586,1.114716700798804,-0.3923925939835321,-0.8156481134565725,-0.05406242267032241,-0.36555677157282923
9.5669077556629,-0.4669319278480784,3.401825825642771,0.005279553898196296,0.6786639171875902,-0.42319370333481054,-0.8817511733228077,-0.07922095644335216,-0.06295155878175149,-1.4651200361293732,-1.488106609470504,10.025001849348081,0.9898095510780397,-0.6497956802178342,-0.1229543762658798,0.04584188798695661,0.31343605023946375,-0.8496720646143874,-8.63472235533425,-0.597127483373807,-5.360641795191375,0.22825557642758393,0.436569067303078,0.05654425680678729,0.5654104548889511,0.09591654328334691,0.5972147984610254,-9.492919427529474,-0.875860493066369,1.9506052212562244,0.18574984359561544,0.27257312246911813,-0.09385252280380951,0.6548951344705931,0.3640700687837091,-0.07417827679697717,8.038895915130661,-0.019593904315333137,1.4901233908486426,0.10669474842460011,0.24640861637470637,-0.4318377271336006,-0.8183286665633307,-0.059388827020135565,-0.37607885752306464
9.477150023934016,-0.49602465702537396,3.2634099011618716,0.01800057062189855,0.5419232887416932,-0.46403368937467615,-0.8750747995392272,-0.08963779827555707,-0.07670496898957785,-1.3396670370023718,0.2096539255557226,10.618988909906223,1.1470817245935976,-0.6219515408788925,-0.1241993823565525,0.037664765394568034,0.2918882644513395,-0.8603812669534112,-8.370693523524514,-0.3907642616382112,-5.066514889609632,0.29670018840006007,0.35703858886679996,0.0751107329838619,0.5640751054617805,0.09902457354090169,0.5930511679748417,-9.186696774187645,-0.11350314517108376,2.241660999787346,0.23333613772711068,0.36085924295920235,-0.10508660530489214,0.6586959951935335,0.3692204159603712,-0.07561396051028585,8.228573436671383,-0.2915156999378641,1.2878838560549044,0.08623303138983542,-0.6007643166546416,-0.46051302989470455,-0.8188847695310143,-0.06840700089709788,-0.361674235680954
9.34130067043617,-0.37564334078124995,3.0745909128647484,0.24476596382749333,0.3775360042786553,-0.48604324662102383,-0.8770646084570148,-0.11352191881164597,-0.07869307781161669,-0.9091609287026455,0.5793165072578195,9.923551090639133,-0.8361444284570478,-0.5875923793119296,-0.08098644511140338,0.017188564618193014,0.29824077299623897,-0.8499147545948194,-8.263671304551458,-0.9059474012991844,-5.429721901390994,-0.028833377799720068,0.2814196648748591,0.042166786080760084,0.554456942665709,0.08786182183012133,0.6070544947107192,-9.696149696020322,-0.5199058967870409,1.8449358047642352,0.012447062251288362,0.42790031693563674,-0.04874073871715795,0.6516419361443723,0.3593234724180018,-0.0590853542638384,8.589447271989718,-0.4595138412849993,1.0218536767903266,0.27486793263707127,-1.357912864992566,-0.43345091663244156,-0.8346604926583123,-0.0964230541607293,-0.3259241099561374
9.359980516581267,-0.04261109974717191,3.281135060118587,0.09895563268923052,0.08382553035391221,-0.46983169030298433,-0.8680973677552071,-0.1266807192605708,-0.07871381283551884,-0.5779639340812659,-0.4332704432201604,10.606367436993311,-0.09732473079888168,-0.5391994016884067,-0.12490515492880697,0.015177260514841799,0.3001812954444916,-0.8537973159184394,-8.517976004879543,-0.3696914683465301,-5.637888802982296,0.1630988827892917,0.3244399257884352,0.0178077722435885,0.5603543027603568,0.09188043414492705,0.6110403969896705,-9.815618595348113,-1.3619504554945603,1.728869929609367,0.12144669518610812,0.46221796780598146,-0.06746444216534593,0.6609087986250641,0.3619306006855832,-0.052892944154654356,9.573498530509019,-0.4100107883169116,0.28933072066306764,0.0915487281882397,-1.918710785383487,-0.45266712665069736,-0.8373257531115186,-0.11222867467261204,-0.2841910851442342
10.387207428755367,-0.11726108040415299,2.9694997222841653,0.08167338530433631,-0.3136257895636585,-0.4445138613457416,-0.8727136226987988,-0.12217397108766566,-0.0651515473462364,-0.7042983581553209,-0.9038596394446436,11.098809084913826,-0.40881963724208187,-0.4649190215357713,-0.14114059697150774,-0.0010403271222771526,0.3212233442722645,-0.8413876724762617,-8.780977197191868,-0.3551378004863078,-5.379753193654351,0.10945457258014686,0.23352546061187535,0.04962823391285274,0.5552245231175218,0.10755324736545431,0.6192490291272694,-9.313613530060923,-0.050189126806600155,1.9127696079174088,0.09341672715695694,0.5501311242283953,-0.024020648211169074,0.6557040626943447,0.3742353261790134,-0.03963124684915051,11.590328205859478,-0.9874776995238214,0.6124185075088666,0.05063197242131565,-2.2770466257398354,-0.3995534617176521,-0.8579222550451968,-0.11255336342877097,-0.22750882958477714
12.352150257066974,-0.6558979438386244,1.6736978945823906,0.11469384365611908,-1.2275118660753372,-0.3556002434386521,-0.8766614228445546,-0.14552435486726673,-0.04618501932040854,0.02390639186205766,0.48130419617178455,12.056254840146734,-0.6276474807588477,-0.14426478772459686,-0.19755801715154162,-0.003316908793254511,0.3258455648681873,-0.8445299103186276,-8.017405985698918,-0.7069325821010066,-5.642657427642421,0.09723753826919204,0.10525330413240533,0.04993404880999336,0.5519638352190037,0.10033739148650136,0.6111000037031689,-9.633821699223692,-0.7921365576265741,1.5607233443808282,0.09830569143023948,0.6442303083672345,-0.07434885677991696,0.6525093714336868,0.36618577054193346,-0.035987169627873274,18.077290739021763,-2.9477577911955475,7.034244708893269,0.17745375079697187,-0.5982859287150041,-0.18114814532782644,-0.8565751900291306,-0.13015806724518839,-0.22406654714739538
9.430072755104364,-0.3187428320222155,1.7715744558318278,-0.25342889332791624,-2.2180484589685707,-0.029878222198381273,-0.8827581269150628,-0.1475765986413866,0.0020223236261617122,0.013652682983612482,-0.9870547746212728,10.020294216141743,-0.7059986939319597,0.1459247194222574,-0.30988063442058217,-0.0053589625485060376,0.33582964881734173,-0.8427797517095582,-8.218553437109026,-0.8164675826662192,-5.843471366049086,0.08117340707586963,0.1513970567534648,0.0743690840677988,0.5461808688156974,0.09467092663294016,0.6120167401110777,-10.172612838318047,-1.0087746184107802,1.0214163751702832,0.06916081264129871,0.6703439209934027,-0.03010213905997325,0.6495622231025946,0.363840012141197,-0.02484512604332767,12.930799681924148,-3.795773421742064,8.235551194132178,-0.13685443603317554,2.340679148976153,-0.15070705480273294,-0.8431212115558321,-0.13458432142894083,-0.28350242737256615
10.402293680671772,-1.0918305250556246,3.3993634182609678,-0.22034669562227036,-1.9074725442266496,0.20696305000134227,-0.8902053047138574,-0.13958448682613994,0.0453080989867318,-0.862258013589119,-1.270387244711404,9.900108776827752,-1.3785002345141926,-0.0032675968457571785,-0.17437802534198235,-0.008990405489734014,0.3662857201792426,-0.8314480815606611,-8.782092674804883,-0.962563053822635,-5.141204192700681,0.15394069453977996,0.11474308112377657,0.14425250144046928,0.5431757490726105,0.10171931121369825,0.6119879281093861,-9.397910020237685,-0.15544473101373188,1.6259092237444268,0.2056599611035533,0.7423118308543618,-0.023025729142208202,0.6451508891740584,0.3702935990275668,-0.011546997104600224,6.1796843955515754,-2.1798192448118976,6.657365802502747,-0.1414909770837784,2.52171517284881,0.06713200119151497,-0.8314503192342073,-0.12652254880280106,-0.3366163614439702
11.081007294907453,-1.0249288392319538,3.3009575994539,0.27409976386571094,-0.847075333068289,0.13709957404021622,-0.8826823080084572,-0.1365904552304956,0.07064189912360075,-1.964336848817513,-3.0473343026969393,9.828386179641257,-2.1719612811079854,-0.21128127609013042,0.10620870077581313,-0.009265709884137824,0.41286612291432034,-0.8088840178635255,-8.911618212238237,-0.8122333592193145,-5.0324164978860875,-0.22518095325601556,-0.09935188103445651,-0.03335061430659616,0.5506743775387107,0.09625485669229454,0.6177701212842033,-9.20781763059263,-1.4270791043539528,1.6762033055002086,-0.21701494931580706,0.9192493408630185,0.1176406806396664,0.649663646486232,0.3698418968286123,0.009290721953993566,4.2544583234853794,0.30496371618348395,5.823840671404357,0.32454766137107566,0.7119942718021933,0.17105435596742408,-0.818432589273491,-0.1257904917837023,-0.3428350552932171
10.161046056722952,-0.44974979136284826,2.856952061329168,0.45723845408602004,-0.11127987033340409,0.009385839739060285,-0.8924955166963754,-0.1368432514688078,0.07211519824776416,-1.3516842919086007,-5.822411738578803,8.38230512782351,-1.4728802661266407,-0.3195206658185312,0.29242061713155265,-0.017768676172936107,0.441562128632676,-0.7982419180188681,-8.746514614418018,-0.24017406350638826,-5.048598722462782,-0.5552753446289489,-0.23928793702303114,-0.2335517938947676,0.547904708634472,0.09371499316013979,0.6122388064858101,-9.771452325441704,-0.4922536764716894,0.7610421196530721,-0.6247839444000383,1.0457680780316962,0.2397250699088901,0.6408958620424449,0.367272344977622,0.02751226832723972,7.40269459077573,0.6860074218790418,7.869655749919154,0.45543034566665397,-0.4279802082522751,0.08550744596987626,-0.8302334804272946,-0.128011489223676,-0.3390454247904221
10.368406873002835,-0.06878285805155701,2.4260422914977897,0.49019683461448965,0.08079394662000369,-0.09791031883565003,-0.8856538958648674,-0.14555482956435015,0.07350620417267714,-1.1406163181755575,-0.6155094615549761,10.429921581529456,0.15936587288319015,-0.3465106733644771,0.407047883338896,-0.011798430052403816,0.43283154607773555,-0.796365298581785,-8.29963256168175,0.7222483683258692,-5.239773249859353,-0.3907839051604636,-0.26317974942930833,-0.19589021365005513,0.5587622525824107,0.08775877930704279,0.6147861629498244,-9.925804280816058,0.05195158268014252,0.6126474664859175,-0.3593805186540699,1.1608110798853093,0.16784992944423469,0.6440547431964229,0.35637848218447343,0.05463614698238596,8.857564981452478,0.7695297168758549,8.568901905364115,0.479270280714877,-0.022565482889077487,0.02915851958631903,-0.8204513879845953,-0.13624790427244068,-0.3313733239316634
10.51487201671312,0.4282172138498203,3.4500463593812873,0.5974218311704745,0.16714288092480933,-0.22169595507828274,-0.8819988983108678,-0.15565520468830635,0.06383105480764806,-0.5496085323686773,-3.8452589289511376,9.888373736392152,0.649952093434942,-0.29773839084191517,0.4760754407438,-0.013447474602292805,0.4159954440946887,-0.808592803523061,-9.252718721022012,-0.3882538688310272,-4.488042451908014,-0.3865350716003544,-0.32459329192639613,-0.14036854548043973,0.5628845177996448,0.07819925975818026,0.6082305344922548,-9.686115410992144,-0.5347670092156549,0.576793412595928,-0.44440786738940025,1.325003803117845,0.08346731750004094,0.641761732073761,0.34876746432771144,0.07461014020295656,7.878640512732288,0.7575511286470306,6.005421267664087,0.5739005321114057,0.02377089577654717,0.06472672046555436,-0.8210006239511919,-0.14136699553984916,-0.33479388550090017
10.305124780485086,0.2161802577874694,3.29721175505519,0.5072160565657452,0.24024631005620217,-0.1900105633781287,-0.8930546605617065,-0.15856494043589384,0.06356642122674903,0.048487970600070054,-1.567829960289618,10.182595681688355,1.365138209686755,-0.24401501544764434,0.48276364281118633,-0.02180274715540647,0.3922378361879898,-0.8149107731427049,-8.901676228208675,-0.48844093241555464,-3.488433666237987,-0.43584223940732136,-0.5441598738226533,-0.13100844728384967,0.5626026259800495,0.08038528109315182,0.6074766036432413,-8.773046836944962,-0.38191355671225335,1.0105925587571873,-0.4973935414354073,1.5715962707763589,0.10631346872896728,0.6227427891877634,0.3494827761641069,0.11202246423496338,8.653622674141221,-0.38347521145249713,4.600032097282084,0.5065663347013608,-0.49894449876979907,0.015014751832208373,-0.8342153816312402,-0.1450189583087192,-0.31441468415756013
9.218104048770384,-0.1338881356238241,2.9212778857325814,0.4319755672043964,0.0478519864332379,-0.06784892771321616,-0.8888871076092534,-0.15158279649001716,0.059755746705413365,-0.12103734270442099,0.17292918637215654,10.07614985374576,1.2123503098492363,-0.16143701126017104,0.4713459240524353,-0.01567335802618191,0.3735425831106007,-0.8328329103555184,-8.988202793798978,-0.40717244344739467,-3.8131471310835017,-0.42263911377684854,-0.7287947425067152,-0.09194712115934187,0.5754067506942999,0.08126768012536946,0.5886535366176511,-9.958091294043655,-0.6573976163530434,0.041073738694113904,-0.47610366322287456,1.8136077722040331,0.10500458851347627,0.6167834122072117,0.35047070781637096,0.14010791002195647,8.616322894618055,-1.2867576090700472,4.7662962783518905,0.41472261870442395,-0.5326623625730168,0.0635469696923232,-0.8361605931413463,-0.1396069114830105,-0.3051599296855449
9.3786148314535,-0.28306539762335264,2.7279439260002647,0.38964152303982774,-0.14984596125467903,0.0007244141526869217,-0.8880809905388473,-0.1528225847189779,0.06563655535866252,-1.0935699636262972,-0.9204827546805773,9.871206054183249,1.4813545079353325,-0.13427370565168878,0.49474876544993207,-0.01715462896599839,0.3435170078093408,-0.8421610114608467,-9.600878534785537,-0.10783133163471934,-4.485390523641078,-0.40543889796463695,-0.7281479731354763,-0.1050391951888366,0.5843588154076527,0.0778716091219053,0.5826591281307881,-11.367776804740869,-0.9885670688343935,0.40588361865151845,-0.4838533851769211,1.8908574053903162,0.07407891024735488,0.6048635195494961,0.3478358294630857,0.17702877037341533,8.996273742579046,-0.3819656268849281,4.64888807009861,0.34812821334265864,-0.4725469059316367,0.0961368834281898,-0.8402324933968573,-0.14245687614560393,-0.29396832722069927
9.53075084332665,-0.16138695827043523,2.3618245263872826,0.3908105457703772,-0.37519889557921376,-0.05024101699605728,-0.8848089810431282,-0.15387861050752877,0.08085734066671546,-1.318435526264447,0.4064855292238761,10.155387843446913,2.4151610382039195,-0.10641826590602993,0.5626529601533422,-0.007033874690014244,0.299701965490202,-0.8535830550808485,-9.79182610090344,0.11136360227860057,-4.489819122221255,-0.41033571710308725,-0.6379179201216525,-0.17232982517881265,0.5990573985160402,0.0775674990688431,0.5848152815764985,-11.820919891736642,-0.9865563166562977,0.21212700718336452,-0.5076317514946701,1.7720220245696092,-0.023584709107328412,0.5970290113858511,0.348405637223799,0.21301465775930045,9.104868061984844,0.49249367426341556,4.272104088254977,0.37891714738449417,-0.3038344527110734,0.0355883870070003,-0.8352198508546995,-0.14181278979731252,-0.2812219969048596
9.159753860889424,-0.43625236797022404,1.9139931830859918,0.7530067866998291,-0.4714490879922032,-0.17980619980778673,-0.8875447048990381,-0.16162749554521094,0.09544804499025619,-1.2544572395611686,3.3852364052667387,10.294799719789614,0.4278415609668582,-0.10799289123894747,0.7255718731354566,-0.009348072000803636,0.2864954685211429,-0.8548098352620416,-9.371292868866458,0.5210856101776523,-3.6777132885144055,-0.6125041276504121,-0.5436086446307477,-0.24938225863908034,0.6007090716598678,0.07115903559921435,0.5785130231888731,-10.742540895512972,-0.4409713606074029,-0.15201820874945582,-0.7183029520378303,1.639566146175127,-0.08870521793096808,0.5791453147940615,0.3416951420990106,0.24044921110709533,8.258874534663471,0.12931885361738857,4.047515219490141,0.770824397468821,-0.4016927677401017,0.06959785715900818,-0.840611946632801,-0.14683309183025292,-0.2641819784595107
9.287730006172614,-0.2876868548977097,1.8324055621870086,0.920165898968936,-0.5376493744571109,-0.2317305445351719,-0.8838021921619453,-0.16684594045621334,0.10726350186350196,-1.057227669767374,0.635108017770355,9.595130910177883,0.40373366364741975,-0.12480027450987702,0.9088937312959592,-0.0034077188253521934,0.27679678857395673,-0.8570851940102289,-9.582323043220462,-0.04018972418658753,-3.900580794327679,-0.6932145476072412,-0.43361849546112846,-0.3413943340533278,0.6084526595308749,0.0675123017554772,0.5730336611678957,-10.96366395194099,-1.7177406390950871,-0.487760910539041,-0.7973481902715015,1.5138946419322623,-0.15641255869190623,0.5651440907330908,0.3379553829507213,0.2679375771426982,8.948691886560326,-0.004122593461000851,4.6875770087868,0.9244953194746461,-0.33808053045362857,0.041990318201522825,-0.8435288864001937,-0.15410004506008598,-0.254685249225252
9.534605099482034,-0.21710595673798086,2.508578093418078,1.0665303180368195,-0.7615861579138732,-0.2399525440462459,-0.8887084853621106,-0.17112464432898067,0.1139857204112121,-1.3867516733169083,1.6066067313506762,10.065234541906534,0.1182759073021627,-0.086644878507296,0.9979211194875605,-0.002371850713264477,0.27733824390756845,-0.8756499937768857,-9.613006657147485,0.21440527726310432,-3.4650221444362908,-0.8409657487421673,-0.359647111672025,-0.4351763460466295,0.6099536563561774,0.06027142795475359,0.5586865690537275,-10.735262112460621,-1.088152698104969,-0.4475782947356022,-0.9598038965360629,1.392065694553273,-0.2492183856943634,0.5457110796968818,0.3303340707967446,0.2810285928832062,9.283795922980088,-0.303004427896676,4.19245007497028,1.1077268458344696,-0.19065274151164227,0.10174778563050987,-0.8469145311938786,-0.15574894378964518,-0.2610663973437846
9.012197102647228,-0.39526066219457734,1.9834266839962633,1.033115928612168,-0.9511510580457609,-0.2622533584117601,-0.8865588321470148,-0.17386267165132877,0.15384557143247035,-1.8578102079510148,1.1496124113899442,10.024254992140872,0.53013091497502,-0.11558639456143142,1.0574986362894456,-0.001243944023130785,0.2724440227921351,-0.8654168534880204,-10.434492921421882,0.4642637553345225,-3.1718153153406283,-0.7282088296846015,-0.3330377704162956,-0.5288644919594487,0.6094372274690343,0.06408671905077604,0.5715926344129737,-11.087990640795303,-1.5811334340320427,-0.47736331440405166,-0.8371166424666023,1.2894699795215523,-0.4034331343892452,0.5263779309190505,0.3253955522466822,0.3153429315022868,8.330550601722651,0.008151804021515868,4.1883807042234835,1.0698030867341963,-0.19690432530361487,0.07343725224103831,-0.8501621179695789,-0.1612954302056049,-0.23960941340913355
8.673934935859265,-0.058483716502260356,1.91287537558127,1.121800864697349,-1.0205643793652885,-0.3271810751740134,-0.892102446082635,-0.1817893639737535,0.17325316768647386,-1.789345909903195,1.4124305923955192,10.219871250365335,0.45677527841696314,-0.2668606741744826,1.1348999804878166,-0.00700633901060352,0.256286016788156,-0.8729638157234979,-10.817909668173412,0.5051948871627334,-2.7608218664698074,-0.8288589066035659,-0.4688876327211264,-0.6435202354395076,0.6102495827311959,0.06129045210390521,0.5618428894373408,-11.195961879205068,-1.1044695137789389,-0.36206095910198305,-0.9468379542008748,1.289513924910273,-0.5380400568193839,0.5000413721987037,0.3204477424199648,0.33356853005729625,7.83953463741413,0.612573012963079,5.054430636458222,1.1840249217297025,-0.19796827340054532,0.07512417479599426,-0.8615628195875237,-0.167184697484026,-0.23386046702375954
9.12406981438426,0.009649395443016868,1.6891230875953303,1.1961315377355142,-1.0518524393739257,-0.39850760263462437,-0.8756948640345185,-0.1880441544807758,0.20588817669593462,-1.7681751325213355,1.4156169154383278,9.9806890756041,0.3621777111093095,-0.4180246567173669,1.2257901023396907,0.0025947034761386496,0.24881832957610048,-0.8730727921919396,-10.51856298155208,0.6644478655042136,-3.010219707286841,-0.9535632801305521,-0.5600348195660578,-0.7503122395151735,0.629162144388087,0.05812150171938706,0.5656613171287809,-11.275138540511618,-1.2103555621936437,-0.44682927576255393,-1.0533477458837248,1.214144051663027,-0.6760120264558651,0.49666673094488467,0.31849618648959455,0.35840727044119375,8.179622157594084,0.7949475340807627,5.53254207096167,1.2766191049276086,-0.10244727853167605,0.058541662466011744,-0.8503341405315683,-0.1747155988981264,-0.22300118046572773
9.635764553413201,-0.04407928400871204,1.1023159034500816,1.345579783582275,-1.0141845605474893,-0.48645198355826824,-0.875026792570284,-0.19123543656493927,0.22568679132367997,-1.8847743641932115,1.1884911343925417,9.898230993708694,0.36643968388033954,-0.4965151953384112,1.37441481381486,-0.004548889377185357,0.2465657096778607,-0.8820417989786465,-10.1678249089646,0.9292904710578228,-3.163749105221549,-1.0791281887445416,-0.5505755999655244,-0.8684125555998876,0.6330576089987205,0.06341037590141364,0.5555069245642797,-10.989255356355903,-0.9070833056538208,-0.3395350195079252,-1.1502547075825735,0.9650593826217845,-0.8271914968607867,0.47420268620460637,0.31816181355872464,0.37080269906024016,8.122904488002469,0.5356511532215051,5.23223224165469,1.4401334310025151,-0.09740663637126894,0.0641475708562649,-0.8540200515020475,-0.17440167966061415,-0.22010805153150761
9.578975433334541,0.26148462994497845,0.7375876960476473,1.5275219297074858,-0.8912104561934543,-0.565270145498746,-0.8640452541581806,-0.20370983865640366,0.25428647182126535,-1.6348347151141875,0.7133500522624877,9.855160694283965,0.3491369046667856,-0.5515430171378879,1.5398993725370924,-3.187383774235636e-05,0.23538087287623066,-0.8816213975783947,-10.106968667579181,0.939510157149234,-2.850850144364162,-1.213990758225716,-0.5664279551390112,-0.9797142852243146,0.6487847015857113,0.05774215269470071,0.5574657095037517,-10.631026201986796,-0.8289941917336783,-0.366543829721667,-1.2521128414334746,0.688181789073763,-0.9724293090223194,0.46468683689417917,0.3123971989300192,0.3878697265719001,7.916616684072391,0.7746612513641747,5.252155602127716,1.6308256663126397,-0.2390011531693575,0.09482398966850517,-0.8458589815087008,-0.1860226093227509,-0.20317263457911566
9.337166533045137,1.0896338886007135,0.2771964104885201,1.62380992271355,-0.7612305830784455,-0.5827747174406797,-0.8612043965740654,-0.2130589020047706,0.26901337752799814,-0.6546378896852314,0.3638403097856042,9.866484145248172,0.4023251246511918,-0.6293873982598286,1.679635826809528,-0.012482896192235051,0.22599437140333184,-0.89177522830513,-10.027499881138558,0.576694860373961,-2.6298173427452047,-1.3336537377605806,-0.6913739826854501,-1.0585752297989464,0.6514914559116884,0.05271684888219586,0.5435553684363721,-10.384685615790787,-0.5623799780410986,-0.4136961593639332,-1.3456804961937843,0.5018183879764047,-1.098724511029682,0.4467286512831669,0.3044801683169333,0.39504052630637115,8.039795287556705,0.935965625434551,5.342101195190513,1.7277743314411678,-0.26453661197579037,0.12757269748028788,-0.8563407044781054,-0.19608153015281884,-0.19936508112222523
9.783545682234571,1.7268834226317955,0.41241509061478066,1.5939814621278274,-0.6859893263476894,-0.5480249471729144,-0.8560988519316312,-0.20585474833279124,0.29746051857546746,-0.030055260347512505,-0.2930979266449583,9.97891994199051,0.6096191148792272,-0.6813811654469043,1.7214059522347094,-0.011711685299037003,0.22282728156313383,-0.8913014301388954,-9.784336195483625,0.21491905059709532,-2.791722507678268,-1.3683367035316205,-0.8986832984459842,-1.0805223153736643,0.6691499310281951,0.0655825335248727,0.5418259172994779,-10.02321970269688,-0.26562355816573585,-0.4288516408787995,-1.3426606686170919,0.3334677122880584,-1.1621896122561381,0.43993553197000757,0.3092814009170319,0.41553932984503966,8.354504853654475,1.480711421310106,5.048344164650883,1.693316559785637,-0.23114649325695408,0.15985284363047325,-0.853005914021566,-0.18929765875716464,-0.1783388142757734
10.113403291354343,1.873155724078144,-0.2527678724114647,1.546288854982662,-0.5637831852079589,-0.5151581347258101,-0.8563918933388281,-0.21659418874315037,0.31919478139724305,0.2103986645292041,-0.6773250396986015,10.161038447065762,0.9596792544622441,-0.6734433101002856,1.7091214578773977,-0.02487524823839882,0.19534935201362494,-0.8939175448943458,-9.760198945288469,0.35454037616436024,-3.039852745504809,-1.3409687579088785,-1.1692512308641951,-1.0853535181561282,0.68210468958899,0.05491650543079476,0.5368197162120416,-10.021204282875544,-0.060311386890491876,-0.4028234987785914,-1.2684019732080365,0.13984283156505384,-1.1975814514022949,0.42543499516764727,0.2956027268081284,0.42825796798227,8.377704174802396,1.8089033207813547,4.6258692192532544,1.6396076051854271,-0.37084255820242706,0.17372445119783148,-0.8582987957097509,-0.2009120308489019,-0.15909670463702663
9.666640561124419,2.133487148708447,-0.6568964570988894,1.4905309702726581,-0.4292928968482749,-0.49520113152906353,-0.8588345794360744,-0.2155585149495583,0.33036863043969855,0.5555358694508599,-0.5246536338952202,10.198376603660407,1.2177849871178765,-0.6769082897128201,1.7026551742009823,-0.04030226837911206,0.1710282508590115,-0.8999241603477511,-10.07146998238023,0.008930244715918204,-3.6264962081965955,-1.3517160406497164,-1.4151281114427483,-1.0801460453863332,0.6915389638198207,0.05505560478247557,0.5200267827545468,-10.463006148832836,-0.12560702462837142,-0.45944983252940425,-1.2327985161638189,-0.17982100350569585,-1.2368032935359974,0.4113577684556895,0.2935946371574743,0.43618091712101115,8.490026062411966,2.0247666744756065,4.444351733661113,1.5492661116133835,-0.48696772482636774,0.18162250138344097,-0.871457980097117,-0.2016345207765539,-0.1387187205472365
9.739322350119009,2.2797636234669794,-0.8396934572432091,1.432622445379933,-0.3461502175454265,-0.4515132694150582,-0.8552008073307613,-0.2197969896877941,0.3375405735641236,0.9809301283044136,-0.020374259035791396,9.947012125955583,1.3990326437513936,-0.6807900162931068,1.6890955671043653,-0.05036916147739556,0.14238179198436896,-0.9118512374117742,-9.766805052993075,-0.08014637233637537,-4.176428095421767,-1.348541960786934,-1.5492927834572436,-1.0755714090873916,0.7149722830330127,0.052785515734170486,0.493707859593342,-10.369457431319455,-0.11643857956182524,-0.39742757552706776,-1.1877069844080967,-0.6997802643544752,-1.2609033886916976,0.41627890288877223,0.2904716286003847,0.43626310254473766,8.894772672396847,1.7610139310393256,3.954335602989293,1.472956777467603,-0.4846243785085325,0.2189125424032932,-0.8731341280237295,-0.2057493966772958,-0.12530430537364035
9.93637655213402,2.1935040065560005,-1.0214044364178272,1.4249535554685253,-0.29030313455324047,-0.40225890130632497,-0.8534007301984137,-0.22203922368854836,0.36200626531815866,1.020748635106177,0.4407248156059964,10.227604833780582,1.4311452178700297,-0.6329557494168273,1.6712034055556875,-0.05930255712349824,0.11322440731539977,-0.9081646206028346,-9.982781227540668,-0.31520703543484246,-4.558390351098286,-1.3283145650982047,-1.5405291547262763,-1.0773852544824953,0.7344957341134773,0.055785101600075965,0.48229617314734435,-10.875727183246203,0.03373054454809347,-0.428852999185166,-1.1311978343842293,-1.4184556242494033,-1.2666581401612143,0.4315485254655256,0.28632270744356036,0.44424806206861506,9.109373909116885,1.9360101113499049,3.5673824286788376,1.437854560452384,-0.5480422347397234,0.25315992042930396,-0.8760464655607015,-0.20202014390730957,-0.0957931806094384
9.805082210723539,2.2583653722650343,-1.3955094029525519,1.5186406088029383,-0.23653840478173266,-0.3856135074656399,-0.8538581100247398,-0.21103808476375016,0.36150094556615986,1.2057448614590338,0.6947485898335437,10.407064115433538,1.4336520783691813,-0.6218512208091134,1.6531288877519326,-0.07428680465171647,0.08916282710620792,-0.9185691908414227,-10.428194172553143,-0.505314363936603,-4.350673718058849,-1.286059627613944,-1.512285606142036,-1.094497725010472,0.7472637023661776,0.06484913544173566,0.45360406368820405,-11.772595957240563,-0.17445524457536585,-0.5652003918074469,-1.067456515263496,-2.1833993100205875,-1.2580600423748212,0.45799824379551785,0.2924595187005243,0.42307140480500344,9.264073145440006,2.082654579748076,3.315290680955394,1.4938859403011606,-0.5958142921054668,0.2934166522053218,-0.8835204527574015,-0.19259795895459964,-0.0878171546503224
10.147748450654284,2.4509108171919123,-1.4283014702804335,1.49907959591424,-0.20845194548444995,-0.34824336264507155,-0.8559863200120886,-0.21098716661389808,0.36877578677348277,1.5841927127341167,0.23518539088570994,9.937682516735732,1.4755167971138,-0.5890543423903079,1.5894038992276802,-0.08908885381575576,0.05434378336553485,-0.9219181086562487,-9.682822769931546,-0.8498997367021031,-3.495089154434671,-1.2665859604047998,-1.5771065325137925,-1.113978487078082,0.7640667307036888,0.06813748462889876,0.4283235399137235,-11.426983981883115,-0.15046127692495562,-0.6816881908892131,-1.0741058497705278,-2.7624565651242006,-1.255477087190737,0.49232441563789003,0.28228814676792635,0.39932455647397874,9.703164107988387,1.8841963731051294,2.9658812242110137,1.4342765670903102,-0.6349400898093425,0.328565526048518,-0.8910305181723723,-0.19073958350524314,-0.06591921538307424
9.87401988984838,2.724746386803582,-1.6200219169197574,1.3585704348341248,-0.15939901774540619,-0.2726349023261997,-0.841900974654607,-0.21327876306236782,0.3801054849988474,2.320318673217333,0.08711817685428377,8.837431152618588,1.7659374089787567,-0.4474208751840757,1.4574485099624996,-0.08715250311301222,0.013337369830583689,-0.9181170923505011,-8.335391314635574,-1.1819701913256024,-3.132636408107479,-1.1111194114619496,-1.7332652537712026,-1.1124849663882654,0.7952745173303324,0.07207066340520187,0.4032395802067808,-10.562902409503263,0.06823260038038086,-0.622020427987292,-0.9370779654326068,-3.128047758392914,-1.1940431991790563,0.5511154593946295,0.27842990815185004,0.37182936451657345,9.45139058046119,1.993227771656683,2.7820435692776364,1.331786537001871,-0.7011612902647147,0.34846960768320284,-0.8799498076350797,-0.18703007701536017,-0.04383664577285338
9.490861036152578,2.399396842994896,-1.9396036074466065,1.3228962563495403,-0.0984196120122186,-0.18517360201642108,-0.8465378011593617,-0.20828422796533463,0.3848754318674518,2.745864954616151,1.275403610530652,8.977524410058779,1.816533309271897,-0.24902974589607718,1.333168874243854,-0.09579956465635672,-0.02362012624204764,-0.918601081717174,-7.948609086186565,-1.3968787504914149,-3.296250367836752,-1.0074553654704916,-1.828372115681309,-1.0587556299853953,0.8118365818125284,0.08159550582808535,0.36909358422032845,-10.755036254921333,0.31079744038912493,-0.7106099031770574,-0.8766936968030848,-3.475331810399539,-1.1022637822058754,0.6007321234160661,0.27699584800131,0.3295246377845814,9.031412304675786,1.9453470135328714,2.7298349057742595,1.2404018732604547,-0.7032519748426604,0.35460115242036794,-0.8890919574573823,-0.18221171726601482,-0.024154914625607624
9.553830260735046,2.9550082443010313,-1.7984257281236928,1.2699212497750219,0.04737328960643104,-0.11316082769099677,-0.8458570598916063,-0.19853177688136128,0.3865958591925899,2.8088294389271655,0.8412772647823389,9.051690481895326,0.2526360599817895,-0.10335354384890211,1.1882546492935555,-0.10091527907994914,-0.027817911198454236,-0.921978613566915,-8.324744905792162,-1.7683244982360649,-3.620173832528713,-0.8985788327714003,-1.8823465117968017,-0.9676768941499022,0.831824077860513,0.08993326391964096,0.33465191547825823,-11.688503911481725,0.47029546277632855,-0.8502249937518815,-0.8224705208259389,-3.8420554725376803,-0.9707087424812717,0.6568721441009798,0.281769561081393,0.26880315163736584,9.311365721094534,2.426456505221869,2.737804242272655,1.1776938164132873,-0.7161789567757353,0.37913368424149013,-0.8877009822601671,-0.17465931091680686,-0.002659509992589526
9.525326158286896,2.7569549668425926,-1.4655385454437404,1.0941146072940893,0.11068882898246944,-0.045815598764940624,-0.8483947728433465,-0.18626050449132153,0.39263363832932696,2.699536547823366,1.6489064007798102,8.35047165868523,0.24611718579330807,0.01251969046626777,1.0134992049616076,-0.1025808714632442,-0.02589618009200498,-0.9153660488173481,-7.760469345606829,-1.5818838142555884,-3.403551405302396,-0.7342202136330216,-1.8720642345176561,-0.8546926126330461,0.8439805946307134,0.10726974300414724,0.30415814073703745,-11.817475561842182,0.6941737063582396,-0.8716901877873242,-0.6863832922164661,-4.192772219644883,-0.8059887539129872,0.7048975473331965,0.289490642778415,0.19542318928516164,9.531589803819394,2.0384629994671983,1.8512968482543115,1.0235598625147224,-0.729263300406032,0.3721222917721328,-0.8902949141981281,-0.15750852474856883,0.02001033279276302
9.375308541850018,2.2654203521496488,-1.784842812878828,0.9271580681189416,0.03635917113898926,0.04521566716346735,-0.8351761059454474,-0.17754191067196545,0.3900162584838565,2.709921697222839,1.8200869642272997,7.835781526073627,0.16736448663450862,0.19913213543582217,0.844222903915984,-0.08795760746549562,-0.028902333615220918,-0.9213734818837256,-7.164575008102448,-1.4747216159855925,-3.2676119610297443,-0.6053030963654109,-1.6896035884332818,-0.716009081502339,0.8705291710133433,0.11615021937777559,0.26835922930899125,-12.172574276562287,0.7498143287235505,-0.8424545543594429,-0.5641357274025913,-4.583213541306673,-0.6149583846465491,0.7628934137711543,0.28779363241644806,0.10049136521682325,9.790346160602613,1.4887139779510496,1.5359909130765679,0.8201703866833334,-0.6822383003520963,0.36389035640065304,-0.8783901967329527,-0.15088539197260564,0.038436189063403736
9.240321536800844,1.9644716326358187,-1.5599210779490078,0.798531673966308,-0.009600667259495488,0.09343949284825168,-0.8445159198852472,-0.17072398259757143,0.38905528952373697,1.8992275030399517,1.8166144890222216,8.345805546606101,0.043788082885614144,0.3333891171203369,0.7297901443955822,-0.09289151558970804,-0.026994410220677063,-0.924495749159662,-7.980897582634484,-1.3678198197025135,-2.488713352355394,-0.5090565989785969,-1.4789683930275357,-0.5927453804660928,0.8715535570733217,0.12359834293157032,0.23772083178680467,-12.793395386813408,0.5069307412480437,-1.0349432573905417,-0.5026044726579242,-4.836592404906359,-0.45355735078530274,0.7851981181009645,0.28999397518117515,-0.005995367071652265,9.41867020532851,1.8086046720325917,1.7590281142832511,0.6975512105913905,-0.5903924815647315,0.3447927375225934,-0.8903037873695793,-0.14015744437557767,0.05320440901363155
9.351721864980943,1.6713858150842407,-1.4807258172985747,0.6796341529507244,-0.0013155032436626183,0.10234477479660223,-0.8451108879764936,-0.16606953552093714,0.3980739738169812,1.8344121142843406,1.9544040463117385,7.9707859690085865,-0.10266288201715955,0.4621755346882207,0.6088251048549066,-0.08134820633422685,-0.02786280372468338,-0.9185051837310466,-7.318464363326181,-1.2750637188274139,-1.6122544506205283,-0.4327563126256647,-1.3758649504963407,-0.49033327910752716,0.8826130520905237,0.12837238559725944,0.21912760394463965,-11.666237694143959,0.1733087618593559,-0.9218707780515868,-0.441987150013391,-4.788596356398999,-0.3104788831632046,0.804989729821916,0.28120141688384936,-0.11078681714786423,9.354799367944365,1.592665952774032,1.7807917187829911,0.5904455326807523,-0.5671828594454749,0.30818776467211906,-0.8889530611329813,-0.13529016312814024,0.07372398722304194
9.221789512026358,1.555037760537715,-1.4730327708328512,0.5840905514833434,0.000989226472609959,0.09589523794677991,-0.846510708947355,-0.16261698995718146,0.39877053923367023,1.5147814298046278,1.6707950397103877,7.509805652304473,-0.2579511799699328,0.6546280046950448,0.5166138350219667,-0.06654686447915661,-0.022083597962677205,-0.921810484027501,-6.820827257741764,-1.250706982518837,-1.154454125191464,-0.42236567350763204,-1.270390669820643,-0.4186801934819733,0.889922623567182,0.12912036580108077,0.19406563739286412,-10.490107442162397,-0.08651816599057255,-0.726402391843338,-0.4402558322750396,-4.605718314018319,-0.20686471977856324,0.8063298799770598,0.2770797799462428,-0.2175767818567086,9.41778424473402,1.6509968279161058,1.4940433462157665,0.5017849346322028,-0.5294961951142776,0.25984473015564297,-0.8880552122510629,-0.13286024591076814,0.08618311161851838
9.235456644967986,1.7180518471722144,-1.468985830522469,0.5170392507314624,-0.01683517814711847,0.09835755970337369,-0.8446091431078344,-0.15851133804783546,0.39490690276561946,1.6271056153558126,2.0027604408864903,7.913808463072235,-0.2739049836352782,0.8356887940661027,0.4217637141209528,-0.048371481334776464,-0.016257826647931403,-0.9295436045582611,-7.2529622688345725,-1.4294662637176196,-0.8806834122232716,-0.3880888540458102,-1.177121999310621,-0.33903067033290063,0.8951884137854231,0.12978902214853577,0.16440462780002518,-10.035500519944378,0.02216449198392026,-0.773405673059229,-0.39105527202878404,-4.287288058350981,-0.11645206758824411,0.7999195562885802,0.27216406450885106,-0.32282165804527896,9.362233174868884,1.628130731175094,1.3727380915370462,0.42761134002589657,-0.5053933467044376,0.22433029709369462,-0.8887723800658704,-0.12820411849420146,0.09325348344792739
9.348798904140168,1.8883512041490362,-1.8773807469955157,0.43768516407592045,-0.005061202912929334,0.10813621688365409,-0.850967993242026,-0.14932321185505715,0.3942604694461881,1.6644146123661363,1.8582329916438867,8.548324050911107,-0.42617144531594514,0.9737957444488131,0.36997231133788927,-0.03167691823680613,-0.0019201960184481192,-0.929674855845456,-7.885818994688567,-1.5018566845931542,-0.9003607984274262,-0.4387229894106736,-1.0728295308516285,-0.23475619239806408,0.8944267410675578,0.14199213289969323,0.14473002732972734,-9.89242749095856,0.12565772098953895,-0.7028437761330991,-0.40888526425535304,-3.820705930696627,0.03950506393429103,0.7750608543102919,0.273350803843615,-0.411511553465817,9.520651852879263,1.6313040554059641,1.2353260544814477,0.3570072760425211,-0.4669182060357795,0.20620370266566157,-0.8918737628745882,-0.11642018781790232,0.10786409967346579
9.430915169483072,2.0745339965822245,-1.8346435302176962,0.46191530071626014,-0.001879509924681478,0.12126262420321444,-0.8541317955172122,-0.14533944172531255,0.40785800833073926,1.7459406605776797,2.0557658757699535,9.129173529809767,-0.47370311546580146,1.053518850842562,0.3722230293780339,-0.009961674448783871,0.0075671813214789945,-0.920830664110956,-8.695709165580237,-1.763689196417087,-1.0539935397361477,-0.48580272838837135,-0.8578697673353277,-0.08902609707521067,0.8977329580445714,0.14244984446371278,0.13928678239448228,-10.142224317813477,0.3634853237463682,-0.6034316290425428,-0.3786280776267179,-3.3061323547543657,0.21851707465791145,0.7515969642510884,0.2633648675520032,-0.4744694230030677,9.782354249705756,1.6817491816512602,0.8766852452762411,0.38566698887202505,-0.4254061176034362,0.22456984672247673,-0.8944526820661868,-0.11318932055569918,0.12761336815453184
9.31745679619417,1.9164851689957214,-1.553652222579599,0.5238077034979726,-0.04400187794069879,0.13241561427895102,-0.8479984640899849,-0.12936881998230895,0.40237914560699034,1.2148903553453434,2.615696136692996,9.546375521938636,-0.4533236193125874,1.0369520218804609,0.41534032136954946,0.0161571082400733,0.027141751271539602,-0.9254373136659405,-9.381357659013092,-1.578348162629127,-0.6989338921927181,-0.5107295626264649,-0.5557456990970601,0.09920816051363843,0.903830945077495,0.14629081415265288,0.12861797505743947,-9.779042624897745,0.3031408255394339,-0.691265777959774,-0.2894134761516173,-2.6573944705077626,0.3963402566136944,0.7329214776876986,0.2641741695204082,-0.5372573458700058,9.645016745208462,1.6908201069147208,0.9204558059571495,0.44332984004393716,-0.3647278886224689,0.24775840757603573,-0.891530916020242,-0.09761377929847921,0.13300440596903498
9.405585535262222,1.9668273439970796,-1.3164357628568228,0.6068602311122804,-0.07858324439699274,0.13135530494194791,-0.8502996754629603,-0.1327326245599268,0.40330289177368667,1.2821884644552148,3.0597667436670304,8.997033733160515,-0.4561362658343533,1.0145015863045312,0.49206150732228765,0.039095997668992355,0.025438219681142266,-0.9285934254967133,-8.185900447091385,-1.6601164168360498,-0.7103920238611252,-0.5725012991953656,-0.17097482781352935,0.28015433230230863,0.9069292865317674,0.1260297241866067,0.12636817715084409,-8.513371108632585,0.414602627235405,-0.43197721005571005,-0.21505720151026259,-1.9648832447595945,0.6050520531950805,0.7133913099709681,0.2414654020155539,-0.5845863274285273,9.583947081520408,1.6081892498749255,0.9968894801256508,0.5389780793639954,-0.3438828971229259,0.27138460410355214,-0.8885000097968769,-0.10059705508737,0.14182593474995409
9.633029318779405,2.0674568396298576,-1.1579100415334938,0.6631790616338187,-0.12973588375501519,0.16077345665809653,-0.8476204734762567,-0.11863288626255453,0.4075107222907175,1.1806107389209786,2.7847530221906283,8.427519007282427,-0.5879732649037684,1.11442869132378,0.5323072537912386,0.0660308874103335,0.042323199841312734,-0.9273534296852501,-7.278189406213896,-1.397147610767578,-0.7264763643521075,-0.6646447340746005,0.21658340912247406,0.43056306694465857,0.9125830639830638,0.11717294017288729,0.13589101015712624,-7.074779642842015,-0.22376788773832562,-0.3394139992389171,-0.17398402374317484,-1.3872930384823017,0.7850814384372344,0.705748241537205,0.23374862945709837,-0.612288435492678,9.825337711848153,1.5421511151468295,0.945354595924676,0.585867724722303,-0.3346577997513078,0.30684327498468245,-0.8861580529571572,-0.08842707976162381,0.15014338674750827
9.880791966235543,2.1378148333293763,-1.3667267008619688,0.7082044507242062,-0.13603068207344676,0.18168911156989592,-0.8477944137486518,-0.11227894816407773,0.41092196538119996,1.0009998950473198,1.6922586531334853,8.893374137899693,-0.6358706361091413,1.2609863197756936,0.5240444537715369,0.09253884576256607,0.052856951839984574,-0.9268548699327837,-7.9245836182857525,-1.6917435696429783,-0.4417604841095625,-0.7285965610796818,0.47373312004444523,0.5789115015318115,0.9136958651741504,0.1019387190570124,0.14704920600151558,-6.319375661290468,-0.007780399958769279,-0.344132207452527,-0.10018877411222812,-0.7118372443465714,0.9277900178057364,0.6974286364288051,0.21344721621789967,-0.6295539922555388,9.72428848951365,1.7132280532452822,1.21066079289235,0.6382692909425695,-0.3760464870291097,0.3438867180493241,-0.8877708257623786,-0.07813827607997828,0.15964252427042555
9.773710641939779,1.9713490482316582,-1.4509330640767863,0.6960560607468521,-0.026225609697658088,0.22718031839611594,-0.8424066862198506,-0.10434980697091874,0.408117430123025,0.5483520281720448,1.0987305963357252,10.061665679759058,-0.5344775659489045,1.3118575181811953,0.5207910144729923,0.13099896454687776,0.06254464466688672,-0.9284280567583784,-10.04113002376255,-2.0126559229798455,0.031782359925743936,-0.7717769680028116,0.5696406093054295,0.7319571625993737,0.9188281051466572,0.08067366684324853,0.16064521380566527,-6.5218273515967145,-0.7540909778961884,-0.3797937981610061,-0.05426953424902723,0.2513564137527389,1.0979817052427403,0.7090739494863899,0.1943379669080007,-0.6241793796552699,9.339004986757814,1.337254979774825,1.4780022804590425,0.6071229070881636,-0.48124895155179,0.37413369960365767,-0.881285148069351,-0.068245391993899,0.1643405727292605
9.504494262747977,1.738832389266891,-1.5022085638765845,0.6268711238370981,0.14019439715044246,0.271042094117939,-0.8412646125886001,-0.08410742738095481,0.4113075163846508,-0.19050635428896673,0.9330287365859151,10.525754414666029,-0.41211591335512127,1.2210044308004535,0.5424704939387345,0.15805876475877548,0.07842771386020139,-0.9154718302053824,-11.106357159924714,-2.009791640687752,0.4925133093883371,-0.7290719406911932,0.5215563918861992,0.8683087671608681,0.9204564653853338,0.06536859340841517,0.1854688584834207,-6.805805652909523,-1.5822034834050374,-0.4120007027211861,0.050446915154578206,1.5078846415710219,1.1467497914687486,0.7286325209880169,0.17959534179521433,-0.5852112050688258,9.214480172511037,1.4775993639801712,1.2360461150326834,0.5160164260301265,-0.5850610744302355,0.3955403336849904,-0.8786965479846808,-0.04728373648121069,0.1887689767657306
9.61168493580343,1.152022160860214,-1.7726265657056464,0.5863287304656003,0.26646797176732046,0.2630679366585899,-0.844984746275342,-0.07766817234795576,0.39973698567198407,-0.9988624652668787,0.6132621943115961,10.58156223956175,-0.20472365581358276,1.0972937195770638,0.5478900150824558,0.1822419721659444,0.07697537965782447,-0.9159543349892509,-11.539954487719987,-1.8733986232095288,0.6908914604458152,-0.6947032432291993,0.3824020393955276,0.9321289172442692,0.9185971259061159,0.039753590840498676,0.18899997872304056,-8.02385374597397,-1.7987965624301996,-0.5349812972532622,0.044188412278660744,2.869714196065893,1.1410329259767997,0.7587945104044593,0.15301993197236757,-0.5225843450470257,9.584005564703997,1.0190618354129897,0.6242698396058419,0.4932672956965765,-0.6730843228577325,0.3843407422487682,-0.8779328512922592,-0.04021253924483554,0.19878283022013393
9.613323633427584,1.022832925126372,-1.7841541046712035,0.5889979801059079,0.3425778591874122,0.262601444152027,-0.8541274099661468,-0.0740298645589517,0.3975611917779511,-1.1957023317844406,0.4425750109970447,11.213709340355145,-0.03945351791642359,0.9192795709355372,0.504488637225451,0.19806713681157428,0.06832847708300853,-0.9048945996036123,-12.543678581439096,-2.176778259042577,0.8384849310790454,-0.6693510978835657,0.1460859045157909,0.965681470513372,0.9137046337259945,0.007803874353914967,0.1963318469497869,-10.821502212006667,-1.7431380956221512,-0.680021506197126,-0.04743859565812125,4.27183199034265,1.135700013542368,0.7918135376085399,0.13035911907764478,-0.4185789471224633,9.728117438699444,0.9089293972132518,0.3040462585961024,0.4986473435013121,-0.7004883755588823,0.3650291074352327,-0.8790432119182177,-0.03700922848338349,0.21805776403184612
9.482255024514501,0.8525228839974422,-1.6207490319278763,0.5181606050397106,0.380742242387332,0.27037979607904716,-0.8464240833773402,-0.05858495493392341,0.38723701843860364,-1.3577927168697776,1.4600240079845062,11.589611495811981,0.21343303183600415,0.6722301170145786,0.4716444483685323,0.22245001301902081,0.06883681655827631,-0.9078159805835979,-12.693143886885997,-2.1680665088280318,-3.738287110762875,-0.5579064593887973,0.06072763111497528,1.0139435987279666,0.9270487839847774,-0.00866602322910366,0.19554253809015076,-20.353407173540848,-7.110291625857945,9.581559631887568,-0.14481751695623624,5.08180771770417,0.9676110978667858,0.827849345480727,0.11828083217590239,-0.3099307549952216,9.658419385278158,0.7937054055585633,0.14844882261644507,0.4274739844761319,-0.7019799518228208,0.3435988408404924,-0.8668839627814181,-0.018427092409846524,0.23330476850399728
10.230502229283807,-0.6435168800642408,-0.81390185178892,0.8335703593575031,0.42963919013776497,0.16622123065170852,-0.8621876706467017,-0.0496593029795211,0.3812347435706807,-3.3416562656706157,3.7629301134234296,10.181007443194826,0.7817932741372674,0.38234630902563355,0.6868595800927625,0.2208364997723217,0.04243712583576665,-0.9015083016318312,-10.542088892193721,-7.437791630579142,-13.608676507647564,-0.0371533805069818,1.8201424141890605,0.5581703211770778,0.9043416635118819,-0.027317346640856045,0.24750615074188648,-26.78352234427665,-10.831488872200227,29.77347116806962,0.33362869787305677,0.46726112436255807,0.35240790274760686,0.8163776185306462,0.11169240393950082,-0.2991277719277269,9.964595331330118,0.6775894696325631,0.13407937126236658,0.7907017489864844,-0.802630821103661,0.31971956292378767,-0.8757541172049589,-0.010927412253582187,0.2551857050483109
9.289075999927894,0.1351099314535808,-0.8326087786422918,0.7302241817595382,0.576738559578274,0.10716348522323418,-0.8680189882183257,-0.03535506120520372,0.36374726168675175,-1.109172574581341,0.9649022158214394,7.979974775997132,0.18738182364268327,0.5297341808833674,0.7568812592726616,0.2301333326651941,0.038877788459682545,-0.903559094796735,-9.020148762351898,-3.020224592795324,-1.491728669925888,-0.9545947138064929,3.0676608458674908,-0.29318733132462277,0.8813901957103009,-0.020657999402693902,0.3128334207760351,-11.318218046625708,-6.744077086978611,9.776307983217759,-0.8934454651966314,-3.65084995178379,0.4875799378162238,0.7939736400779561,0.1124179420814905,-0.38766710217082234,9.177368010251529,-0.3905820166840811,0.8292802604113387,0.6624582498947666,-1.028408136895428,0.20329904830725937,-0.8708137954456474,0.0016862424312382221,0.27305032722194167
9.9368246971009,1.3892489852401448,-0.4460303551147839,0.4343813272051062,0.7231789445721482,0.24873161247626777,-0.869998807999785,-0.027981084352063312,0.3417170747832711,-0.9635821450939543,0.5614438028421641,11.153366007317802,0.38563421535362147,0.48702772332766386,0.5983939512226616,0.24760730058656139,0.02855726306596534,-0.9005763047134969,-12.861062047643687,-1.4883753706020908,3.1798191214687375,-0.5586102145682139,2.3642016237313612,-0.2265446555782044,0.8637656876512135,-0.021493374765964465,0.35959033532006385,-3.4559463352955104,0.7805660215309956,0.5283680992857251,-0.42956089813185827,-2.6101760745055436,0.276246354669133,0.7797086198719707,0.10869215547733937,-0.44520419461303007,9.677422073378574,0.6301713549212158,0.342482342651257,0.339410957511625,-1.0666967007288335,0.13901941734615123,-0.8626390194511616,0.006915329808124205,0.2955909670896312
10.097828508253576,1.9433849338840854,-0.3424031905979764,0.30910387590953825,0.8220245963987245,0.2306107312100085,-0.870963972114521,-0.021363791357135696,0.32752601489857935,-0.5264458295545483,0.603995407639275,10.423000983177937,0.639976492489926,0.32373507261509626,0.37864797456237625,0.25640115160143734,0.008377161818730534,-0.8970423744680736,-11.02592896564245,-0.9822376523190093,-0.17326087836452514,-0.305173611002147,1.575409552083818,0.052761303935502574,0.8550186489081426,-0.0272485052918045,0.39573206448259507,-4.9388588414824905,-1.0025572995516985,0.9237683890823706,-0.046287108465288225,-0.9693873056702983,0.28686131268820925,0.778354335801188,0.10483222875217818,-0.46147682738501905,10.199383284709212,1.7918452966884888,-0.24423196688119328,0.27160505901725635,-1.2500619403398796,0.18115401896708783,-0.8457609342214397,0.010763665283843905,0.3243237076140671
9.210596949003317,1.5498203690174637,-0.5406809070305102,0.18356786676736855,0.9909951779095716,0.23725453535697505,-0.8783953584576254,-0.02020900996714334,0.31269314268983806,-0.3868963968587393,0.8039437229005885,10.00208991593874,0.9810807404044178,0.2112757817530891,0.2721040180209405,0.25780186518146614,-0.019958424521396408,-0.8841767129915721,-10.577579681222998,-1.6192157221957963,1.204489894269484,-0.1440958774395251,1.0245767059778201,0.2943395776421733,0.841108525436335,-0.04094441751941397,0.42597085589780675,-2.1284365342217715,-0.1595185000641872,0.5076877940578115,0.13149870282068027,0.3937223945553055,0.20306926947254922,0.7779954721378879,0.09698964240999454,-0.4420665962082258,9.26335555744515,0.6790037371015735,-0.2911508971549789,0.13301351625165472,-1.443256661480233,0.2442673968385938,-0.8385201090799622,0.015041649149525872,0.36516650863597927
