# sampling frequency: 40
# units are seconds/meters/radians/a.u.
seg1_acc_x,seg1_acc_y,seg1_acc_z,seg1_gyr_x,seg1_gyr_y,seg1_gyr_z,seg1_mag_x,seg1_mag_y,seg1_mag_z,seg2_acc_x,seg2_acc_y,seg2_acc_z,seg2_gyr_x,seg2_gyr_y,seg2_gyr_z,seg2_mag_x,seg2_mag_y,seg2_mag_z,seg3_acc_x,seg3_acc_y,seg3_acc_z,seg3_gyr_x,seg3_gyr_y,seg3_gyr_z,seg3_mag_x,seg3_mag_y,seg3_mag_z,seg4_acc_x,seg4_acc_y,seg4_acc_z,seg4_gyr_x,seg4_gyr_y,seg4_gyr_z,seg4_mag_x,seg4_mag_y,seg4_mag_z,seg5_acc_x,seg5_acc_y,seg5_acc_z,seg5_gyr_x,seg5_gyr_y,seg5_gyr_z,seg5_mag_x,seg5_mag_y,seg5_mag_z
-6.524841,-7.051378,2.096062,0.086827,0.030986,0.005418,0.431641,0.775391,-0.177734,-4.298027,8.517639,3.94819,-0.269954,-0.007809,-0.00746,0.179688,-0.448486,-0.46167,-4.930465,6.875024,-4.657786,-0.070021,-0.01074,0.014484,0.229492,-0.580078,0.13916,-4.702079,7.522291,4.116656,0.216878,0.0295,0.037451,0.256836,-0.491699,-0.350586,4.539274,6.701004,4.394306,-0.078255,0.021298,-0.022035,-0.167969,-0.507812,-0.404053
-6.528362,-6.737284,2.207123,-0.051574,0.036931,-0.046723,0.430664,0.777832,-0.168945,-4.475937,7.229269,3.754535,-0.280767,-0.015338,0.015738,0.178467,-0.440918,-0.450684,-4.929589,7.120498,-4.28646,0.188361,-0.001612,0.044086,0.224121,-0.578857,0.139404,-4.630149,8.05224,4.344592,0.028165,-0.05478,0.013309,0.253906,-0.490723,-0.35498,4.86993,7.125416,4.488115,0.224545,-0.104528,-0.062802,-0.168213,-0.510986,-0.404297
-6.557241,-7.252459,1.946355,-0.121538,-0.034962,-0.01369,0.427734,0.772949,-0.161865,-4.317481,7.398776,3.636821,0.316984,-0.039409,-0.054407,0.176758,-0.451904,-0.446289,-4.875307,7.411753,-4.344505,0.122334,-0.020486,0.029697,0.221436,-0.578369,0.140869,-4.369263,7.529896,4.166864,-0.238787,-0.001719,0.018979,0.250977,-0.488281,-0.355225,4.995888,7.667975,4.561249,0.03408,0.043633,-0.033371,-0.169678,-0.506104,-0.405273
-6.224206,-7.476455,1.89303,0.009395,-0.005848,-0.004331,0.435547,0.769775,-0.165283,-4.450622,8.819994,3.988608,0.180993,-0.01435,-0.019734,0.179932,-0.459473,-0.445801,-4.916568,7.3499,-4.629658,-0.059328,0.052392,-0.004463,0.228516,-0.583252,0.138916,-4.658734,7.117959,4.003618,0.015788,0.09359,0.017658,0.260742,-0.494141,-0.355469,4.460553,7.212373,4.379466,-0.200274,0.049379,0.017025,-0.164307,-0.512695,-0.410889
-6.254464,-7.097055,2.101995,0.046253,-0.005007,0.045237,0.427002,0.772217,-0.168213,-4.383532,8.017597,3.84946,-0.516868,-0.048351,0.03014,0.173096,-0.445557,-0.455322,-5.108945,7.098316,-4.542389,-0.136496,0.030932,-0.008833,0.229492,-0.579346,0.140869,-4.816436,7.725262,4.200574,0.243637,-0.022261,0.015739,0.260254,-0.490479,-0.349365,4.765249,6.837955,4.318305,0.063834,-0.098778,0.006433,-0.164551,-0.506104,-0.40332
-6.485704,-7.253605,1.996648,-0.076639,0.023847,0.022005,0.423584,0.772949,-0.164062,-4.403819,6.720974,3.749147,-0.092982,0.014367,0.024055,0.168701,-0.446045,-0.456543,-4.923784,6.936516,-4.318085,-0.009071,-0.053254,0.042333,0.228516,-0.586182,0.134766,-4.427767,8.022402,4.231201,-0.028045,-0.023567,-0.007625,0.26001,-0.496094,-0.352295,5.010482,7.480693,4.523389,0.267118,0.004035,-0.023814,-0.161377,-0.517334,-0.406494
-6.179633,-7.51511,1.87089,0.04519,-0.039482,0.057763,0.423828,0.782715,-0.166016,-4.600173,7.577826,3.941101,0.416321,-0.019014,-0.000493,0.170166,-0.440186,-0.450195,-4.927553,7.110803,-4.315116,0.18259,0.03857,0.028684,0.220215,-0.590576,0.137939,-4.694706,7.488699,4.085171,-0.189861,0.13563,0.016049,0.252197,-0.5,-0.357666,4.826988,7.829158,4.631961,-0.030991,0.009323,0.029001,-0.172363,-0.520508,-0.408691
-6.668582,-6.989366,2.135297,0.131152,0.063886,0.066874,0.43335,0.770996,-0.167725,-4.297479,8.625328,3.763172,0.204615,-0.046926,0.012652,0.176025,-0.454102,-0.446777,-5.069769,7.339074,-4.682611,0.106579,0.014326,0.009571,0.231445,-0.57251,0.142822,-4.945133,7.297521,4.103181,0.065762,-0.038248,0.036369,0.259277,-0.484863,-0.351807,4.827806,7.174222,4.495794,-0.225879,0.026399,0.03984,-0.163818,-0.501221,-0.406738
-6.481036,-6.913776,2.157817,-0.022283,-0.079965,0.041259,0.43335,0.768555,-0.165527,-4.231804,8.506672,3.896155,-0.207779,0.019985,0.03685,0.176025,-0.455811,-0.450928,-4.847106,7.242652,-4.707457,-0.122071,-0.06656,0.022913,0.231201,-0.580322,0.144775,-4.405187,7.84409,4.12082,0.160465,-0.116023,0.008751,0.262939,-0.491943,-0.345947,4.606555,6.809235,4.464356,-0.000857,0.030203,-0.001123,-0.160156,-0.51001,-0.400391
-6.482465,-7.246937,2.015095,0.009153,0.018825,0.043159,0.435791,0.769287,-0.161865,-4.425656,7.507663,3.987551,-0.341055,0.044495,0.024575,0.177246,-0.449951,-0.448242,-4.78357,7.059507,-4.289016,-0.118232,0.061168,-0.013851,0.223145,-0.576172,0.131592,-4.469911,7.954914,4.295945,-0.134689,0.087948,0.005434,0.253418,-0.488525,-0.358643,4.881149,7.248104,4.506347,0.135991,-0.060714,-0.023545,-0.170166,-0.507324,-0.413086
-6.63442,-6.880782,2.218078,0.112475,-0.071044,0.007098,0.427979,0.775146,-0.174561,-4.367928,7.173679,3.681078,0.181277,-0.049797,-6.5e-05,0.172363,-0.444092,-0.453369,-4.999947,7.156481,-4.239603,0.115984,-0.030378,0.020415,0.22876,-0.580078,0.145752,-4.737526,7.312457,4.162912,-0.216925,-0.058371,0.004083,0.26001,-0.489258,-0.349854,4.981002,7.407724,4.517531,-0.082274,0.04904,-0.027198,-0.162109,-0.507324,-0.400391
-6.61144,-6.577061,2.291499,-0.083349,-0.014427,0.018228,0.435791,0.768311,-0.180664,-4.058188,8.523895,3.818897,0.383413,0.035626,-0.03847,0.182861,-0.45752,-0.454834,-4.561335,7.33272,-4.599888,0.189407,-0.067212,0.032754,0.224609,-0.575928,0.139404,-4.037418,7.125811,4.023004,0.117993,-0.057813,0.004819,0.254883,-0.484863,-0.357666,4.546121,6.868244,4.339204,-0.1271,0.053767,0.059332,-0.168457,-0.50293,-0.414551
-6.575588,-7.315922,2.1069,-0.083373,-0.09393,0.019143,0.428711,0.77417,-0.168213,-4.814266,8.516463,3.94518,-0.256367,-0.055409,0.029654,0.170166,-0.447266,-0.451416,-5.039954,7.490573,-4.388156,-0.027087,0.163742,-0.048353,0.226807,-0.57666,0.151367,-4.690211,7.801165,4.278071,0.20172,0.24061,0.010283,0.259766,-0.491699,-0.343018,4.596164,6.964277,4.384378,0.212147,-0.091005,0.005715,-0.167969,-0.507324,-0.398193
-6.568991,-7.068866,2.167927,0.024904,-0.055349,0.073293,0.430664,0.773926,-0.166748,-4.01544,7.130712,3.50143,-0.174381,-0.061324,-0.031537,0.169189,-0.443848,-0.44751,-5.13311,7.076174,-4.585297,-0.201219,-0.075408,-0.00162,0.230225,-0.585938,0.142334,-4.981606,7.900972,4.137598,-0.050232,-0.056741,-0.019427,0.262939,-0.498779,-0.346924,5.107315,7.534117,4.461115,0.180915,-0.040317,0.019146,-0.163574,-0.516113,-0.400391
-6.340249,-6.995051,2.028608,-0.012985,-0.088865,0.041937,0.434326,0.773682,-0.166748,-4.811479,7.846359,3.719184,0.345018,0.054665,0.006348,0.175293,-0.448486,-0.447266,-4.849061,6.744251,-4.751298,-0.000834,0.024748,0.010303,0.224365,-0.581543,0.137939,-4.420873,7.574228,3.974576,-0.01985,0.032251,-0.012853,0.260498,-0.490723,-0.352295,4.810925,7.54177,4.546422,-0.028036,0.048512,0.029113,-0.169189,-0.508789,-0.404785
-6.697145,-7.020596,2.082949,-0.008716,0.012515,0.030938,0.436035,0.76709,-0.164062,-4.417774,8.605943,4.049134,-0.075641,-0.101224,-0.017726,0.175781,-0.456299,-0.445801,-5.234431,7.104246,-4.391014,0.194486,0.03381,0.016675,0.235596,-0.576172,0.139893,-5.063999,7.712402,4.042863,0.050511,0.148068,0.015555,0.269531,-0.488525,-0.351562,4.923411,7.264634,4.476679,-0.034217,-0.052113,-0.020817,-0.159668,-0.507324,-0.404541
-6.405894,-7.002167,2.058902,0.0511,-0.089966,-0.002552,0.423584,0.773193,-0.172119,-4.343378,7.340984,3.666371,-0.219967,0.002964,0.026281,0.164795,-0.447021,-0.454346,-4.896189,7.317546,-4.605805,0.102473,-0.111425,0.010708,0.229248,-0.586914,0.144775,-4.832093,7.70459,4.205755,-0.056857,-0.187884,0.014208,0.262207,-0.495361,-0.351318,4.916066,7.264146,4.44771,-0.001728,0.051872,-0.026856,-0.16333,-0.517334,-0.403809
-6.898207,-7.199139,2.155659,-0.143217,-0.036087,0.03951,0.439453,0.77002,-0.172363,-4.245052,7.600754,3.24122,0.39093,-0.023542,-0.022952,0.179443,-0.452881,-0.451904,-4.671057,7.213033,-4.692292,-0.074233,0.02625,0.022648,0.232422,-0.578613,0.150635,-4.003269,7.459026,4.057493,-0.036789,-0.003016,-0.015547,0.265625,-0.489502,-0.343018,4.492934,7.14114,4.472402,-0.037496,0.00843,-0.024904,-0.159912,-0.511963,-0.39502
-6.453801,-7.399254,1.967656,0.013648,-0.158306,0.172199,0.435059,0.775879,-0.172363,-4.339324,9.430739,3.811147,0.14741,0.017844,-0.022519,0.174561,-0.446777,-0.449219,-5.016044,6.952561,-4.615986,-0.100292,0.030458,0.001258,0.223877,-0.58252,0.135986,-4.740726,7.478784,4.123732,0.074529,0.213434,-0.007879,0.259033,-0.493652,-0.354736,4.754441,7.025948,4.377578,0.075036,-0.085038,0.026053,-0.171387,-0.515625,-0.40918
-6.696362,-7.050705,1.948683,-0.178499,-0.112896,0.214639,0.432861,0.76416,-0.166748,-4.37951,8.305941,4.009504,-0.867456,-0.066251,0.03274,0.167969,-0.451172,-0.456299,-4.92048,7.004061,-4.481121,0.177628,-0.113528,0.07336,0.221436,-0.584717,0.14209,-4.948391,7.613939,4.114938,0.05388,-0.081119,-0.043338,0.258545,-0.494629,-0.348389,4.762039,7.353663,4.456481,0.15386,0.010054,-0.011528,-0.169922,-0.517334,-0.400879
-5.763206,-7.757275,1.628044,-0.041332,-0.224174,0.226809,0.443604,0.764893,-0.173828,-4.043339,6.350689,3.887959,-0.378807,0.001312,0.008629,0.178955,-0.446289,-0.467529,-4.735599,7.178975,-4.60778,0.117841,-0.06449,0.042895,0.218994,-0.585449,0.141602,-4.208431,7.570992,3.985893,0.01715,-0.050307,-0.038652,0.25708,-0.494629,-0.352539,4.758079,7.4044,4.45891,-0.021191,-0.041019,0.055419,-0.17334,-0.517578,-0.406982
-6.684159,-7.228655,2.222555,0.03784,-0.238889,0.218999,0.434082,0.772705,-0.167969,-4.168886,7.526848,4.427833,0.289386,0.08559,0.026092,0.168457,-0.439209,-0.457031,-4.690719,7.285616,-4.309453,0.049193,-0.06767,0.039509,0.228271,-0.574463,0.143066,-4.536066,7.564054,4.06123,0.023671,0.122075,-0.037837,0.265381,-0.487061,-0.353516,4.928622,7.084827,4.431648,-0.038677,-0.005064,0.066443,-0.166504,-0.508057,-0.405518
-5.993409,-7.203969,2.504351,0.166279,-0.192484,0.254018,0.443359,0.768066,-0.173584,-4.300459,8.032455,3.821607,-0.070313,0.087273,0.029215,0.171875,-0.441895,-0.456787,-4.690858,7.147722,-4.188859,-0.164788,0.017344,-0.02312,0.229004,-0.580322,0.147949,-4.762092,7.501461,4.110857,-0.063743,-0.033989,-0.030392,0.265625,-0.489258,-0.347412,4.925373,7.17051,4.368696,0.082938,0.006146,0.082485,-0.166504,-0.510498,-0.398438
-7.494784,-5.800653,2.382335,-0.677698,-0.264498,0.330352,0.451416,0.773193,-0.163818,-4.626427,8.094668,3.843225,0.003453,0.104588,-0.025705,0.178467,-0.438721,-0.456787,-5.226595,6.689445,-4.881092,-0.107807,0.126569,-0.015328,0.231689,-0.579346,0.140381,-4.686812,7.393903,3.899685,0.081184,0.031047,0.009202,0.272705,-0.486816,-0.349609,4.784269,7.453247,4.430259,0.078083,0.013586,0.071148,-0.162109,-0.508545,-0.4021
-6.182139,-10.097194,0.906229,-0.335383,-0.389272,0.313113,0.453125,0.763672,-0.163574,-4.111638,8.215472,3.527172,-0.080606,0.06812,0.047535,0.181641,-0.448242,-0.453125,-5.320887,6.797468,-5.81096,0.408985,-0.167852,0.084099,0.225586,-0.58374,0.145264,-5.016608,7.942486,4.223108,0.204643,0.036321,-0.029499,0.267822,-0.498291,-0.343262,4.807786,7.381949,4.511579,-0.06832,-0.010048,0.058609,-0.169678,-0.516846,-0.396729
-6.891098,-5.277118,2.855574,1.317308,-0.417832,0.332721,0.452148,0.765137,-0.185547,-4.200995,8.125336,3.970139,-0.292693,0.250854,0.083285,0.180176,-0.436523,-0.460205,-4.681637,7.702903,-3.669863,0.060422,-0.269143,0.195246,0.221191,-0.585449,0.140381,-4.652101,8.422167,4.137182,-0.036861,-0.141466,-0.109305,0.261719,-0.49292,-0.351074,4.90688,6.966915,4.521558,-0.032243,-0.064963,0.048889,-0.174561,-0.515869,-0.408447
-6.208274,-5.766388,2.348932,-0.716386,-0.169078,0.332012,0.452637,0.764893,-0.171631,-4.964734,7.549844,3.749038,-0.830122,0.199634,0.019186,0.176758,-0.428467,-0.462891,-4.409894,7.053533,-3.765893,-0.428495,0.062894,0.02007,0.219238,-0.577637,0.13208,-4.388626,7.09299,3.995394,-0.526993,0.069094,-0.018394,0.262207,-0.481689,-0.359863,5.51712,7.338547,4.437402,0.159463,-0.011618,0.015405,-0.177734,-0.506348,-0.408447
-7.099714,-8.000264,1.266716,0.084134,-0.267996,0.709234,0.45874,0.755127,-0.180664,-4.577348,5.617939,2.628333,-0.36227,-0.139471,0.056089,0.171631,-0.427246,-0.474121,-5.176386,6.632945,-4.425055,-0.013747,0.146259,-0.00276,0.221924,-0.584717,0.13501,-5.108038,6.578481,3.825743,0.204912,0.005562,0.070764,0.266357,-0.491455,-0.355469,4.738418,7.732325,4.643935,-0.103021,0.134935,0.013508,-0.170166,-0.511963,-0.408936
-7.64847,-5.897952,3.005305,0.467414,-0.35652,0.894734,0.478027,0.747559,-0.19043,-4.809225,8.634468,3.836081,0.764538,-0.136094,-0.115806,0.181641,-0.434814,-0.466064,-5.037531,7.146323,-4.222578,0.423626,-0.181582,0.187006,0.217041,-0.584717,0.147949,-4.549613,8.105049,4.244384,0.446319,-0.211477,0.037114,0.263672,-0.497314,-0.34375,4.870676,6.913383,4.292475,-0.3024,-0.133502,0.109229,-0.176758,-0.514404,-0.405029
-5.90362,-3.663341,3.977031,0.503067,0.189178,0.82654,0.48291,0.734375,-0.190186,-4.407307,9.030304,4.808805,-0.878374,-0.423535,0.098356,0.167725,-0.430664,-0.474854,-4.533973,7.858598,-4.619426,0.58033,-0.01718,0.046853,0.220703,-0.57666,0.154541,-4.276877,8.09035,4.23028,-0.208114,0.110232,0.046029,0.263672,-0.48877,-0.342041,4.832284,6.498161,4.24243,0.112521,0.041261,-0.005234,-0.17334,-0.507812,-0.397461
-8.85882,-3.079567,3.917637,-0.831331,-0.195062,0.242285,0.485352,0.746338,-0.181396,-3.836048,5.515977,4.458309,-0.342394,-0.222132,-0.007822,0.16333,-0.417969,-0.477051,-5.015687,8.011308,-4.619383,-0.165773,0.146066,0.023013,0.216309,-0.585693,0.153809,-4.885368,6.931027,4.076483,-0.124923,0.172731,-0.060821,0.263184,-0.494141,-0.344482,4.454711,7.183859,4.296081,0.278372,-0.156932,0.00408,-0.178467,-0.518799,-0.39502
-8.142227,-7.039386,2.364976,-1.250524,-0.098686,0.14757,0.493652,0.749756,-0.167725,-4.438131,7.247932,4.764331,1.543416,0.010528,-0.144862,0.171631,-0.438477,-0.463135,-4.949334,6.637011,-3.972555,-0.789892,-0.014342,0.004644,0.219482,-0.580811,0.140625,-4.86419,7.120088,3.698679,0.37134,0.027752,0.05162,0.266357,-0.495605,-0.345703,5.366955,7.416699,4.519465,0.193308,-0.230838,0.037911,-0.178467,-0.514893,-0.393799
-6.3793,-9.321166,1.374493,-0.092282,-0.601158,-0.1788,0.48877,0.748535,-0.169922,-4.440029,9.59562,5.103412,0.579451,-0.125994,-0.266653,0.175781,-0.445557,-0.454102,-4.653571,5.983845,-4.372291,0.114155,0.043153,-0.001565,0.216309,-0.58374,0.145996,-4.941804,8.144193,4.25285,0.244819,-0.009437,0.081748,0.26709,-0.496338,-0.336182,5.137058,7.740185,4.461764,0.008292,0.114922,-0.070342,-0.178711,-0.515869,-0.388916
-6.915755,-7.497108,2.365912,2.274037,0.148951,-0.023672,0.481934,0.736328,-0.19751,-3.986777,8.36504,3.137676,-0.047511,-0.000779,-0.171935,0.171875,-0.441406,-0.456543,-4.91879,6.814766,-4.834396,0.656635,0.034634,0.130621,0.208252,-0.584229,0.144287,-4.420683,7.813247,4.150801,-0.325955,-0.12304,0.05255,0.256836,-0.497559,-0.352051,4.611086,7.155603,4.20789,-0.297811,-0.050293,0.065243,-0.184814,-0.516113,-0.403564
-7.473792,-1.479467,4.960534,0.584407,-0.296765,-0.149316,0.480713,0.735596,-0.201172,-4.622319,7.981297,4.032522,-0.154856,-0.103186,-0.296548,0.177979,-0.438232,-0.447754,-4.538169,7.847615,-4.508665,0.605676,-0.196507,0.178094,0.215332,-0.581543,0.152588,-4.08671,6.930817,3.460409,-0.000824,0.056204,0.019601,0.265869,-0.498291,-0.348145,4.896232,6.36999,4.187564,0.007721,-0.076467,0.054695,-0.177979,-0.51416,-0.403564
-6.607914,-8.027078,3.123787,-1.285499,0.193848,-0.128691,0.480225,0.750488,-0.195557,-4.582742,5.387775,4.223458,-0.487652,-0.222845,-0.077127,0.175293,-0.42749,-0.46875,-4.144622,8.540121,-4.180148,0.220573,0.091357,-0.061958,0.219727,-0.567139,0.164551,-4.746214,7.646331,4.121494,0.394064,0.129729,0.046226,0.268799,-0.492188,-0.337402,5.136612,7.242391,4.128841,0.380356,-0.055248,0.052197,-0.178711,-0.504883,-0.39209
-7.535959,-6.848781,2.092461,0.248552,-0.744937,0.188537,0.473145,0.747559,-0.202148,-4.493125,3.418151,4.133468,1.97104,-0.385183,-0.23669,0.16626,-0.448242,-0.444824,-5.145807,7.819838,-4.191931,-0.606407,0.37659,-0.212992,0.222412,-0.583008,0.159424,-4.847281,8.053239,4.124057,-0.079172,-0.02398,0.06197,0.270508,-0.50415,-0.335449,5.102925,7.860765,4.403497,0.048495,-0.052407,0.094246,-0.179688,-0.522461,-0.389404
-5.440992,-6.389743,2.322584,-0.13577,-0.066982,-0.112833,0.467285,0.748535,-0.192871,-3.996149,6.392943,3.205856,3.278099,0.037953,-0.061439,0.164551,-0.484375,-0.397217,-5.114356,6.189489,-4.83769,-0.72689,0.060214,-0.14127,0.205566,-0.573242,0.151367,-4.381598,7.273117,3.799294,-0.035271,0.13889,0.042021,0.255127,-0.492188,-0.334473,5.037084,6.986745,4.134344,-0.155143,-0.045804,0.145391,-0.196533,-0.508789,-0.387451
-8.906001,-6.500339,2.104464,0.01103,-0.137237,-0.161328,0.473633,0.742432,-0.206787,-5.11856,7.405379,4.031996,4.133909,-0.128559,0.105153,0.174072,-0.530273,-0.353516,-4.714183,6.061725,-4.587905,0.680847,0.049835,-0.021873,0.220459,-0.570801,0.165771,-5.377924,7.678653,3.698257,0.337822,0.179485,0.125581,0.268066,-0.49585,-0.323975,5.097806,7.029002,4.481303,0.273638,-0.054564,0.01316,-0.184326,-0.510742,-0.380615
-8.801116,-5.614331,6.646821,0.163776,-0.213645,0.114377,0.469971,0.741699,-0.206543,-5.415987,10.392972,0.558935,6.280344,-0.179429,-0.347021,0.170166,-0.573975,-0.258301,-4.9997,9.919988,-4.056175,2.899169,0.109573,-0.328954,0.224365,-0.562988,0.200439,-5.323772,8.543057,4.093826,-0.03046,-0.255241,0.082817,0.267334,-0.50293,-0.332764,5.210547,8.085192,4.57494,0.096061,-0.009067,-0.045441,-0.180908,-0.519775,-0.388184
-7.194002,-6.615692,1.415206,-0.891736,-1.510374,-0.940076,0.438965,0.757812,-0.196045,-3.904169,9.615235,-3.814951,3.979096,-0.941021,0.425325,0.155518,-0.59668,-0.196045,-4.409894,11.32959,-6.380543,-0.852671,0.234268,-0.623752,0.22876,-0.559082,0.1875,-2.841815,7.454763,5.040391,-0.018419,-0.369912,0.001268,0.260254,-0.499512,-0.336426,4.562857,6.580522,3.411093,-0.854601,0.225397,0.147836,-0.182861,-0.505615,-0.395508
-2.263791,-7.40054,0.75966,0.464524,0.069269,0.16935,0.445801,0.744141,-0.209717,-3.489018,15.358194,-1.248825,2.972423,0.592824,-1.061194,0.176514,-0.614014,-0.155273,-6.279775,4.640071,-5.916434,-6.315573,0.820526,-0.23218,0.226074,-0.595459,0.098877,-4.006404,6.942744,3.349441,0.109498,1.456736,-0.182333,0.27124,-0.508789,-0.326416,4.201107,4.232495,3.236118,0.807871,-0.573433,0.112927,-0.193848,-0.522461,-0.387207
-6.463874,-3.587548,3.430366,0.29978,0.181161,0.08107,0.453125,0.748779,-0.2146,-6.873212,14.469316,2.409418,-6.880831,0.352743,-0.088852,0.182861,-0.570068,-0.264893,-7.657046,0.948601,-5.816262,-4.400396,-0.85887,0.603636,0.223145,-0.591797,0.039307,-9.429131,7.716717,1.729877,0.55742,0.667544,0.27559,0.281982,-0.499268,-0.309814,6.049296,9.357295,5.661263,2.329952,-0.35219,-0.614938,-0.183105,-0.536377,-0.348145
-6.945627,-5.995255,2.835229,-0.688674,0.502737,0.550436,0.462891,0.749268,-0.193604,-4.448245,-4.498259,-3.540595,-2.84707,-0.512997,0.231471,0.174316,-0.554443,-0.292725,-3.206931,2.130551,-3.723122,2.670015,-1.745062,0.162102,0.230225,-0.603027,0.068604,-5.562685,9.914687,4.067073,0.396655,-1.806848,0.053855,0.269531,-0.517578,-0.323242,5.663658,12.817699,5.817529,-0.700255,0.202765,-0.255781,-0.17749,-0.544189,-0.368164
-9.298137,-6.438293,2.199482,0.082673,-0.123457,0.367201,0.466553,0.751709,-0.19458,-5.617693,6.48216,0.773096,4.603411,0.151791,0.213094,0.171875,-0.580566,-0.225098,-1.784382,6.522517,-5.316282,7.824666,1.2182,-0.255503,0.225586,-0.560791,0.19165,-1.392531,9.141245,5.56935,-1.057595,-0.066122,0.084341,0.265137,-0.498291,-0.333252,5.00162,6.449154,3.640611,-2.951197,0.328863,0.017006,-0.175537,-0.504883,-0.399414
-6.389378,-5.697319,2.638922,0.120808,0.320915,0.221264,0.472656,0.744873,-0.200928,-4.334874,13.479273,0.877922,1.244332,-0.892016,0.154375,0.16626,-0.592773,-0.218506,-8.38458,16.893163,-1.970448,3.831324,1.153724,0.908496,0.208252,-0.542969,0.238037,-5.490983,5.422846,3.855098,-1.233259,0.772244,0.041711,0.274902,-0.489258,-0.344727,4.160318,1.956523,2.163106,-0.113628,0.070588,-0.376942,-0.169434,-0.506348,-0.404541
-8.249804,-6.058044,3.251817,0.059571,-0.213861,0.718028,0.477051,0.742188,-0.197266,-3.798315,10.146165,0.576085,-1.555527,0.033631,-0.27302,0.164307,-0.580322,-0.234863,-5.018234,10.040071,-5.417281,-5.240763,-1.322343,-0.061611,0.215332,-0.578613,0.163086,-4.600519,4.02476,2.997174,0.735243,-0.340618,0.165914,0.266602,-0.503174,-0.330811,4.051102,6.826472,3.982418,2.414372,-0.438082,-0.503564,-0.16748,-0.54248,-0.367188
-6.995461,-6.358916,3.107915,-0.007109,0.048493,0.387466,0.491211,0.741211,-0.204102,-6.216131,6.387111,-0.00653,-0.287577,-0.799518,-0.099368,0.167236,-0.575195,-0.248535,-2.452166,4.14461,-5.285088,-3.261162,0.226681,0.23073,0.203125,-0.58667,0.118408,-3.618942,8.50376,5.040751,1.958817,0.466897,0.298801,0.260742,-0.51709,-0.306885,4.134753,10.970465,5.828812,0.66205,-0.303751,-0.327971,-0.175293,-0.542236,-0.362793
-5.446812,-6.70312,2.885558,-0.040635,-0.262896,0.771845,0.490479,0.729492,-0.199219,-2.623587,11.416014,2.369345,0.562685,-0.418814,-0.129069,0.158936,-0.583984,-0.239014,-5.544504,3.317082,-5.118636,1.048575,0.877636,0.385965,0.194336,-0.589355,0.140381,-5.560949,10.66995,4.75844,0.053409,0.536267,-0.095908,0.266846,-0.523682,-0.304932,4.274254,7.420942,4.024377,-1.182046,-0.318835,0.026667,-0.177979,-0.538818,-0.374512
-5.289384,-7.08675,2.888738,0.123199,0.309511,0.367273,0.50293,0.727051,-0.193115,-5.077323,10.124749,2.904295,-2.14883,-0.348641,0.373569,0.158203,-0.570068,-0.265137,-5.373488,6.379572,-6.345846,4.320182,-0.666755,0.567719,0.185303,-0.572266,0.193848,-4.69862,7.790243,3.417139,-0.892035,-0.198157,-0.034466,0.264648,-0.513672,-0.322021,5.377841,5.291695,3.609985,0.474626,-0.169626,-0.231638,-0.178711,-0.542725,-0.37085
-7.330755,-6.626462,3.291732,0.529077,0.193973,0.390239,0.514404,0.721924,-0.203857,-2.719219,6.12865,1.277387,-0.858385,-0.069634,0.134072,0.1604,-0.563477,-0.282959,-3.104609,11.573772,-5.677311,2.295898,-0.631573,0.962555,0.193359,-0.562744,0.220703,-3.936567,6.860448,2.706697,0.370368,0.20778,-0.09465,0.282227,-0.515137,-0.313721,5.2149,9.208172,4.225466,1.404287,-0.043081,-0.284971,-0.162842,-0.556885,-0.352295
-8.640659,-4.563884,3.766746,0.167412,0.041281,-0.005432,0.513428,0.717041,-0.214111,-5.246601,8.329286,1.294673,0.657034,0.408183,0.047956,0.158936,-0.572266,-0.27832,-3.869758,9.931572,-6.090312,-2.358466,0.497558,-0.347088,0.187744,-0.580566,0.203857,-5.775924,9.552948,3.72772,0.66118,0.159931,0.1323,0.275879,-0.528564,-0.294189,5.965475,10.846006,4.531887,-0.343217,-0.043772,0.024415,-0.172363,-0.560059,-0.347656
-6.760541,-5.12081,2.829243,-0.129125,-0.162061,-0.15962,0.502197,0.7146,-0.208496,-3.381621,11.212296,1.759356,-0.073453,0.17704,-0.162586,0.15625,-0.575684,-0.275635,-5.164516,5.636979,-5.482455,-3.269771,0.150695,0.054765,0.179688,-0.585449,0.151611,-4.782316,10.108964,3.38403,-0.626589,-0.596137,-0.063133,0.265625,-0.515625,-0.311768,5.6785,7.683086,3.949399,-1.287624,0.327219,0.152263,-0.176514,-0.537354,-0.36792
-7.037888,-5.21301,2.451358,-0.031057,0.086917,0.017969,0.509033,0.727051,-0.211182,-5.73603,8.131631,1.232435,-2.089774,0.554109,0.144229,0.162598,-0.548584,-0.309082,-4.587693,4.196212,-3.638012,-1.077253,-0.548541,0.258253,0.178223,-0.591064,0.123291,-4.005598,7.354367,3.307333,-1.492647,-0.014758,0.081401,0.266602,-0.499756,-0.336426,4.855873,6.671294,3.712973,-0.138895,0.268728,0.002258,-0.172363,-0.535645,-0.381348
-8.472414,-4.853705,2.959653,0.214421,0.21058,0.196376,0.515137,0.719971,-0.203857,-5.648522,4.611262,-0.14508,-0.247002,-0.365134,0.053264,0.163086,-0.547852,-0.300781,-3.503525,5.330313,-4.340177,1.673143,0.052905,0.08618,0.174072,-0.57666,0.157715,-5.650674,5.137865,2.946181,-0.342884,-0.15319,0.234519,0.257568,-0.492432,-0.335938,4.555747,8.451995,3.870257,-0.026508,0.153791,-0.072908,-0.174316,-0.529297,-0.376465
-8.31303,-4.799126,3.446825,-0.238943,-0.12267,0.335503,0.52002,0.716064,-0.206787,-4.581043,10.708919,2.02494,1.169333,-0.360909,0.084057,0.1604,-0.5625,-0.289307,-4.914642,8.857975,-4.037043,2.574798,0.336385,0.406859,0.176758,-0.574707,0.193604,-4.210667,7.375551,3.504994,0.949886,-0.640226,0.179634,0.257812,-0.514404,-0.331055,4.219384,7.669183,3.745894,-0.844203,0.00119,0.192003,-0.168701,-0.529297,-0.387451
-6.47249,-5.766947,2.922407,-0.13395,0.100919,0.332569,0.52124,0.718018,-0.203369,-3.921492,10.414274,2.815044,-1.807125,-0.504937,0.067103,0.150879,-0.544189,-0.319092,-4.167781,10.228442,-4.970464,-0.089212,-0.271416,0.120633,0.168457,-0.572266,0.193848,-3.173115,9.10008,3.916862,0.073256,0.014939,0.267654,0.248535,-0.510986,-0.326172,4.846234,5.661011,3.915439,-0.309765,-0.229085,0.083094,-0.180664,-0.521973,-0.387695
-8.388686,-6.184864,2.704175,-0.33117,-0.018228,0.12476,0.520508,0.720215,-0.207031,-4.121889,5.344259,1.069539,-0.293929,-0.179627,0.140155,0.145264,-0.544434,-0.32959,-3.429407,7.413328,-5.54352,-1.758971,0.288824,-0.319354,0.178711,-0.57959,0.177734,-5.36647,7.925212,3.727126,-0.343362,0.290755,0.123056,0.257568,-0.512451,-0.322266,4.806997,7.256788,4.747716,0.67547,-0.119331,-0.084809,-0.172852,-0.530273,-0.374023
-7.213059,-7.582337,2.1995,0.149703,-0.181583,0.167263,0.528809,0.716553,-0.197754,-4.212473,11.193747,3.299722,0.42015,-0.010392,-0.328349,0.155518,-0.543213,-0.311523,-4.63415,5.33833,-4.675615,-1.597075,0.470526,-0.101094,0.180176,-0.592041,0.154541,-5.372975,7.654837,3.204112,0.090574,-0.659491,0.267114,0.249023,-0.516846,-0.326904,5.289727,9.474081,5.297318,-0.042317,-0.310635,-0.09016,-0.174316,-0.536377,-0.372314
-6.35824,-4.450172,3.346597,0.872325,-0.239588,0.054461,0.523682,0.695068,-0.210938,-4.013147,7.971685,2.57656,-2.358693,0.032318,0.028002,0.150391,-0.538818,-0.343018,-4.588968,4.402299,-4.995502,-0.482012,-0.108877,0.059131,0.178711,-0.592529,0.141846,-3.616236,8.164151,3.650862,-0.020385,-0.627177,0.332555,0.23999,-0.519043,-0.340088,5.446113,8.298381,4.620853,-1.191837,-0.034884,0.036952,-0.177246,-0.524658,-0.396729
-7.02772,-2.832961,3.586827,-0.516512,0.146701,-0.176774,0.522949,0.713867,-0.205811,-4.466078,3.376906,1.618238,0.531101,0.353615,-0.021732,0.154785,-0.532227,-0.337891,-3.579011,5.69055,-6.490866,2.392043,-0.070303,0.243263,0.175537,-0.58252,0.178223,-4.181438,7.778122,3.706794,-0.067046,-0.251653,0.308906,0.233154,-0.521729,-0.337646,3.538185,6.211333,4.266016,-0.878242,0.03347,-0.015073,-0.178467,-0.51416,-0.405762
-6.932472,-7.230332,1.898578,-0.551142,-0.090892,-0.241945,0.515869,0.71582,-0.196533,-5.269239,11.789647,3.661629,2.163167,0.045682,0.267671,0.151123,-0.55249,-0.300293,-4.356285,11.328261,-4.85827,3.396797,0.282956,0.189594,0.17627,-0.561279,0.223389,-4.389834,7.967151,4.048277,0.425555,-0.587507,0.102421,0.232666,-0.526611,-0.337891,4.117743,6.5582,3.99575,0.120309,-0.801448,0.082556,-0.182861,-0.513672,-0.40332
-7.75269,-6.005571,2.160604,0.538182,0.10148,-0.155525,0.518555,0.720459,-0.209473,-4.14942,10.879344,2.553032,-2.162672,-0.019621,0.340589,0.147949,-0.530029,-0.340088,-4.575633,11.777854,-2.826183,-1.931962,0.21614,-0.294444,0.170654,-0.568604,0.19873,-3.54592,8.293981,4.072169,0.182874,-0.281228,0.233611,0.221191,-0.523193,-0.331543,6.362615,8.177662,4.118718,0.283168,-0.650584,0.019668,-0.200195,-0.513916,-0.387207
-6.623328,-4.963693,2.581504,0.10411,-0.143984,-0.111487,0.518555,0.713623,-0.216064,-4.581953,3.7967,1.433692,-1.483928,0.123045,-0.022945,0.151123,-0.525879,-0.363525,-3.910963,4.853993,-5.379008,-4.086956,0.406464,-0.497487,0.176025,-0.583496,0.143066,-4.534855,7.038433,3.391727,0.035379,-0.115197,0.425437,0.217773,-0.523438,-0.333984,5.274167,8.500286,4.855488,-0.375205,-0.245973,-0.002567,-0.200684,-0.505127,-0.393799
-8.18602,-5.681248,2.614432,0.206862,0.011116,-0.074921,0.518799,0.714355,-0.207275,-4.445425,5.849548,1.598031,1.940047,0.038796,0.223716,0.148926,-0.540527,-0.321533,-4.324186,3.12352,-6.166806,0.333508,0.260233,0.033246,0.178467,-0.586426,0.147461,-4.360516,8.206384,4.258941,1.052875,-0.706118,0.412787,0.208008,-0.540527,-0.326416,4.161447,7.278274,4.67868,-0.774528,-0.398376,0.104883,-0.202393,-0.50415,-0.405518
-7.069477,-5.301932,2.928114,0.011524,-0.198573,0.025947,0.518555,0.712402,-0.219238,-4.301978,13.652539,3.517392,1.179179,0.010062,0.137661,0.145996,-0.551758,-0.316895,-4.152865,5.833689,-5.756747,3.971228,0.230487,0.114813,0.170166,-0.567383,0.206543,-2.81782,9.994613,4.162116,0.402831,-0.532066,0.231152,0.195801,-0.543945,-0.324463,4.870683,6.238291,3.823122,-0.308481,-0.622825,0.123406,-0.219727,-0.498291,-0.401855
-8.805375,-6.89432,2.566994,-0.288001,-0.248741,0.019309,0.522461,0.715576,-0.207275,-4.3484,8.329553,0.912193,-2.300238,0.114055,0.40991,0.147705,-0.532715,-0.339844,-4.502801,10.132067,-3.779665,1.71214,0.28187,0.434549,0.162598,-0.560547,0.22583,-3.923443,8.116023,3.665261,-0.730493,0.128658,0.240087,0.195312,-0.542725,-0.334717,5.581648,7.184951,4.120755,0.284274,-0.585441,-0.014033,-0.224609,-0.503662,-0.39624
-6.865426,-8.266048,1.715609,0.584077,-0.571893,0.125185,0.504883,0.707275,-0.21875,-4.631758,3.968498,1.795996,0.171479,0.141511,-0.203679,0.136963,-0.541504,-0.331787,-4.20761,7.961922,-6.181733,-1.379183,0.14919,-0.231297,0.171143,-0.56543,0.216553,-5.409241,6.262033,3.350234,0.226589,-0.507841,0.49065,0.189941,-0.544189,-0.326904,5.327719,8.907338,4.963357,-0.163742,-0.250894,-0.141207,-0.220215,-0.501221,-0.388672
-6.470157,-4.552096,3.535817,1.175763,-0.427974,0.098466,0.505615,0.700928,-0.246582,-3.773493,10.727206,3.0354,2.310242,0.036948,0.329061,0.130127,-0.555664,-0.306641,-3.520022,6.729497,-7.125823,0.014906,0.250991,-0.176671,0.164551,-0.559326,0.216309,-2.642834,9.008719,3.955795,1.242113,-1.423336,0.341055,0.166748,-0.556641,-0.315186,4.002429,7.568866,4.31535,-1.47091,-0.198242,0.10386,-0.231689,-0.480469,-0.408691
-6.412087,-3.534596,4.456975,0.161688,-0.005584,0.04336,0.50415,0.700928,-0.25293,-3.231714,11.381377,1.624958,-0.952054,0.362841,0.322346,0.130127,-0.547119,-0.324951,-4.024565,6.944644,-5.798002,0.056088,0.115017,0.072307,0.165039,-0.561035,0.210693,-1.045131,10.463391,3.903102,-0.107921,-0.129857,0.117702,0.164062,-0.554932,-0.328125,5.219676,4.484546,3.492785,-0.736433,-0.734421,0.277975,-0.242432,-0.47168,-0.416748
-9.228639,-5.813706,3.810515,-0.099328,-0.273128,-0.049652,0.510742,0.694336,-0.247803,-5.156065,5.929027,1.133552,-0.68487,0.264441,0.402435,0.132812,-0.547607,-0.327393,-3.729461,6.588962,-4.07045,-0.580932,0.241876,-0.166311,0.156982,-0.563232,0.209473,-4.901759,7.776119,3.662656,-0.790266,0.230645,0.213327,0.154785,-0.552734,-0.329346,6.348051,6.80128,4.208516,0.963483,-0.496051,-0.171448,-0.255615,-0.484619,-0.397461
-7.082412,-5.844489,3.319683,0.388532,-0.62819,0.425943,0.511719,0.692871,-0.255371,-3.752513,7.979252,2.287384,0.5392,-0.010496,-0.132415,0.13623,-0.544922,-0.31543,-3.877521,5.891849,-3.889167,-0.196982,0.249514,0.113886,0.160156,-0.563232,0.208496,-4.014062,6.721297,3.493577,0.341255,-1.323791,0.413823,0.141602,-0.553955,-0.331543,6.443403,10.345668,5.212532,-0.116691,-0.412406,0.004601,-0.257812,-0.481934,-0.398438
-6.121007,-5.418263,3.944231,0.547578,-0.46204,0.335653,0.506836,0.681885,-0.269775,-4.122771,9.222172,2.349774,0.052448,-0.110878,0.169545,0.126221,-0.551758,-0.317139,-3.38837,6.42805,-6.271387,1.080478,0.200236,-0.135006,0.154053,-0.559814,0.215576,-0.865053,8.848415,3.885589,0.772221,-0.845061,0.623427,0.123291,-0.567627,-0.33252,5.339653,7.553225,4.518137,-2.146692,-0.020796,0.282738,-0.266602,-0.461426,-0.428955
-6.971222,-4.611742,4.827277,0.299952,-0.012592,0.257173,0.506592,0.67627,-0.279541,-2.868945,9.550171,1.374938,-0.025622,0.046046,0.083436,0.120605,-0.553711,-0.324463,-3.819422,8.040315,-7.441313,0.717343,0.384108,0.07042,0.154053,-0.552002,0.230225,-2.994002,10.043068,4.27323,-0.110244,-0.018505,0.338267,0.120361,-0.562012,-0.328613,4.043935,3.576832,3.975478,-1.14939,-0.270005,0.16163,-0.272705,-0.445068,-0.43042
-8.193012,-4.869705,4.407307,0.334349,-0.32696,0.182321,0.515137,0.675537,-0.273926,-4.226718,9.459574,1.088269,-0.302332,0.609021,0.266201,0.129395,-0.545166,-0.314697,-4.33106,7.406476,-6.400753,-1.207338,0.169109,-0.093431,0.151367,-0.557129,0.217041,-4.103582,8.615412,3.520602,-0.575724,-0.834368,0.245224,0.109131,-0.558838,-0.335693,5.372451,5.870302,4.352021,0.734202,-0.728261,-0.085408,-0.282227,-0.451416,-0.415771
-7.992521,-4.311464,3.863986,0.083653,-0.239531,0.110025,0.516846,0.662354,-0.281738,-4.737642,12.232659,3.262718,-0.776723,0.170455,0.026005,0.133301,-0.549072,-0.327637,-3.648151,6.071272,-5.048592,-0.425204,0.018703,-0.018264,0.165283,-0.553467,0.210693,-1.837628,7.622843,3.512245,0.135417,-1.093728,0.284446,0.108154,-0.557617,-0.337158,6.594369,9.211206,5.283339,-0.310551,-0.442396,-0.144192,-0.271973,-0.445312,-0.419678
-8.435011,-6.528528,3.844124,0.544443,-0.513205,0.469405,0.517578,0.666016,-0.300049,-4.193874,9.332595,2.114735,-2.973069,-0.026501,0.257697,0.128418,-0.515869,-0.374023,-3.597021,7.161716,-5.24841,1.214831,0.251154,-0.073081,0.160156,-0.54834,0.236816,-1.758137,9.14972,4.3133,0.56627,-0.469552,0.412666,0.09082,-0.565918,-0.321289,5.993546,6.796208,4.542444,-1.887248,-0.323218,0.091698,-0.2854,-0.428223,-0.429688
-7.394413,-3.683797,4.852664,1.063531,-0.521211,0.327575,0.511963,0.649414,-0.315186,-3.703937,4.782101,1.21384,-0.776248,-0.1169,-0.042727,0.125977,-0.510986,-0.383545,-4.015553,8.086633,-6.049724,-0.064648,0.341723,-0.107579,0.158203,-0.547852,0.228271,-2.745083,9.79406,4.036028,-0.110996,-0.620239,0.388415,0.083984,-0.561768,-0.32959,5.681168,4.02924,3.831095,-0.712994,-0.443545,-0.234423,-0.288574,-0.41748,-0.436035
-7.570668,-3.760625,5.351357,0.070751,-0.522048,0.305314,0.511963,0.641602,-0.318115,-3.746213,10.917225,2.882265,-0.030624,0.453801,-0.093359,0.129395,-0.513672,-0.381348,-3.973053,6.446605,-6.699016,-1.064175,0.158615,-0.028259,0.156006,-0.556885,0.214844,-2.073539,8.595894,3.935139,-0.253812,-0.680218,0.336587,0.068604,-0.563965,-0.33252,5.69152,6.861884,4.965894,0.685583,-0.584592,-0.376396,-0.293213,-0.432617,-0.424805
-6.842511,-4.668352,4.449828,0.222982,-0.461141,0.279024,0.512939,0.640381,-0.325928,-4.504806,11.653776,3.922667,-2.489725,-0.00819,0.092118,0.13208,-0.488281,-0.413574,-3.64822,5.773406,-6.744906,0.029921,0.130876,-0.027141,0.146484,-0.55127,0.20752,-2.165478,8.715088,3.780031,0.294829,-0.733135,0.405574,0.050293,-0.567139,-0.342529,5.98921,9.058461,5.61521,-0.731985,-0.54469,-0.279483,-0.305664,-0.424072,-0.437744
-7.272425,-4.612665,4.271013,0.262382,-0.509738,0.335371,0.515869,0.641113,-0.327637,-3.824919,3.659401,2.536866,-2.438553,0.205483,0.436332,0.131104,-0.457275,-0.442383,-3.924444,7.343084,-5.628302,0.960287,0.154755,0.126021,0.146973,-0.552979,0.224609,-2.015828,9.713047,4.446608,0.058029,-0.824417,0.294245,0.04126,-0.56958,-0.335693,5.802687,6.131265,4.571729,-1.866295,-0.375345,-0.088907,-0.309326,-0.408691,-0.446533
-6.781706,-5.71763,4.094271,0.233989,-0.369179,0.427003,0.508057,0.633545,-0.330322,-4.542945,4.33143,3.590729,0.943442,0.039669,0.01928,0.124756,-0.467529,-0.424316,-3.798884,8.496872,-5.000916,0.135747,0.126609,-0.102159,0.148438,-0.547607,0.233643,-1.44774,8.807649,4.121076,-0.452859,-0.78245,0.374726,0.029297,-0.563232,-0.334229,5.539405,4.234195,4.027851,-0.589656,-0.543506,-0.49527,-0.310547,-0.404297,-0.438477
-7.593505,-4.86382,4.777727,1.048807,-0.537193,0.369557,0.510742,0.619385,-0.348389,-3.65274,10.05914,4.335585,1.095294,0.176996,0.275066,0.126221,-0.482178,-0.410645,-3.72955,7.208201,-5.191743,-1.008101,0.369571,-0.08444,0.141113,-0.554199,0.223145,-1.201277,7.59824,3.967702,0.006787,-0.603504,0.329659,0.014404,-0.564209,-0.331543,5.546474,6.577762,4.592207,0.350585,-0.640298,-0.51772,-0.321289,-0.411621,-0.42749
-7.507044,-3.365213,5.294125,0.384514,-0.546295,0.484688,0.509277,0.604492,-0.363281,-4.608166,8.785901,4.014184,-0.655274,0.043429,0.104268,0.124268,-0.480469,-0.424561,-4.130153,5.596882,-6.137031,-0.359942,0.361835,-0.074814,0.145264,-0.564453,0.218018,-1.536049,8.215882,4.125523,0.680934,-0.479266,0.36953,0.010254,-0.580566,-0.328857,5.091744,7.679704,5.180215,-0.4488,-0.6709,-0.352458,-0.322998,-0.416016,-0.429688
-6.326213,-5.178443,4.716988,0.270316,-0.770887,0.470685,0.50415,0.602539,-0.370361,-3.060994,6.968197,2.926826,0.349214,0.060241,0.29469,0.118164,-0.480713,-0.419922,-3.63131,5.991267,-6.88412,1.065232,0.022204,0.146085,0.152588,-0.547119,0.224854,-1.535386,9.411155,4.336183,0.536973,-0.709979,0.27992,0.01123,-0.576172,-0.326416,5.211284,5.929025,5.028949,-0.894757,-0.745079,-0.220101,-0.317139,-0.400391,-0.437012
-6.156628,-5.098462,4.843504,0.916315,-0.482573,0.578946,0.506836,0.590088,-0.388916,-3.297719,9.072067,3.212648,0.854281,0.245838,0.276011,0.116699,-0.487061,-0.408936,-2.836977,7.614206,-5.871909,0.896322,-0.019713,0.124792,0.149658,-0.547607,0.238281,-0.627333,9.152359,3.977768,-0.052232,-0.838439,0.174854,-0.002441,-0.583496,-0.326172,5.571113,5.298832,4.832667,-0.303687,-0.765298,-0.295953,-0.329834,-0.40918,-0.43042
-7.115742,-3.328911,5.811006,1.050509,-0.61565,0.786013,0.51709,0.572754,-0.408691,-3.350792,9.293864,3.70066,-0.434414,0.199017,0.336131,0.122803,-0.484131,-0.421631,-2.806103,7.792417,-5.242734,-0.229543,0.320772,-0.102282,0.14502,-0.54248,0.232422,-0.634768,7.975096,3.70115,-0.128061,-0.616472,0.281618,-0.014893,-0.577637,-0.327148,6.194245,6.595321,4.813869,-0.155739,-0.773659,-0.380591,-0.338867,-0.406494,-0.423584
-7.379629,-2.945655,6.192874,0.848789,-0.702644,0.825277,0.509766,0.547852,-0.415283,-3.741814,7.10622,2.982151,0.04494,0.087305,0.23802,0.114014,-0.494385,-0.407959,-3.68101,6.817171,-5.604081,-0.60148,0.321133,-0.202239,0.140381,-0.547363,0.224121,-1.285528,8.317659,3.963192,0.352193,-0.807843,0.367684,-0.032227,-0.579346,-0.325684,5.876505,6.990652,4.93369,-0.816427,-0.557482,-0.392341,-0.347656,-0.400146,-0.429932
-6.954422,-2.586706,6.310802,0.819387,-0.960962,0.896649,0.509766,0.536133,-0.428467,-2.989769,8.331202,3.070904,0.801541,0.074111,0.076661,0.115234,-0.496338,-0.39502,-3.247026,6.050863,-5.791396,-0.380278,0.002947,-0.12381,0.146484,-0.552002,0.218262,-0.388045,9.362105,4.039885,0.177994,-1.136333,0.386217,-0.041504,-0.584961,-0.322266,5.663772,6.06316,4.542667,-0.986123,-0.740382,-0.380602,-0.3479,-0.398193,-0.431885
-6.511661,-2.573176,6.223648,0.65948,-0.928973,0.91088,0.500244,0.510498,-0.437012,-3.234956,9.458127,3.447571,0.419255,0.241687,0.018486,0.11377,-0.50708,-0.384277,-2.928099,6.07006,-5.949025,0.140271,0.197875,0.021846,0.142578,-0.544434,0.226562,0.56464,9.146261,3.833602,-0.192288,-0.841428,0.392597,-0.054932,-0.577881,-0.318848,6.556193,5.79852,4.175485,-0.576022,-0.77271,-0.372641,-0.357178,-0.388672,-0.421387
-5.552382,-2.304056,6.440933,0.766936,-0.926702,0.88735,0.501465,0.498291,-0.455811,-3.62459,8.161238,2.540935,0.067298,0.236111,0.131219,0.119873,-0.501953,-0.383789,-3.601365,6.863477,-6.830919,0.610934,0.229795,0.048629,0.143066,-0.542236,0.236328,-0.311394,8.565121,3.895558,-0.090103,-0.583526,0.3945,-0.064453,-0.574951,-0.312744,5.845263,6.735652,4.406818,-0.392741,-0.480639,-0.398079,-0.356934,-0.390137,-0.418213
-6.144814,-2.146025,6.710697,0.756497,-0.696611,1.017824,0.505371,0.479736,-0.468994,-4.041696,8.751101,2.881233,0.473938,0.128303,0.282889,0.12085,-0.511475,-0.381104,-3.733945,8.308653,-6.621207,0.59699,-0.008913,0.001984,0.144043,-0.54541,0.240723,-0.788153,9.041192,3.986131,0.223968,-0.925068,0.323431,-0.079102,-0.582275,-0.3125,5.141651,6.86398,4.805938,-0.902651,-0.666337,-0.200898,-0.366211,-0.387695,-0.421875
-5.860562,-1.464229,6.781365,0.829883,-0.520307,0.961484,0.500244,0.457275,-0.475098,-3.905096,8.814728,2.889675,0.019453,0.067619,0.508626,0.110596,-0.515381,-0.375732,-3.530814,7.957043,-6.20903,-0.614663,0.2141,-0.170544,0.13916,-0.538574,0.236084,0.365591,9.391196,3.964602,0.055324,-0.99153,0.207777,-0.092773,-0.572266,-0.303223,5.905779,5.289043,4.178501,-1.013532,-0.782816,-0.229536,-0.380859,-0.36792,-0.414307
-6.605155,-2.117189,6.910015,0.742117,-0.542921,0.96061,0.496338,0.441895,-0.473633,-3.452363,9.05158,2.99894,-0.086088,0.058442,0.480584,0.098389,-0.51123,-0.370117,-3.800469,6.340033,-6.207853,-0.691432,0.217665,-0.191628,0.144775,-0.535156,0.216309,0.420853,8.851255,3.929745,-0.024337,-0.603383,0.179964,-0.095947,-0.568359,-0.314697,5.681675,4.704617,4.159271,-0.363417,-0.642744,-0.445031,-0.378174,-0.366455,-0.424316
-6.246372,-0.542855,7.689116,1.191362,-0.393125,0.949746,0.498535,0.415039,-0.48877,-3.358605,8.087694,3.052803,-0.477554,0.172503,0.505111,0.094727,-0.510986,-0.37793,-3.660169,5.660608,-5.562392,-0.058003,0.121452,0.009286,0.143311,-0.543213,0.227051,0.222112,8.538388,4.131976,0.255758,-0.749863,0.11337,-0.102295,-0.577393,-0.295654,5.820089,5.579042,4.31115,-0.073046,-0.897331,-0.572965,-0.382812,-0.378174,-0.399414
-6.919845,-0.401526,7.420581,0.562833,-0.504714,0.805554,0.496338,0.408447,-0.496094,-3.52096,8.064867,3.228906,0.303201,0.194572,0.327586,0.09375,-0.503662,-0.372803,-3.573363,6.028759,-5.920603,0.888059,0.149016,0.185184,0.132324,-0.533936,0.233398,0.775987,8.807758,3.799099,0.48611,-0.618534,0.143954,-0.118896,-0.576416,-0.294678,6.219768,6.112359,4.457082,-0.06476,-0.795831,-0.581142,-0.394043,-0.38208,-0.399658
-6.232563,-0.901917,7.005463,0.980859,-0.504219,0.862231,0.495605,0.377197,-0.501709,-3.267194,9.132057,2.950153,0.05664,0.161407,0.32679,0.090332,-0.516846,-0.366455,-3.376186,7.361603,-5.730349,0.904653,0.123824,0.167171,0.133301,-0.531006,0.237793,0.172697,9.290928,3.844521,0.412798,-0.49313,0.154069,-0.119629,-0.581543,-0.294189,5.672735,6.475437,4.505092,-0.151097,-0.753299,-0.672809,-0.394287,-0.388672,-0.396484
-6.343344,0.929376,7.659973,0.971172,-0.539775,0.926094,0.495361,0.354004,-0.519531,-3.326804,7.393767,2.373595,-0.112628,0.109185,0.19922,0.094238,-0.514893,-0.376709,-3.038197,7.181189,-6.182956,-0.0281,0.300664,0.13759,0.138428,-0.531738,0.244141,0.404924,8.88949,3.63003,0.245113,-0.711466,0.119351,-0.118652,-0.586426,-0.279541,5.801893,6.146696,4.417193,-0.262365,-0.93994,-0.561824,-0.393311,-0.394043,-0.379395
-5.951413,0.659271,7.511497,0.461699,-0.360174,0.922352,0.492676,0.335693,-0.521484,-3.452961,6.517461,2.105403,1.410092,0.091065,0.28036,0.087891,-0.531006,-0.352295,-3.618904,6.538057,-6.361537,0.126615,0.474225,0.029415,0.125732,-0.520264,0.250244,0.827735,8.744861,3.877129,0.458997,-0.585314,0.158057,-0.135742,-0.578125,-0.266357,5.906629,5.877703,4.383006,-0.135863,-0.842503,-0.750034,-0.40332,-0.39502,-0.368408
-6.01408,-0.257839,7.219285,0.849455,-0.492451,0.879332,0.483643,0.324219,-0.525635,-3.176756,11.858901,2.92309,1.988587,-0.074883,0.191412,0.080811,-0.541992,-0.321045,-3.656244,7.055223,-6.369765,0.612594,0.029627,0.074764,0.117676,-0.526367,0.256592,0.362938,9.456887,3.676444,0.502898,-0.600572,0.218273,-0.147705,-0.590576,-0.26123,5.927059,6.519083,3.689443,0.010107,-0.896629,-0.908824,-0.409424,-0.416016,-0.359131
-5.981532,1.628654,7.800726,0.83237,-0.309596,0.849334,0.477051,0.306152,-0.535889,-2.895435,12.055612,3.319759,-1.000732,0.118899,0.336434,0.071533,-0.529297,-0.34375,-2.897987,7.03798,-6.494107,-0.105607,0.207486,0.056379,0.117432,-0.523926,0.244141,1.025454,9.416152,3.519873,0.041238,-0.736628,0.192081,-0.155518,-0.587158,-0.267822,5.757756,6.818103,3.74219,-0.345201,-0.698153,-0.856845,-0.407959,-0.421387,-0.36084
-5.990233,0.462742,7.451686,0.505559,-0.490355,0.581471,0.478027,0.291748,-0.536377,-3.422099,6.777076,2.091581,-0.983842,0.11246,0.335495,0.072754,-0.522217,-0.351074,-3.53927,6.179838,-6.618199,-0.174625,0.446868,-0.041573,0.123047,-0.519287,0.253418,1.043901,8.398475,2.892203,0.151045,-0.36561,0.056241,-0.147949,-0.582275,-0.25293,4.788229,5.669795,3.190397,-0.372408,-0.724894,-0.862201,-0.397705,-0.421875,-0.345703
-5.598269,1.709497,7.8124,1.043859,-0.249126,0.529497,0.47168,0.272949,-0.552979,-2.981695,8.052683,2.226106,0.405243,0.193831,0.250326,0.064697,-0.526611,-0.355225,-3.424884,5.540554,-7.032787,0.384748,0.242452,0.167764,0.121338,-0.522949,0.252686,0.55509,8.553756,3.040189,0.939478,-0.515612,-0.055942,-0.149658,-0.591553,-0.244629,4.976686,5.243134,3.079798,0.309857,-0.972062,-0.841059,-0.395264,-0.439209,-0.334961
-5.514567,2.432739,7.919648,0.350021,-0.320457,0.553969,0.471436,0.254883,-0.544434,-2.780991,8.920629,2.117781,0.160638,0.081185,0.52251,0.064209,-0.537109,-0.338623,-2.639705,5.986376,-6.764804,1.382836,0.135048,0.340976,0.11084,-0.51123,0.270264,1.599929,9.659882,2.976983,1.049861,-0.603263,-0.26301,-0.15332,-0.5979,-0.227295,5.624603,5.994628,3.036773,0.722668,-0.966904,-0.888441,-0.398682,-0.454834,-0.31665
-5.617849,0.657284,7.281077,0.495571,-0.114988,0.543552,0.464355,0.241699,-0.542725,-2.681469,10.84952,3.151967,0.081393,0.067963,0.293687,0.053223,-0.53833,-0.335693,-2.525793,7.443095,-6.87976,1.610422,0.404357,0.184929,0.10791,-0.49585,0.293945,1.460822,9.28164,2.611792,0.394723,-0.176789,-0.226562,-0.148193,-0.60083,-0.217529,5.457496,6.838835,3.090566,0.528464,-0.780338,-0.957073,-0.392578,-0.470947,-0.296875
-5.882114,1.659187,7.801264,0.945091,-0.331037,0.692129,0.457764,0.22168,-0.549316,-2.737097,9.560431,2.462436,-1.165979,0.000239,0.536551,0.044189,-0.528076,-0.348145,-2.833931,7.297563,-6.878666,0.27978,0.508838,0.054091,0.105225,-0.500977,0.294434,0.374575,8.046545,2.405411,0.76501,-0.276648,-0.357012,-0.144287,-0.614014,-0.206787,4.554365,6.228844,2.922008,0.280235,-0.800614,-0.871616,-0.388428,-0.489502,-0.283203
-6.284366,2.178414,7.829264,0.550964,-0.284549,0.640289,0.469971,0.212158,-0.547607,-2.551395,7.517008,2.202026,-0.489313,0.050077,0.2013,0.056885,-0.515869,-0.354736,-2.764708,5.047836,-7.197601,-0.282875,0.546532,0.067694,0.102051,-0.501465,0.29126,0.644841,8.743927,1.846472,1.602688,-0.479119,-0.483297,-0.137451,-0.622803,-0.18457,4.331903,5.529662,2.325541,0.825062,-1.004138,-0.944559,-0.380615,-0.509277,-0.264404
-5.226282,0.83796,7.078248,0.727406,-0.566169,0.798395,0.449219,0.187988,-0.56543,-2.45373,7.89968,2.287291,0.556171,0.093669,0.331442,0.039551,-0.530518,-0.359131,-2.5125,3.803956,-7.872875,0.867009,0.412802,0.262462,0.093506,-0.493896,0.304688,0.679878,9.950729,1.525243,1.651587,-0.303915,-0.596139,-0.133545,-0.631348,-0.15918,4.408538,6.561882,2.116521,1.466716,-1.045971,-1.038795,-0.375488,-0.52832,-0.23291
-4.926646,2.708111,7.520013,1.387111,-0.388494,0.895714,0.443115,0.162109,-0.559082,-2.472051,8.940685,2.520108,0.754431,0.120352,0.241833,0.038818,-0.534912,-0.339355,-2.171883,4.331741,-8.417024,2.689297,0.581564,0.440835,0.084473,-0.46875,0.33374,0.318613,9.607946,2.022706,1.327455,-0.303504,-0.799859,-0.117676,-0.634277,-0.139893,4.359337,7.559415,1.855398,1.385224,-1.167194,-0.968227,-0.363281,-0.543457,-0.20166
-4.926797,4.439233,7.872668,0.603261,-0.299487,0.728923,0.436279,0.158691,-0.563721,-2.908194,9.136344,2.103061,0.802705,0.050421,0.616953,0.028564,-0.524658,-0.332031,-2.904639,6.49491,-8.272661,3.120482,0.689546,0.33802,0.067627,-0.44043,0.368164,0.020243,9.119412,1.291091,1.466912,-0.307471,-0.750029,-0.116699,-0.641113,-0.119629,4.563084,8.146034,1.335124,1.327574,-1.060092,-0.971352,-0.361816,-0.564209,-0.172607
-5.215468,1.91625,6.957003,0.222596,-0.308305,0.741881,0.432861,0.144775,-0.565186,-2.157523,12.077798,2.799938,0.323506,0.010297,0.376824,0.027832,-0.531738,-0.326172,-2.525187,7.498789,-7.710488,1.429533,0.264695,0.227998,0.062988,-0.423096,0.38501,-0.140405,9.66512,1.106281,1.523048,-0.428814,-0.757966,-0.105225,-0.643799,-0.092041,4.446109,9.06181,0.960863,1.299258,-1.013726,-0.903468,-0.351318,-0.576172,-0.140137
-4.483139,1.60666,7.045732,1.107384,-0.354307,0.765068,0.430664,0.108887,-0.563232,-2.798749,11.014306,2.674827,-1.674354,0.003062,0.555588,0.023682,-0.530029,-0.350098,-1.907861,5.498621,-7.968094,-0.172857,0.512134,-0.082862,0.066162,-0.426514,0.375977,-0.029006,10.003736,0.940566,1.183522,-0.349535,-0.664112,-0.090576,-0.646973,-0.081299,4.76423,9.688894,0.757942,0.980722,-0.992363,-0.688219,-0.335938,-0.58667,-0.119385
-5.482936,3.707168,7.737932,1.266988,-0.286742,0.847225,0.420166,0.093994,-0.565674,-1.614759,6.692873,2.279782,-1.539892,-0.164669,0.459367,0.012939,-0.509521,-0.368896,-2.554862,3.573633,-8.912146,-0.236295,0.499851,-0.079303,0.05957,-0.429688,0.378418,-0.693425,9.944328,0.591773,0.893871,-0.310262,-0.509917,-0.083008,-0.652832,-0.065918,4.678151,9.663987,0.716242,0.484658,-0.765822,-0.792743,-0.327148,-0.600342,-0.10376
-4.619767,4.614417,7.754241,0.832992,-0.512986,0.82424,0.406494,0.072266,-0.560059,-2.014434,6.704328,2.713849,0.555879,0.290533,0.497866,0.003906,-0.511963,-0.359619,-2.392826,3.126405,-7.980305,0.48196,-0.011747,0.133938,0.054688,-0.425781,0.380859,-0.652349,9.803198,0.082947,0.685733,-0.57767,-0.487114,-0.083252,-0.651855,-0.05249,4.004898,8.717787,0.057026,0.136457,-0.685407,-0.718562,-0.319824,-0.602295,-0.093506
-5.024878,3.04649,7.205619,0.624879,-0.509342,0.885743,0.392822,0.052246,-0.556885,-2.268944,9.15656,2.668889,1.183309,0.06156,0.429679,-0.003174,-0.5271,-0.338623,-1.582624,3.446791,-8.440543,1.679757,0.109394,0.135387,0.049805,-0.41748,0.398193,0.050601,9.325841,-0.112356,0.776945,-0.394296,-0.512743,-0.079346,-0.660889,-0.042236,4.008055,8.290488,-0.356185,0.708657,-0.820265,-0.674652,-0.312256,-0.62207,-0.07373
-3.476142,3.641715,7.032811,1.44932,-0.588898,0.910995,0.382324,0.030029,-0.554443,-1.612765,11.436313,2.678311,0.791892,0.1004,0.377572,-0.008057,-0.527344,-0.325684,-1.793775,4.516767,-9.078142,2.076102,0.405744,0.146816,0.047119,-0.386475,0.414551,-0.767337,9.830409,-0.419345,1.046257,-0.197688,-0.453876,-0.066406,-0.6521,-0.029785,4.385398,9.681474,0.079416,0.964876,-0.774854,-0.610418,-0.300537,-0.620605,-0.055908
-3.860104,5.653647,7.354784,1.121553,-0.467595,1.001557,0.370117,0.006592,-0.552002,-1.773101,12.411943,3.172099,-1.360596,0.082389,0.423574,-0.010986,-0.513672,-0.342529,-1.946326,5.498812,-8.606266,1.154082,0.159474,0.046779,0.047852,-0.37793,0.426025,-1.233476,10.794634,-0.410485,0.843629,-0.490209,-0.371768,-0.060059,-0.657715,-0.014893,4.232898,10.105819,0.032198,0.221557,-0.707056,-0.677881,-0.284912,-0.633545,-0.042725
-3.518407,4.176807,6.798595,0.840969,-0.411712,0.82088,0.356445,-0.015625,-0.553955,-1.715712,7.907082,2.541384,-2.451142,-0.031729,0.520209,-0.023682,-0.49585,-0.381592,-1.399209,4.664573,-8.825212,-0.258311,0.290185,-0.086871,0.042969,-0.378418,0.425293,-0.207135,10.329579,-0.895682,0.398516,-0.555542,-0.32113,-0.058105,-0.651611,-0.003418,4.15208,8.572604,-0.864887,-0.042661,-0.706384,-0.789561,-0.275391,-0.635254,-0.031738
-3.95884,5.991743,7.370947,1.518932,-0.609031,0.944812,0.345703,-0.047119,-0.543701,-1.000006,6.090001,2.381667,-0.324424,0.03886,0.43534,-0.020508,-0.497314,-0.381104,-1.565649,3.207559,-9.013061,-0.615208,0.400435,-0.002517,0.034912,-0.378174,0.417725,-0.511008,9.567293,-1.13449,0.644077,-0.15387,-0.342394,-0.05542,-0.645752,0.005615,3.620749,8.244092,-0.924438,0.682006,-0.712667,-0.906124,-0.262207,-0.635254,-0.017822
-2.841934,6.960716,7.449955,0.573935,-0.535463,0.775889,0.335449,-0.057373,-0.547363,-1.274243,10.435491,3.780296,0.379259,0.21342,0.300754,-0.022705,-0.496582,-0.377686,-1.581847,2.570103,-9.259596,0.168302,0.172434,0.081192,0.03833,-0.379395,0.424805,-1.145268,9.730056,-1.008997,0.84931,-0.393423,-0.309013,-0.043701,-0.650635,0.024414,3.583048,9.635957,-0.931725,0.925805,-0.765846,-0.956377,-0.236572,-0.650635,0.009277
-3.270756,4.526132,6.299464,0.597235,-0.616659,0.778192,0.316406,-0.078857,-0.541504,-1.760407,9.392503,3.077849,-0.99972,-0.056403,0.574498,-0.031982,-0.494141,-0.391846,-1.229341,2.704625,-9.195098,1.079711,0.277314,0.136989,0.032471,-0.369385,0.417725,-0.723524,9.953936,-1.124394,0.781519,-0.397748,-0.352913,-0.041504,-0.646973,0.021973,3.264965,10.129872,-0.885284,0.439296,-0.69263,-0.71172,-0.224365,-0.651123,0.006104
-2.567433,6.578757,6.885067,1.475701,-0.464769,0.857568,0.304443,-0.092041,-0.526855,-1.082335,8.076698,3.001621,-0.249429,-0.053076,0.316318,-0.036377,-0.479004,-0.390137,-1.353228,3.474277,-8.932881,1.785691,0.489821,0.066077,0.020508,-0.350342,0.442139,-1.007433,9.972411,-1.184358,0.648721,-0.242517,-0.272383,-0.041504,-0.646484,0.035889,3.367074,9.573613,-1.471108,0.348515,-0.710894,-0.784742,-0.2146,-0.658936,0.024902
-2.969362,8.44787,7.23737,0.637797,-0.545731,0.85119,0.278809,-0.114258,-0.52832,-1.62849,8.456344,3.371025,-0.266374,-0.092542,0.47113,-0.058105,-0.482178,-0.397217,-1.629689,4.246488,-8.460964,1.00632,0.477186,0.070668,0.01416,-0.338623,0.449707,-1.303988,9.683318,-1.551853,0.599988,-0.331594,-0.259842,-0.040039,-0.64917,0.047119,2.952112,9.46216,-1.65258,0.540085,-0.551776,-0.679066,-0.203857,-0.662598,0.040771
-2.142139,6.673781,6.755469,0.492618,-0.383826,0.711342,0.265381,-0.117676,-0.521729,-0.730446,8.039474,3.439384,0.264103,-0.177744,0.182079,-0.05835,-0.477295,-0.388428,-1.08284,3.762176,-8.924162,0.156699,0.292328,0.085915,0.020264,-0.336914,0.439209,-1.009857,9.394632,-1.781936,0.798914,-0.293374,-0.229707,-0.024658,-0.645508,0.049072,2.701424,9.652903,-1.784759,0.664377,-0.722414,-0.741422,-0.180176,-0.664307,0.044434
-2.780763,7.401063,7.131603,0.747585,-0.371263,0.661068,0.258789,-0.133057,-0.518799,-1.623528,9.889692,4.064256,0.215162,-0.105477,0.357139,-0.062012,-0.482666,-0.38916,-0.946455,3.169378,-9.589229,0.131537,0.622267,-0.140165,0.001221,-0.343506,0.443115,-1.134681,9.948976,-1.565309,0.914932,-0.228718,-0.117883,-0.034912,-0.654785,0.064697,3.128354,9.827035,-1.815814,0.496906,-0.593798,-0.692237,-0.175537,-0.677002,0.05957
-2.070703,7.124622,6.988523,0.348228,-0.365219,0.441766,0.243896,-0.141602,-0.511963,-0.421507,8.982533,3.589147,-0.437313,-0.384539,0.297194,-0.075684,-0.480225,-0.391846,-1.501589,2.782053,-9.130217,-0.134866,0.527507,0.013793,0.002197,-0.342773,0.444336,-1.246678,10.141389,-1.936181,0.508128,-0.191664,-0.193134,-0.022949,-0.648193,0.077637,2.254651,9.10574,-2.070257,0.196906,-0.412108,-0.771659,-0.151855,-0.67627,0.06958
-2.284392,6.236196,6.670308,0.659627,-0.400687,0.410914,0.237793,-0.159424,-0.492676,-0.400519,8.97833,3.712181,-0.178484,0.033575,0.375915,-0.07251,-0.483643,-0.377441,-0.950379,2.495127,-9.196589,0.053085,0.082501,0.029698,0.003174,-0.337891,0.445068,-1.102598,9.28033,-2.323156,0.43478,-0.204597,-0.123039,-0.018799,-0.642822,0.083252,2.244644,8.484336,-2.429799,0.509658,-0.633745,-0.900577,-0.133789,-0.676758,0.085205
-1.773798,8.094996,7.00631,0.86961,-0.389975,0.288584,0.230469,-0.166992,-0.493652,-0.740049,9.722179,3.832991,-0.473551,-0.137067,0.323152,-0.081299,-0.469971,-0.392578,-0.123014,2.431313,-9.467341,0.207081,0.370376,0.041368,-0.012939,-0.335449,0.445557,-0.980517,9.116123,-2.43272,0.818299,-0.116579,-0.155342,-0.030762,-0.640869,0.094727,2.269944,8.954433,-2.700611,0.798277,-0.439908,-1.015979,-0.128418,-0.675781,0.096924
-1.819987,7.809371,6.955259,0.255371,-0.377402,0.127241,0.223877,-0.168945,-0.492432,-0.342728,9.661108,3.848452,-1.117799,0.001834,0.399923,-0.086426,-0.453369,-0.4021,-0.677643,2.397651,-9.429555,0.661965,0.742157,0.114833,-0.017578,-0.325684,0.448975,-1.248686,9.545339,-2.142376,0.726578,-0.032793,-0.161386,-0.022461,-0.636963,0.103027,1.425012,9.390533,-2.293979,0.606917,-0.375946,-1.022412,-0.100586,-0.681152,0.108643
-1.198196,7.108432,6.722126,0.597182,-0.215733,0.130531,0.2146,-0.178955,-0.486328,-0.601531,6.897374,3.200842,-0.884131,-0.220574,0.529708,-0.099121,-0.444336,-0.414795,-0.979633,2.427647,-9.899084,0.716403,0.380374,0.03496,-0.016357,-0.316162,0.448975,-1.443749,8.861668,-2.426813,0.404649,-0.108161,-0.280256,-0.01123,-0.635742,0.107666,1.319613,8.850757,-2.250099,0.425135,-0.418515,-0.768944,-0.081787,-0.682373,0.112793
-1.938969,8.403726,6.886279,0.553054,-0.066526,0.093543,0.217773,-0.182861,-0.478027,0.138494,7.815177,3.453237,0.959889,-0.06506,0.405995,-0.099121,-0.450195,-0.399414,-0.240128,2.484477,-9.570993,0.569736,0.176999,0.242547,-0.027588,-0.313721,0.453125,-1.237594,8.307232,-2.866948,0.81054,-0.13159,-0.4474,-0.012451,-0.637695,0.119629,1.166373,8.399492,-2.888299,0.693969,-0.339601,-0.636396,-0.075928,-0.685303,0.126221
-1.914858,7.772534,6.453349,0.333326,-0.100752,0.125965,0.209717,-0.191895,-0.4729,-0.960852,11.515588,4.445518,0.533993,-0.132332,0.388316,-0.113525,-0.45752,-0.387939,-0.220345,2.467854,-9.02751,0.67835,0.511906,0.129175,-0.033691,-0.309326,0.456055,-1.558094,9.269114,-2.724611,1.165656,-0.014121,-0.410974,-0.006348,-0.633545,0.131348,1.052034,9.090352,-3.001062,1.02664,-0.373183,-0.632923,-0.061768,-0.684082,0.142822
-2.161214,7.471479,6.330625,0.50523,-0.057891,0.063212,0.215332,-0.208008,-0.468506,-0.085394,11.246018,4.18221,-1.276445,-0.249535,0.269219,-0.111328,-0.452393,-0.406982,-0.69412,2.352287,-9.015276,0.495353,0.628409,0.079826,-0.037842,-0.302734,0.465576,-1.899588,9.594913,-2.777758,0.671942,-0.026857,-0.442241,0.004639,-0.63501,0.150879,0.947157,9.410319,-3.219111,0.685401,-0.265311,-0.731673,-0.043213,-0.687744,0.1604
-1.948325,7.770817,6.450944,0.504131,-0.110598,0.099877,0.206543,-0.202393,-0.467773,-0.232554,8.008626,4.81678,-1.850277,-0.14079,0.35043,-0.119141,-0.420898,-0.433594,-0.811606,1.872264,-10.406428,0.283413,0.224533,0.239014,-0.046631,-0.290039,0.467773,-1.731976,8.509211,-3.230097,0.510848,0.012236,-0.41289,0.009277,-0.623291,0.156494,0.534955,8.855503,-3.33572,0.700149,-0.222096,-0.751778,-0.029297,-0.672607,0.173828
-1.97384,7.397965,5.923271,0.326258,-0.217294,0.093258,0.20166,-0.211914,-0.468994,0.060377,5.583367,4.041283,0.019074,-0.199801,0.351846,-0.125732,-0.419922,-0.434814,-0.079678,1.996145,-9.821146,0.50711,0.012755,0.035466,-0.050293,-0.277344,0.465576,-2.079753,8.731216,-3.265725,0.812628,0.050876,-0.394762,0.01001,-0.612549,0.162354,0.454513,9.393838,-3.170994,0.670829,-0.201702,-0.773028,-0.015381,-0.665771,0.177979
-1.614577,7.12868,5.856975,0.577497,-0.184413,0.285652,0.195801,-0.223145,-0.452393,-0.096547,9.38548,4.390077,1.259389,-0.079073,0.316815,-0.13208,-0.435059,-0.407959,0.067574,1.943806,-9.649149,0.265454,0.325445,0.129964,-0.053467,-0.290771,0.469727,-2.250785,8.950205,-3.161558,0.518007,-0.038207,-0.522732,0.022705,-0.623535,0.174316,0.026521,8.834434,-3.333187,0.296981,-0.089902,-0.609746,0.000977,-0.679688,0.185547
-2.172634,7.434681,6.266891,0.536938,-0.20198,0.32312,0.191162,-0.230225,-0.441895,0.005762,10.47805,4.694623,0.381443,-0.233052,0.351302,-0.136475,-0.43457,-0.399658,-0.523473,1.530221,-10.065153,0.214212,0.239766,0.251257,-0.054932,-0.2771,0.469238,-1.963591,8.073346,-3.450639,0.503279,-0.001555,-0.636135,0.031494,-0.609619,0.176514,0.126863,8.149836,-3.638404,0.681707,-0.152982,-0.465513,0.014404,-0.664551,0.195068
-1.616169,7.698961,5.594021,0.660014,-0.327487,0.280749,0.179199,-0.238525,-0.446045,0.133164,8.913931,3.860677,0.160363,-0.185715,0.384671,-0.147461,-0.435303,-0.407715,-0.388807,1.444694,-9.928819,0.522779,0.000622,0.112922,-0.057373,-0.272949,0.462646,-2.188286,8.196126,-3.625318,0.873853,-0.020932,-0.699802,0.042969,-0.607666,0.181641,0.226906,8.712811,-3.822259,0.80202,0.03853,-0.431076,0.023926,-0.664795,0.198242
-2.103213,7.98413,5.114106,0.533365,-0.398356,0.312692,0.171875,-0.247803,-0.436768,0.015093,7.329285,4.217509,1.250057,-0.349471,0.320234,-0.153076,-0.448486,-0.387695,-0.04601,1.636061,-8.648244,1.013857,0.026261,0.322473,-0.060059,-0.26001,0.471191,-2.035961,8.333073,-3.351973,0.701693,0.047329,-0.926489,0.054688,-0.599609,0.192383,-0.355009,8.370452,-3.688476,0.561133,0.043181,-0.120664,0.028564,-0.655518,0.209229
-0.39569,7.791991,5.505586,0.68379,-0.29232,0.731209,0.156494,-0.255127,-0.432617,0.645523,11.03947,2.908725,1.302836,-0.153286,-0.007039,-0.159912,-0.457031,-0.375977,0.294854,1.621703,-7.911683,0.781738,0.056529,0.249773,-0.071045,-0.246582,0.4729,-2.419689,6.920661,-4.145592,0.561164,0.218514,-1.036235,0.062012,-0.590576,0.197266,-0.217233,7.255107,-4.428125,0.918507,-0.042758,0.01631,0.026611,-0.648926,0.222168
-1.051629,7.063146,4.973072,0.635657,-0.313052,0.572782,0.131592,-0.260254,-0.415039,-0.099865,9.706601,3.547345,-0.72342,-0.36164,0.080557,-0.175537,-0.451416,-0.372803,0.389945,1.314614,-9.340885,0.930758,0.286469,0.131302,-0.062744,-0.242676,0.474121,-2.695875,6.950874,-4.422122,1.408506,0.09964,-0.924237,0.084961,-0.585205,0.211914,0.287487,8.467032,-4.611725,1.603495,-0.098406,-0.102243,0.048584,-0.644775,0.241455
-0.425575,7.81323,4.874943,0.908214,-0.134048,0.766527,0.135498,-0.271729,-0.408203,1.043872,7.17947,3.040156,0.140731,-0.445071,0.011282,-0.167236,-0.448975,-0.374512,-0.234957,1.041852,-9.748876,0.551093,0.244956,0.189563,-0.069824,-0.226318,0.47876,-2.981679,8.76659,-4.324517,1.226235,0.203063,-0.886029,0.093262,-0.570801,0.22998,0.070135,9.987044,-4.293066,0.997693,0.154985,-0.047158,0.046143,-0.631836,0.256104
-1.512664,8.333844,5.125873,0.550564,-0.376895,0.712091,0.123535,-0.282227,-0.393066,0.516561,9.125352,3.919662,0.660052,-0.118284,0.062117,-0.168701,-0.459961,-0.356934,-0.140245,0.800688,-9.229058,0.031975,-0.132288,0.231129,-0.073242,-0.237061,0.477539,-3.771108,8.374966,-5.177188,0.452272,0.341469,-0.898177,0.099609,-0.572998,0.233154,-0.591632,8.726941,-5.433333,0.427365,0.040415,-0.01826,0.046387,-0.634521,0.26001
-0.188487,5.56174,3.322957,0.690359,-0.500576,0.823326,0.101807,-0.288086,-0.387207,0.498558,9.093035,3.23602,0.435379,-0.274425,-0.051168,-0.175049,-0.460205,-0.354736,0.422517,0.42416,-9.81086,-0.138479,-0.154273,0.253736,-0.072021,-0.226074,0.473633,-3.982937,7.226354,-5.360345,0.772084,0.181492,-0.710767,0.109863,-0.552246,0.240234,-0.001177,8.393414,-5.366602,1.196445,-0.147408,-0.337025,0.060303,-0.617188,0.275146
0.291719,6.562054,3.631422,2.456608,-0.672814,1.193096,0.074219,-0.317139,-0.359619,0.581814,9.569645,3.052564,0.755886,-0.18079,-0.008029,-0.179688,-0.471924,-0.349854,0.421547,0.185559,-10.251477,0.228642,0.126049,0.110822,-0.078125,-0.238037,0.469727,-3.366827,8.07472,-5.021179,0.961361,0.052341,-0.54745,0.113037,-0.559814,0.248779,0.337218,9.933146,-4.800531,0.924787,0.029896,-0.514775,0.065674,-0.626709,0.282471
1.05027,11.145324,4.793986,1.797172,-0.312117,1.015874,0.063477,-0.32959,-0.32666,1.09498,10.973383,3.250079,0.058753,-0.335827,0.020425,-0.177979,-0.466309,-0.338867,0.28367,0.217507,-9.734282,0.516175,0.036511,0.130124,-0.074463,-0.218506,0.478516,-3.165233,7.9783,-5.413435,0.246083,0.293588,-0.621218,0.125244,-0.539062,0.255859,-0.296852,8.715598,-5.406004,-0.051821,0.133814,-0.328878,0.080322,-0.61084,0.286621
0.056597,8.580679,3.776928,0.667095,-0.56018,0.979881,0.036377,-0.32959,-0.324463,0.803133,10.770689,3.479029,-1.25247,-0.068907,0.119329,-0.187744,-0.450195,-0.361084,0.465756,0.334049,-9.28184,0.568316,0.004206,0.185947,-0.077637,-0.218262,0.474365,-3.931477,6.529397,-5.790487,0.356534,0.39624,-0.611514,0.126709,-0.542969,0.255615,-0.598489,6.969087,-5.876489,0.614173,-0.014292,-0.377505,0.084961,-0.616455,0.29126
1.271662,6.048462,2.372433,1.744607,-0.511352,1.212536,0.014648,-0.34375,-0.294189,0.413028,7.542594,3.162686,-1.402215,-0.191068,-0.01701,-0.187256,-0.441406,-0.371826,0.297828,0.101155,-9.996111,0.486355,0.225682,0.210624,-0.078369,-0.194824,0.473145,-3.992833,6.707221,-5.563552,1.072886,0.1506,-0.537396,0.138916,-0.512939,0.264404,-0.416083,8.345896,-5.473291,1.366132,-0.070685,-0.545442,0.104492,-0.587158,0.306641
2.012061,11.486858,3.626606,2.807726,-0.582714,1.427113,0.001221,-0.364746,-0.238525,0.815859,7.271273,3.160625,0.655198,-0.156563,0.014225,-0.178955,-0.450928,-0.35083,-0.078744,-0.059012,-10.717179,0.934975,0.103528,0.237702,-0.087402,-0.195312,0.473633,-3.584584,7.8886,-5.37394,0.873168,0.210271,-0.584936,0.136475,-0.515381,0.27002,-0.518585,9.18654,-5.022413,0.588924,0.034476,-0.421455,0.105713,-0.593506,0.307861
1.43975,12.647855,3.648241,0.420871,-0.154602,0.961477,-0.034912,-0.355957,-0.238525,0.476393,11.833229,4.491589,0.113324,-0.260276,-0.002689,-0.200928,-0.446045,-0.356934,0.421284,0.46224,-9.122394,1.064119,-0.089531,0.070061,-0.084473,-0.179443,0.467041,-3.858865,6.867765,-5.783319,0.110686,0.294117,-0.721092,0.145752,-0.509033,0.265137,-0.936152,7.09046,-5.780473,0.033218,0.069765,-0.30907,0.115967,-0.589111,0.298096
1.691046,8.720135,1.911493,0.945503,-0.424575,0.954577,-0.045898,-0.355957,-0.224365,1.073391,9.672327,3.877479,-2.066766,-0.280172,0.061071,-0.19751,-0.42627,-0.381348,0.878689,0.501047,-9.020009,0.765278,0.15871,0.20637,-0.087891,-0.174805,0.480225,-3.777726,4.881668,-6.212052,0.661278,0.242899,-0.780949,0.151367,-0.5,0.28125,-1.088021,5.892116,-6.28937,1.093365,-0.101387,-0.324954,0.126709,-0.581543,0.324707
2.220925,11.296871,2.352771,1.246353,-0.257448,0.897353,-0.061035,-0.355713,-0.204346,0.4341,5.701008,2.982234,-0.326462,-0.173968,-0.117568,-0.196289,-0.418945,-0.381592,-0.161574,-0.295087,-10.355993,0.019311,0.350481,0.324719,-0.087402,-0.17041,0.471436,-4.063907,5.916478,-6.180752,1.620767,0.362256,-0.722524,0.166504,-0.484131,0.287109,-0.914555,7.891924,-6.233779,1.739028,-0.14768,-0.432271,0.143311,-0.564453,0.334473
2.236168,9.494965,1.647745,0.583256,-0.381541,1.025324,-0.075684,-0.359619,-0.194824,0.871453,11.445841,4.357066,1.451862,-0.19625,-0.23377,-0.196777,-0.4375,-0.364258,-0.621094,-0.729627,-10.36295,0.23185,-0.234115,0.311017,-0.089111,-0.172363,0.469727,-4.454343,7.802792,-5.716323,1.062871,0.212351,-0.748513,0.172119,-0.47583,0.295898,-0.474804,9.189697,-6.08022,0.916859,-0.113601,-0.331917,0.149414,-0.562256,0.343018
3.075038,8.984392,1.116589,0.915344,-0.373423,1.076132,-0.099854,-0.357666,-0.171631,0.745055,12.895125,4.249707,-1.536552,-0.276366,-0.029088,-0.202881,-0.42334,-0.374023,0.603506,-0.443523,-8.534999,0.113015,-0.5818,0.211083,-0.081787,-0.160156,0.469971,-3.812434,6.290185,-6.415588,-0.146885,0.214433,-0.724954,0.177246,-0.460205,0.294434,-0.467959,7.788967,-6.760791,0.257611,0.085553,-0.339559,0.15918,-0.548584,0.344971
3.346009,9.783271,1.646283,1.309087,-0.264148,1.215578,-0.117432,-0.351318,-0.151855,1.125472,7.181342,3.169447,-2.161356,-0.146305,-0.365317,-0.195801,-0.402588,-0.399414,1.181343,-0.702545,-9.277504,-0.065225,-0.131653,0.341933,-0.078369,-0.166504,0.4646,-3.85386,4.14942,-7.124329,0.545614,0.442389,-0.539588,0.184082,-0.461426,0.295898,-0.741879,6.924761,-7.47313,0.836813,0.004643,-0.40268,0.171875,-0.544922,0.352539
3.062333,10.634273,2.017438,0.383373,-0.102996,1.102338,-0.137695,-0.346924,-0.147217,0.285992,5.771976,4.10344,-0.218509,-0.176723,-0.294062,-0.199707,-0.402832,-0.4021,0.081809,-1.114055,-10.131162,0.308412,0.289322,0.252169,-0.094727,-0.16748,0.460449,-4.435959,5.804993,-6.699997,1.344765,0.37444,-0.446484,0.174805,-0.45166,0.304688,-0.721946,7.911551,-7.094131,1.05951,0.086794,-0.382711,0.168457,-0.541748,0.359375
3.339098,6.595407,0.752136,0.343374,-0.264551,1.154859,-0.156982,-0.334229,-0.143799,1.142851,10.548289,5.390561,0.383678,-0.257574,-0.513674,-0.19873,-0.400879,-0.396973,-0.260016,-0.824453,-9.577912,0.848816,-0.122578,0.004402,-0.090332,-0.154297,0.455811,-4.310444,6.927188,-6.498506,0.346971,0.313707,-0.529383,0.181641,-0.442139,0.298828,-1.135359,8.101636,-6.799943,0.485677,0.194348,-0.249327,0.177002,-0.532471,0.361572
3.953424,7.910936,0.810127,1.726089,-0.2879,1.275565,-0.171143,-0.334717,-0.112793,1.051943,9.507073,4.742651,-2.036802,-0.105765,-0.093562,-0.192871,-0.390137,-0.417969,0.845566,-0.391842,-9.128846,0.570564,-0.3661,0.114963,-0.079834,-0.14502,0.460205,-3.83235,4.772675,-7.484771,-0.152232,0.33782,-0.503442,0.189941,-0.435303,0.30542,-0.582154,7.092446,-7.569123,0.451451,-0.009112,-0.125009,0.190186,-0.528564,0.371338
3.829401,10.641727,1.142132,0.944394,-0.303643,1.096267,-0.200195,-0.328613,-0.095947,1.021783,5.409708,4.275163,-1.382008,-0.139579,-0.288675,-0.205078,-0.376465,-0.424561,1.039516,-0.575632,-9.853172,0.175873,0.036376,0.271802,-0.080566,-0.140381,0.458984,-3.68376,4.361878,-7.533565,0.855823,0.393455,-0.356505,0.190918,-0.421387,0.306152,-0.036455,7.21626,-8.026076,0.81319,0.215109,-0.14521,0.193115,-0.515625,0.377441
4.361849,8.579954,0.21305,0.464501,-0.332679,0.969389,-0.211182,-0.324951,-0.090332,0.822771,6.792767,4.869291,0.365554,-0.060359,-0.033922,-0.200684,-0.385742,-0.424805,0.05178,-0.928277,-9.75432,0.070416,0.112574,0.2011,-0.088135,-0.146484,0.449219,-3.787871,6.055582,-7.258929,0.72446,0.455229,-0.367652,0.189941,-0.41748,0.308838,-0.853924,7.474968,-7.982643,0.511788,0.411617,0.028929,0.183594,-0.519043,0.379883
4.919801,7.59875,-0.094828,0.731646,-0.393514,1.117155,-0.230713,-0.301025,-0.076172,0.855453,10.406494,5.612399,0.21865,-0.097047,-0.281926,-0.200928,-0.374756,-0.42041,-0.057036,-1.049916,-9.29861,0.017625,-0.3017,0.247381,-0.089111,-0.149902,0.440918,-4.020326,5.199506,-7.58872,-0.081816,0.602448,-0.464587,0.188232,-0.418945,0.302979,-0.967095,6.538488,-8.147342,0.466839,0.245103,0.227302,0.181885,-0.522461,0.379883
4.81238,7.16565,-0.512259,1.401627,-0.425611,1.310505,-0.25293,-0.290283,-0.052979,0.629254,10.988892,5.403975,-1.712921,0.077346,-0.154398,-0.201416,-0.36084,-0.438232,0.692721,-1.009081,-8.910316,0.044098,-0.249287,0.213985,-0.083008,-0.143799,0.443115,-4.191887,3.872994,-7.835389,0.488114,0.576876,-0.349742,0.190674,-0.405518,0.310303,-0.373445,6.613859,-8.054966,1.024273,0.254077,0.147298,0.182373,-0.507568,0.397949
4.919081,9.663155,0.023325,1.406337,-0.257981,1.198224,-0.26123,-0.280029,-0.033447,0.374314,6.069905,4.259121,-2.875262,-0.112876,-0.263047,-0.19043,-0.325439,-0.461182,0.736913,-1.157302,-9.963837,0.211594,0.166358,0.136306,-0.090088,-0.136963,0.439209,-3.816873,5.213382,-7.724055,1.035691,0.451969,-0.257032,0.186768,-0.389404,0.316406,-0.172707,7.706152,-7.956613,0.963692,0.341169,0.176099,0.170654,-0.496338,0.411865
4.895337,8.887019,-0.442699,0.764578,-0.203517,0.864926,-0.278809,-0.273682,-0.025879,0.706051,3.235446,4.708415,-0.400847,-0.239061,-0.080307,-0.203369,-0.32373,-0.461426,0.024328,-1.277537,-10.61429,0.421313,0.191706,0.194067,-0.0896,-0.128906,0.429443,-3.324524,5.753894,-7.523103,0.199628,0.603664,-0.313437,0.193359,-0.387207,0.315186,-0.171372,7.067083,-8.13534,0.285549,0.470786,0.432933,0.166748,-0.494629,0.410156
5.330049,8.404211,-0.59721,0.785125,-0.138866,0.819286,-0.295166,-0.254639,-0.015625,0.651196,8.383653,6.354681,1.056673,-0.196677,-0.169675,-0.204834,-0.329346,-0.453857,0.025269,-0.70012,-8.88652,0.407716,-0.078666,0.061736,-0.085449,-0.126465,0.428955,-3.882851,4.27749,-8.113979,-0.045655,0.823209,-0.333738,0.19165,-0.380859,0.315186,-0.270643,5.877899,-8.542155,0.578162,0.446948,0.4736,0.158691,-0.491699,0.421387
5.191152,9.631436,-0.527343,1.003273,-0.227599,0.754085,-0.306152,-0.249512,0.003662,0.594436,9.302019,6.475582,-1.179243,-0.130156,-0.059565,-0.208496,-0.320312,-0.455078,0.451339,-0.564009,-8.275977,-0.042125,-0.032192,0.181828,-0.084229,-0.132324,0.426758,-4.133924,4.141543,-8.416638,0.557867,0.62754,-0.129306,0.19458,-0.383301,0.321045,0.273185,6.779788,-8.658004,1.058395,0.466483,0.290106,0.151611,-0.491211,0.436035
4.886819,8.499677,-1.254524,0.276528,-0.310333,0.669977,-0.316162,-0.23584,0.01123,0.429512,5.189166,5.270861,-1.221243,-0.033221,-0.200134,-0.208984,-0.301025,-0.46167,0.366228,-1.046411,-9.787079,-0.266637,0.168736,0.185942,-0.088867,-0.140869,0.41748,-3.461706,5.203158,-8.050018,0.582422,0.614489,-0.111631,0.192383,-0.37793,0.324463,0.087965,7.37998,-8.694771,0.625087,0.530621,0.402869,0.139893,-0.490234,0.442871
5.946643,6.936333,-2.067702,0.941597,-0.339946,0.502992,-0.324463,-0.242676,0.017334,0.789494,6.127387,5.775375,0.694762,-0.067219,-0.105778,-0.21167,-0.31958,-0.461426,0.144838,-1.520421,-10.70917,-0.432031,0.209829,0.146356,-0.088867,-0.137939,0.412354,-2.924864,4.891657,-8.405107,0.028819,0.837209,-0.091637,0.19165,-0.369873,0.330078,0.684133,5.936208,-8.839759,0.333271,0.52522,0.524109,0.126953,-0.483643,0.458252
5.791138,8.756721,-1.605706,1.13347,-0.384558,0.507736,-0.336914,-0.223877,0.032715,0.537051,10.009049,7.164192,0.449764,-0.12129,-0.009578,-0.216797,-0.313721,-0.455566,-0.00369,-1.498382,-10.479804,-0.085683,-0.078741,0.288849,-0.093994,-0.141846,0.398193,-3.614062,4.402057,-8.097339,0.056891,0.943398,-0.033078,0.183838,-0.372314,0.324951,0.539911,5.985752,-8.314896,0.851782,0.762427,0.443425,0.109619,-0.477783,0.459717
6.487638,8.575317,-1.861765,0.896008,-0.281222,0.432628,-0.334961,-0.221436,0.050537,0.806715,8.872389,6.13709,-0.825493,-0.130898,0.117283,-0.213379,-0.306396,-0.453613,0.385254,-1.047843,-8.977901,0.02302,-0.137637,0.109475,-0.093994,-0.141602,0.395752,-3.563128,4.643877,-8.378057,-0.017514,0.638104,0.007419,0.178711,-0.368652,0.326904,0.324864,6.883292,-8.010966,0.445361,0.731217,0.461544,0.090576,-0.479004,0.469971
5.794544,7.987548,-2.34544,0.641159,-0.490642,0.591058,-0.344482,-0.208252,0.060059,0.236481,6.478894,6.471278,-1.141715,0.109573,-0.146799,-0.212646,-0.288818,-0.463135,0.402558,-1.007807,-9.382764,-0.216506,0.184964,0.186364,-0.092529,-0.139404,0.389404,-2.902229,4.224213,-8.147728,-0.218014,0.764839,0.049663,0.180664,-0.366455,0.328369,0.599946,5.782776,-8.570721,0.003105,0.703624,0.599174,0.077393,-0.476562,0.474121
6.54629,8.068731,-2.42347,1.165434,-0.275608,0.472907,-0.357422,-0.205322,0.071777,0.585794,4.926676,5.87536,0.576253,-0.105357,-0.026233,-0.219238,-0.297607,-0.459717,-0.271072,-1.275655,-10.563985,-0.029602,0.119777,0.298968,-0.085449,-0.14209,0.385986,-2.949663,3.918304,-8.539455,0.043415,0.804307,0.096259,0.180908,-0.370605,0.329834,0.636244,4.624521,-8.273724,0.430554,0.728748,0.482939,0.067139,-0.474854,0.481445
5.210758,9.979508,-1.658387,0.742368,-0.367098,0.240978,-0.353271,-0.195312,0.086914,0.931921,9.952394,6.565464,1.012611,0.068335,-0.234142,-0.212158,-0.303223,-0.442383,0.406785,-0.815817,-9.725602,0.173697,-0.25745,0.011875,-0.093994,-0.142334,0.38208,-2.620444,4.70134,-8.254266,0.060378,0.633137,0.026445,0.172363,-0.365479,0.337891,0.965716,5.750202,-8.028534,0.783317,0.672114,0.576868,0.040527,-0.467529,0.499023
6.148432,8.006117,-2.540254,-0.255934,-0.38918,0.063185,-0.358887,-0.1875,0.089111,-0.111409,9.759191,6.682539,-1.57547,-0.102634,0.114162,-0.217773,-0.278809,-0.453613,0.829205,-0.591468,-10.002361,-0.102345,0.131063,0.14046,-0.093018,-0.142578,0.368652,-2.41245,4.647166,-8.330356,-0.308005,0.81527,0.044174,0.169922,-0.367676,0.333252,1.443143,6.292805,-8.282026,0.265194,0.744094,0.686525,0.023438,-0.464844,0.494873
6.250057,6.054659,-3.235777,0.395764,-0.489902,0.171743,-0.365967,-0.191162,0.098145,0.751809,6.44489,5.842683,-1.201477,-0.305078,-0.248922,-0.223633,-0.271484,-0.460693,-0.291241,-0.664103,-9.786246,-0.234277,0.18599,0.290741,-0.082764,-0.147217,0.36084,-3.014622,4.482372,-8.470304,-0.199469,0.683125,0.0767,0.178467,-0.368652,0.333496,1.427437,5.498454,-8.107426,0.125961,0.772752,0.73163,0.016357,-0.465088,0.499023
7.885919,5.586419,-4.118572,1.187012,-0.351399,0.115479,-0.368652,-0.186035,0.114502,1.547346,7.364435,7.288384,-0.536356,-0.014235,-0.134827,-0.220703,-0.261963,-0.459717,0.182448,-0.559899,-9.894155,-0.535146,-0.386661,-0.01249,-0.08667,-0.153564,0.346191,-1.553504,4.926211,-7.891885,-0.315714,0.295688,0.073519,0.17041,-0.373779,0.323975,2.649901,5.669016,-8.341293,0.26758,0.731875,0.882903,-0.014648,-0.461182,0.496826
6.043674,9.510988,-2.542318,1.552355,-0.188024,0.286619,-0.367676,-0.17749,0.125977,0.366464,8.002831,7.379844,-0.880138,-0.026675,-0.25709,-0.218018,-0.249512,-0.465576,1.001023,-0.315469,-8.917353,-0.67749,-0.226004,0.245835,-0.079834,-0.159424,0.341797,-1.349528,4.953815,-8.167227,-0.69215,0.861304,0.166225,0.171631,-0.376465,0.324463,2.393745,5.994974,-8.186855,-0.022686,1.179412,1.00338,-0.038818,-0.460938,0.49707
6.674495,9.581176,-3.060688,0.220858,-0.259573,-0.053476,-0.37793,-0.175293,0.135498,1.129561,6.961091,6.952233,-1.406628,0.114525,-0.174394,-0.223145,-0.232422,-0.471924,0.305525,-0.665155,-10.084075,-0.987406,0.176267,0.235934,-0.079102,-0.168701,0.326904,-2.700638,4.778926,-8.54622,-0.765009,0.673609,0.187023,0.168213,-0.38208,0.318359,2.473721,5.724278,-8.604667,-0.195708,1.011982,1.17398,-0.067383,-0.4646,0.493164
5.759929,7.982627,-3.437966,0.082176,-0.297013,0.018003,-0.38623,-0.173828,0.121826,-0.115419,7.034443,7.468181,-0.483262,0.153553,-0.307036,-0.226074,-0.226318,-0.488525,-0.449156,-0.889062,-10.886972,-0.730992,-0.045172,0.140739,-0.079834,-0.183105,0.323975,-1.842978,5.044292,-8.665173,-0.612177,0.320428,0.208776,0.17041,-0.393066,0.321777,2.676268,5.580478,-8.620516,-0.110116,1.226731,1.319115,-0.098633,-0.465332,0.494385
6.765468,6.317962,-3.747697,0.435698,-0.345288,-0.128644,-0.373291,-0.169678,0.137695,0.221746,9.357824,8.429459,-1.428261,-0.06581,-0.254202,-0.215088,-0.203125,-0.486084,-0.291641,-0.533497,-10.793341,-0.122498,-0.2863,0.215424,-0.081299,-0.173584,0.30957,-1.541935,5.687959,-8.564078,-0.601101,0.68072,0.119733,0.159668,-0.391357,0.31543,2.423717,5.495015,-8.303687,-0.110249,1.119667,1.490851,-0.137695,-0.453369,0.483887
6.114835,7.594422,-3.292191,0.960237,-0.207084,-0.034234,-0.38208,-0.175781,0.143311,0.294464,4.517647,7.588811,-2.380204,-0.086517,-0.195086,-0.222412,-0.179932,-0.502197,0.253186,0.155112,-9.970896,0.173415,-0.242216,0.11393,-0.077393,-0.166748,0.311768,-2.117343,5.852499,-8.123642,-0.78083,0.563544,0.101818,0.164062,-0.386475,0.320312,3.995798,5.253482,-8.00711,-0.010392,0.935362,1.653399,-0.166504,-0.437012,0.488037
6.404975,7.834004,-3.713221,0.522402,-0.064795,-0.134606,-0.377197,-0.16626,0.157959,0.298721,3.036241,7.010303,0.000209,0.063996,-0.345851,-0.211914,-0.170654,-0.486572,0.15824,0.50012,-9.937809,-0.243994,0.053283,0.170534,-0.07251,-0.171875,0.300049,-1.694752,5.551715,-8.595503,-0.860997,0.414847,0.13776,0.165771,-0.396973,0.3125,3.898545,5.441579,-7.879821,-0.009364,1.404775,1.595457,-0.200684,-0.432861,0.473877
5.599043,9.042104,-3.443396,0.260748,-0.040394,-0.235493,-0.375488,-0.174805,0.157959,-0.221278,8.559409,9.124173,0.224856,0.121449,-0.41015,-0.213379,-0.182129,-0.489502,-0.567161,0.428494,-10.336116,-0.638332,0.080617,0.275835,-0.064941,-0.171387,0.296143,-1.575349,6.010696,-8.345192,-0.488185,0.49894,0.178888,0.168213,-0.396973,0.318604,4.272849,5.202751,-7.838594,-0.210192,0.918014,1.725571,-0.22583,-0.416504,0.475342
5.897591,7.606402,-3.56794,-0.33212,-0.038643,-0.260122,-0.375488,-0.177979,0.153076,-0.196741,8.605455,8.764096,-1.909907,-0.031212,-0.203795,-0.212646,-0.154541,-0.499023,-0.668819,0.376643,-10.60749,-0.641471,-0.190338,0.226952,-0.065186,-0.182373,0.287598,-1.640029,6.88047,-8.027708,-0.609787,0.482978,0.191917,0.165283,-0.413818,0.316406,5.371088,4.273433,-7.691187,-0.144968,1.235433,1.674267,-0.258301,-0.414307,0.460205
6.088843,6.527863,-4.128323,0.025525,-0.243098,-0.105451,-0.378662,-0.179688,0.1521,-0.059582,5.690553,8.842527,-2.68426,0.033629,-0.370983,-0.213623,-0.124756,-0.510498,-0.268721,0.435273,-10.629025,-0.743637,-0.193241,0.277483,-0.062256,-0.184326,0.279785,-1.692559,6.664177,-8.272828,-0.957915,0.490609,0.123068,0.16333,-0.413086,0.309814,4.485426,4.335502,-7.109582,0.116961,1.120755,1.509813,-0.289795,-0.390625,0.450684
6.070142,7.809988,-3.786392,0.391505,0.045645,-0.023282,-0.380371,-0.18457,0.160645,-0.398421,2.995363,8.401367,-1.721872,0.067161,-0.219759,-0.212158,-0.106689,-0.509033,-0.359779,0.38642,-10.841795,-0.720991,-0.060439,0.351268,-0.056641,-0.184082,0.269775,-1.629926,6.192306,-8.088684,-0.76925,0.342849,0.222762,0.161621,-0.416748,0.305664,6.035082,4.31164,-6.896169,-0.161306,0.899513,1.487025,-0.313477,-0.375,0.44165
5.688937,7.897843,-3.718244,-0.145866,-0.023328,-0.193028,-0.374268,-0.177979,0.1521,-0.658034,4.706892,9.07916,-0.440674,0.013794,-0.429173,-0.208252,-0.095459,-0.515869,-0.815639,0.387558,-10.754407,-0.583727,-0.012734,0.29689,-0.052979,-0.196289,0.270508,-1.511526,6.543878,-8.027434,-0.59201,0.342894,0.141499,0.162842,-0.429443,0.311279,5.196165,3.450815,-6.867543,-0.229718,1.26227,1.280517,-0.335693,-0.37207,0.431152
5.657889,5.95586,-4.257004,0.046155,0.202009,-0.081751,-0.378418,-0.182129,0.147217,-0.676358,6.394364,9.614912,-1.478489,-0.10228,-0.355606,-0.209473,-0.077881,-0.515869,-0.810964,0.631884,-10.359283,-0.067533,-0.196714,0.290765,-0.054688,-0.186523,0.264648,-1.553379,6.819113,-7.71723,-0.647075,0.293589,0.141939,0.158447,-0.429932,0.304443,5.379687,3.363178,-6.576392,0.084129,0.626638,1.204571,-0.358398,-0.353027,0.42041
5.854823,6.927797,-4.03431,0.610028,0.188593,-0.122709,-0.37207,-0.180664,0.151611,-0.404558,4.100734,8.744809,-2.06869,-0.138131,-0.469868,-0.202148,-0.051758,-0.52002,-0.415467,0.93897,-10.125237,0.059283,-0.098117,0.193497,-0.053955,-0.18335,0.257568,-1.177979,6.532899,-7.560502,-0.677657,0.215729,0.094804,0.156006,-0.435547,0.298828,6.860996,3.313933,-6.711105,-0.023888,0.77935,1.072658,-0.380615,-0.337646,0.407471
5.573566,8.098785,-3.950054,0.314089,0.361495,-0.139894,-0.374023,-0.18042,0.149414,-0.399728,4.287752,9.51934,-1.616024,-0.05174,-0.468291,-0.205566,-0.033203,-0.519531,-0.701274,1.020673,-10.260351,-0.309325,0.037937,0.373906,-0.056885,-0.188721,0.266602,-1.019294,6.651202,-7.36406,-0.399938,0.361632,0.126342,0.151611,-0.442871,0.309326,6.376635,3.224609,-6.502506,0.109586,0.814655,0.929465,-0.398926,-0.331055,0.406738
6.11361,6.863994,-4.014138,0.018191,0.291267,-0.085519,-0.377197,-0.174561,0.146484,-0.188397,3.580076,9.482875,-2.311901,-0.100842,-0.364499,-0.20874,0.002197,-0.518066,-0.941442,1.045001,-9.634433,-0.596808,-0.266085,0.471678,-0.048584,-0.187988,0.263672,-1.314384,7.40865,-7.032624,-0.504481,0.240997,0.186012,0.1521,-0.443848,0.310547,7.266224,3.386224,-6.015807,0.046249,0.641677,0.910453,-0.407227,-0.312744,0.404053
5.62615,6.415605,-4.350284,0.61728,0.319006,-0.017604,-0.381104,-0.184326,0.136963,0.085932,0.543146,8.574226,-1.662084,0.070285,-0.492578,-0.212646,0.011719,-0.53125,-0.057897,1.188298,-9.073416,-0.748437,-0.3952,0.292487,-0.05249,-0.197266,0.250977,-0.732263,6.947704,-7.088634,-1.025742,0.09219,0.151759,0.14502,-0.45874,0.294678,7.007337,3.097316,-5.934303,-0.26566,0.995698,0.803848,-0.430176,-0.311279,0.376709
5.365453,8.431431,-3.727809,0.450664,0.353449,-0.05415,-0.372803,-0.180908,0.137939,-0.577905,2.646218,9.234869,-0.594565,0.236725,-0.581435,-0.199707,0.020264,-0.524414,0.047354,1.082664,-9.333076,-0.896897,0.148938,0.395248,-0.052979,-0.192871,0.250488,-0.68124,5.914711,-7.192051,-0.772466,0.258732,0.279586,0.140137,-0.457275,0.296875,6.594712,2.307996,-6.193811,-0.255649,0.691946,0.79742,-0.44165,-0.294189,0.37085
5.694288,7.243815,-4.061398,-0.094575,0.181511,-0.166509,-0.381592,-0.175537,0.128906,-0.244738,3.060258,9.801463,-1.671253,0.070366,-0.465715,-0.205566,0.047363,-0.530518,-1.036898,0.788648,-9.513002,-0.83179,0.204506,0.477252,-0.049561,-0.201904,0.24707,-0.738292,6.618396,-6.828392,-0.180332,0.116254,0.245614,0.143066,-0.465088,0.300049,7.382081,2.195559,-6.381618,0.098761,0.625268,0.676096,-0.450439,-0.286865,0.365967
5.778187,6.821465,-3.921676,0.182614,0.275661,-0.053995,-0.369629,-0.17334,0.129883,0.008618,2.795646,9.522358,-1.52999,0.294288,-0.379118,-0.193848,0.067871,-0.523926,-0.842758,0.710655,-9.743842,-0.501142,-0.385555,0.500414,-0.049805,-0.203857,0.241211,0.210591,7.562903,-6.555846,-0.38034,0.25065,0.262247,0.136475,-0.46875,0.295654,7.31517,2.418013,-6.061313,0.15241,0.649128,0.730796,-0.463379,-0.273438,0.356689
5.675966,7.527843,-3.947079,0.170101,0.230626,-0.16354,-0.37085,-0.173828,0.121582,-0.650508,2.256412,9.318218,-2.915281,0.248847,-0.344928,-0.191162,0.111084,-0.523926,0.234428,0.969767,-9.504278,-0.128589,-0.317503,0.587669,-0.056152,-0.206543,0.23877,-0.630722,7.103746,-7.191011,-0.768832,0.58813,0.272292,0.121094,-0.479736,0.295654,7.579702,2.333002,-5.772181,0.108696,0.588592,0.669531,-0.481445,-0.26709,0.348389
4.576108,7.354872,-3.589011,-0.102402,0.314477,-0.250372,-0.369873,-0.174316,0.118408,-0.57382,-2.217867,8.409195,-2.144863,0.292341,-0.344175,-0.189453,0.140381,-0.516846,-0.019233,1.144592,-10.032378,0.426094,0.336628,0.454919,-0.052979,-0.192871,0.240723,-1.079925,6.600037,-6.76192,-0.456087,0.136631,0.286558,0.125,-0.475586,0.298096,7.501855,2.338786,-5.718126,0.047009,0.701928,0.609664,-0.484131,-0.244873,0.343018
5.252038,6.5156,-3.840671,0.099788,0.12094,-0.322806,-0.366211,-0.18335,0.127686,-1.355592,-0.930501,9.801203,-0.7107,0.251222,-0.36405,-0.186035,0.143555,-0.505859,-1.103897,1.328417,-10.491151,0.758825,0.304046,0.474551,-0.05542,-0.181885,0.233643,0.198899,7.401044,-6.880193,-0.157037,0.121486,0.244378,0.121338,-0.469971,0.288818,7.134459,1.902515,-5.703641,-0.036051,0.557192,0.621728,-0.495117,-0.232422,0.32666
4.92268,7.245872,-3.578631,0.209302,0.171118,-0.378341,-0.36499,-0.193848,0.114502,-0.945044,0.47517,9.651421,-0.813545,-0.136692,-0.331137,-0.191162,0.149658,-0.512695,-0.948157,1.748465,-9.843764,0.808149,-0.232939,0.54328,-0.05127,-0.187988,0.241699,-0.395303,7.96114,-6.556476,-0.467104,0.491881,0.197635,0.116699,-0.489014,0.290771,7.928662,1.683025,-5.379004,0.137163,0.467206,0.522341,-0.501953,-0.236816,0.323486
5.914019,8.01998,-3.737073,0.065939,0.166329,-0.363619,-0.364746,-0.189941,0.119629,-0.37765,-0.133871,9.366373,-1.282024,0.154221,-0.229854,-0.194824,0.171875,-0.500977,0.070377,2.117963,-9.159855,0.1773,-0.162574,0.418135,-0.057373,-0.180664,0.242676,-0.846621,7.295631,-6.549088,-0.74769,0.111111,0.203894,0.111328,-0.489014,0.285889,8.139439,2.061263,-5.252687,0.129811,0.561757,0.417486,-0.51123,-0.218262,0.313721
5.145156,7.323957,-4.072877,-0.251881,0.222401,-0.513307,-0.350342,-0.208252,0.108154,-1.129439,-0.631521,9.805221,-1.109677,0.070489,-0.469333,-0.185791,0.176025,-0.499756,-0.146157,1.975163,-9.894134,-0.400365,0.215095,0.495687,-0.057861,-0.18457,0.252197,0.408998,6.897743,-6.688503,-0.394755,0.009231,0.248447,0.108887,-0.494385,0.301514,7.983475,1.894523,-5.385486,-0.15229,0.62037,0.39538,-0.521729,-0.214844,0.318604
5.730892,6.255239,-3.948232,-0.043252,0.249228,-0.486965,-0.344971,-0.208984,0.101562,-0.617079,-2.495841,9.584942,-1.110971,0.065448,-0.288298,-0.188721,0.192383,-0.494873,-0.912967,1.721246,-9.756002,-0.734051,0.124486,0.445851,-0.063477,-0.181152,0.235107,0.068753,7.766065,-6.465324,-0.228923,0.352362,0.241658,0.096436,-0.492432,0.286377,7.868518,1.407777,-5.59549,-0.03152,0.537749,0.404843,-0.53125,-0.204834,0.296387
4.964807,7.556984,-3.725349,0.466995,0.237284,-0.433151,-0.347412,-0.214355,0.111328,-0.970556,-3.312353,9.036935,0.568034,0.101812,-0.522485,-0.194092,0.18457,-0.489502,-0.589089,1.695337,-9.369623,-0.710762,-0.217014,0.363595,-0.055908,-0.192139,0.239258,-0.299014,7.836006,-6.09497,-0.62763,0.180809,0.174161,0.0979,-0.508301,0.291016,7.994044,1.426113,-5.30497,0.097887,0.49588,0.352188,-0.530029,-0.203857,0.299805
5.49064,8.358029,-3.899451,-0.038054,0.146823,-0.426134,-0.337402,-0.21582,0.104492,-0.908023,2.052224,11.171178,0.686103,0.194429,-0.366981,-0.187012,0.177246,-0.496826,-0.361535,1.460489,-9.808753,-0.994019,-0.032989,0.514074,-0.05835,-0.195557,0.239746,0.320318,6.973107,-6.30374,-0.537165,0.252832,0.203711,0.093018,-0.512695,0.292969,8.322995,1.420202,-5.193218,0.155469,0.387706,0.282334,-0.534668,-0.199463,0.295166
5.616258,7.912133,-4.221268,0.128446,0.180813,-0.315552,-0.329346,-0.227539,0.091797,-1.044579,0.277518,9.930036,-1.752408,0.06225,-0.211537,-0.184326,0.191895,-0.496582,-0.80619,1.19721,-9.709688,-0.726477,-0.040207,0.588254,-0.05957,-0.195068,0.232666,-0.282498,7.590074,-5.943106,-0.020738,0.401597,0.24212,0.090088,-0.510254,0.293213,8.118087,1.55541,-4.640438,0.157203,0.589906,0.172022,-0.540283,-0.189941,0.28418
4.888734,8.337129,-3.698569,-0.387177,0.305066,-0.585893,-0.325684,-0.236572,0.088379,-0.70667,-2.836927,8.767757,-0.505526,0.242543,-0.449865,-0.185547,0.197754,-0.489502,-0.401212,1.358717,-9.778976,0.197866,-0.202164,0.376786,-0.060791,-0.185059,0.228516,-0.101531,8.527959,-5.753281,-0.42159,0.044782,0.147236,0.085938,-0.508057,0.28418,7.972118,1.696708,-4.634874,0.083167,0.432469,0.152602,-0.545654,-0.178467,0.272705
4.608607,7.559947,-3.524357,-0.196537,0.287326,-0.625731,-0.320068,-0.242676,0.081543,-1.392594,-2.180642,9.435288,-0.421277,0.183491,-0.55575,-0.191895,0.199707,-0.489014,0.106587,1.879597,-9.62018,0.821449,0.081038,0.317399,-0.064453,-0.180908,0.232178,0.69209,7.630344,-6.173664,-0.840278,0.145643,0.151426,0.078857,-0.516846,0.277344,8.411052,1.537336,-4.77798,-0.079258,0.53731,0.182661,-0.554443,-0.179443,0.26416
4.505426,9.209816,-3.093856,-0.346089,0.150252,-0.715334,-0.313477,-0.250488,0.08252,-0.65993,-4.879422,9.097546,0.407265,0.021887,-0.372478,-0.192627,0.200195,-0.486572,-0.250991,2.210855,-9.562673,0.581342,0.312487,0.334011,-0.061523,-0.174805,0.229492,0.356331,7.134567,-6.055879,-0.374374,0.278648,0.117767,0.081787,-0.516846,0.27002,8.348817,0.987442,-4.796274,-0.114985,0.468213,0.154921,-0.552246,-0.173096,0.252686
4.931279,9.162117,-3.363121,-0.696203,0.138741,-0.660683,-0.30542,-0.262939,0.070068,-1.089263,-3.937345,9.785728,2.160701,0.195944,-0.276782,-0.188477,0.167236,-0.496338,-0.648461,2.198587,-9.894594,-0.108617,0.076267,0.38896,-0.066406,-0.175781,0.237549,0.441901,8.116766,-5.833169,-0.087281,0.086729,0.173115,0.076904,-0.520508,0.282959,8.790817,0.736368,-4.800964,0.09641,0.417324,0.078698,-0.558105,-0.170898,0.255371
3.999432,7.786714,-3.350465,-0.755561,0.021126,-0.639251,-0.290039,-0.26123,0.0625,-0.856458,-1.234756,8.572189,3.552068,-0.101126,-0.191369,-0.19043,0.12915,-0.508301,-0.149603,2.182443,-9.807837,-0.629125,-0.311731,0.447321,-0.069824,-0.186279,0.23291,1.106931,8.557828,-5.6275,-0.508589,0.127782,0.115861,0.070068,-0.530029,0.273926,8.691462,1.213884,-4.614573,0.177268,0.542605,0.002554,-0.564209,-0.174316,0.243896
3.142839,9.211176,-2.400184,-0.254447,-0.007755,-0.938971,-0.287109,-0.274902,0.063232,-0.91698,6.134587,9.936495,2.273821,0.082045,-0.241488,-0.200684,0.098877,-0.508301,0.418225,2.03827,-9.670549,-0.791839,-0.125284,0.429403,-0.064209,-0.183105,0.221191,0.900016,7.590332,-5.834224,-0.732017,0.379107,0.100125,0.068848,-0.53418,0.260986,8.296838,1.158228,-4.371435,-0.004617,0.468178,0.109513,-0.56543,-0.171875,0.229248
4.090489,9.927271,-2.614173,-1.029751,-0.254622,-1.112686,-0.264893,-0.305664,0.049805,-1.884501,1.525223,10.144346,-2.190156,-0.461497,0.094654,-0.19751,0.109131,-0.505859,-0.199598,1.770901,-10.085694,-0.515539,0.229529,0.359131,-0.068848,-0.183838,0.224365,0.149521,7.554141,-5.662814,-0.152115,0.244151,0.089117,0.064941,-0.532227,0.264648,8.604392,0.998145,-4.23026,0.129438,0.393037,0.038786,-0.569092,-0.166504,0.224609
4.972143,8.638262,-3.378852,-1.127842,-0.069337,-1.222449,-0.247803,-0.315186,0.042725,-0.257786,-6.488048,8.896899,0.525265,-0.452816,-0.075562,-0.202881,0.105957,-0.501953,-0.837422,1.705572,-10.372143,-0.166077,0.017656,0.332693,-0.070557,-0.191406,0.231689,0.566475,8.955656,-5.243919,-0.117866,0.009013,0.043552,0.065186,-0.538818,0.27124,8.842827,1.504152,-3.87596,0.147184,0.484528,0.017701,-0.571289,-0.172363,0.223877
4.693958,8.623083,-3.032038,-0.642042,-0.026555,-1.180091,-0.232422,-0.32251,0.033447,-0.77458,-2.858346,8.655462,4.319499,-0.241563,-0.117843,-0.209229,0.056396,-0.509277,-0.07678,2.130685,-9.648337,0.292049,-0.369634,0.324017,-0.062012,-0.178711,0.231201,0.957168,9.110965,-5.317228,-0.758708,0.051479,0.004072,0.065918,-0.54126,0.258789,8.878016,1.534352,-3.849897,-0.177022,0.589988,0.028444,-0.567139,-0.162598,0.20874
3.563874,10.323945,-2.137535,-0.558714,0.100451,-1.246591,-0.213867,-0.337158,0.035645,-0.245895,5.294508,9.022054,4.552111,-0.268837,-0.309778,-0.21582,-0.003906,-0.498047,0.801636,2.731826,-8.780964,0.280684,0.044498,0.147529,-0.074707,-0.174316,0.236084,0.792975,8.014694,-5.266226,-0.975116,0.101561,-0.035603,0.05835,-0.542969,0.25293,9.257478,1.125114,-4.027364,-0.199255,0.545885,0.106532,-0.57959,-0.160645,0.201416
3.116006,10.251113,-1.992394,-1.223518,-0.08439,-1.420071,-0.198242,-0.351074,0.021484,-0.434597,7.265244,10.446748,0.703778,-0.136605,-0.038167,-0.222656,-0.014893,-0.49707,-0.020495,2.706708,-8.877202,-0.397607,0.511547,0.24171,-0.081299,-0.181152,0.236328,0.757153,7.521645,-5.158965,-0.601488,-0.027057,0.101255,0.049316,-0.553223,0.248779,9.270763,1.118371,-4.297536,-0.113014,0.756605,0.048841,-0.588867,-0.167236,0.19043
3.586474,9.523812,-2.342988,-0.958531,-0.063058,-1.359458,-0.166992,-0.358154,0.004639,-0.11473,1.940156,9.978272,-0.497041,-0.185512,0.006011,-0.2146,-0.006592,-0.500488,-0.918439,2.265898,-9.671794,-1.003116,0.051154,0.363588,-0.075684,-0.186035,0.23291,1.246715,8.189596,-5.056603,-0.261725,0.124294,0.058193,0.055908,-0.55957,0.247803,8.513466,0.97932,-4.029469,-0.053416,0.614249,0.126143,-0.586914,-0.16626,0.179443
3.779952,10.261509,-2.091285,-0.878269,-0.060092,-1.258283,-0.145264,-0.37085,-0.00415,-0.536037,0.015952,9.925826,0.973916,0.16903,0.051753,-0.215332,-0.019287,-0.501709,-0.237428,2.06978,-9.970627,-0.719737,-0.407012,0.362651,-0.075195,-0.185547,0.219971,0.587572,8.91508,-4.613044,-0.386806,0.393032,0.052615,0.048096,-0.556396,0.233887,8.876505,1.077015,-3.200047,0.209108,0.500607,0.117147,-0.589355,-0.155762,0.16333
3.525377,9.890522,-1.895686,-1.075213,0.160055,-1.228753,-0.131104,-0.378418,-0.023193,-0.887996,-0.488416,8.835344,2.527981,-0.117876,-0.199858,-0.219971,-0.050537,-0.499512,0.72182,2.33737,-9.684503,0.04477,-0.108336,0.223213,-0.079346,-0.183594,0.237061,0.228605,9.078308,-4.647727,-0.587361,-0.07806,-0.020073,0.044189,-0.5625,0.243896,9.637805,1.76351,-3.183949,0.085634,0.515991,0.062751,-0.596924,-0.155029,0.167725
2.098548,10.183213,-1.334233,-0.987656,0.195459,-1.284599,-0.097168,-0.388428,-0.033936,0.028056,1.67342,7.440776,4.48816,0.097555,-0.263503,-0.209473,-0.114746,-0.480225,0.597526,2.731339,-9.595272,0.514808,0.377808,0.104503,-0.073486,-0.182373,0.240479,1.867491,9.032874,-4.631768,-0.733401,-0.104759,0.007219,0.052734,-0.568604,0.234375,9.707918,1.318906,-3.611952,-0.400761,0.823793,0.288707,-0.589844,-0.152588,0.148682
1.214546,10.488738,-0.661791,-1.363179,0.102789,-1.559166,-0.076416,-0.384033,-0.057861,-1.144257,9.284726,8.184193,4.399196,-0.116875,-0.262757,-0.220459,-0.157959,-0.461182,-0.268335,2.904583,-9.762981,0.313561,0.302151,0.251854,-0.086914,-0.177002,0.231445,1.370673,8.368692,-4.642764,-0.711088,0.507053,-0.034784,0.036377,-0.570801,0.214844,8.698991,-0.110046,-3.810453,-0.154688,0.709192,0.224222,-0.604492,-0.144043,0.126709
1.778853,8.883159,-1.122642,-1.364154,-0.055138,-1.632234,-0.054199,-0.400879,-0.07666,-0.351464,11.554123,9.607414,-0.128145,-0.205328,0.047672,-0.226318,-0.165283,-0.463867,-0.392258,2.967357,-9.449415,-0.300365,-0.031175,0.269739,-0.078125,-0.170654,0.239502,0.150566,8.581919,-4.667823,-0.298792,0.354619,-0.055963,0.044434,-0.566162,0.221436,9.659414,0.603411,-3.202851,0.675936,0.363117,0.162024,-0.597168,-0.135254,0.128418
1.93698,9.941211,-0.579994,-0.93544,0.23827,-1.560084,-0.017578,-0.408936,-0.085693,-1.225079,3.061299,8.434045,-1.817781,-0.222725,0.080674,-0.218994,-0.146484,-0.466553,-0.040175,2.869331,-9.926496,-0.562389,-0.065936,0.288831,-0.086426,-0.172119,0.238525,0.52654,9.792315,-4.118507,-0.228597,0.06206,-0.001719,0.033691,-0.567383,0.220215,10.093108,2.270888,-2.193698,0.32642,0.726319,0.048274,-0.608643,-0.130371,0.116455
1.183879,10.342803,-0.597395,-0.988578,0.238115,-1.397536,-0.000732,-0.40918,-0.106201,-0.295619,0.73378,7.776075,1.763167,-0.188179,-0.248063,-0.230469,-0.166016,-0.465332,0.024509,2.819396,-10.280696,-0.415143,0.07739,0.266267,-0.085938,-0.17334,0.23999,0.778686,10.379497,-3.997202,-0.773674,0.190518,-0.082147,0.034668,-0.574219,0.205078,9.722441,1.339152,-2.46152,-0.555417,0.828425,0.153149,-0.609131,-0.127441,0.098145
-0.119057,10.780428,0.250728,-1.213937,0.335184,-1.461095,0.018066,-0.400146,-0.123779,-1.193322,7.085983,8.434968,2.664724,-0.009293,-0.224288,-0.23584,-0.188477,-0.446045,-0.041605,3.040163,-9.957033,-0.188784,0.145965,0.175749,-0.08667,-0.179199,0.250488,0.385797,9.508764,-4.02466,-1.17698,0.11599,-0.105213,0.036621,-0.588623,0.196289,9.606045,-0.147406,-2.978231,-0.182904,0.863286,-0.012554,-0.605225,-0.133057,0.087646
0.530236,9.048568,-0.135574,-1.459097,0.184514,-1.67331,0.054443,-0.4021,-0.15625,-0.649631,7.758671,8.187274,0.308761,-0.553652,0.024977,-0.236572,-0.194092,-0.452881,0.073521,3.407611,-9.474857,-0.187276,0.032475,0.251853,-0.087158,-0.189453,0.251221,1.043607,8.968015,-3.752999,-0.844655,-0.009057,-0.15835,0.03418,-0.598877,0.186279,9.88235,0.773749,-2.751083,0.34568,0.877134,-0.181517,-0.605713,-0.144775,0.067383
-0.349175,9.593045,0.530988,-0.878338,0.325785,-1.712553,0.084961,-0.4104,-0.157959,0.004092,4.39457,7.822566,0.076056,-0.303188,0.060154,-0.241211,-0.203125,-0.440674,0.272783,3.525665,-9.621933,-0.407806,0.011007,0.298058,-0.087646,-0.184082,0.254883,1.152531,9.519735,-3.374947,-0.69882,0.365793,-0.13757,0.032471,-0.601074,0.180176,9.486917,1.29689,-2.435763,-0.008069,1.001268,-0.107972,-0.606934,-0.138672,0.052002
-0.163758,11.35037,1.222252,-0.89552,0.279631,-1.625753,0.113037,-0.407959,-0.172119,-0.851599,4.897473,7.985042,1.693542,-0.392612,-0.014977,-0.24585,-0.22168,-0.427734,-0.071493,3.472486,-9.598198,-0.785181,0.158227,0.354214,-0.093506,-0.188232,0.26123,0.176342,9.594733,-3.263639,-0.977704,0.46043,-0.243531,0.029053,-0.604736,0.165283,9.214335,0.384179,-2.241825,-0.037029,0.913118,-0.22792,-0.608154,-0.140137,0.036377
-0.798642,11.319561,1.21935,-1.352366,0.44352,-1.641862,0.145264,-0.404541,-0.196533,0.3148,7.052948,7.768453,1.797896,-0.328919,-0.098362,-0.245361,-0.247559,-0.421631,-0.171871,3.404772,-9.155449,-0.874268,-0.128222,0.416397,-0.088867,-0.180908,0.263916,0.778438,9.023339,-3.215091,-0.894968,0.215419,-0.251565,0.031738,-0.600342,0.157959,9.567756,0.397739,-2.070644,0.472506,0.805602,-0.348962,-0.602051,-0.13501,0.026367
-0.654466,10.279878,1.257912,-1.512902,0.47529,-1.621427,0.16748,-0.392578,-0.210449,-0.781931,6.903067,7.379413,1.501176,-0.2543,-0.126424,-0.254883,-0.263916,-0.397461,0.512186,3.448872,-9.137863,-0.579344,-0.198552,0.345945,-0.104004,-0.197754,0.26001,1.095402,9.394276,-3.084836,-0.605224,0.5601,-0.249009,0.021484,-0.614502,0.138916,9.589685,1.351237,-1.619586,0.471643,0.926075,-0.470847,-0.612793,-0.155762,0.0
-2.17893,9.568393,1.75426,-1.264066,0.659884,-1.772985,0.21582,-0.376709,-0.226074,-0.051222,6.531321,7.077016,1.245054,-0.449014,-0.201672,-0.242188,-0.272949,-0.385742,0.547446,3.524143,-9.445171,-0.413372,0.171019,0.328061,-0.101807,-0.190918,0.256836,0.368881,9.814322,-2.686648,-0.858097,0.618463,-0.293435,0.028809,-0.613037,0.124023,9.427239,1.090512,-1.246809,0.20102,0.860825,-0.462501,-0.602295,-0.155518,-0.020508
-1.955268,11.368777,2.518384,-1.227671,0.540911,-2.030044,0.245605,-0.36499,-0.249268,-0.528869,7.527116,6.674604,1.649528,-0.345554,0.072676,-0.251709,-0.291016,-0.379395,-0.263576,3.422832,-9.890744,-0.515419,0.181044,0.314475,-0.11499,-0.196533,0.266846,0.561263,8.819986,-3.019262,-0.99294,0.405368,-0.302481,0.019531,-0.619385,0.114746,8.773477,0.773153,-0.868213,0.390994,0.904292,-0.596854,-0.608154,-0.16748,-0.0354
-2.461514,10.658549,2.436051,-1.927061,0.79188,-2.239769,0.280762,-0.33667,-0.276367,0.347365,8.822887,7.098371,0.759797,-0.497268,0.081168,-0.264893,-0.290527,-0.374756,0.029523,3.472404,-9.355887,-0.730959,-0.34455,0.333498,-0.108643,-0.191895,0.27002,1.113185,8.841455,-2.795855,-0.401262,0.453831,-0.380775,0.028809,-0.614746,0.110596,8.930666,1.253283,-0.294832,0.536629,0.511169,-0.619322,-0.599854,-0.171387,-0.039062
-3.345771,9.144332,2.660012,-1.979455,0.754966,-2.045926,0.32373,-0.319092,-0.296387,0.118048,7.22756,6.727323,0.762549,-0.24459,0.026085,-0.258301,-0.309082,-0.357422,0.930691,3.502348,-8.907928,-0.84442,-0.185172,0.214069,-0.106934,-0.203369,0.27417,0.485162,10.046516,-2.398624,-0.480264,0.453543,-0.289159,0.032471,-0.618408,0.103271,10.223225,1.960099,-0.100763,0.381566,0.620442,-0.611853,-0.592773,-0.185059,-0.051514
-3.877615,7.900825,2.600826,-1.613124,0.825178,-1.989904,0.355469,-0.286865,-0.316162,0.597207,8.002034,6.722861,1.116562,-0.183277,-0.153319,-0.263672,-0.311523,-0.351562,0.743682,3.357586,-8.75662,-0.891485,0.19682,0.212159,-0.112549,-0.212158,0.278076,0.731089,9.474772,-1.969546,-1.051037,0.105214,-0.323675,0.030273,-0.626221,0.092529,9.318345,1.898162,-0.003023,-0.05829,0.883116,-0.608507,-0.592773,-0.197021,-0.061279
-4.007906,8.832478,3.198607,-1.220363,0.749209,-2.014311,0.386475,-0.272217,-0.325195,0.233544,7.575165,6.048955,0.483396,-0.07122,-0.070686,-0.266846,-0.324707,-0.347412,0.359743,3.3195,-9.042374,-0.301691,0.009571,0.122656,-0.118652,-0.211914,0.279053,1.367061,8.673394,-2.224149,-0.645641,0.300312,-0.262162,0.030762,-0.62915,0.081543,9.132409,1.097827,-0.291434,-0.004324,0.541387,-0.483541,-0.59082,-0.202637,-0.072998
-4.291615,8.334629,3.073135,-1.908896,0.727406,-2.224917,0.422852,-0.243164,-0.338623,0.484962,6.90101,6.236523,0.878227,-0.176153,0.005118,-0.26416,-0.339355,-0.338135,0.889181,3.683873,-8.983877,-0.020469,-0.061258,0.063379,-0.112305,-0.209717,0.287842,0.479215,9.566503,-1.867283,-0.305835,0.327552,-0.278516,0.035156,-0.628906,0.078613,9.672811,1.687781,-0.128157,0.435413,0.59334,-0.598775,-0.581055,-0.213867,-0.082275
-4.260852,5.342933,2.607141,-1.897881,0.74335,-2.141421,0.462891,-0.202393,-0.35791,0.419664,7.87866,5.4009,1.22253,0.086956,0.059573,-0.256348,-0.345703,-0.330322,0.769276,3.944869,-9.150284,-0.003522,0.15176,0.157288,-0.120605,-0.227295,0.28833,0.612066,9.745013,-1.301447,-0.700815,0.152491,-0.294565,0.031738,-0.641113,0.067871,9.112274,2.647349,0.214106,0.220348,0.67396,-0.430874,-0.57959,-0.230713,-0.097412
-4.935237,6.036991,2.912051,-0.879837,0.76495,-1.803371,0.489502,-0.175049,-0.354492,-0.334812,9.204968,4.929297,1.607828,-0.163856,0.01599,-0.259277,-0.358398,-0.307617,0.289054,4.290837,-8.76827,0.246766,0.152951,0.040023,-0.119629,-0.219238,0.298096,0.500699,9.289744,-1.902219,-0.540926,0.353174,-0.303719,0.039551,-0.638184,0.062744,9.309061,2.133743,0.013517,-0.094331,0.44723,-0.406162,-0.574219,-0.231689,-0.103271
-5.656903,6.670647,3.27746,-1.180253,0.759273,-1.612352,0.501709,-0.148926,-0.367676,0.556478,10.301827,4.945306,0.892845,-0.176409,-0.136147,-0.269775,-0.364746,-0.308838,0.422243,4.713606,-9.054173,0.00681,-0.134695,0.176984,-0.122803,-0.20752,0.305176,-0.122515,10.007504,-0.40698,-0.163557,0.361836,-0.347537,0.039062,-0.628418,0.058105,9.773863,1.618494,-0.1489,0.259002,0.565715,-0.493829,-0.572998,-0.227295,-0.109863
-6.208718,4.989117,2.960348,-1.211906,0.644719,-1.328614,0.525879,-0.130127,-0.364746,-0.135833,8.114842,4.333976,0.401471,-0.200044,-0.119719,-0.264648,-0.381836,-0.295166,0.740713,4.783727,-8.86271,-0.543085,-0.113396,0.232394,-0.128174,-0.216797,0.30127,0.282856,10.666499,-1.452959,-0.621008,0.173289,-0.321697,0.038574,-0.632324,0.041504,9.576707,2.599935,0.580989,0.50112,0.561062,-0.636159,-0.572021,-0.241455,-0.122803
-6.203663,5.231071,3.309924,-0.933927,0.552645,-1.271633,0.541504,-0.108154,-0.367188,0.620571,8.277042,4.728728,0.961052,-0.299998,-0.206706,-0.265869,-0.387695,-0.287598,0.863972,4.43397,-9.336238,-0.883737,0.129528,0.166607,-0.124512,-0.223877,0.304443,0.265805,10.154227,-0.870778,-0.83882,0.379765,-0.354548,0.049561,-0.638428,0.032715,9.894017,3.279712,0.429469,0.156753,0.683802,-0.572736,-0.555908,-0.251953,-0.129883
-6.405189,4.813968,3.296035,-1.245384,0.519888,-1.428374,0.563721,-0.079834,-0.366699,0.508362,9.899899,5.145734,0.250359,-0.052751,0.10592,-0.26001,-0.390869,-0.280518,0.427375,4.354853,-8.925395,-0.762431,0.07131,0.314492,-0.131592,-0.240479,0.309326,-0.357597,9.887921,-0.678688,-0.691597,0.337217,-0.389698,0.04834,-0.647217,0.02417,8.96584,2.460518,0.417587,-0.225737,0.986423,-0.594152,-0.556396,-0.268066,-0.144775
-6.420507,4.018886,3.190568,-1.062889,0.474676,-1.378296,0.573975,-0.049805,-0.374756,-0.373988,8.556094,4.648929,-0.323977,-0.130967,0.111691,-0.265137,-0.384766,-0.287109,0.39726,4.439637,-9.283645,-0.395237,-0.109407,0.336678,-0.134277,-0.232422,0.314941,0.011922,10.1996,-0.961966,-0.698342,0.234575,-0.496198,0.05249,-0.637207,0.016113,8.705998,1.908344,0.646941,0.278431,0.625929,-0.698882,-0.547119,-0.268799,-0.15332
-7.091667,3.672249,3.280372,-0.821807,0.501588,-1.142493,0.5896,-0.0271,-0.377197,-0.133729,6.669959,4.2858,0.332117,-0.408374,0.160873,-0.265869,-0.385254,-0.285645,0.748068,5.228039,-9.016257,0.059415,-0.071098,0.215572,-0.138184,-0.23291,0.318115,-0.205098,10.025679,-0.591363,-0.853503,0.374457,-0.5053,0.055176,-0.635498,-0.001221,9.016124,3.309147,1.091327,0.591492,0.814388,-0.828339,-0.541504,-0.283203,-0.166992
-7.732493,4.209774,3.520451,-0.47866,0.423815,-1.005361,0.593994,-0.00708,-0.372803,0.459239,7.574586,4.151742,2.108972,-0.410926,0.055867,-0.272949,-0.399414,-0.257568,0.644487,5.72971,-8.716451,-0.463638,0.017795,0.322937,-0.136475,-0.240967,0.324707,-0.334216,9.410797,-0.377011,-0.904064,0.331262,-0.599175,0.066406,-0.634766,-0.01001,8.85409,3.789814,1.464976,0.051043,0.59167,-0.723009,-0.527588,-0.294922,-0.170654
-8.228505,4.20937,3.735063,-0.707307,0.350209,-1.059897,0.606689,0.008545,-0.371582,0.680709,11.164354,4.076401,1.829254,-0.292466,0.085302,-0.272949,-0.416992,-0.237061,0.482535,5.128962,-8.26439,-1.526152,-0.069099,0.094399,-0.141357,-0.265625,0.323486,-0.20729,9.175255,-0.461973,-0.518294,0.299341,-0.46424,0.069824,-0.648682,-0.019531,9.288087,2.834397,1.002883,0.062611,0.615938,-0.743116,-0.52124,-0.312256,-0.182129
-8.609114,3.433808,3.954102,-0.705843,0.211749,-0.969605,0.618408,0.030029,-0.369385,0.899565,10.897291,4.091603,0.102438,-0.311034,0.17169,-0.273682,-0.418457,-0.231934,1.086001,4.205732,-8.146761,-1.46898,-0.222571,0.221813,-0.142822,-0.272461,0.317139,-0.119045,9.645842,0.063519,-0.397961,0.345123,-0.502549,0.075928,-0.64209,-0.029297,8.647062,3.509306,1.312338,0.602273,0.673796,-0.763122,-0.513184,-0.322266,-0.19165
-7.97655,3.043863,3.817989,-0.591181,0.076204,-0.907823,0.615479,0.046143,-0.374756,0.889906,8.237427,3.749469,-0.096115,-0.222373,0.091128,-0.279785,-0.416504,-0.234375,1.163324,3.873943,-7.800884,-0.680931,-0.093778,0.267197,-0.146484,-0.287842,0.313232,-0.037135,9.474342,-0.028544,-0.6767,0.461829,-0.443096,0.078125,-0.649658,-0.043457,8.880166,4.120233,1.362976,0.310867,0.310946,-0.562344,-0.509277,-0.3396,-0.198975
-8.413072,3.178825,4.115994,-0.506573,0.13461,-0.876507,0.628906,0.061035,-0.365967,0.677006,8.102471,3.825254,0.744237,-0.163862,-0.049864,-0.270264,-0.422852,-0.220947,1.01129,4.262966,-7.711344,0.294374,0.078275,0.074953,-0.150146,-0.284668,0.324951,-0.500833,8.738385,-0.002925,-0.401156,0.61048,-0.371326,0.082764,-0.643555,-0.04541,9.228957,3.439652,1.306253,0.283307,0.51851,-0.575357,-0.501221,-0.347168,-0.197754
-8.199337,3.155743,4.025047,-0.677996,0.02225,-0.863697,0.631592,0.079834,-0.377441,0.544076,9.211001,3.880127,1.165337,-0.161825,0.055262,-0.274658,-0.429443,-0.213623,0.37769,5.12828,-8.604545,0.930888,0.02684,0.224727,-0.147949,-0.283447,0.339111,-1.001594,9.236171,0.007511,0.077322,0.553766,-0.328738,0.092041,-0.651855,-0.037842,8.128912,3.822887,1.390791,0.656786,0.471299,-0.585941,-0.488525,-0.364746,-0.195312
-8.752241,2.829446,4.093307,-0.6543,0.090402,-0.911639,0.628906,0.10498,-0.378174,0.75386,10.266245,3.153893,0.904298,-0.08766,0.04232,-0.281738,-0.431396,-0.20459,0.645882,6.370696,-8.352844,0.532892,-0.344535,0.163367,-0.144531,-0.280029,0.352783,-0.742679,10.217315,0.239266,0.007379,0.396575,-0.373509,0.100098,-0.651855,-0.032227,8.318217,4.254565,1.840504,0.483132,0.190844,-0.569658,-0.482178,-0.373047,-0.192383
-8.333332,2.221698,4.215945,-0.725322,-0.097651,-0.900341,0.632812,0.12085,-0.382324,0.489726,9.894877,3.680764,0.008823,-0.277585,0.134023,-0.277832,-0.435059,-0.209473,1.533305,6.538574,-7.949943,-0.567375,-0.180898,0.090375,-0.146484,-0.279541,0.347412,-0.534298,10.103267,0.366939,-0.415475,0.591268,-0.450247,0.102539,-0.644531,-0.045898,8.850717,3.902804,1.825068,0.378076,0.301751,-0.549343,-0.478027,-0.375732,-0.197754
-8.626874,2.179463,4.369055,-0.397375,0.054776,-0.942751,0.632812,0.139404,-0.372314,1.222177,7.439878,3.562391,0.03771,-0.109602,-0.023711,-0.279053,-0.436279,-0.199463,0.956447,5.22737,-7.750131,-1.524677,0.290626,-0.063587,-0.15625,-0.294678,0.334717,-1.201381,9.474983,0.413308,-0.407917,0.546458,-0.354889,0.104004,-0.643311,-0.054443,8.81391,4.231512,1.962241,0.608621,0.298329,-0.665112,-0.473633,-0.38623,-0.202148
-8.37234,2.981636,4.576141,-0.672014,-0.059413,-1.13952,0.64209,0.155762,-0.382812,0.765908,7.982186,3.006636,1.633551,0.064435,0.104127,-0.271484,-0.444824,-0.186279,0.232848,4.001169,-8.99486,-0.744678,0.040066,-0.055318,-0.152588,-0.314697,0.338379,-1.136193,9.234305,0.207413,-0.245079,0.289193,-0.32766,0.114258,-0.6521,-0.056152,8.495212,4.947844,1.587866,0.359119,0.49901,-0.624892,-0.460205,-0.40625,-0.198975
-8.463441,1.81382,4.125476,-0.989615,0.009018,-1.298801,0.631104,0.185547,-0.379395,0.83168,11.760386,3.258825,1.395993,0.033444,0.186689,-0.286133,-0.450439,-0.168945,0.83372,4.870468,-8.098746,0.881081,-0.391809,0.028064,-0.143066,-0.29248,0.350098,-0.907703,9.585464,0.366737,0.047375,0.568495,-0.417011,0.125244,-0.637695,-0.055908,7.175059,4.118548,1.473532,0.14527,0.334464,-0.586324,-0.447754,-0.397217,-0.20459
-8.739043,1.609342,4.392667,-0.882777,0.020083,-1.41339,0.641357,0.209473,-0.37915,0.653101,10.554301,3.029606,-0.402742,0.024647,0.276675,-0.278564,-0.453369,-0.176025,1.195536,6.678434,-7.753259,0.69533,0.005432,-0.001053,-0.148682,-0.304932,0.365234,-1.985476,10.199484,0.79812,-0.160299,0.673702,-0.442136,0.127686,-0.650146,-0.049561,8.374569,4.26039,1.716445,0.842783,0.016363,-0.719939,-0.443848,-0.425049,-0.190674
-8.845654,1.028899,4.269774,-1.117674,-0.080884,-1.420372,0.628662,0.239258,-0.380615,0.77183,7.602135,2.545625,-0.080827,0.057634,0.023308,-0.285156,-0.454102,-0.18042,0.508102,7.013575,-7.056195,-0.804566,0.155239,-0.076024,-0.15332,-0.30835,0.357666,-1.89473,9.668941,0.903113,-0.543154,0.22555,-0.437385,0.130127,-0.643311,-0.0625,8.216553,6.180037,2.167787,0.776788,0.519374,-0.810961,-0.435303,-0.436035,-0.195801
-8.403843,-0.516126,3.833465,-0.895723,-0.024436,-1.320801,0.630371,0.266357,-0.37793,0.561552,7.806366,2.022922,1.435306,0.031787,0.026487,-0.278809,-0.458008,-0.158936,0.643142,5.4196,-8.429081,-1.071822,-0.064359,-0.145411,-0.138184,-0.320068,0.34668,-1.039171,8.685581,0.332869,-0.525929,0.393452,-0.399851,0.154053,-0.640625,-0.076172,7.629203,5.961111,1.661522,-0.153928,0.357852,-0.58893,-0.412354,-0.442139,-0.206543
-8.945905,0.086397,4.040372,-0.120284,-0.139003,-1.091314,0.633301,0.281006,-0.376221,1.086062,10.164169,2.282722,1.982126,-0.042121,0.090628,-0.276123,-0.46875,-0.130127,0.731251,5.119805,-8.272069,-0.230309,0.008613,-0.191923,-0.150635,-0.333496,0.354248,-2.100315,8.918791,0.32047,0.203569,0.760684,-0.408995,0.148193,-0.650146,-0.064941,7.08075,3.821195,1.253057,0.057758,0.41618,-0.632487,-0.416748,-0.45459,-0.201416
-8.616829,1.246066,4.906984,-0.988277,-0.16372,-1.45349,0.616211,0.30542,-0.369629,0.364578,11.134378,1.562223,1.323266,0.174763,0.107886,-0.287109,-0.476562,-0.111816,0.296848,5.847761,-7.759234,0.128541,0.013732,-0.066142,-0.14917,-0.332031,0.350586,-2.867843,10.757473,0.95158,0.255111,0.376263,-0.520293,0.155518,-0.648926,-0.072998,7.531714,5.043859,1.809496,1.19562,0.055029,-0.935151,-0.403076,-0.474121,-0.200684
-8.02927,-1.934828,3.96248,-1.053418,-0.12551,-1.342385,0.616699,0.333984,-0.376465,1.096453,10.593087,0.262035,0.686801,-0.176783,0.069874,-0.278564,-0.478516,-0.111328,0.495058,6.51603,-8.953431,-0.051121,-0.204898,-0.049105,-0.141357,-0.326172,0.362061,-1.90635,10.712614,1.056554,-0.677475,0.267148,-0.507575,0.167725,-0.634521,-0.074219,7.939273,7.227254,2.15759,0.568024,0.463724,-0.965911,-0.382324,-0.476074,-0.194092
-8.559548,-1.529144,4.391395,-0.37961,-0.163212,-1.285697,0.619629,0.350586,-0.375244,0.975537,10.778392,1.165649,0.630665,0.124828,0.220086,-0.272949,-0.480225,-0.105469,0.906526,6.816351,-8.713677,-0.524985,-0.122514,-0.068603,-0.146484,-0.343262,0.365967,-1.936755,8.844429,0.508204,-0.763751,0.587386,-0.713372,0.175537,-0.640381,-0.081055,6.292892,5.757776,1.608272,-0.404541,0.591615,-0.893779,-0.372803,-0.49585,-0.203125
-7.972098,-0.795458,4.594114,-0.332774,-0.27289,-1.026507,0.606201,0.369385,-0.37793,0.889781,9.648898,0.894097,0.096799,-0.194071,0.251452,-0.282471,-0.480469,-0.104248,0.82892,6.686631,-7.464597,-1.048314,-0.049742,-0.127836,-0.143311,-0.366943,0.35791,-2.768663,9.212675,0.749548,0.111824,0.466606,-0.707079,0.189209,-0.648193,-0.081543,6.94122,4.320122,1.33097,0.508083,0.110576,-0.95564,-0.358887,-0.515137,-0.199707
-7.910178,-0.853682,4.540221,-0.79739,-0.168737,-1.232537,0.596924,0.387695,-0.368652,0.736124,8.171606,0.932775,0.397539,0.005099,0.215909,-0.283936,-0.482666,-0.094482,0.419132,5.813684,-7.097857,-1.30702,0.157129,-0.122045,-0.147705,-0.372559,0.354492,-2.808654,10.687942,1.090277,-0.268287,0.34987,-0.737096,0.197998,-0.632568,-0.07959,7.701433,7.007167,1.873659,1.196349,0.531119,-1.280274,-0.3396,-0.524658,-0.184082
-8.315803,-1.841788,4.337052,-0.869587,-0.173508,-1.155934,0.59082,0.408203,-0.371338,0.798492,8.210036,0.32841,1.15585,-0.230753,0.14296,-0.283447,-0.486084,-0.079834,0.042472,5.306241,-7.585769,-0.805877,0.024715,-0.073165,-0.151123,-0.387207,0.348633,-2.888767,9.596023,1.043918,-1.109294,0.452631,-0.724762,0.208496,-0.633057,-0.099121,6.261529,8.289199,2.2605,0.021399,0.667969,-1.185089,-0.32251,-0.540771,-0.195801
-8.012228,-2.540134,4.153205,-0.743238,-0.164874,-1.25623,0.573975,0.429932,-0.367676,1.692411,10.704837,0.224739,1.836956,0.080137,0.161187,-0.292236,-0.491211,-0.054932,0.41524,6.021078,-8.13011,0.084504,-0.217492,0.081727,-0.14502,-0.390381,0.349609,-3.205817,8.039028,0.799204,-0.589487,0.40562,-0.7622,0.224121,-0.628906,-0.108398,6.002802,6.164236,1.579494,-0.406334,0.465841,-1.069387,-0.300781,-0.549805,-0.207031
-8.273619,-1.717063,4.674935,-0.716909,-0.258268,-1.295919,0.571777,0.454346,-0.365479,0.40934,12.227623,0.537383,0.549734,0.015824,0.282195,-0.283447,-0.487549,-0.052734,0.582661,7.887037,-7.29109,-0.004798,-0.072825,0.013464,-0.151367,-0.391357,0.353271,-3.299836,9.367148,0.950585,0.15162,0.363563,-0.809365,0.22876,-0.626709,-0.105713,5.934105,6.009772,1.598736,0.703156,0.520607,-1.258381,-0.286377,-0.561768,-0.200684
-7.404938,-3.449234,3.935063,-0.862663,-0.209355,-1.142066,0.555664,0.464111,-0.357178,1.034337,8.709953,-0.345305,-0.583588,-0.181656,0.257828,-0.290771,-0.496826,-0.053955,0.410625,7.727092,-6.545598,-1.564546,0.086317,-0.091501,-0.145508,-0.400391,0.336914,-3.43364,10.513288,1.451355,-0.534412,0.334974,-0.787464,0.246582,-0.61377,-0.11377,6.532816,8.695629,2.213691,0.940883,0.280391,-1.288305,-0.26001,-0.573486,-0.190674
-7.734674,-2.33069,4.438865,-0.383104,-0.267754,-1.214203,0.544922,0.484863,-0.35498,1.430464,6.737646,-0.771472,0.966496,-0.179179,0.181444,-0.290771,-0.49707,-0.039062,0.6401,5.675476,-6.740169,-1.806996,-0.03249,0.004394,-0.148193,-0.418945,0.324219,-3.178428,8.922685,1.342126,-1.125823,0.349535,-0.739248,0.254883,-0.602783,-0.125732,6.963437,9.012228,2.15346,-0.170414,0.504137,-1.114945,-0.241943,-0.577148,-0.197266
-7.989401,-2.707637,4.637772,-1.158298,-0.240697,-1.23409,0.53418,0.510742,-0.339844,2.103416,11.065341,-0.568732,2.214846,-0.030959,0.150427,-0.290039,-0.494141,-0.003662,0.70463,5.063195,-7.630761,-0.120959,-0.037054,-0.046998,-0.147461,-0.437988,0.333252,-3.049593,7.351771,0.762623,-0.390965,0.51416,-0.583686,0.265869,-0.613037,-0.12207,5.755206,6.792828,1.243675,-0.264068,0.602275,-1.035309,-0.2229,-0.596191,-0.198486
-7.476757,-4.710522,4.246043,-1.038546,-0.464062,-1.36985,0.518311,0.535645,-0.339111,1.028309,12.68746,-0.229571,0.25545,0.061083,0.280903,-0.293945,-0.491455,-0.006836,0.406629,7.10153,-6.645437,0.711334,-0.015956,0.002845,-0.156738,-0.429443,0.336914,-4.126386,9.040665,1.246404,0.570018,0.730579,-0.565004,0.268555,-0.608398,-0.119385,4.885626,7.124411,1.692455,1.077734,0.281447,-1.090502,-0.215576,-0.601074,-0.191406
-7.06439,-4.280802,4.307198,-0.710983,-0.288574,-1.160709,0.502197,0.553955,-0.338379,1.146033,8.041922,-1.05648,-0.76535,-0.139825,0.202093,-0.296875,-0.489502,-0.020508,0.264857,8.149633,-6.422624,-0.43151,-0.082284,0.126818,-0.150146,-0.437744,0.335693,-4.508014,10.62942,1.777793,-0.237667,0.359724,-0.586361,0.286133,-0.606445,-0.118896,5.989136,9.789185,2.493141,0.933933,0.11482,-1.089531,-0.191162,-0.614014,-0.173584
-6.773968,-4.436224,4.287897,-0.910041,-0.416767,-1.194267,0.487793,0.572998,-0.338379,1.46463,6.630496,-1.396305,1.137061,-0.039894,0.131958,-0.298584,-0.491943,-0.007812,0.74569,7.006007,-6.643981,-1.227331,-0.030008,-0.006263,-0.154053,-0.447266,0.319092,-3.579457,8.892245,1.240791,-1.027104,0.358148,-0.575557,0.28833,-0.595703,-0.13916,5.561978,9.311781,1.894235,-0.316938,0.645033,-0.945217,-0.175293,-0.617432,-0.186768
-6.512916,-5.915708,4.108936,-1.209962,-0.292629,-1.115604,0.472168,0.592041,-0.325684,1.598721,10.943848,-0.910111,1.841688,0.004274,0.122302,-0.300049,-0.494873,0.016357,0.392204,6.172485,-7.346288,-0.473249,0.154643,0.084593,-0.151367,-0.458984,0.325195,-4.182146,7.576709,0.849539,-0.283625,0.669327,-0.55667,0.309082,-0.593506,-0.132568,4.274869,7.251955,1.357849,-0.134328,0.449181,-0.907306,-0.152344,-0.624268,-0.181641
-6.253854,-8.631638,3.134735,-0.302291,-0.430214,-0.874145,0.453125,0.596191,-0.330078,1.576804,11.503651,-0.674915,0.072581,-0.028218,0.374595,-0.306396,-0.495605,0.012695,0.265367,7.517535,-6.674373,0.308792,-0.130642,0.040427,-0.1604,-0.468506,0.326904,-4.885376,9.278155,1.506511,0.338763,0.381377,-0.547897,0.306396,-0.603027,-0.129639,4.720574,7.907953,1.390881,0.86984,0.332966,-0.986917,-0.144775,-0.642822,-0.178955
-6.891921,-4.921427,4.361977,1.093116,-0.295677,-0.800487,0.446777,0.599609,-0.333496,1.729894,8.250216,-1.897091,-0.302287,-0.02393,0.329091,-0.305908,-0.487305,0.018311,0.992414,8.356141,-6.266232,-0.614075,-0.07085,0.137428,-0.160156,-0.467041,0.329102,-4.180188,9.910515,1.762732,-0.619897,0.326246,-0.668819,0.321045,-0.587158,-0.127197,4.44776,9.916848,2.101306,0.604348,0.534036,-0.978084,-0.121582,-0.640381,-0.162354
-7.45187,-3.865264,5.03731,-0.41948,-0.580507,-0.737986,0.437988,0.609375,-0.331787,1.748135,8.264962,-2.255356,0.844664,0.020434,0.184806,-0.304199,-0.482178,0.030273,0.694479,6.88881,-6.482824,-1.421953,0.203059,0.073067,-0.16333,-0.47998,0.307373,-4.38839,7.952119,1.27697,-0.93035,0.624524,-0.628899,0.330322,-0.578613,-0.142578,4.271276,9.092546,1.934546,-0.317238,0.462043,-0.778457,-0.110107,-0.638916,-0.174316
-7.492795,-6.834516,4.479773,-0.735911,-0.62326,-0.686824,0.421875,0.614746,-0.332275,2.001981,10.592375,-1.807521,1.239652,-0.079268,0.153637,-0.308594,-0.487061,0.039307,0.583319,6.186609,-6.499721,-0.47008,-0.051121,0.162163,-0.167969,-0.484375,0.305664,-4.848824,7.56478,1.418998,-0.111905,0.399294,-0.621194,0.339355,-0.571777,-0.141846,4.138494,7.456226,1.605776,0.016084,0.573234,-0.853894,-0.094971,-0.640625,-0.171143
-6.794054,-7.237287,4.212983,0.050119,-0.874413,-0.687501,0.401123,0.610352,-0.341309,2.282897,12.04951,-1.577416,0.654296,-0.009571,0.09116,-0.312744,-0.498047,0.045654,1.071603,7.670232,-6.641047,0.542014,-0.160995,0.152316,-0.161377,-0.489746,0.311279,-4.192635,8.737309,1.598575,0.002403,0.382995,-0.638872,0.356934,-0.578369,-0.140625,3.283662,8.086226,1.760793,0.725813,0.517263,-0.888414,-0.071289,-0.654053,-0.166992
-6.663142,-4.526955,5.489998,0.31786,-0.791186,-0.909197,0.385498,0.62085,-0.349854,1.952084,11.318882,-1.903346,-0.325543,0.088816,0.038943,-0.308594,-0.491943,0.03833,0.778534,8.854459,-6.778173,-0.516415,0.148479,0.002079,-0.161377,-0.492432,0.300049,-4.795688,8.637972,1.475865,-0.514613,0.718994,-0.720227,0.371094,-0.564453,-0.146484,3.468767,9.230245,1.899254,0.524544,0.338439,-0.846906,-0.054688,-0.65332,-0.160889
-6.018886,-4.753993,5.353605,-0.730964,-0.891453,-1.070814,0.358643,0.624756,-0.340332,1.647978,9.622266,-2.020937,-0.45918,0.18336,-0.082217,-0.312256,-0.501221,0.033936,0.11463,7.688228,-6.537841,-1.384136,0.019419,0.04944,-0.165771,-0.506104,0.289307,-5.745061,7.784575,1.244755,-0.40767,0.54095,-0.795761,0.380127,-0.553467,-0.144775,3.218778,8.972738,1.705051,0.159402,0.558034,-0.816026,-0.038818,-0.654053,-0.155273
