# sampling frequency: 40
# units are seconds/meters/radians/a.u.
seg1_acc_x,seg1_acc_y,seg1_acc_z,seg1_gyr_x,seg1_gyr_y,seg1_gyr_z,seg1_mag_x,seg1_mag_y,seg1_mag_z,seg2_acc_x,seg2_acc_y,seg2_acc_z,seg2_gyr_x,seg2_gyr_y,seg2_gyr_z,seg2_mag_x,seg2_mag_y,seg2_mag_z,seg3_acc_x,seg3_acc_y,seg3_acc_z,seg3_gyr_x,seg3_gyr_y,seg3_gyr_z,seg3_mag_x,seg3_mag_y,seg3_mag_z,seg4_acc_x,seg4_acc_y,seg4_acc_z,seg4_gyr_x,seg4_gyr_y,seg4_gyr_z,seg4_mag_x,seg4_mag_y,seg4_mag_z,seg5_acc_x,seg5_acc_y,seg5_acc_z,seg5_gyr_x,seg5_gyr_y,seg5_gyr_z,seg5_mag_x,seg5_mag_y,seg5_mag_z
-6.281705375677091,-6.705266076340134,3.2995789422388007,-0.008727246706203961,0.03205214128907379,0.0005116109012747149,0.22185404391108957,0.47829579164588787,-0.2727314263137451,-4.26309058802716,7.171704967097878,5.273258476535059,-0.09692945604766556,-0.02191808448364701,-0.0241633659466429,0.16355382164386958,-0.32560132257292007,-0.5485539597664485,-4.605889723812138,6.649784320325834,5.641534643404617,-0.0012335449453017484,-0.0198100322922646,0.010364433098214018,0.23320251938305114,-0.3152573407358906,-0.4755595428740046,-4.358226471984921,6.415630730079828,6.073754637501524,0.0025226725155043477,-0.0030364358640782275,0.017303332760565476,0.18996711834997007,-0.1810221108573297,-0.5976829162922135,4.656421144773803,5.906391155877022,6.075871004571043,-0.01186760797691534,-0.005541704870712427,-0.03171788962135056,-0.1856151148474483,-0.35264949427456316,-0.5414897288047701
-6.349476495720611,-6.715269435775925,3.333070126228698,-0.02168501876835128,0.01519279648982757,-0.021580494591990608,0.21987913471397733,0.48140344521450834,-0.26294850936834474,-4.253310342451479,6.883462621498689,5.335204492758518,-0.02345803211800934,-0.02060793327009136,-0.03164908879392744,0.16229117807041443,-0.32007344496424833,-0.5388822480591053,-4.543117925425726,6.389758118810735,5.71536544509988,-0.0021968716374644185,-0.011337250507655763,0.012810484102295412,0.23003609826947388,-0.314513383463699,-0.47727599383708075,-4.324004144229632,6.391309745893289,6.102651989857887,-0.0010578554382341104,-0.0035565220074369255,0.013489073989062975,0.1868125048276541,-0.18101947796786938,-0.6006327846948231,4.7092684264971405,6.00965025642524,6.109781437839099,-0.012623916934935593,-0.0004611614177093062,-0.03390020490154392,-0.18927024897538894,-0.35263394658057867,-0.5427310336730339
-6.271231650076006,-6.828825635166732,3.2044877968013328,-0.049826139545328246,-0.01028107718674888,-0.0013104346185859757,0.21590328843563372,0.47428124193207494,-0.2549626991543041,-4.264936599431581,7.030459238987788,5.268452145029051,0.05473009184475099,-0.03673311376655799,-0.046304057205370557,0.15743218569944328,-0.3273092914178731,-0.5321761427633014,-4.517495998757615,6.406478020395652,5.699841210052553,-0.010056090382953409,-0.003176652174359267,0.01646188911313068,0.22613061007846158,-0.31547715056095854,-0.47972565850231635,-4.30078881823351,6.3278423046584225,6.062453037943783,-0.006093810403753219,-0.0005334690771182912,0.02386251741763361,0.18290903910366726,-0.179028308337564,-0.5989624778831837,4.659192502696917,6.050278673528842,6.058158800748286,-0.011931738478485164,0.0029565805523970533,-0.023266205756810116,-0.19073031792150616,-0.35311487015829013,-0.5439597241080033
-6.120065324384606,-6.933487648616878,3.1380536234225413,-0.013263633343137718,-0.005923716248980134,0.020238976020055314,0.2251920783513861,0.47232150609632345,-0.2603135583708307,-4.316474468768217,7.199919388957563,5.239058016389786,-0.03514142570683118,-0.044180982018051054,-0.0380305077564304,0.16601415867398903,-0.33345227606609407,-0.536942777055534,-4.674594482079503,6.628284240484186,5.6223115590988755,-0.0014794078816351927,-0.005535549108776047,0.009633319385553682,0.23270437465342034,-0.3198973756104942,-0.4792188648318,-4.398798949015792,6.372664167771266,5.994184834209296,0.003214090581558681,0.011221814545057456,0.013698749798790863,0.19164811590611538,-0.18690652628371782,-0.599586174631462,4.581004272787607,6.094098848770209,6.026351048446923,0.0016769178388527913,0.0005152848737735369,-0.009890244084985844,-0.1863411799706006,-0.3584996482670456,-0.5466276624070253
-6.079301373786846,-6.918231153217832,3.192623278623965,0.00039884420177686624,0.007906325859798816,0.03627990366168832,0.2166757804450767,0.47580542509520607,-0.2630050175253072,-4.289909734670015,7.025621930474504,5.236590419656587,-0.09692356847928411,-0.028193387110282506,-0.0056236405905142365,0.15451232730191755,-0.3262537563192423,-0.5412329216384841,-4.646268142501486,6.566437959573394,5.603011896676589,0.01304473671709277,-0.02193584793413164,0.0013939900976637153,0.23517149762225084,-0.3120919614750978,-0.47677885900565437,-4.388782363995625,6.421703774751765,6.033763153435003,0.0155452288582176,0.027585193179402917,0.0012293730111978358,0.1919156839042079,-0.17980279301232338,-0.5957250668920587,4.669296843547263,6.160039936517105,6.048654690311136,0.019771434751666643,-0.008773674269707064,-0.002130435793369249,-0.18267829329244678,-0.35192694847533224,-0.5422045852393723
-6.172302439853731,-6.9450495048066685,3.2232429599495505,-0.0071972425040282215,0.0021095771386864305,0.05223310036398511,0.21128946447238073,0.47580313829748816,-0.2591201659177376,-4.326987689340516,6.731877364642914,5.345594895270497,-0.01607658094464075,-0.02032283723296039,-0.0028235971619571818,0.15401582338455352,-0.32548332719548284,-0.5388052995869066,-4.590069356445517,6.3984324220229105,5.684742861244548,0.013445879014063333,-0.02933447625611564,0.00512086919561114,0.2356268519805991,-0.32088338519034365,-0.4775027446784975,-4.410743314115651,6.455633200498645,6.109418550957669,0.01530607924143554,0.030105352442036885,0.003732301246635924,0.19336580478499088,-0.1849605959156821,-0.5988546837442024,4.763393799775389,6.186221048731972,6.125982123184567,0.022579867697537333,-0.007121287030741084,0.016248385790210325,-0.18268521255110667,-0.35900362210739195,-0.5458759300105931
-6.133465305235053,-6.963758454716636,3.1493440011079206,0.026591336605716182,0.0012548473938847656,0.06237328555992188,0.2140284672311555,0.48555928477396043,-0.25976494790960947,-4.367705926438062,6.8249816327436825,5.367545603803214,0.11494611416296416,-0.029688516012326988,-0.0074371299451209075,0.15349477289483812,-0.3193416913230769,-0.536466680507633,-4.62231682697731,6.387242815343376,5.648517153637125,0.0015706262470809762,-0.003096660391026253,0.01678995117963806,0.2238859934462284,-0.3274311084372696,-0.47923181007852184,-4.479512395793714,6.454195845478155,6.0887073682608515,0.0034993934682789433,0.011723553312701843,0.020528613009124713,0.18405173305666367,-0.19223462482689352,-0.6010660261506237,4.757501772648687,6.1246424768134595,6.140103858375923,0.0013178357700404128,0.003774770049680292,0.018694020352916025,-0.19393278568116215,-0.3657942557461761,-0.5476553488673745
-6.341613725778542,-6.768318425833531,3.3000193755306224,0.045657094619052284,0.005497079807647819,0.0631438694453805,0.2239839157397791,0.47404451079647625,-0.26128087212921847,-4.263020025013812,7.365499666586607,5.171193724098509,0.07123345846642246,-0.026051597024576514,-0.0006192264380198946,0.1603902030405532,-0.33222659003314037,-0.5350183140702397,-4.633745533296711,6.664751179167631,5.543478041814674,-0.007875098339994523,0.004596909639344991,0.015207292589514828,0.23468609554358008,-0.3106242772239897,-0.4758040960800816,-4.410197072029484,6.394001142180113,6.084750257279257,-0.004323857273413213,0.001952684423203357,0.02330473548063849,0.19368592124905937,-0.1747135807041107,-0.5996531483353117,4.603521109994874,6.021022027994875,6.114423375897441,-0.00993191163031557,0.00409969888973464,0.01144079378282429,-0.18362279619097088,-0.34630594845600554,-0.5441573123215341
-6.289769900308926,-6.75078269651973,3.29866850614057,0.02588240131526653,-0.011027528224436884,0.06753547326712635,0.22299321591803015,0.47015622145134345,-0.2630243109241617,-4.170169088283909,7.2831967980339245,5.245567821830038,-0.0867322013242561,-0.001458499801351011,0.010871797357298783,0.15918495461081,-0.3342505621150401,-0.5388939575309172,-4.5427127456794505,6.672961176181948,5.515324034042143,-0.019933000688422645,-0.021019407804824364,-0.002313030282947201,0.23514552689907667,-0.31550518123960464,-0.4709171304755433,-4.332462967787138,6.432732907629854,6.063757738807515,-0.017470582623611928,-0.005862684754063698,0.0026099830010975354,0.1952773971196112,-0.1839488694238668,-0.5915244764993846,4.664538524497899,5.925336500442326,6.101614587455264,-0.02102326853940064,0.011041545778284022,0.005473179126093499,-0.18319059949681993,-0.3543701755006747,-0.5395252351212284
-6.301866337963028,-6.846124169421139,3.27888312724427,0.017959542552505942,-0.02862598820169393,0.04833358105687192,0.2239595289472526,0.4723049905448971,-0.2573884446631381,-4.302498442163463,6.829782469185432,5.436544612549988,-0.0936068715003722,0.015417102593294188,0.006976287661833383,0.1603634978639035,-0.32661144182123353,-0.5351124065346539,-4.580528379914155,6.36877965410094,5.787647810427733,-0.030541189466195127,-0.018260549264987103,0.0008388149563227971,0.22614433283995025,-0.31425952697519766,-0.4838766277251866,-4.3689945124624785,6.408316621273957,6.097489131147894,-0.027665817074950007,-0.0148947568241224,0.001301477516388128,0.1868809002975479,-0.17838448388825082,-0.6082190297646896,4.713866500716065,5.887201746160269,6.105409205758477,-0.03128779453834409,0.02000206084795667,-0.011309664396479886,-0.1901896392704722,-0.3513980922565832,-0.5522558537015262
-6.39260364429645,-6.584388208495053,3.4034296663790555,0.0166435183661542,-0.03960612265236958,0.028157595881767757,0.21914627207823587,0.4770584070920048,-0.2688456671643618,-4.050894803384099,7.002762972137393,5.384548718890296,0.0642246857845269,-0.005089381993106275,-0.020711688120648976,0.1566938517437347,-0.32283394066505045,-0.5417746678900621,-4.288676527808149,6.400146806660813,5.799257104918769,-0.0157834631620485,0.0020806727919239687,0.008966226817631,0.2346646571764502,-0.31477326411132056,-0.47335976995511975,-4.084810591283765,6.329315250388088,5.975501373275866,-0.01611537518793899,-0.0024873355633160807,0.01064998851395735,0.19187945994317385,-0.18222437153969195,-0.592779217904002,4.730642452961613,5.950415117121447,6.0519421984738,-0.01684855923225591,0.012561027539423751,-0.012680153388307346,-0.18416130053236712,-0.35168128198777965,-0.5387954816177091
-6.42349003939506,-6.59721077507948,3.361773597313426,-0.02463363217185845,-0.04348682058616603,0.03399134647712837,0.22792685548260447,0.472163718429891,-0.2732434875313052,-4.252210074669066,7.21837512750325,5.28754388957778,0.07335952263765605,-0.03201618175191181,-0.027047572227536027,0.16358052206532403,-0.33121547093649856,-0.5484598840563906,-4.550335047296205,6.527604080988852,5.751201113812706,0.01262876899625781,0.012507825828312636,-0.0013688592651375157,0.23031113487364901,-0.310614306539561,-0.4846035821856453,-4.290105049185282,6.302064859675564,5.99859034315191,0.014497018753392689,0.022772077311963998,0.0024232596150052,0.18905704310341503,-0.17813315281308445,-0.604788242073921,4.56300368484121,6.043200703327011,6.024703717870735,0.015503088800081175,-0.009862132172538498,0.019679937821755915,-0.1879738304919433,-0.34676860783163604,-0.5522381501378687
-6.363744765940365,-6.667221411066286,3.461018048964622,-0.03708045662494594,-0.05356851903033953,0.05225890338862513,0.21837545365269284,0.47456973777676736,-0.2622759538529426,-4.291243923815434,7.089818170817565,5.251980322974678,0.0031897539862697413,-0.04102940147388421,-0.0327882714579757,0.15598812828702352,-0.32961925522912305,-0.5384877359362135,-4.597974130565512,6.437086284588219,5.701903465572313,0.028628795030024357,0.002787737174511055,-0.007236412203205524,0.23221682216200742,-0.31476118861360297,-0.47019106123950344,-4.375910416520183,6.360449092280221,6.086114677486359,0.030206288351838705,0.04260372283959088,-0.004453540974651048,0.19090335132745345,-0.18000624006370572,-0.5906031545488684,4.650865530664492,6.046110853975342,6.036124335224007,0.03785529544497012,-0.013606245964492803,0.030645909735684915,-0.18613315193546745,-0.3541177209116245,-0.5371002467034669
-6.308313435173549,-6.768388869782119,3.3240773106929145,-0.01875619487739643,-0.07397469795575456,0.0838676690094342,0.2156917148247119,0.4762794321384537,-0.26056409839969746,-4.303380238546276,7.079817202225097,5.17685113463242,0.00988419697397854,-0.03787545710626441,-0.03561543947743896,0.15400503505898896,-0.32490854116272583,-0.5336872184397794,-4.634811809869314,6.603168366529536,5.58024979568707,0.031181625353489964,-0.005223034434000737,-0.004456389078147766,0.23561756095917863,-0.3225913819361646,-0.47628137585902236,-4.436968668469184,6.498239787236969,6.043145603011005,0.03225459874660395,0.04970346440585663,-0.0017547591718861328,0.1952506121788072,-0.19105107288877002,-0.5948959913681138,4.782877896672758,6.062633187305039,6.049165083141286,0.046079085519390536,-0.01620194672394087,0.029814551582260564,-0.18468293608377492,-0.36217589270185413,-0.5400306295082635
-6.3116528077487475,-6.757466920335174,3.1314372577000795,-0.01403967430382408,-0.046534920139986835,0.06397047794887568,0.2254674628883981,0.4764891558499124,-0.26272091706620293,-4.421647781671947,7.093078187187962,5.191256875218454,0.002241005923556722,-0.028054930421100636,-0.020253341860487755,0.15767521135591445,-0.3261363607671777,-0.5351248018176777,-4.752246623576547,6.6648859900774235,5.517805775523818,0.020415928780524405,-0.021380239105261316,-0.003206543283726296,0.23296263526240862,-0.31623535422383087,-0.47922127760307365,-4.595500569616404,6.578298141443956,6.097108884808136,0.019096239666771878,0.04225540044436278,-0.008666412053194456,0.18970454351153637,-0.1834607050605658,-0.5974245584663889,4.7913995199374275,6.10598073253942,6.117410034493663,0.0370011538805833,-0.005038175589617092,0.015721910196715344,-0.18779351282979662,-0.35556473702044444,-0.5468763132479109
-6.374965978091829,-6.74903779777191,3.233300070227132,0.012364218824140898,-0.030013315558148106,0.04267839050474823,0.2246758643593766,0.46840387075720946,-0.2586372208558359,-4.401920914714784,7.0134122847146925,5.3487308748919675,0.0022551883997811288,-0.035156308982864586,-0.02230468444033331,0.16039979664291856,-0.33464678885969634,-0.5337575894362572,-4.643803874199253,6.458837001298682,5.5600244008656174,-0.011376570719416895,0.005469246682446842,-0.00011802284800144165,0.23809918940202063,-0.3152814956233912,-0.4818969581410306,-4.547356797391455,6.50733276420807,6.015468314111204,-0.010652973369963209,0.008466260386601475,0.0030233523521279028,0.2011952770870598,-0.18036131919294662,-0.5966364657434553,4.812721034122649,6.094909585858512,6.157818216499529,-0.004251409990584704,0.008987761949562122,-0.017120416444408117,-0.17875151762890706,-0.3514500349419546,-0.5456002722641013
-6.327054828155751,-6.737211276378926,3.3343908849362043,0.02442913050151976,-0.053219909858450924,0.021967477338057602,0.21349225923137422,0.47362807527073597,-0.2635226703276623,-4.205709258828212,7.081469026929317,5.208910235073014,0.04817984134187915,-0.02468205286509873,-0.02622684187308537,0.14962869801939654,-0.3276641976724901,-0.5365777035748537,-4.603759700806518,6.571614091704746,5.667296732204296,-0.005676303622358988,0.011723487777609487,0.004101233170039863,0.2329268332508029,-0.3238019181989919,-0.4762862086386777,-4.34974849504201,6.412208089765394,6.034865204319315,-0.003256036666468896,0.004473907761228421,0.010704588575495569,0.19405127138496983,-0.189097770252174,-0.5961377970977287,4.6784586106443085,5.998340148506548,6.090950815890207,-0.005163440795928782,-7.748238195594895e-05,-0.029184241460545532,-0.1839322748458481,-0.36119959374498,-0.542711365237999
-6.5189336285658595,-6.820291108879944,3.306706974685291,-0.037666824555038156,-0.08417888737969684,0.08244497178394987,0.22960686443210349,0.4728226546358748,-0.264930368741943,-4.1801861478063005,7.342050513936316,4.915469941665677,0.08657159244278108,-0.006830868989304886,-0.018353302475902347,0.16695797999083972,-0.3259093717960911,-0.5387767973649714,-4.552201253792278,6.587734420581019,5.548918760049841,0.01898178004739049,-0.025777504682338533,-0.009204091187320075,0.23953716294821847,-0.31503270242379455,-0.4689550179455163,-4.2997344234917305,6.334419120929857,5.980380066598398,0.01915331391030839,0.025958350905154495,-0.00574950515592883,0.20086534847302043,-0.18273133447354858,-0.5861245584151275,4.60586227216057,6.033034784996757,6.060771515855801,0.02246929770885989,-0.013181530628669592,-0.015247798324875274,-0.1810301723013343,-0.35682532043564125,-0.5346330171496624
-6.426175134397392,-6.66359251019748,3.291215293319125,-0.08120503842281387,-0.07478543411263786,0.18393744974130097,0.22207583099782335,0.4789748365764404,-0.26613297706635003,-4.219107438472874,7.401725147994099,5.1442857432548985,-0.1629248175091242,-0.025052875880603804,-0.018104947962632394,0.1571728653711903,-0.32134639821827043,-0.540578619223101,-4.5302377999023475,6.593545311767421,5.609162670803084,0.03727967347632402,-0.055026204456555185,-0.021933853619554626,0.2283187587273413,-0.3196380487277564,-0.4826465619474757,-4.326863048120861,6.327013455020957,5.9974934007907015,0.038694915424156935,0.04120389435715807,-0.021372284298162868,0.19141573037451343,-0.18593270872432066,-0.6003261512025179,4.5581714107926175,6.072614078263239,6.031841269788601,0.03961890474345481,-0.02650157927842087,0.0006811950371433102,-0.19098269489552838,-0.36092231235430805,-0.5478772879197136
-6.127506333935499,-7.045825630569203,3.152309810210827,-0.07421793423858611,-0.10325564256291779,0.2517166500457923,0.2210323060005487,0.46700986635992814,-0.26525378977228925,-4.215168822719975,7.062154944226277,5.355846872945662,-0.2658476934563409,-0.039818252308383546,-0.016715372955733467,0.1511254117944021,-0.3323936236894316,-0.5423568491367846,-4.520291881314813,6.484836027576048,5.649397464192007,0.03217739548091639,-0.03725832952026881,-0.03330932479687583,0.22879746329563033,-0.3201261712750891,-0.4792271223274378,-4.3974915952836175,6.3439265966892435,5.983616359838571,0.031476900536897036,0.03389781482224747,-0.03374008575666207,0.19284820934301602,-0.18689404673690263,-0.5964042354422852,4.636015940726168,6.085068666862905,6.0072087869206925,0.031006683865526304,-0.020581074890468846,0.02065557866573154,-0.1915138624804517,-0.35946568474044094,-0.539089399265933
-5.990659771476034,-6.972705661020124,3.170671925670903,-0.04637519334688867,-0.154769883078737,0.2625455458674414,0.23448474242258688,0.46819637338687387,-0.2698305245675367,-4.061925173997671,6.7465177979762885,5.418697601218595,-0.2553205750498837,0.006936734099885946,0.011566017993421853,0.16110796425609197,-0.32487602563840556,-0.548326111142495,-4.467279291438347,6.5219739327980175,5.508689524144854,0.03288507021306208,-0.05605576680575685,-0.036464554102588254,0.22611391049715246,-0.3220724652275299,-0.48387035506212533,-4.313401313148336,6.373484851534457,5.971197425668742,0.0316047064555304,0.03742608859630351,-0.03969875723799671,0.19139384456115766,-0.18861537007587986,-0.5998205930119758,4.669324556285043,6.0609429300101025,5.987225366496242,0.03476082594893136,-0.018307419163570652,0.033216283656023686,-0.19440875438950705,-0.36091083607820085,-0.5464312818205546
-5.92004283386308,-7.090555277725079,3.3861500700978113,0.05792574455925318,-0.2197668528130095,0.26528758493740556,0.22327535431175488,0.47578597799802336,-0.2649321707596583,-4.011062577248941,6.551537395647117,5.580703772152081,-0.077567704145272,0.04333202990432152,0.03278593558223611,0.1512915735384385,-0.31626862556285396,-0.5418935493497283,-4.312978135652559,6.38753288581622,5.633040378016502,0.008961331758987357,-0.03511278077591901,-0.04061725629935651,0.2305398191485896,-0.3130550578365921,-0.4819151007167793,-4.225457089929076,6.354145590114804,5.9984307846261515,0.007864927118507092,0.014956031866357102,-0.04644191203248508,0.19877703043208592,-0.17987578112860775,-0.5995856793511456,4.7796275769687115,6.103716005110344,6.068571219516094,0.0058747963336119695,-0.00388520537698255,0.06618817064413583,-0.18757246395548174,-0.35483809042862874,-0.5422351638077652
-6.39768491123255,-6.451093966674036,3.8883293711806615,-0.019261639176844734,-0.21918686337556711,0.2923442213364265,0.23010292352543832,0.47162782201890713,-0.2685999095024947,-4.261334694318804,6.903816974718256,5.30013441354386,0.005154840030177122,0.061999074947512126,0.013200099769170616,0.15691230849883886,-0.31746258844214714,-0.5418642722630614,-4.54011724135719,6.145892196072073,5.530634278365779,0.005340219937579237,-0.02195786172158841,-0.024779711734277374,0.23418352771855352,-0.3135511670426233,-0.47433880376425286,-4.4161234273787064,6.365602142431877,5.909355895535287,0.007912476294344842,0.0038512846339565847,-0.023356414355797012,0.19944984885045464,-0.1835088837220468,-0.5944300922922889,4.81761442712575,6.057344556034758,6.0473388396264784,-0.0045448105334748605,-0.005977045347936866,0.08552116690108667,-0.18662103453957393,-0.3533834144769639,-0.536613093108975
-6.624162173575139,-7.221904545516282,3.164347851783454,-0.4690434272379225,-0.22053670746222695,0.3977247280514802,0.23717721616557283,0.4761680996606854,-0.26072409280977593,-4.379527863498887,7.227414815160191,5.319340846359053,-0.11835772144630188,0.07040489269319436,-0.00793654231384173,0.1625194174430894,-0.316194490760756,-0.5406560820637322,-4.7474442966862265,6.774645399452928,5.5866122926205195,0.01962789786787008,-0.045007430205255945,-0.020735124972072787,0.23638208092008178,-0.3160048579921662,-0.47945907558752365,-4.591968869381758,6.507014283823311,6.009093070745138,0.019755820105876197,0.009946885648131546,-0.014236391075242785,0.20312734716585537,-0.1845326747096671,-0.5978173333752195,4.69685562853504,6.069937386177992,6.0231253524155886,0.006154128991560415,-0.020103846280854275,0.07413694894633187,-0.18268968173674552,-0.3555893488559129,-0.5426979246313316
-6.644143122941058,-6.824703391300243,3.108356107696637,0.026196123610549904,-0.2950831690260405,0.38907702640779246,0.24371243029541406,0.46515067192106496,-0.2612725964828396,-4.270258501910505,7.634733400301941,5.009404096906539,-0.03774792493847958,0.11901118813150975,0.05876897019997289,0.16571846969614404,-0.3217780988386235,-0.5395801422350244,-4.879436161971065,7.503274138738031,5.544299823353995,0.020323075941264687,-0.06347142470333045,-0.06326075668544472,0.23221447931283407,-0.3203834724258729,-0.47921952917406163,-4.607775329792607,6.598296331059159,6.1328489986262404,0.017526050805216152,0.009589698727386645,-0.04459299917577804,0.19892970981254504,-0.18789770255475363,-0.594160573025964,4.562963559855496,5.905329219551301,6.017557703494208,0.0020548481722606304,-0.0065900126251346725,0.048067508106719274,-0.19127802378484984,-0.36263974703120916,-0.5398238001673352
-6.040151899376083,-6.2876542910239195,3.3374059459914363,0.3279437564957622,-0.3215644494028941,0.3134378120228346,0.24059085352715093,0.4684101006646303,-0.2700487350839249,-4.1241875592475825,6.733551038894642,5.232553618447434,-0.2860545132392816,0.18276569265636897,0.09604769819873529,0.1627463372332699,-0.3109089987380559,-0.5458719604640399,-4.359817899022668,5.851798525547398,5.413184192950474,-0.016270340715449916,-0.16675120650403663,-0.06507105461302512,0.22587424705928527,-0.319872948519463,-0.4819196521920079,-4.354538392820434,6.4374512934370625,5.969124526883933,-0.013172882489474841,0.020969727849349144,-0.08508142009770828,0.19555619866091845,-0.18521494466512212,-0.5981065859016995,5.110748202107056,6.033979111236888,6.22135266793793,0.009017665653808564,-0.002487775129379503,0.03962882898928206,-0.1949015345857062,-0.35968995540162096,-0.544723568714735
-6.457328154852648,-5.806348435379353,3.202134739455078,0.105282487744375,-0.25680862952345246,0.46378616353945024,0.24226427143589255,0.4632571118241443,-0.2678854048935634,-4.513758928446206,6.059773681059483,5.174975938098356,-0.48687235233496906,0.09300407990502907,0.031463275748603685,0.15612018926393526,-0.3036135259814546,-0.5457600571746722,-4.4948534412496715,5.842958731653544,5.694025292060581,-0.033803158969304796,-0.09612280958148162,-0.007066088228867001,0.22298445525542077,-0.3127849619460785,-0.48730266182100157,-4.49852153346086,6.333854850594635,6.006702049789449,-0.031232592099664867,-0.035889919674972424,-0.005575882572291075,0.19199021578586345,-0.1779100221689631,-0.60501445376812,4.982814039176197,6.133315139286961,6.1525956977864205,-0.0507417632790348,0.008648470065314029,0.03116372812844707,-0.19826319197708633,-0.3521031425567361,-0.5496164786300788
-7.415235214729918,-5.983720660809725,2.8769123829785253,-0.11086772510740323,-0.1692429527601707,0.7124356955119023,0.24469542259524507,0.45718550108543293,-0.27353857763795597,-4.453845807452569,6.763879900911319,5.037132879496337,-0.1850464745788743,-0.05543838591856984,0.010979510812133256,0.1542018299209751,-0.30909527742997495,-0.5517762745483983,-4.436025410265523,6.537155805736809,5.8231315869604146,-0.010120397935352389,-0.06663575234734173,0.01291322305754284,0.22686401004300777,-0.3189031255531114,-0.48606831108977117,-4.41996814054907,6.48062006079463,5.988340033070217,-0.007275597741197274,-0.04674060927145265,0.018629055489790134,0.19705056789868128,-0.18377944668178903,-0.6010363565618495,4.858849878944505,5.972274674656476,6.142898286242648,-0.05718205819382067,-0.005572324978530206,0.03662246944229942,-0.19121687041616905,-0.3587231047033131,-0.5481200296205767
-6.657530732538742,-5.182348198297562,3.377671454428653,0.23148005359011561,-0.07877811431073874,0.8979869945620379,0.2675982520322924,0.4463440595368094,-0.27621912047948965,-4.415882134902585,6.819978709759401,5.353872926611229,-0.23727550648242005,-0.2364396641062046,-0.06544635484773903,0.15955523610356367,-0.3049324755728019,-0.5525692631625275,-4.557058104669752,6.3051604718274055,5.950454577199874,0.03791603278297098,-0.04930734978975643,0.02700101243863417,0.22366903674551772,-0.3203500167784404,-0.47899402296937404,-4.415987649460464,6.319939107366813,5.932884748333579,0.039419987823323115,-0.02191285612362261,0.029686660312579324,0.19768970595195065,-0.18737875979111035,-0.5907539914793437,4.758515147139155,5.878797806520738,6.008466858019623,-0.021403279786699758,-0.037450615461574126,0.02420485688702899,-0.1949238484371932,-0.3577432306569274,-0.5393503373908082
-6.924824580229645,-4.547568372608889,4.822835407897688,0.07104558901776487,0.029619596409250312,0.727980714998462,0.2685281492170148,0.4397223412179214,-0.2730931955393881,-4.251053965599689,6.919736864356686,6.080802319499973,-0.18881192788564422,-0.314300013804586,-0.04037790542540956,0.14954358778069965,-0.30380042574506855,-0.555047098114017,-4.4537111897102495,6.663972611618075,6.153129363535509,0.0803617191404008,-0.006065916407735114,0.015002627934255691,0.2241665561491739,-0.3142426172764674,-0.47240688498947053,-4.422075690854079,6.342705538535303,5.9050845089310116,0.07931539775036894,0.019999347637899657,0.020175107726086817,0.19796010359810096,-0.18126063050208008,-0.5883504326355319,4.625050775230899,5.884023045222039,5.990535310717485,0.030479842408770625,-0.07029453591540544,0.02157073056654047,-0.19445002325840777,-0.3526252681904224,-0.5332376424948237
-7.608822567239929,-5.083339810295072,4.653581792303927,-0.3813633526133356,-0.043410847320925865,0.39092432813448175,0.27123953969648906,0.4482164700302734,-0.2683767659165707,-4.00696658650944,6.47386759167724,5.683512801795119,0.1669549959355593,-0.2123716009585319,-0.06065848180978043,0.14561659554426595,-0.30012085116350934,-0.5529168993266422,-4.665646754280679,6.419695621901031,5.458981681961197,0.13739557928769633,-0.05385478791163806,0.007012630119350822,0.22046444507298038,-0.32643804016366157,-0.47582200082674875,-4.418102376029134,6.3485960636898975,5.900636596420073,0.13829589576272597,0.08369199586315114,-0.00168514943774169,0.1949764308530514,-0.19028202234670052,-0.5895316286972694,4.753420533820157,5.848218068896693,5.8417222357405985,0.1098949888351821,-0.10878570496557302,0.014039874823462804,-0.19910503593398102,-0.3638315932181294,-0.538159638671543
-7.775115272306939,-6.500266497683916,4.061884990376814,-0.7738215528303499,-0.20953314244318105,0.19196090028469762,0.27905169785171624,0.44913976991946675,-0.2668736118085918,-4.237038609426468,6.634540105006266,6.207924551911763,0.5719658553968816,-0.0691547824654935,-0.19219496932610827,0.15444879261658306,-0.30934624116563214,-0.5522597325407442,-4.461259195929032,6.066562471270551,5.44837783427071,0.10604177548566679,-0.08445933606714115,0.02520774950179316,0.22612025322298035,-0.3196292960187239,-0.4824073195236056,-4.633407642011974,6.371086508562828,6.012031809528517,0.11018084069653745,0.06480899846542555,0.02586879804538087,0.2001442358147125,-0.187899702332418,-0.5931755387164355,4.914461014612247,6.1020001452241335,6.064071100064628,0.08511057847050837,-0.0908709498568419,-0.006330244034060966,-0.19811531276621255,-0.3601736756998763,-0.537905874054547
-6.4180644817539205,-7.477001435266257,2.9119321567586494,0.2435304917828949,-0.294110337784103,-0.02774076052494188,0.2773239439995043,0.4428307457873007,-0.27059200058949057,-4.239465961507269,6.782288215017558,6.084269746356268,0.6550960328208402,-0.008552545332630782,-0.25708882280202244,0.1593823962425789,-0.3230895973873259,-0.5432311547997493,-4.450643880551993,6.365520324419695,5.583925600677618,0.012849233738533762,-0.0011533915633911039,0.043158818719168206,0.22267040726312956,-0.32278263966610377,-0.4733791926029853,-4.488494018029723,6.433752315005815,6.002675374300255,0.017930066460725903,-0.022629214133974347,0.05493130253682947,0.1971720063384371,-0.18537903157345678,-0.5841782868657158,4.868626064124939,6.068287150466633,5.968193669314181,-0.02434561923031165,-0.02483955554747778,-0.01761146326959931,-0.19789092152111634,-0.3582273233710545,-0.5330192806418296
-7.074415992185512,-5.45431503857204,3.59657050256126,1.2411639010298645,-0.2002773488639777,-0.1631405602980002,0.26442613376699997,0.4388743592943321,-0.2867885710327839,-4.169704319103658,7.653750714816613,4.956658134163429,0.07406390238377739,0.01367400397415162,-0.25296455757279745,0.15424143551593725,-0.3206489519664394,-0.5418153130936841,-4.4639911237993335,6.571324255015406,5.493413553026206,0.03620262325442936,-0.027255906784554165,0.05390149167555147,0.2138818973255737,-0.3273943279310057,-0.48193946663042425,-4.285687625358973,6.305617565105605,5.74224384939421,0.035996637590222084,-0.0042303923979831485,0.06618121539649523,0.19183531575773272,-0.19275085146525778,-0.5971043204077066,4.688794362104234,5.986381863925265,5.7955265329247885,-0.0051303258908968995,-0.03237844485094054,-0.004266299952862495,-0.2059118773505598,-0.3633115393020307,-0.5430799214737707
-6.666578490179138,-5.57913460129031,4.320283883209304,0.5232987357246185,-0.011847459254956613,-0.15319327663842847,0.27148484549535334,0.43589669675225956,-0.2853189518570975,-4.0622794864759575,6.775398827137327,5.502218181510323,0.009709099342366636,-0.07020232305266615,-0.28027600444021095,0.15860081361595985,-0.3149238395416667,-0.5365322456793162,-3.9296293177057313,6.760900544626031,5.895101616372446,0.0495078656432411,-0.044354756219088305,0.029107050867376374,0.2231553731558437,-0.3281618388790628,-0.4811868013861021,-4.10716818027368,6.414720026933984,5.78151424266225,0.051282844726860684,0.020343494853745578,0.026924979997324513,0.1981567072991137,-0.19448916712520317,-0.5948542400431539,4.838558735009271,6.088100381772816,5.919917968728298,0.0254723227270753,-0.0484664183783155,0.0505068202371304,-0.19908176822457735,-0.36236390610052943,-0.5413318500671676
-6.719187477731361,-4.82091271773053,5.81389481182418,-0.35437365270638477,-0.13832024135934765,0.03093966098434834,0.2659539896631033,0.44358192182248674,-0.2965110338074236,-4.530740619112807,5.133474888323888,5.628377531881044,0.5116329932514342,-0.2440433936174982,-0.25302637051547183,0.1571532722960852,-0.3165009312749246,-0.5428571196537243,-4.445735263234991,6.386363677848826,6.146050796564499,0.03927992784237808,0.07574326232641491,0.026919510059610397,0.22538711476808426,-0.3157143382165096,-0.4748440598154617,-4.451817730837163,6.525894373777209,5.90670989176545,0.04186782648006327,0.012172081131393696,0.02165075605529937,0.20186994213494092,-0.18178304955945773,-0.5892983461043306,4.988646447655556,6.086951053266821,5.843574084555491,0.013463014869760738,-0.041366615750872505,0.08715797719621692,-0.1983423695841856,-0.35260735639990215,-0.5357012819262268
-6.301074611608545,-6.929700322812451,3.87480552130468,-0.28078979968445367,-0.36609680041354026,0.13176003625581179,0.25889006107199375,0.44920721519994644,-0.2930767454856292,-4.200298732006464,5.711862514623625,5.348485284126745,1.7083561707538804,-0.1817160828269198,-0.2893628841630849,0.15135846637100986,-0.33646279728144196,-0.5229985782211679,-4.369105547478164,6.178048200800019,5.865239650001626,0.09020286057429422,0.11933096804389054,0.06259929153690488,0.22970893512317805,-0.3320861418560086,-0.470915427686083,-4.3722466434621,6.4429951487247665,5.78767480484292,0.0918291174158036,0.05624826073118436,0.06437632836183857,0.20317913496012346,-0.19884538963546836,-0.5835620480579375,4.959067490846538,6.03191368600139,5.8594288981961515,0.06466743907719696,-0.0698187182542622,0.09112230547746789,-0.19941551143212286,-0.37018742035267416,-0.5306006486331292
-6.722147079741275,-6.669233956093747,2.5844385919462254,-0.022800626697320678,-0.36199910958780407,0.007187590753959896,0.2527387779320669,0.4445537838616024,-0.28703426631630063,-4.479614073572742,5.698804734548394,4.399442515830595,2.8337907244398295,-0.043849946878168206,-0.1999792949071733,0.1522010695236243,-0.3717336596040176,-0.4860242822177398,-4.803351853042889,6.5557851415012705,5.190246971224259,0.10388537116680176,0.07666580692446047,0.07811051455570618,0.21192018624545933,-0.3205375108342447,-0.4655922251830203,-4.6667425578000135,6.617345872044664,5.9556974143873065,0.10578419231369528,0.07673004482236015,0.08177977057987958,0.18784656529463492,-0.18723242884038307,-0.5788561024542622,4.97781824354954,6.063848336619118,5.940661577309883,0.0941023722199863,-0.08323255256215359,0.080492002469559,-0.21621832980432582,-0.35645283438310327,-0.5287249458327835
-7.4733087105725104,-5.008511972202341,3.5172465828509734,-0.02920981955454481,-0.10437061507162565,-0.11841051205514432,0.25813836535952106,0.4414415015117811,-0.29851275472672606,-4.981245392950263,8.155164282817488,6.438037290181743,3.7781548639007374,0.025717689607964615,-0.15405397577936183,0.16411545291506066,-0.4219848217758319,-0.4573270120551637,-4.507400520844936,7.012487334030143,6.13059953836202,0.02441740310771106,0.1893533347311723,0.07338234668951488,0.22851241923022095,-0.3203541674063041,-0.4606735039298064,-4.89896039538916,6.630310994640973,6.002383500178284,0.02756865370539124,-0.0006199044964106327,0.07820757593281835,0.19858410516508823,-0.1850904600258788,-0.5758695525839075,4.864779238924293,5.99762844830494,6.037237067425086,-0.0016784408938877,-0.030822287316899778,0.04423646882064848,-0.20500902107587465,-0.35406142893029086,-0.5232888075167978
-8.477178706258917,-7.119390538934097,7.690461243314543,-0.1465996033549565,-0.4809757442432258,-0.0035028855026175386,0.2520437423406911,0.44414899066239355,-0.29729457790964886,-4.466457808222923,9.700751333059612,3.1458614310149753,5.481373875577188,-0.2487696448590275,-0.43403140083020453,0.1608461251600343,-0.47647921568384005,-0.3860967227280168,-3.5732648102084323,6.4717022413292185,8.352097906513816,-0.057549889279885115,0.7433955318382075,0.07793274518366236,0.23555579038587698,-0.33234839134611677,-0.4652865645022787,-4.288013384436798,6.469854041492774,6.0128118851812165,-0.06815102953961143,-0.09913614467802132,0.07630696157015714,0.20101915681101876,-0.196163624657805,-0.586523039783689,5.094708757353448,6.00100135230351,6.110342353940861,-0.12235411815591275,0.036683823227751884,-0.0020149153044222274,-0.2030233518767687,-0.3621115245862333,-0.5347613442354968
-6.198126719006069,-5.654254395180065,2.768273463424445,-0.27847868854042424,-0.806299911165452,-0.4151850747129398,0.23181080144699506,0.4530138105942896,-0.29339892348872537,-4.301139814834897,8.443155698920451,-1.1397709739377957,4.673947391488656,-0.4273441847952169,-0.29573809163192577,0.1567631873058178,-0.5136539283467062,-0.31564693399226584,-5.826446224682957,7.5200996812888565,4.040819617723975,0.18445285168282685,0.4435408639572963,0.0019717890577484474,0.24068644836303613,-0.3287024142933569,-0.46039642165649586,-3.7938162066364995,6.529779552235727,5.69663974485507,0.19604164942988586,0.20351362423042973,-0.012416954030887722,0.20024445719129322,-0.19464053934073638,-0.5784818186938216,4.471181128393011,5.413120216273769,5.007638994217876,0.2340811898190977,-0.1146771862449408,0.051320420319973234,-0.20745688628418432,-0.36112768853360133,-0.5269726989566437
-4.450730982155392,-4.939777790636924,0.21931451935128005,0.044489728225500666,-0.34209031942705875,-0.12402266219410868,0.23005804665626578,0.4437557884160298,-0.2946984180021521,-5.177732351284547,9.976136205962503,-0.2348501381295647,-0.4102896501019501,0.24927455994570233,-0.5065094974421465,0.16825659836463494,-0.5147271821636819,-0.324644262622332,-6.196167063795826,5.40441391032069,1.802949054265823,0.4336460855974347,-0.5627221371369199,0.0633318247572251,0.22941657361171908,-0.3411131688193486,-0.46480471987521943,-5.444676633417394,6.428551602974972,5.677480200933909,0.4309898693171171,0.4854379631005441,0.038226642133584975,0.20428795729886406,-0.2083293346022217,-0.5766559610407691,5.132292311763802,6.093388770310875,5.921274741244195,0.5746164750066478,-0.2821303873792821,-0.04424371530681814,-0.2136294655090327,-0.3764870115635982,-0.5253158586586132
-5.565161116146806,-4.622759280408979,3.5558013524076815,0.01727924407766593,0.18552336212932077,0.2984989924745766,0.24159432873478376,0.4510648816750364,-0.30045580912452763,-5.2921583233915035,6.380979258055112,1.9119618886304866,-2.3320613122841443,0.28610547461919306,-0.20654404785536568,0.17501779370009787,-0.48745137242103687,-0.3600068884371486,-4.3690905802941025,7.939825740584436,4.297915232017861,0.07358317230537575,-0.67655649225463,0.07270808070351031,0.22431678539778385,-0.33059014804693376,-0.45847726098587593,-5.822082058041891,7.5365976463093896,6.211769500507603,0.09709979630199057,0.10709663629479355,0.11123986544154324,0.2089700323820089,-0.1958675193307857,-0.5701150498613998,4.693791828427162,6.608585350400037,6.683895720774632,0.13609290074261024,-0.08005911025110252,-0.21956088918171163,-0.20728698844920046,-0.36699839475283647,-0.5177004476543383
-7.532386924183173,-5.1418539245664,4.245753723459296,-0.20945346641707485,0.3451747407169332,0.38964131478305686,0.24886740211342223,0.44971735803023816,-0.2892061975020915,-5.277968271802763,9.674610142923514,3.2459348353175272,-1.0372481625998837,-0.08590932964807003,0.1418746201989076,0.17058985444240204,-0.4780663097958397,-0.3670083575295095,-4.276528213805355,7.444793786162637,6.783285490613819,-0.30517848740734554,-0.04494780620106637,0.03766805462823956,0.22942269392202566,-0.3418485306099151,-0.4689551211303726,-4.869435016015416,6.894719091069419,6.374033968482741,-0.30677381121644737,-0.3424395802505948,0.050352764368323776,0.20725659434469043,-0.20765140756854158,-0.5817681486377918,5.354531245339669,6.207690914690422,6.450455932655321,-0.4090606471423571,0.17710402551537285,-0.2910904792838924,-0.1997202577506914,-0.37751724904902473,-0.5247507894071757
-7.598661488559518,-5.992099680870145,3.7819219059896456,-0.06623676135323135,0.20898921240717255,0.35704610716525786,0.2549680249380802,0.45088700965800765,-0.2867318381464363,-4.998373534108707,5.838831610900669,1.8276600664499214,0.6297068762782074,-0.4003481404691965,0.32762833588808976,0.16473041613412032,-0.481584057536996,-0.3567036598851809,-4.694430286981222,6.291338109385389,7.114864022867722,-0.3077267643811893,0.11728770022888063,0.01811487898121995,0.2277628314271489,-0.32719102315968474,-0.46530758965764435,-4.309061351226028,6.587567929184614,5.990219845266404,-0.3052012401811495,-0.2740608061956856,0.014536894071950711,0.20125314861555066,-0.19295928094116685,-0.5816604103323475,4.94881844852723,6.001941158328987,5.720188795504922,-0.3593093113926144,0.1778674512082872,-0.3450091066989869,-0.198437889433843,-0.3658006390599846,-0.5276600585361269
-7.231153425047833,-5.117354366301931,3.7521187339462694,0.10809373978171007,0.08988130980750354,0.362534060185097,0.2617688293526644,0.43942720690698495,-0.2931419833259329,-4.410651213723563,7.297481260871256,1.932449514844236,1.1700144555909715,-0.3550860001743599,-0.08056357880169358,0.16650260578427956,-0.49615725044584663,-0.3525500939129958,-4.7481331047827915,4.2651697725675985,5.086548330425789,0.053229236899602496,-0.14310611849141197,0.12490146207874411,0.22628790756611797,-0.33231604423910255,-0.4699456316518144,-3.747069700142808,5.814627794497008,5.168427169794748,0.045642680475486086,0.03304658865168042,0.10428255806940731,0.20296206702463213,-0.19715086170636376,-0.5860157480414045,4.834044573989084,5.770924554978991,5.496625437518573,0.031595419200224496,-0.03167078303975688,-0.33293977024863036,-0.19086226505347695,-0.3711948110159323,-0.5327513469936069
-7.427334891734352,-5.2658350230637945,4.378185687307723,0.1398833511591498,0.07738608846132607,0.5252680382996302,0.2634824935479187,0.4437756728973818,-0.2884629706569753,-4.54763341843085,8.706086470827772,2.252840314811845,-0.37970343474374013,-0.36927277366656697,-0.2969497252977456,0.15937146942841623,-0.4861458340557617,-0.35053223734266603,-4.240025125246069,6.279735220722079,5.553638275507298,0.2956234086167045,-0.4659144852813937,0.1872063418391989,0.21768750292927613,-0.34204078096888674,-0.46141130557303256,-4.2854651017512975,5.887004139614024,5.400783398491843,0.32035521185767274,0.2536076692764827,0.23103008394747163,0.20451599814233165,-0.208069330007492,-0.5739700602636684,4.016832314518842,6.000704410350812,5.842722469939893,0.3418425587064666,-0.23982689734566495,-0.3019375429050979,-0.19342709604072114,-0.38365222818469835,-0.5191078919513455
-6.760220641925261,-5.948189062292802,4.2591287008327035,0.0669303343486102,0.021048603552919064,0.5898540027612386,0.27763845557504824,0.4393454832417369,-0.2933249336043336,-4.709457493438706,9.678167889380546,3.0946802667880378,-0.3047327133113212,-0.5107953069567389,-0.22882229414087016,0.1625524999061403,-0.483181994427215,-0.3640055287280716,-4.371225030757793,6.8109479904997245,6.781395058778267,0.32999564606257936,-0.3394740343891413,0.12030786707984192,0.20501950620958828,-0.33686737869303046,-0.4651048887929077,-4.493945118882781,5.908542760085026,6.495660301517503,0.34772432876801007,0.2589438322276435,0.15604846321607546,0.1974634867736577,-0.20411457613947376,-0.574042456659429,3.7332373382520907,6.023783342102659,6.438658693462558,0.3560847400078742,-0.26187912397283636,-0.2916519667150292,-0.20100300937712917,-0.3826483177001838,-0.5171957727452506
-5.487815218027033,-6.355787283136497,3.69732024257898,0.0688130892929655,0.10293217494106198,0.6028683511330322,0.2751210187545472,0.4264017087460372,-0.291238190050549,-4.331497083466365,9.206374621690118,3.69601727475988,-0.7826001177886721,-0.5076811128697611,-0.04773061037193345,0.15060456369898517,-0.4833904930804104,-0.373057040960918,-3.987563625261864,7.647823089710795,6.2599898563547125,0.28282338129309725,-0.3257669500462298,0.04967961646909709,0.20058562264597202,-0.3471041959187748,-0.46510616589796844,-4.3935048301881245,6.766765432233035,6.305288758171168,0.28822425745915914,0.2817511945413017,0.06246623088250066,0.20001946795734302,-0.21654012753799745,-0.5673514856064883,4.485664218601306,6.654095167503679,5.705608925406132,0.33431725216351404,-0.20965347749008134,-0.26418757102890605,-0.2015644002648454,-0.3960788785057965,-0.5133084805362793
-5.336593023440859,-6.936365128443945,3.861006208806089,0.20072565852195545,0.168549238820389,0.47014838767137634,0.28874456417634653,0.4226123554980772,-0.28413377613366997,-3.907892859076842,8.35771023240184,3.4341157312472412,-0.6211551506217592,-0.34289291231629887,0.15982761902845988,0.15374142393396786,-0.4753327948800709,-0.37391892469926735,-3.8805675763292213,7.6896209428474,5.2562464983044705,0.08642403811046419,-0.223979389642858,-0.013826561463134643,0.19228585974577497,-0.34853945127295816,-0.4682969463461975,-4.258314457489,7.095819144213922,6.163787098509274,0.07061703805273803,0.16022243490737606,-0.010047482172653386,0.196617847888359,-0.21604139821918578,-0.5693302041243283,4.845545187216015,7.029057740508647,5.776152058845421,0.16881567739775807,-0.06016547737527228,-0.17024614711629066,-0.20424642667700948,-0.39777551661508426,-0.5150343833291869
-7.073286381050756,-6.209146704344945,4.845781303743825,0.22764230284622566,0.15124594621983176,0.2692884587221202,0.298549900885753,0.42263929076567264,-0.2941052104591081,-4.2552945327862535,7.999222045103283,2.8577371533019,-0.8054906831199939,-0.05428035781029912,0.17065057209652484,0.15397865816915568,-0.4689900360717251,-0.38891987732291117,-4.14490987339979,7.29675124760767,4.768123659863472,-0.015921112618851145,-0.30216638168179993,-0.019913321528732292,0.20913686983316992,-0.34713983063350323,-0.4680176649466624,-4.571812607661291,7.428134729790408,5.754328808785509,-0.023100506950575486,0.06140738377674365,-0.029652741278373137,0.21445620350675357,-0.21323148881407972,-0.5687435134334289,5.456134887939478,7.236444744207901,5.767352220149253,0.05076527385419752,0.034246397319020926,-0.0780203622407387,-0.18887846334445174,-0.397349688832002,-0.5125064826768047
-7.669931992072288,-5.634408931695514,4.789791979406814,0.0596313289213355,0.011673641853490624,0.012657517369212981,0.2978087887355615,0.4156189235327465,-0.3012434049574176,-4.30365630480726,8.252022772014772,2.447894719166522,-0.032417203697813146,0.20828079827509688,0.06478065165080454,0.15352879456002502,-0.4740259018726725,-0.3978705532955977,-4.17947894886571,7.760253764918631,4.985161507071821,-0.11292696164681515,-0.30285032308012844,-0.020733404772987983,0.19640984787107493,-0.3519688231084212,-0.46242623635876684,-4.549511950851356,7.546046969451616,5.773421032802714,-0.11886563252373866,-0.06440939951175281,-0.011936880675743514,0.20946475469177883,-0.22046348307487376,-0.559939259703593,5.321385726159862,7.2694747545191705,5.96040833839348,-0.11168424604677549,0.09967774108831386,-0.0327627295641615,-0.1943106107509144,-0.40514745264598145,-0.5069306541234994
-6.959489520917547,-4.462735871895489,3.7954304251246755,-0.06885700396313221,-0.0554308717667273,-0.07178499969632812,0.28799842015397165,0.4117167666172934,-0.29520949737604574,-4.408372957645306,8.20297461542725,3.104812277201594,-0.4413699541759097,0.34427359141363895,-0.0006460897075839861,0.14815897318900081,-0.4745272376226449,-0.3971379177046719,-3.8960641998488823,7.076983555777234,5.0446424587841205,-0.36950316691301094,-0.3890217780241109,0.0006490825948596557,0.18547633660195395,-0.34118811119954184,-0.4673416235323018,-4.55326527400202,7.5666483530626225,5.861940435532506,-0.3272124342555078,-0.15531614366139548,-0.004078094620994778,0.20081746764344194,-0.20751582127880674,-0.567894741569472,5.483958503184669,7.120174566434514,5.975555621923174,-0.23246682546341743,0.14421550915518677,0.03437235127353487,-0.19958190606922022,-0.3919336003691243,-0.5157336765972071
-6.94954805097661,-4.456374531505513,3.0854402074308984,0.019443357126190965,0.017027443613471773,-0.005420013621148782,0.29247111168302753,0.4227211889734213,-0.3004768299167025,-4.925408372458233,7.356359079945065,3.3400631231563755,-0.7182989583179207,0.19416555327228371,0.047316391037968135,0.15467171446296177,-0.45418708304844446,-0.40918850354089054,-4.00035958999579,5.802882024235601,5.674189385410222,-0.3888620254523599,-0.22421909500945902,0.06168271022115793,0.18090948582951671,-0.33215099106628926,-0.48444786989786803,-4.573568899272294,6.54683326884135,5.465016961074713,-0.37093601234692314,-0.3216891909465708,0.07116641481277534,0.1992533585718902,-0.20224005562043357,-0.5842974966286144,5.003250489123377,6.746857472129657,5.957918106167615,-0.43163569087840237,0.21082066050355333,0.04558284038725325,-0.19386418054245158,-0.3848586702873321,-0.5291218870877203
-8.22623032278326,-4.065673784466213,3.869958978739492,0.03134973009319737,0.10089189082795183,0.19765276639916862,0.29976380818485365,0.42237739034082566,-0.2926374096426977,-5.2569682631503385,8.183466158177959,3.4911439236681674,-0.39461362254763116,-0.1727345877805573,0.10164974259739464,0.15440880735495988,-0.45190572292233566,-0.4040994221082975,-4.070443779473256,6.281435398091297,6.284138318658423,-0.23850706386769058,-0.06970335924969914,0.06164328316630089,0.17874504823042048,-0.32188574832234734,-0.48104286618457104,-4.534442905792154,6.3823292543510295,4.968529655845506,-0.23984878338674276,-0.313346118392438,0.14379671456362128,0.18905095131314215,-0.19435432724973775,-0.5839284733363306,4.483469561984348,6.441640351590041,5.587259232337515,-0.38557681228763396,0.1268140080484571,0.04020469282052174,-0.19698984233713712,-0.37020025405474,-0.5276571424351194
-7.619955655990351,-4.66069969662377,4.25212997718811,-0.01729522973688253,0.09616350189358108,0.3442151843555303,0.30313954008231186,0.4135784194040261,-0.2936700366856515,-4.45775701265356,7.813146166477189,3.3331414210293855,-0.47990145152457964,-0.4416876440083214,0.04621918014179659,0.15026962516958778,-0.4506406839376925,-0.41487096499702203,-3.8753483232694026,6.15440347851099,5.98613619563687,-0.03931455140698209,0.009857275929391875,0.1097523342117132,0.18918337819378336,-0.33559612296572694,-0.47808017758903226,-4.115658196453007,6.474371637968757,5.1675677549288075,-0.03160433177836585,-0.1839039349715025,0.1460177248173672,0.19481257567518506,-0.2075717873282676,-0.5828264666289176,4.5222508101409,6.135694181998524,5.494030595247303,-0.19509380256436817,-0.028379258040362558,0.03223076772361863,-0.1896923503445763,-0.38023586186055,-0.5298253379028937
-6.952176275257655,-5.45032725281678,4.142399684019312,-0.1399990884410902,0.08453532797156048,0.30889796733129293,0.3041257527912298,0.4155261880266996,-0.2936508824355338,-4.196717674182075,7.793318119469441,3.4456893037781424,-0.3176800037982643,-0.3949005662439088,-0.011163697459846408,0.1399981111166568,-0.44423773435587427,-0.4232973412474119,-3.830052271227545,6.749126373557816,5.481146257978165,0.0687023257705417,0.007576681703069132,0.12098864578582876,0.1801636701393185,-0.33189859817114303,-0.4776136682047123,-4.120525932300404,6.594789125009641,5.533682017620769,0.09574270882639614,-0.13444569228888642,0.17422856184778085,0.18579056060099486,-0.20506103660937647,-0.5819262423076106,4.729752387107828,5.959478805772461,6.070321113371405,-0.09861893853825948,-0.13836717300693369,0.025943369974933635,-0.2023750346804738,-0.3753053573015805,-0.5286700211368242
-7.366927803401829,-6.281614521673403,3.9546592518876906,-0.0660157881040764,-0.011174490560226064,0.20065537838472486,0.30121511918908206,0.41630227878707343,-0.29731844350056197,-4.1831991280264695,8.690325249706769,3.8155511037997596,-0.41279089523990303,-0.2344272346247042,-0.013535425566020217,0.13682871246284178,-0.4417441268163368,-0.4338438259040147,-3.8804305823107477,7.214879100421332,5.260534948903576,0.022431372360400867,0.02038840893359959,0.11283723579202638,0.18674558823820747,-0.3306977192948765,-0.4707654002438294,-4.327754477358779,7.114008796690156,6.201816699733564,0.04350311164036636,-0.21121512814382729,0.14378601950395753,0.19063941304132803,-0.20727397529994845,-0.579193686477688,4.800921239626926,6.160125961263121,6.4700767057082995,-0.18264739373402558,-0.13378730043528828,-0.017262737251251683,-0.1953147995751708,-0.3733853721676562,-0.5237454871138575
-7.219860553296255,-6.061839050072816,3.92762677954194,0.13806165830344855,-0.12905097526245354,0.15989372017471926,0.31459114876075744,0.4120243220749638,-0.2899748255729338,-4.302251169431296,6.961284203895062,3.2891397358405325,-0.7420953149343356,-0.056994977209827935,-0.10919694744066971,0.1458138047541695,-0.4326192485944788,-0.431052410500929,-4.010240886674194,6.474385694094098,4.601618403962595,-0.054549057121286555,-0.004068957210397004,0.1527948240464924,0.18526010973700474,-0.3358187781387494,-0.47051945524986566,-4.427923375149241,7.0748280160677,5.875201748596513,-0.038815850534608023,-0.3701193034297181,0.16358436340303206,0.18374448693540965,-0.2152801460960092,-0.578698194622831,5.092232533579918,6.248527761072599,6.703645624320944,-0.3606373967750413,-0.11174578587413544,-0.08970188900850037,-0.19602776385736942,-0.3755735520302796,-0.5288790801851008
-6.344757031923478,-4.793458148650672,3.9449542245213762,0.14540847475343188,-0.10528320513335501,0.0321590071788363,0.30767631286777075,0.3964417837837395,-0.29085623919637743,-4.16249898212022,7.038991460261488,3.447004437134941,-0.4608424823424846,0.13994078185228945,-0.1416973101261513,0.1444088709221854,-0.4439127864120586,-0.43428405798953934,-3.871124916493985,6.677287972520455,4.851187099241496,-0.043861664538870415,-0.035953837600454994,0.1951269001744242,0.18110966480229462,-0.3394701390659584,-0.47736148062421135,-4.1007442074125295,6.71730914080812,5.575853325914453,-0.04191182313046881,-0.5069467295396911,0.21924419601871267,0.17554674795738798,-0.2131127650495119,-0.591949905193452,4.793152980579568,6.418676479983081,6.587612765409198,-0.49651496282013335,-0.14967482200396495,-0.1352565779650034,-0.19910640943621635,-0.36700329141236193,-0.5401163741360845
-6.694727038646341,-4.689729205790066,3.6605741645691694,-0.13147332572430306,-0.038528968096828306,-0.1339253767826878,0.3046057870967616,0.413814686763207,-0.29366239289059676,-4.5407430077252595,8.8925741394215,5.029050746094349,0.13251135512854448,0.1691834683206753,0.07846858432509039,0.14386742279111384,-0.43199890416634257,-0.4371698782813404,-3.5744461514793873,8.189664392689256,6.768954407131275,0.11576861252107964,0.060347994391854266,0.11247252468414162,0.1833035269572168,-0.3397215033886779,-0.47589153170589343,-3.895994572293352,6.631295643286145,5.7601792225719795,0.09681139071771502,-0.535306271581342,0.14231507145058253,0.1694141657252895,-0.2172203892431581,-0.5919631207268363,4.068952345160391,6.394777678685956,6.329945081643805,-0.47745712287663294,-0.2476831972128548,-0.07948003961238251,-0.2034770231969186,-0.36234724232433696,-0.5411122412179095
-7.023629676785147,-5.255224591628349,3.481761240679581,-0.15367477126759824,-0.014038322593240192,-0.1720237155470707,0.3038265674566179,0.41155280233419045,-0.2848938517016538,-4.677100578763039,7.834726557445507,4.727712423658879,0.1082670442684054,0.008628574624843604,0.3094380300776339,0.14070252953071774,-0.4369849462793285,-0.4278132780067839,-3.937854274980837,6.866187872972086,6.757616723307723,0.21441162507410744,0.2087231082283939,0.0701712138598054,0.1884159034536799,-0.3426702471539187,-0.47441408737010105,-3.9111847991774855,6.992679358777408,5.754005468694515,0.22284290691225597,-0.4267944444055885,0.03984841622223734,0.16720113996215782,-0.22161449061918667,-0.5941467937950632,4.767127923938627,6.2984822744060684,6.114444509138189,-0.31873362409095535,-0.38177836062233356,-0.018056672101164364,-0.2019722957677491,-0.3594169417315995,-0.5462275503776872
-7.039497325881579,-5.461660520736477,3.2068479207196035,0.1026397659167443,-0.043292353941929956,-0.17028716643283073,0.3027072519687461,0.42094100071594387,-0.29825224842369547,-4.49627767008678,6.5001500076931595,3.061400677129445,-0.2874173796631781,0.01302775660038154,0.200813829178953,0.13676867691001948,-0.42742717184693213,-0.4392114464323713,-4.3605038514667385,4.902078694765,4.821546612152144,0.2766272572549419,0.14380500595070747,0.17936562279635745,0.17984692844874473,-0.3431166668516505,-0.464178216043327,-4.077387601425153,6.920848456635707,5.757596203651623,0.31566718161548446,-0.33444585548480305,0.14404308679688507,0.15400726913674306,-0.21954632672677002,-0.5905849431866894,5.4512651369533565,6.320737397064735,6.071247893207229,-0.18051099593069492,-0.4972900489405988,-0.053013074781279146,-0.21884082405980035,-0.35228254947460214,-0.5372797905807569
-7.0302530087014725,-4.9476502315218065,3.491317728443245,0.21736588601304346,-0.06285366471168288,-0.11906716847677173,0.3043911290925678,0.4097694279755961,-0.30687843682524263,-4.342021997352442,6.762085680384177,3.8066652803323477,-0.7083405248109116,0.06478787892502666,0.05075396177638006,0.14118372305020527,-0.4278422852566148,-0.4506738298859612,-3.7250529247443316,6.910458075210768,5.346966927551078,0.3655016415949543,0.051020593153449735,0.28073022922311686,0.1830233309382768,-0.3414184493659877,-0.462219724124558,-3.8333773017423556,7.0844584360090375,6.116585431133688,0.38689823446844784,-0.3934743437679171,0.3106772605592577,0.15103652387057853,-0.22415421695701665,-0.5891090264581582,5.038524196539348,6.306315007274123,6.263835555202714,-0.21340693937960273,-0.524859334783556,-0.10042569335181992,-0.22418706187423096,-0.3476214488056047,-0.5385240750277485
-7.273180079129807,-4.954236102978246,3.757622644641325,0.13909397388268377,-0.08924256574718167,-0.04434323466306049,0.3021651966614022,0.411172274271294,-0.2975988850536035,-4.404780754866227,9.008332071087894,4.645738339577399,0.4442385101450867,-0.0044618578598566725,0.17854329815905187,0.14069862287715137,-0.43438930005821463,-0.43322851968494347,-3.6987382460373874,8.314751953829566,6.630201954603924,0.29386829958677346,0.20071096805916083,0.21753681748323178,0.18835878919703242,-0.349739099535827,-0.4607364396204155,-3.5321077375814207,7.006648418146133,6.298369212873024,0.2753385963610416,-0.48333807688286684,0.22412190062129875,0.14440596017148555,-0.233411977079355,-0.5929977391692636,4.388813411181479,6.209437439491868,6.270191839042829,-0.3506208571664746,-0.4265631417435402,-0.0617016900151615,-0.22709186247577254,-0.34882487816408536,-0.5439126994574551
-7.364009576276634,-5.065864097175547,4.120625367148391,0.08837503093899085,-0.15677292802166107,0.05053006075641986,0.3014772255537662,0.4124716578592752,-0.30711279087857063,-4.3372503739346575,7.623207904264067,3.3612841581054265,0.3099484144150668,-0.031349190478181264,0.27083697021999903,0.13460855202782362,-0.43478201498664754,-0.44031299892022624,-4.040809636205173,7.212874880660237,5.3107441191125915,0.2759316653697344,0.2096369697074852,0.17280769470468563,0.1805138732349435,-0.35507548900784697,-0.4556220501211032,-3.616829715915629,7.045573917567199,5.806759833047986,0.29341580498618386,-0.42219035180994907,0.13224068167134165,0.13193704493073816,-0.23551960816350598,-0.5925777416309636,4.776082005069535,5.993277664247574,5.675159483075267,-0.27664103768928994,-0.45262974725487365,-0.016598409688341684,-0.2390346275577828,-0.34218792652260077,-0.5429952878243745
-7.6944569936375675,-6.574217315471484,4.019341743290539,0.09349734502978999,-0.3056296111156158,0.07385717340717693,0.30584513075609326,0.4109472328148062,-0.3024692967817423,-4.45424286350108,7.171480168940298,2.3976005226942463,-0.1831984497460164,0.08220055994545687,0.1203410520533606,0.14092414273840304,-0.4309379405830493,-0.4313326777702872,-4.319113614088971,5.591128750495111,3.873393528449864,0.24807226991564488,0.008687962106060028,0.24766771179615457,0.17584211931348528,-0.36360217212669826,-0.45538122801240816,-3.892503000143587,7.029610246098725,5.842186618355409,0.29083154121273613,-0.4146644092901726,0.21133052961618393,0.12771162268238537,-0.24598683256219814,-0.5922925027651871,5.35864266651812,6.122541113349711,5.875196270686457,-0.2565193620008685,-0.4651602944584747,-0.07813723515055145,-0.24636889271154955,-0.3424056667585999,-0.5413272539986175
-7.162398263578054,-6.198214472633331,3.5242880224025073,0.4208432557741838,-0.41240443766595125,0.1624474574064347,0.28796961078574346,0.39547232492169937,-0.30974141617635387,-4.394769685963611,7.907929494438145,4.633247179702541,-0.009290598819618644,0.1127217565693265,0.04356111779440923,0.12436132545862215,-0.43977638119355345,-0.42950274407444355,-3.5989619277706155,7.891901908816852,5.731910229412228,0.12922394032521714,0.054662808472656095,0.25602559718259904,0.1841258975756908,-0.36289435182246343,-0.4465748770019428,-3.746641860763069,7.061003767554738,6.214008010805075,0.1357324080224111,-0.5842935543130173,0.29337114263454533,0.12521582024943986,-0.2468986421330891,-0.5849775722445235,4.620679577993963,6.148713158353991,6.160628241534466,-0.4812392498323957,-0.35828896257622983,-0.15832121858677714,-0.24612497375420667,-0.33679620555433093,-0.5374132987689233
-6.070082869281866,-5.109293528285027,3.828069897918737,0.6056989601160826,-0.35709555988538755,0.11482018781311028,0.2865904057988727,0.3985495191310455,-0.32754544601238134,-3.7552303906652504,8.95633942828304,4.048908733226857,0.3002190210231343,0.10060165387082202,0.2531756714622598,0.1243534422809125,-0.43690915176192074,-0.43321329905205663,-3.4084718389362325,8.69641234346846,5.983275886504738,0.0961578099694654,0.18524279792059056,0.1479159156731534,0.17900740292998585,-0.35921024707792454,-0.443902920079918,-2.65322866255949,7.036925199677137,5.837338258772629,0.11373860991091075,-0.5786496243745799,0.13732570826211468,0.10839691568171776,-0.2450877782613778,-0.5872980942073559,4.533579970325042,5.898259269330967,5.630836019884163,-0.48633265893317823,-0.344867127586661,-0.07921259464952961,-0.25654047459019835,-0.3245414158824018,-0.5438039743538859
-6.9606917517020195,-4.378197141553975,4.823123433094168,0.31178031704785436,-0.1801640702690407,0.021430332046693663,0.28464436571460056,0.3927756617994281,-0.33712073052536234,-3.9166734385265136,8.296855307647677,2.7729777391550514,0.4209515488541509,0.20835425115865103,0.36312603327275933,0.11851092907731677,-0.44151722695628765,-0.4297272796216934,-3.6681344128707254,7.369179875332551,4.728924138996657,0.18886405190897937,0.07419534122673375,0.09361120449375114,0.1780253726054132,-0.36482834576863427,-0.4512245040303392,-2.8921750649646474,7.303758038330153,5.547626463921253,0.20717575776895322,-0.4965998837502875,0.04271867224131611,0.10305164289538526,-0.24974637007110692,-0.5960918867447096,5.21857389149823,5.73202019449845,5.862636919389772,-0.3704871345481568,-0.4078238538287691,0.0026398349468828605,-0.26114164059016926,-0.32378341891800205,-0.5499327475625038
-7.739594916595288,-3.925883712467378,5.606967402613086,0.18390621900052345,-0.28579243715391967,0.12287363086339709,0.2911936028769021,0.38734046296728925,-0.3334742907209716,-4.2272249821278285,7.250397782503348,3.525434347884515,-0.1784065440511785,0.19112549428658418,0.25801432578720074,0.12413975931540032,-0.44651028951626404,-0.4232854588835016,-3.7533018203871316,6.120814609209004,4.839747141433969,0.13391532219376137,0.011320996063169973,0.16360165117711614,0.16798718724548967,-0.3664902527017053,-0.441235822334258,-3.1919389902990063,7.6856395238398605,6.05036722747145,0.17590074383160795,-0.5304705333458472,0.11566060246799491,0.08811136477031095,-0.25180655735679175,-0.5910492366583632,6.049210437717819,6.169048892623707,6.188232376067744,-0.40643350443359816,-0.40487446904840035,-0.025120844484218217,-0.2765385500865989,-0.3205570935291379,-0.5448874307791961
-7.160988084606336,-4.815447674319087,4.389144346369117,0.34261932793083044,-0.4563309834217481,0.3652121327291391,0.29366162104847465,0.3852071936877199,-0.3432476266143927,-3.980551127083403,6.905422645000214,4.139137612887412,-0.2203498035384681,0.01705806619177539,0.05821084969621662,0.12337931067809049,-0.4406597696856436,-0.4236287394998063,-3.1923806035129783,6.073559125929352,5.472507351170979,0.029021325028380434,0.11753152609587292,0.2922101458337343,0.17066851467179633,-0.3679650911178448,-0.44171683260360256,-2.8502259069357594,7.34099376698536,6.067088125341211,0.08542208559390548,-0.637067032381178,0.2968915992425968,0.08174196108562275,-0.2581329212847119,-0.5944675327474978,5.868847303176768,6.065746786910947,6.157704641090568,-0.5400614170944867,-0.36871529937141717,-0.0641595895353217,-0.2779516276348608,-0.31200252886989044,-0.5483033653999626
-6.183746360630854,-5.014480044260178,4.396115394429735,0.4094310421608047,-0.3122854737264937,0.3907814083404389,0.2894737700787387,0.3737995623792556,-0.3489687500342666,-3.71118312934791,8.679244319894595,3.9976065984599862,0.06382107826019713,-0.10422252409809064,0.04337987134984041,0.11706670097926421,-0.44661366278254994,-0.42744699234382993,-3.3144112021781855,7.833438875738837,5.435983802768476,-0.04185327685826454,0.24558109677497347,0.2941861039070788,0.16773937374877051,-0.371132613453694,-0.44782360922510683,-2.4811241680131717,7.007992821000887,6.002638685756621,0.011499513471232696,-0.7058804690301033,0.33976535704772254,0.06613569415050614,-0.26123900933114313,-0.6006528507989565,4.892583277535313,5.581152640554903,5.965923996723631,-0.6383422929701363,-0.32929632018272564,-0.032327053650842215,-0.28788721432425884,-0.3085331437966244,-0.5593406886420742
-6.756559832467471,-4.930114900676228,5.475225728559449,0.33580870431259674,-0.18918088706870528,0.2599768120925264,0.2851002691839191,0.3673419472333418,-0.3631981599500107,-3.698179708623842,8.944120323272445,2.295959320962957,-0.08679580184338499,0.09320695225165411,0.16804861677598454,0.11193237847360991,-0.4433106458118216,-0.4328825516801828,-3.7217524498058525,8.696710934561114,4.3238532035819945,-0.06724177424804048,0.128366284546521,0.1948600657874701,0.16871199600365278,-0.3682018894261447,-0.4409878667179864,-2.558484552140769,7.267461499889948,6.0923033429923175,-0.0056942271061520555,-0.6930498439096664,0.2134763797061651,0.0566014882793106,-0.26066913480278747,-0.5982781359892181,4.75812338460236,5.196423298707919,6.0257207157426995,-0.6242933686347515,-0.3281397725114926,0.009268001013177568,-0.29249839414216544,-0.2953361941333726,-0.5552008556415141
-7.607463840424125,-4.030937831116054,5.663763696742196,0.22283547591400382,-0.2482117522495702,0.19977876674055578,0.29311463253826675,0.3679396504281459,-0.35144236287301883,-4.1756215080367065,9.385363437277933,3.2048285566647423,-0.4927290713517396,0.33008602947417026,0.25420181326031,0.11945684987800459,-0.43656178456574213,-0.42565712906516484,-3.858952584475,7.926680993612216,4.552929016574119,-0.006853238455458405,-0.05668220047410761,0.13148452449275427,0.1645618346192129,-0.36647417670667515,-0.4378252286985338,-2.8174106772181027,7.653028944091136,5.819435506115927,0.02468745065492354,-0.7205061578704572,0.10945941079191225,0.04780213423538052,-0.2593681369277905,-0.595414391074107,5.323852517104219,5.218216170409277,6.215238593692782,-0.6413312400968926,-0.337742579414841,-0.05785791074686158,-0.29732890307397547,-0.2840857475699662,-0.5566795999005533
-7.8020860673004595,-4.10689558436424,4.76792032591659,0.290486882610784,-0.29492519933957184,0.23452246248404954,0.29674063869658085,0.35287007870379566,-0.3625325069831976,-4.188538427861782,9.1248411383567,5.266599059586206,-1.4352668792690673,0.1780169799482897,0.22943012844289232,0.12118413658244251,-0.4339511522679839,-0.4452327691478435,-3.1932033912362163,7.213383307025305,6.20859683065177,-0.0072620922034045444,0.07002429599260084,0.14257387748311354,0.18142076284821493,-0.3638547534141634,-0.4390109236778626,-2.347866397933254,7.68108005530511,6.10184639976122,0.03072712454394664,-0.7486174302813517,0.1281021611457289,0.05053782117096303,-0.2591909806084958,-0.6027219036898345,5.834405574622341,5.002056265090237,6.226382803012457,-0.6588605675940518,-0.36805903180732996,-0.16848739288354742,-0.2911703970210562,-0.2745833826056277,-0.5600513717316047
-7.803734725999729,-4.160286457273239,5.449641827460665,0.6162441687468723,-0.3847917431368211,0.39133354137896637,0.2953486226134242,0.35423070389599604,-0.3793739965939947,-4.113111466961709,7.550245545019832,4.029640654451866,-1.2446108975234562,-0.06896181499652537,0.14127743165927634,0.12108282111623489,-0.4064381943279543,-0.4644954144897083,-3.509793902174335,7.20147570867957,5.837110328614916,-0.023801324531299607,0.2583108542296811,0.17579247267072678,0.1733290081096286,-0.36747764201485306,-0.42950444602115095,-2.035629617970785,7.684885894403512,6.182848974963651,0.02899064874816473,-0.7432053971408367,0.18657761759624863,0.030224091956116847,-0.2614580292767039,-0.5977131911085537,5.914023659508387,5.010785050797528,6.148618973797617,-0.6492013394444024,-0.38224015315312415,-0.268071869956678,-0.3029157107961888,-0.27088474631762405,-0.5527881854519651
-7.278647455157553,-4.327502494010176,5.55852167165373,0.6140434693774709,-0.4636862146197204,0.41609680491024387,0.2909315591205059,0.3430951216237008,-0.3885120260619091,-3.812575297139412,8.213721252171823,3.6150600279427256,-1.091532597425165,0.027754845596650823,0.019761226029237685,0.11692182303100501,-0.39937637030966866,-0.47902660261970914,-3.7953804800554787,7.6841048984864875,4.40017278739106,0.013671325636209247,0.131175918491701,0.2168717035097187,0.1743386301508911,-0.36113646559751833,-0.43316941832364303,-1.9923277988080321,7.760315206663393,5.98926293576093,0.08431083025525814,-0.6866764992317609,0.21500470492871246,0.02391483969434507,-0.25997658723474115,-0.6019155833289007,5.743184059757336,5.275288317325865,6.113829713073344,-0.5624474976856992,-0.4246543585907174,-0.3162611885989202,-0.3057741849017498,-0.262076837830006,-0.559385904744386
-7.107048414254825,-3.8416311429440615,5.98762705090742,0.3364132912798234,-0.4821325238323998,0.31045039850236483,0.28770813039838206,0.3309340804443025,-0.39228216580817377,-4.05065941203469,8.39140222337782,4.124608612959723,-1.3920797123345965,0.1236641276214567,0.09657083354745936,0.11639881976338981,-0.3890335689725571,-0.4882349773450941,-3.623338438702562,8.235702760342235,4.992315664964783,-0.012242640754042322,0.03803577428621663,0.2040272291994758,0.1694200855788351,-0.3691728125591996,-0.4312205227891992,-2.224304446940621,7.8271455757320005,6.3594836147813245,0.05556130218222753,-0.7165823395192417,0.2141769016442844,0.008739381360701095,-0.26573331178029186,-0.6022213477324682,5.548320632548055,5.4319021208363045,6.538334670753755,-0.5947974663171506,-0.419155452478217,-0.3603251826315771,-0.3121252743254045,-0.26254063330199534,-0.5591777199877318
-6.965073191418253,-3.6212136831751622,5.3603433897719395,0.22037163676624133,-0.394255202179704,0.36706648520834545,0.29235955314947737,0.3302110938587204,-0.3966646211459566,-3.9726687651307673,7.778401569968769,4.474634635924565,-1.4399325319382075,0.14477038268071138,0.15277134216044194,0.11559530967334064,-0.36880611014656556,-0.5049344109575853,-3.3870524115682894,8.32250554840321,5.210482455230725,-0.06311809253333978,0.022797215724268988,0.14979850214262455,0.16115790955391535,-0.3647546600499395,-0.4412519889202371,-1.8580622779694784,7.696509600430911,6.483558866380693,0.00829668195875929,-0.7619212641421715,0.1665721552195044,-0.007535606230447211,-0.26447332374780547,-0.6135670567921065,5.533444220249715,5.2073096797222895,6.446407815256695,-0.6517577825276406,-0.41252319007424554,-0.3863432670846234,-0.32446318935164226,-0.25466331661593494,-0.5741293133353604
-6.610184434089688,-4.1095140196454905,4.833716252205186,0.3558234352873969,-0.412801590791766,0.4265016313580325,0.2908887385150743,0.3219908488037873,-0.4060121824080224,-4.03160660659849,6.841381133890855,5.3748747968352415,-0.9828606288192089,0.06444954101246277,0.2539912610197292,0.11576467851603507,-0.35085516381410964,-0.5120717606733,-3.559701859905336,7.403881617085107,5.434764196818361,-0.07441077412859294,0.08007708602285588,0.12046055040830447,0.16552837004959092,-0.3691629580343838,-0.43782095861782294,-1.7412509652391064,7.684618980357222,6.1913109370749915,-0.028474573287672396,-0.8051668579544815,0.13855739403147252,-0.018802912608839466,-0.2668156869120072,-0.6104525019631732,5.6047303974397495,4.877244531345436,6.3722389302603775,-0.7131910299864107,-0.3911519819167043,-0.4558417205462406,-0.3257089662263607,-0.25124860039000807,-0.5672971436159514
-6.795497787981713,-4.608148618707454,5.3547882812036764,0.5084323933944941,-0.4001588117500832,0.4029606784128047,0.28498950397659056,0.31542146531456305,-0.4048659038941051,-3.9864599287302864,5.875765474975195,5.0124088462463074,-0.11832396395364711,0.04367203279038179,0.23976227355706284,0.11015389499844425,-0.35231817347797906,-0.5103472775501131,-3.651659363595023,7.095062271932771,5.330174727473479,-0.029537362355194777,0.12529671011464472,0.165294958944744,0.16503971089724262,-0.36378237236349137,-0.4283043543877936,-1.4741680314186276,7.568303763605588,6.003457904299722,0.02076948493408643,-0.7730735087979101,0.17635201401588868,-0.029613767740668834,-0.26765564647699414,-0.6009955755995081,5.617843594547714,5.006146158534196,6.198601195701619,-0.6499512935377479,-0.42737149208306463,-0.5378209767285981,-0.3281459199368246,-0.2456279297709813,-0.5641300786646968
-7.062178354030465,-3.9395843890785884,5.859379099761325,0.5842543243361491,-0.4401786034970985,0.43666404646118284,0.2835148758347896,0.304296218655894,-0.41741035867010795,-4.048931076486606,6.70697840755082,5.166692520210979,0.12490778063551096,0.06320488065671645,0.1805102710647826,0.10917999016774006,-0.3530516483019942,-0.5100925658242994,-3.7038141119114107,7.034073172473614,5.461334845658144,0.10382039646792761,0.07347097653952848,0.251171427072369,0.1554985325336234,-0.3669163200597255,-0.42466042131062637,-1.2994725485926168,7.346189826018722,5.907523204431298,0.198779678478507,-0.6634292171331226,0.1971746922683365,-0.0460101668150163,-0.2692241629705796,-0.596942774296201,5.31967369042041,5.220763408844962,6.256419013601986,-0.44567541924997106,-0.5438979143248691,-0.5530753419231598,-0.33916624856773603,-0.24339639052685114,-0.556619571127345
-6.955889880322199,-3.549772165851924,5.983038249422208,0.5493676262607536,-0.5324181382174431,0.5141076688065416,0.2844838176875401,0.2929208531872176,-0.4306801466540975,-3.9039155732443795,7.836078917558217,5.473399644737689,0.24912100291420605,0.06855202625693448,0.15554222498437104,0.10824544285809182,-0.3616082087971674,-0.5104398637057648,-3.5222290713844693,7.696017008460847,5.203082560445918,0.22214286444481507,0.07355918931579901,0.2747591208630843,0.16106245006200123,-0.3820780252410501,-0.4282981068017051,-1.2744912544651845,7.182601368041633,6.1863305124746795,0.31888191092553375,-0.600597659399379,0.17654068502321896,-0.05121833546724818,-0.2848403667934407,-0.6010242460225232,4.928519711234337,5.278910064485437,6.403861428990946,-0.31834739160991693,-0.6230981168604165,-0.5140857516506026,-0.3433452051694358,-0.2533883105863769,-0.5583634565149657
-6.242971071372612,-3.9636388475786233,5.617807862825705,0.4985941139573768,-0.5426792638039601,0.544375862923082,0.28154313947943466,0.28615032647047794,-0.43709304612736916,-3.526118207665879,7.892385461678834,4.792949969552127,0.2666940402104858,0.09553328331859746,0.23585575834305234,0.10457274895411305,-0.36081923067395766,-0.5060635192256338,-3.1849128943400373,8.320376658873698,4.893138173451297,0.2417188759161701,0.09520999534221306,0.20981568825223465,0.17111058893822031,-0.37283985074982207,-0.4292608893284663,-1.0629144737132832,7.303512986901169,6.4296590730721315,0.3057147584684866,-0.6399942671179475,0.10008552026999834,-0.0467620329734199,-0.2792785243209682,-0.6044497752363674,5.002143765304103,5.100544612456113,6.541633735568526,-0.3523944608621969,-0.6277112473599815,-0.4633664305163008,-0.33888525528787555,-0.2414383763304762,-0.561742810940536
-5.988918266195266,-3.464027818713521,5.73112846893014,0.7776353639584211,-0.500595114231165,0.6419776941281845,0.28029630854788545,0.269191823430408,-0.4531004271832468,-3.1062601413349213,7.82090361662252,4.567008111048276,0.24900033834383853,0.16158553766232275,0.3240938904423099,0.10507462746415504,-0.36397815699946506,-0.5052776780004652,-2.7936790279214923,7.489722675352459,4.569256675727994,0.20662737292434893,0.04554959892161132,0.1492269797404691,0.16471206127802585,-0.38404348019222306,-0.4260916193653536,-0.659366114545341,7.409383694072769,6.135439589890193,0.2493651827265544,-0.7190496518522133,0.032754447025756465,-0.06225052765278425,-0.2893887484086168,-0.5988696494792871,5.515356252237005,4.779016520197539,6.4492152522510215,-0.44817013131388184,-0.612226939961112,-0.43251888858979454,-0.34821241772688744,-0.24824337102246055,-0.5576524847825935
-6.610269880570062,-2.8113936118853946,6.606466556135682,0.8688216387459881,-0.5401759624114685,0.7609344821005155,0.28759358925365003,0.2531556785558218,-0.4678457790224726,-3.3328748746472807,7.214633321857022,5.063670380346767,0.1180607866482633,0.10624844727318193,0.3046927162503743,0.11119994494070959,-0.367882994222008,-0.5069114053574185,-2.8257050607265373,7.070481193641632,5.0987809935715465,0.08367509573962657,0.08816661286399136,0.14041367458711207,0.16179101753709055,-0.3803677322576696,-0.4231709061673197,-0.7128774455839944,7.473365538244644,6.1254739587592715,0.14236299353800413,-0.8028309445132099,0.08827509089729423,-0.07715719122872816,-0.2890257355835838,-0.59652786560316,5.677857240870454,4.677496471867472,6.11933926328818,-0.5673567365138737,-0.5860147184152583,-0.49071831806751665,-0.3582258123717279,-0.2421075015900105,-0.552817877043117
-6.983800573739809,-2.060105359515355,7.164478285109993,0.8655619792211882,-0.6495543729419138,0.8893577648751579,0.2816273200650388,0.2290578036475455,-0.4731853188784989,-3.381044564064498,7.4649070873119685,4.908478639495485,0.1482649850417204,0.06934940051639238,0.2115183167307158,0.09854324224822861,-0.37786633032057776,-0.5016373630465207,-2.9668415405856794,7.388786909823162,4.951358364327821,-0.04802542222024729,0.15119896622515447,0.13049689865667916,0.15767702198058103,-0.3730298030004699,-0.42709176025506035,-0.6837392052430789,7.529797002491556,6.133653816813331,0.03062591256201093,-0.8637927571897582,0.14204016249730017,-0.0907911466429309,-0.2860174788426212,-0.5990793663662375,5.547448398650493,4.954623587750309,6.2434398523653885,-0.6698072987878849,-0.5510654062249358,-0.5602617851090897,-0.36746846251654836,-0.23742934220846018,-0.5557938127113166
-6.6012410971934825,-1.9882536383335898,7.133139303620183,0.7896246673098599,-0.738374601002131,0.9508793778417621,0.2801311736155261,0.2183708127369358,-0.47937918133081053,-3.206799139083983,7.536571923651622,4.491536076989843,0.43395194226910766,0.10098987511171707,0.09269419642452711,0.10194164088102169,-0.37672184356180927,-0.4926156422687737,-3.0307764299401176,7.4197694011569855,4.824679724277553,-0.0774085804041439,0.15017422871034103,0.14153026048188203,0.16301818683303912,-0.3798854655597595,-0.4256106519227557,-0.23028066045277537,7.676173425254531,6.026296341820784,0.00528671406589531,-0.9003404179248999,0.16584260168666548,-0.09963634536307608,-0.2913081803632607,-0.5961724781639419,5.828008016291462,5.138943666257129,6.180330054612634,-0.7104433189162678,-0.5565826053155828,-0.5698450881576119,-0.3703965165107074,-0.236930044841513,-0.5558094953975975
-6.016142628541435,-1.8542756035606054,6.88612884994788,0.7458884026892302,-0.8217129002341341,0.9693114917778066,0.2670703341191164,0.19186553367308193,-0.48427659068640416,-3.1562641377840954,7.6873332343530745,4.518701590075372,0.3716742649528805,0.18243096985462737,0.03694063382829303,0.09879892301160721,-0.38774146117171887,-0.47900736103547187,-2.946521074091229,7.637014499566248,4.887525728875519,-0.0813798886290063,0.06600749133337103,0.1607920113706072,0.16155468566196377,-0.3771914173284832,-0.42146498919529973,0.06482315712453401,7.797091072709301,5.910855036603363,0.009857361951122011,-0.8942876284515455,0.1814734131019607,-0.11526286023789695,-0.28603641257797713,-0.5906946385090187,5.987606153317776,5.294523424001821,5.990711826283096,-0.6916628080773762,-0.56690410294441,-0.5427993621121091,-0.37676169100586687,-0.22934658361942864,-0.5472908766985762
-5.767912784239355,-1.5503699604260073,6.641939695809717,0.7291655332872599,-0.7644112499868896,0.9824937856945389,0.2699922731272924,0.17903023778281696,-0.4995031740799907,-3.5894849858570956,8.59568030692726,4.678800358086925,0.3665717617235002,0.17261552191580898,0.11102907811317804,0.10564260830326383,-0.3891817203809187,-0.47946000884456624,-3.122782901544212,8.374414544753972,5.319595737311737,-0.10060874701309495,0.038475223726058806,0.1309937132372572,0.16059412655129188,-0.3713248920696195,-0.418053815265108,-0.08264712000826338,7.668447886017839,6.044561884252396,-0.0006487943607731948,-0.8700008045844491,0.1797392585532964,-0.1255686957241779,-0.2868958457640245,-0.5836763718050217,5.574574064404896,5.4912265422550846,5.77997042207238,-0.6613835693019643,-0.5743391785987216,-0.47419273139614804,-0.3801968132880649,-0.226410398840901,-0.5421794534278337
-5.760782736030797,-1.172003029689642,6.778378934094332,0.7785819273413821,-0.5983620765130487,1.0259483838441246,0.2753077187678456,0.16077206578761277,-0.5098795930690189,-3.815053406562931,8.09253928345139,4.597741478043279,0.20704185487795476,0.05253909158987982,0.30908967119527975,0.1066434753360061,-0.39476257648983437,-0.4776556404580253,-3.359541178626887,8.285952713423058,5.177571475270269,-0.06712656416827983,0.11371064380691558,0.06398085573809233,0.16228355802132743,-0.3786598532939988,-0.42219522470452664,-0.15965304305012237,7.692398465337469,5.972893066599769,-0.013798699394827302,-0.8747217443280418,0.09185618239791411,-0.1363492158373318,-0.2939125379973776,-0.5854100229211017,5.300630273449365,4.986630226071871,6.118747156217808,-0.6835981013668824,-0.5538608528306299,-0.4250024675132146,-0.3884862478548965,-0.2258873932707178,-0.5439339170882654
-6.00301598484313,-1.2436437739127213,6.950887394805645,0.7961054572458424,-0.44335863706918593,0.995981632414244,0.2666625908616153,0.13766721080821673,-0.5154659474138488,-3.8028578993806876,8.28032498843976,4.694267490726851,0.11569891811413721,0.0022061285355153594,0.4392662357433165,0.09859057701416067,-0.3969323607648798,-0.4737260401198503,-3.4815050931777787,7.9741879412816115,5.128729698183276,0.06822416492399634,0.11321407181157736,0.08323981158836408,0.15717711960749287,-0.36862304549657554,-0.4136693798805049,-0.03323858435248386,7.76951191926296,5.8754260743877165,0.10402127107235878,-0.8079604903932758,0.0236492241299407,-0.15267462296856715,-0.2844881235080216,-0.5804521649630489,5.452193426509918,4.437944948141298,5.772623020181915,-0.5487594168127274,-0.6035255283921287,-0.46539201575377,-0.400210142222808,-0.21486623939923266,-0.5354410583121465
-6.043663785928069,-0.8320976569393902,7.410563213053823,0.8763898772627537,-0.39116509060121357,0.9748568448261107,0.2621597860764072,0.12128912186215178,-0.5099968190060409,-3.551614093539216,7.869585792813944,4.357244007571818,-0.16317328731820693,0.004838286017048775,0.5118951112563853,0.08586064074238334,-0.3929200287325942,-0.46380284128181515,-3.4811612412310105,7.898285516821032,5.144317060046172,0.14835990689640646,0.10313434420336093,0.0887021820330948,0.16134448799348214,-0.36864573314688276,-0.421716376960533,0.3624803338300397,7.690095870414887,5.9995914041574,0.17340591754187648,-0.7402425365261592,-0.017237038457279533,-0.15386037787241158,-0.2847606793341307,-0.5860734015378305,5.616771596486183,4.096825047645433,5.6533197294227975,-0.4343509466177825,-0.6327622976952991,-0.5732503265525469,-0.40113822147534034,-0.2119248162828796,-0.5420348917155321
-6.188600009107191,-0.3471198173277391,7.9155699627227625,0.8494498976385285,-0.36007531681251886,0.9242799972709881,0.2594220904198621,0.09921448035691545,-0.526294176917906,-3.4022444418592563,7.5255832179851065,4.504508320506547,-0.04087666768960788,0.07771728643024778,0.4663190494345177,0.08467036926232158,-0.3967222403068204,-0.4717992639162544,-3.45229534958833,7.343401769917463,5.014824255840962,0.24222602634479512,0.02034562231784043,0.13656832420334664,0.16275574326266712,-0.37376571843192624,-0.4060841318164043,0.6097513597487114,7.641574644634005,5.789295454848221,0.2753168143952599,-0.6599423101364842,-0.03964975273525107,-0.16282048248974443,-0.2926407207522417,-0.5685015682101636,5.78557389749274,4.229539930221202,5.751236611250149,-0.2917768208367363,-0.6622475167348004,-0.6760583951656819,-0.4076064066495224,-0.221683608486269,-0.5271889540798165
-6.257611991122759,-0.04464878268337985,7.7871066816559384,0.8581804921103884,-0.3816693601044469,0.8605318862050573,0.26060694785146893,0.09140495722869652,-0.5275717184540524,-3.345782880741481,7.613528651456472,4.856930629189862,-0.03246243559760689,0.1251103608820418,0.38752610532586895,0.07997347645670094,-0.38499447448679125,-0.4700491702493143,-3.304236231252568,7.66224647270486,5.120319833563698,0.2790389323505835,-0.011082562400101503,0.18191449678432547,0.15446579825495388,-0.3747149485161624,-0.4129372951017983,0.44175888546559583,7.769061826202538,6.044314713338534,0.3331236187384858,-0.6076485595342771,-0.027214110870910087,-0.17672376863866943,-0.29452319656109877,-0.5724866679692885,5.696905522300833,4.8174135964136955,5.896610542916815,-0.20167541920591608,-0.6749024792926313,-0.7418507211681994,-0.41861909565857647,-0.22652590197267586,-0.5257907464481105
-6.137178816352295,0.5872427750180627,7.600642030983615,0.8172598796809843,-0.41399499650082955,0.8583189212321379,0.25678129686978385,0.05945132967286891,-0.5288131791218897,-3.269698088010165,7.397188716383789,4.302273657001843,0.10598621340667014,0.11381535067721721,0.29210928274010367,0.08050698132413486,-0.39730325476987594,-0.46154095372061876,-3.1604848500999707,7.474595523302773,4.732045690482785,0.31346127401370816,-0.006549095943212075,0.24228036866000843,0.15444783505447993,-0.3808210793423521,-0.41561838735252093,0.5491745985029208,7.8070320016606845,5.803432678752389,0.3756864997230459,-0.6026349459357654,-0.022570347313299776,-0.17995629774463462,-0.3010800882552088,-0.5705116044536519,5.662872040016482,5.037519269949701,6.032405198650618,-0.16282053467712365,-0.692422754275915,-0.7700617684682257,-0.4208531830640586,-0.23555063507937518,-0.5255696699511427
-5.841953080907728,1.2035632751126473,7.563333711142384,0.7973573868357783,-0.3855735352454541,0.926068529353925,0.2589324585873463,0.04122901593074142,-0.5416439129726235,-3.186413390262784,7.260934521614348,3.911356584959884,0.4719058288040378,0.08097328283911157,0.1985750500038495,0.0829943185229191,-0.4054281336179796,-0.46628445489203035,-3.106588015295364,7.853838930886707,4.732387497697284,0.3455898621060232,-0.035658832411472274,0.2928455511470003,0.15635796056651424,-0.3842355618692756,-0.4019394529422093,0.5926604522041163,7.795196107156802,5.792900895134634,0.43424391562094505,-0.598210204473899,-0.0216867940573432,-0.1800929010053788,-0.3058598890497141,-0.5548553227139156,5.545700659525258,4.823191224594996,5.926644869688325,-0.10294078241557152,-0.7334416758726298,-0.7995384358364633,-0.42074448056072544,-0.24631340967662607,-0.5084913340915064
-5.8700896839928784,0.8959683848705599,7.511081091631139,0.7454856765430012,-0.3265872891125489,0.9315678590813126,0.25468211638712146,0.02100118525030761,-0.5435282258831265,-3.3847130569150825,8.41699985727309,4.6534290817739254,1.011641092101343,0.01662841379555062,0.2076678301703128,0.07790225028760653,-0.41649386651878784,-0.45487493047359423,-3.1818174631112046,7.93697269504975,5.195958713221294,0.24824208277762153,-0.009907011130182315,0.2586721936074594,0.14830416261645268,-0.381759453775031,-0.3985408574550704,0.5726693175899321,7.877250623306118,6.072778906411582,0.34695571303096145,-0.6180820227219228,-0.009763727625946603,-0.19453397824382188,-0.30375594280681295,-0.5471517217766718,5.6108292092120395,4.654598641601471,5.782081828698357,-0.16135378291911823,-0.6981661192491787,-0.8840901511063404,-0.43226584581400196,-0.24676653391238804,-0.5004997306148843
-5.644790299083094,1.261133943450152,7.705527085880256,0.7486151617972361,-0.3052092030543582,0.9011965125926874,0.24584121224301692,0.009831398021442499,-0.5453597195840814,-3.079113887762549,9.061439601814326,4.487192766770534,0.598038808798088,-0.053422578080939975,0.24971017952728666,0.06958246261295384,-0.4170283146616816,-0.4407177089159843,-3.028722233452856,8.033033132861915,4.853182717894619,0.18120315527441108,0.08627746724175765,0.20720714959176748,0.13776528498069437,-0.3919721179351939,-0.39806734617723477,0.8669329645258115,8.102689663448068,5.653246068071276,0.28226430966335253,-0.6257343568130395,0.03945286419314678,-0.20833402173357402,-0.31705243509991415,-0.5417825142578241,5.750250413475437,5.307823403611156,5.211380345709979,-0.19163402441026595,-0.6713251472023983,-1.0139831587196129,-0.4382458290554012,-0.26799301376523105,-0.4934775717239567
-5.655071171263494,0.976164714786777,7.652228200636648,0.7276157274576971,-0.3055444279268498,0.8096804012695752,0.23847531332992217,-0.003984185321559994,-0.5533093463737251,-3.1348513103410807,8.773046865013548,4.253465286097296,0.06945876963214534,0.012560780229563747,0.251491913625892,0.06275506027909573,-0.4169151614044771,-0.44659070531577993,-3.2696444298975296,8.047840841634812,4.472646042584378,0.17626177104747404,0.01897692024978521,0.2106250788629909,0.139975452173261,-0.39198561997453163,-0.4041655751558675,0.8219811873465042,7.748165955476291,5.348246052885432,0.26745076739942153,-0.5900254890803952,0.01717824723017178,-0.21512584701875423,-0.3155750457140348,-0.5469640922894741,5.214275295203501,5.07163285453754,4.93622650108358,-0.17568724753463427,-0.6209403659994538,-1.0239060209785702,-0.4404584215841633,-0.2753056316272343,-0.495939423731283
-5.592769415027139,1.3333352836077859,7.78297815453317,0.7213101319545753,-0.33414982814621375,0.6313175538471341,0.24179568189082312,-0.02207312968574466,-0.5527058992681625,-3.234414928394438,8.44958100746248,4.401942940011545,-0.2854376979764858,0.09254561174094462,0.30654040802866234,0.06518285413518762,-0.414213809309446,-0.44638790775417375,-3.218681290740829,8.379700728136417,4.563204191005368,0.3364263068922059,0.009082198952736759,0.2330542918250042,0.14556666194989829,-0.38955401509143983,-0.38877442386929506,0.8074993040136811,7.841221802189698,4.968996214058063,0.4108045454635442,-0.5029334504479804,-0.05906031169897008,-0.20912617820026047,-0.3150204537951322,-0.5305706244479257,4.936735009611729,5.476155255922339,4.8414957691297245,0.008178314942852365,-0.6504235637676573,-1.0188759908396485,-0.4313069842252509,-0.2800031417884817,-0.4763627498935015
-5.483918877349899,2.2428625934076925,7.619472399755179,0.6431761453201129,-0.2558420674960773,0.5177618951569278,0.23199972583596018,-0.03561081260101506,-0.5633490534179806,-3.0547222998884798,7.667631642700516,3.5342737463086817,-0.15900765943099995,0.10852414346719796,0.3499266596674025,0.05469752915293366,-0.41415906376731043,-0.4547083106255579,-3.134487809888437,8.589497062412836,4.3857234645612415,0.6415136283566631,-0.03501410522507882,0.32273061813524323,0.1433148656564919,-0.4032167623229344,-0.3880362040231194,1.1301369799577456,7.838347411492256,4.978554047783918,0.6790658766285091,-0.39527491080202104,-0.22021454602094,-0.20948544230563143,-0.32694904050652235,-0.5256111544791248,5.018534581035287,5.017283949632245,4.660847455776004,0.29632675038394424,-0.721828585365936,-0.9751419383359038,-0.42996219136105096,-0.3010128730941074,-0.46929965116717687
-5.088360711209949,2.4141981101969865,7.548474521642189,0.6064059934204987,-0.1720806078199396,0.5535341212436846,0.2335593983025182,-0.05500158050307588,-0.5512873188426606,-2.7004570325587,8.854032039420746,4.37374813138356,0.06821621197135541,0.053090248078935164,0.4359352455528185,0.0542318914750275,-0.4232172021037253,-0.44137149708441215,-2.5250770698720686,8.377017053970576,4.788788892807177,0.7890180471512847,-0.047636929538114756,0.34718069037282856,0.1364462080096151,-0.4068451949334382,-0.37950308126992793,1.3300594516449313,7.949951515229273,4.887243901510113,0.760525137668151,-0.33314533247024186,-0.34027008536915504,-0.21229914542628886,-0.33393131177370355,-0.513620102494403,5.301640067910091,5.084223918380924,4.465747877964297,0.419166675305536,-0.7242736622954513,-0.9860516306352513,-0.43448788051271575,-0.31736701444319815,-0.45713665312243223
-5.246786842475801,2.253147728316992,7.653564126410896,0.6260943262860629,-0.17226415243937776,0.5857947087049729,0.22761672145706344,-0.07059882488156403,-0.5509449598085818,-2.5774500094235706,8.612054976982073,4.6466751335929155,-0.3367054790321829,-0.052284716777789925,0.42032731970474446,0.04444163530839302,-0.41813768247494476,-0.441472737059264,-2.488506837134613,8.296470579434006,4.46563940733914,0.8270450454252708,0.03332000772051731,0.32521813284934853,0.13833510374536076,-0.4161192258153775,-0.3665524410116118,1.15283934412639,7.887462977710323,4.648553200872531,0.8045004789630195,-0.2998391434935679,-0.36372372171514444,-0.20415399008507779,-0.3419455612644264,-0.4983771173678607,5.103266029239873,5.29553788874746,4.4460309286161515,0.4850500003436129,-0.7172938703541313,-1.0361223439054157,-0.4302547637652381,-0.33546916786830333,-0.44053196857330035
-5.567716919703918,2.3180374864121416,7.953393044300263,0.7057135714544347,-0.20956593590616696,0.6202894001083677,0.21800156597249104,-0.08837276605017563,-0.5508771708549761,-2.705451288980575,8.49862718552125,4.072501080907592,-0.45351735981512925,-0.06272585166254867,0.37788534528944423,0.03711709489629881,-0.41537807950128725,-0.4495891909758078,-2.76211781380029,8.439306717924602,3.715337238898885,0.996127928958996,0.031527564927885054,0.3662570953941773,0.13263905925388986,-0.4312259334904977,-0.35629846761737827,0.8287909411598587,7.8831160859642795,4.4605689665548915,0.9494633692890562,-0.26247279331013174,-0.46108290741064156,-0.20141694507615898,-0.35947220806333496,-0.48750015687305986,4.564967253600353,5.401683533988411,4.417364107892956,0.628080503133382,-0.7480611854434848,-1.0400697793891551,-0.42823194296644873,-0.3606406556032987,-0.42663384369175755
-5.548765663117157,2.539017140900054,7.898628783096578,0.7089258329567976,-0.28541281058213863,0.6949868429690701,0.22724355269316326,-0.09670507620879061,-0.5531040123121885,-2.592611373115441,7.915641704090261,3.835330828750565,-0.28076823809454904,0.011252943346708764,0.3054933494076726,0.04780979627423817,-0.4050701783976785,-0.4495001512069698,-2.6779710844523374,8.738920242574594,3.2741688430488978,1.2435363273057256,-0.028550348226812766,0.4421407024478911,0.1311021601225267,-0.444396402520086,-0.34676907878069674,0.6162743825801896,8.177994289616901,4.117974672524684,1.1742760320894858,-0.21060334496251779,-0.5962187609902687,-0.19406701245052813,-0.3750393913817734,-0.4707475527791043,4.395155437153422,5.621791164445548,4.11321147871389,0.8440285396225533,-0.8109444150162783,-1.059285857448086,-0.42378831361335323,-0.38753238943405965,-0.4102832373498564
-5.081179598957459,2.665216814455713,7.479954531624043,0.8606850008932818,-0.3557565114600192,0.800966468713971,0.21005567858435345,-0.12483429317927569,-0.5660877583527995,-2.429268088072558,8.06405946199068,3.926382845099528,0.32209981198409243,0.048171087621475546,0.24376549480633314,0.031513145020775936,-0.4150519334031728,-0.45766204626469487,-2.4179966080286466,9.250035023846428,3.187020781201991,1.5443921368072728,-0.05680715176711768,0.5341820403991261,0.12001755206571203,-0.4589858815884789,-0.3274941459989794,0.5914324725500653,8.433178440157695,3.698824542659704,1.446100912325588,-0.17020583054584298,-0.744106727558152,-0.184985526144132,-0.38596993598235135,-0.4525480688523134,4.3737685197406355,5.88126719368413,3.849839835105173,1.1022500582275,-0.9116203906231873,-1.082157223868833,-0.42182530203126567,-0.4112528346833354,-0.38442056092794086
-4.735143835216993,3.177120721389578,7.33590792715036,0.902776116039106,-0.3241752152521147,0.831213306360402,0.20310063127348815,-0.1395297529906008,-0.5554879403431658,-2.579364919011208,8.409533027973396,4.054224652077373,0.6876356197028615,0.027351834035342363,0.3153116614157566,0.030293728830497597,-0.42111352292653165,-0.44022607876629677,-2.529891596500884,9.231040456558333,3.2267354843903036,1.6861022097600795,-0.04845913708777778,0.5276314951070349,0.12018395791837846,-0.46751512622440333,-0.30697881222073553,0.4246834451978999,8.529821452137412,4.018916065403738,1.5321463693558972,-0.15011071633919726,-0.8619700162254339,-0.17418063018764496,-0.39520599146106095,-0.4345934416057319,4.438616766130805,6.607963886194352,3.436548285350253,1.201440316179091,-0.9459184790504672,-1.083109243160327,-0.412991013729166,-0.4301129839074332,-0.3616881031540849
-4.75565404872595,3.5726658812789243,7.298466834271974,0.7175753262840117,-0.22911185109005844,0.7621166142740108,0.19969846608932207,-0.13996438518371782,-0.5601429651461454,-2.5983242204912878,9.342059259339917,4.434003418970336,0.5133758233273022,-0.02440759504801081,0.4777208094127644,0.024882021092879392,-0.41329158367320235,-0.4381677117728208,-2.489377435653167,9.207011876524593,2.900851663531754,1.642234936346025,-0.0188742754264017,0.4476874808364603,0.10592707249507956,-0.4811154677929885,-0.2867355348120563,0.05287046263726306,8.837052876940897,3.757732429760952,1.4393623539921971,-0.16092568992022452,-0.8937136326613465,-0.1675823855955798,-0.4077980209208951,-0.4117611200333216,4.373570000723171,7.595502397879841,3.104541510217557,1.1217560317773572,-0.897895293821734,-1.0662276230997296,-0.41298112592865055,-0.454313319686246,-0.33632484296490345
-4.675989931252259,3.209644178404492,7.118438022504843,0.6710329457777994,-0.23327975582502422,0.755826846954371,0.19296807084674097,-0.16436358381688534,-0.5576755837532757,-2.443220132998292,9.290912075090711,4.453402738297131,-0.30917188163591547,-0.08047385204057306,0.49643962047509804,0.018312757385539516,-0.41703770631396675,-0.4412902625736533,-2.2759313969211172,8.87302823835013,2.6518882213733805,1.5270271415636436,0.0343121959720567,0.38099218313443595,0.10170221951087657,-0.48840621974144655,-0.26574169430375666,0.03973494968373417,8.94113684097783,3.4632794260696906,1.3078699340041533,-0.17988759203487886,-0.8670533119790643,-0.15750221184917615,-0.4138422770030483,-0.3918792057478292,4.610836374912932,8.515542407042608,2.8583736984171155,1.0091378446093204,-0.8454363689923216,-0.957409289176961,-0.4051411655797917,-0.4719535507233621,-0.3094464198585253
-4.45684719983052,2.918183388336417,7.204573048881539,0.8916290178238364,-0.23891779928925072,0.7542821435022057,0.19453115507989893,-0.19075371466740695,-0.5559230597527555,-2.393029789616372,8.922091219292861,4.305108111089176,-0.7889246317849548,-0.12566747087163965,0.42246207008049735,0.018806490937288218,-0.41662922063848923,-0.4461799807283947,-2.2868638697012473,8.913381347756848,2.129027465387506,1.3382432877943442,0.07454962740993487,0.31749939648670783,0.10724879079796647,-0.5001380723663987,-0.2547341607951257,-0.3175301452920326,9.366780763192022,3.3434710822030063,1.1326690495232639,-0.21059826654541264,-0.7764049209331005,-0.14079037666148392,-0.4229204910833156,-0.3809661196686191,4.676555248279841,8.6771301130643,2.7434012075028416,0.8390194080601373,-0.7720719623573917,-0.8670462829290159,-0.39356476700957044,-0.4893482566954864,-0.29597417192855
-4.744226576415175,4.256872785228033,7.772465742707386,1.0171874638119183,-0.28496526642836073,0.8229731386408006,0.18076830148278664,-0.20680923719110475,-0.554150131001935,-1.9161362162948004,8.008981680515944,3.9544071993592733,-0.715749357630171,-0.0746451791354804,0.503729912671294,0.007508855458086055,-0.3988026437158777,-0.4574847661222571,-2.1599407667698056,9.431911992969548,1.1958036005519797,1.0630989154987864,0.05372316947009317,0.2170404198954478,0.10229478410682824,-0.510361300860179,-0.24033253457208686,-0.4936328617201667,9.530588821560027,3.099287076810893,0.8733159065140383,-0.26568411640055084,-0.653564305833804,-0.13438329034099974,-0.43163076138191414,-0.3620678069077609,4.543995453154001,8.36189076863363,2.501758609966482,0.593577352321373,-0.6832578239113324,-0.8791153176797112,-0.38738755606790537,-0.5062407977161352,-0.2769162394108851
-4.652069984980369,4.559759326502453,7.638653247192441,0.8842552176215418,-0.3686649212128883,0.8245633828773716,0.16942771722238875,-0.22315412521809197,-0.5482187390895703,-2.023677862664741,7.5244620574041425,4.054574958511814,0.061676364287353624,0.028126557304971316,0.4691322097846872,-0.0007990306878190726,-0.3994689382572099,-0.45113942307630056,-2.1799610462294687,9.13962437987386,1.4034910124940188,1.0012737590327636,0.006549009300323045,0.2026880444046558,0.09565440091209859,-0.5142291353745007,-0.22496270606956373,-0.4161398789167171,9.26537087437899,2.434343274152126,0.8078355580619748,-0.2873024468070313,-0.6153253291734306,-0.12864352337632623,-0.4364687509566776,-0.34905765310137865,4.311077541968468,8.599510687220253,2.1039503489476137,0.5133709142973191,-0.634841445088637,-0.8767093729191596,-0.38017424722818627,-0.5170254704623443,-0.2644375395451135
-4.297594572434752,4.281245125867617,7.26193753963122,0.9480977623089999,-0.4282260414916929,0.8861804267529395,0.15829982684250712,-0.2458471024851702,-0.542581243949953,-2.0652425108099624,8.516656502532122,4.41380125687504,0.7344363427759211,0.06138090151239689,0.43953963113063543,-0.00733887893882187,-0.4132712513781194,-0.44237283409504763,-2.0709731240416556,9.365087566160804,1.6149661946680087,0.9904460277781565,0.02544087620845756,0.21708235694827296,0.08872543884663729,-0.5310380970248357,-0.2122690096050595,-0.4900245899520826,9.38280309995084,2.3758284393026394,0.8101021575499575,-0.24995349303818365,-0.6064612038283357,-0.12292576447346097,-0.44693758538746436,-0.33845263792979696,4.294055399272563,9.074210728835316,2.023361717679319,0.5494215807760823,-0.626924902957711,-0.7573079749368652,-0.37621363438386657,-0.541475484299338,-0.2471097548549627
-3.7232032255069827,4.840250255899012,7.00575374798529,1.1009532048265063,-0.4265327825824861,0.92372302874113,0.1486531913517968,-0.2656131042904181,-0.5374029868740343,-1.704821546173211,9.513018931009348,4.786745247285502,0.12905599496670886,0.0163864646651673,0.4114328693783836,-0.011035336212449873,-0.40829202405986165,-0.4356253658337397,-1.7724564885731378,9.744649213739653,0.9087505005314473,0.9375286093892935,0.05003651286558788,0.19888699683948538,0.09019572584183719,-0.5249329148519264,-0.20372576240113657,-0.7097487788558566,9.880573421009045,2.302110277814516,0.7610199314775948,-0.24898560773680747,-0.5753686681995895,-0.11392515789723578,-0.4425424674237688,-0.328901063486533,4.405499218985218,8.685681067959104,2.1374357913168853,0.5235236691371595,-0.6109923484335013,-0.6955482661691287,-0.3633349075275179,-0.5405617724055332,-0.23556196718222283
-3.396762270005021,4.953056176490197,6.639124954715391,1.0998439065868943,-0.38659506663713755,0.9328748379329919,0.13460969116859248,-0.2831877369527642,-0.5285617943420317,-1.6559453013528815,9.122086680482054,4.512286878724934,-0.9538511646752617,-0.04123857623280671,0.43245034029346974,-0.018651491367705508,-0.3936664349631813,-0.4495568403151482,-1.7731698806079035,9.628935600682253,0.8496156761129449,0.7990429385408858,0.09420926155679467,0.17542382186826733,0.09331246911831491,-0.5329924993855785,-0.19174945652271785,-0.7935359750399881,10.179375558156869,2.040040260304892,0.6459063626446431,-0.3010563026740135,-0.49941341363285346,-0.10331006067956373,-0.45011034558638074,-0.3175499630916271,4.4375961761331,8.403666457407548,1.9046506675926635,0.3944242434905197,-0.5803950494490743,-0.8185196907423413,-0.34882777193957987,-0.5562602192330517,-0.220851443254206
-3.5713179984575074,5.491776031782849,7.009622479831128,1.0529606277706722,-0.3753907548700328,0.8812893940629825,0.12180053876810794,-0.30750696177953685,-0.5322210379258951,-1.5378099782599723,8.117362319878191,4.262696332638156,-1.231012670338252,-0.053087041310442354,0.4837975284533698,-0.02427147413442659,-0.38690464758412096,-0.4670158267159144,-1.8082232057631653,9.792633002908852,0.6398845622937928,0.773100115127231,0.10502287997988784,0.2445731692254742,0.08521206640277354,-0.5349006569003042,-0.17516336980085834,-0.7384989592076203,10.13297117830061,1.7154305841145119,0.6829193847303019,-0.27454989965504056,-0.4385093206580597,-0.10485594025912752,-0.4478067831044479,-0.30292666680736485,4.249737714530606,8.633088203859874,1.5486358150245318,0.4580989457072893,-0.5897574671933785,-0.9405638766939336,-0.33943419544048115,-0.5636426543521373,-0.20298458098720257
-3.289357086974648,6.212484075859193,7.349532958041798,1.033295131405173,-0.45141223862064217,0.8637365346932284,0.11283142024764055,-0.3329442053186684,-0.5204932759869436,-1.1607135671649726,8.168992975736383,4.5628366555138475,-0.762181359154315,-0.009348714432614189,0.447168760722547,-0.026736730826908483,-0.3804070827474439,-0.47201141603383784,-1.5216203002118749,9.819840209633282,0.2923339314372043,0.7987601096437014,0.058647833727990616,0.29344337494991424,0.07935398996036852,-0.529499369599593,-0.1659033867074551,-0.6675904178894411,9.883510619242083,1.4960129671136522,0.727852890664633,-0.2690746938322901,-0.4393572638448091,-0.10074013455685249,-0.4428835075226078,-0.292433621731393,4.034617042777647,8.68235268607538,1.3415729729074732,0.5043080117788632,-0.5891648057821147,-0.9958284008685298,-0.3295293966401085,-0.5705327106890113,-0.18877736418028235
-2.978539564799043,6.093893710543741,6.7226288538687875,0.85671903121847,-0.500331582674051,0.8211360929790904,0.10227186596354529,-0.3426744768481368,-0.5179251143323621,-1.2901188415070934,7.994277663418247,4.708084516114328,-0.391723221266539,0.0027555562133560274,0.4272237380138434,-0.02701552343495826,-0.3709950015546198,-0.47851841866956685,-1.5865600960485622,9.856334528582039,0.3386281089777513,0.8183793007491782,0.048674042922103276,0.3092389067968379,0.08294215968946424,-0.5382876977432816,-0.14757745392262658,-0.8369243041256658,9.677742919409486,1.4671404380117732,0.7515994567348049,-0.2507988800197196,-0.4436158986452137,-0.08796389167722209,-0.4516601635593564,-0.27691017721371913,3.693719336785589,9.324075547089466,1.1511472063861068,0.5430746511297585,-0.5883596950869958,-0.9573875082903623,-0.3079683630318753,-0.5867522956239514,-0.16987719816823607
-2.7702279765435613,6.248265493989321,6.217085608146614,0.8365793134571239,-0.4819048007258469,0.8140785948015026,0.08404645837129629,-0.3670533612878808,-0.5103747921160591,-1.2967453803246216,8.418792374643578,4.997969415235637,-0.23330831646594316,-0.0713980704834701,0.4244976709336162,-0.03505358579239749,-0.375639121702764,-0.4765006276527566,-1.507327790081954,9.691911525077026,0.09675408193349884,0.7925160787318914,0.041576998138433865,0.30339075672838656,0.07683387916195204,-0.5429070538544117,-0.15393492371144815,-1.0330503707530596,9.812744286718619,1.422713393962779,0.7232256522588194,-0.2566110444186285,-0.435552638103807,-0.08087506888451834,-0.4529477353546937,-0.2795402373433542,3.5785363135842827,9.501164650041426,1.1611369466668338,0.5192018254959728,-0.5644802185884138,-0.8953372847983189,-0.2953084810842532,-0.5968106143328168,-0.17030760590882926
-2.7664398251232782,7.031756911782493,6.461253204674617,0.884776553948212,-0.4580748398376775,0.8067633930194235,0.07250912543582066,-0.37001837289399736,-0.49823613156756424,-1.3864455108142597,8.069032986698097,4.905408549243879,-0.41208863018501135,-0.15771823815569114,0.3963891575337368,-0.042705741286938985,-0.3573957105527075,-0.4785280624599338,-1.5926225146676982,9.665810903764735,0.28541143174249645,0.7199522239042755,0.09519448495739156,0.29406541851599105,0.06873732670590817,-0.5440832210463421,-0.13734942251120832,-1.107309273350196,9.94445061659835,1.263790680294532,0.6674470890980739,-0.2556987342266905,-0.3931752373005911,-0.081470499201995,-0.4528365618628949,-0.26318717352669435,3.5024761583675645,9.767275219942738,0.8185920690504717,0.4693691215798195,-0.5304388461240328,-0.8508576996254975,-0.28690099748707815,-0.6054094124555724,-0.15147162299294922
-2.5757143813654144,7.592172073018029,6.357280547909893,0.7697478371646517,-0.39507254928922153,0.8539082663544467,0.047235642028878574,-0.39212286920590433,-0.4958240365702825,-1.1235584497050588,7.342580403197702,4.4357706567905915,-0.0621939475336142,-0.15200334944266256,0.3285384086928008,-0.05927665384440313,-0.3624350514825284,-0.48311067241561506,-1.4742407014300865,9.315809489288213,-0.374353550093468,0.7344136609220683,0.09483743457926211,0.37784518348586843,0.061620880192729495,-0.5462421508571359,-0.1244240157053421,-1.2425814168385416,9.877307443313404,0.9175805661047585,0.737969271002194,-0.22167503561905047,-0.356107590186987,-0.0791398962021253,-0.4559387903921109,-0.24972283511704654,3.240077422802458,9.611708034654015,0.669712838634749,0.5422054819882955,-0.5216999873146386,-0.8072532324213674,-0.27432003698035845,-0.6135326694527043,-0.13651796619981305
-2.2850630008927575,7.453425500682383,6.507827804757863,0.6518803473879187,-0.35146319732608716,0.7561494393919302,0.03645348522267025,-0.396494480959493,-0.4915057116308851,-1.01796540182064,8.029032919797677,5.6043196243743365,0.05067737437892501,-0.18107012434978223,0.24903123686399797,-0.06442780470966986,-0.35849692200532257,-0.4797666523821787,-1.1973629495836082,9.651757681072528,-0.02479081224761298,0.7045480326218659,0.15698489296868048,0.4384743851791917,0.0669869615975028,-0.5484624242265216,-0.1261196225355193,-1.2410405608613588,9.955473083553882,0.8267896069642473,0.7718889439243178,-0.2045648604221194,-0.3012101523270425,-0.06426710105570202,-0.4567592076426547,-0.24742262598143774,3.2164561920720853,9.691629462980709,0.45331328654185815,0.5837559828064556,-0.513440098861524,-0.7978286559586196,-0.2531307462301269,-0.623139361902235,-0.13397042175814314
-2.344155235262439,7.160651202618127,6.487569211021356,0.5995962087218389,-0.31545318973013914,0.6105603480324265,0.032716022378356024,-0.4087055784571453,-0.48868702073080394,-1.0928827459888697,8.069780451404036,5.297808172789298,-0.01967476647897834,-0.26220115268596517,0.2485427137599267,-0.06295642374369398,-0.3587870330515205,-0.48293381367169924,-1.4436087078732849,9.924778567783374,-0.4882716933257485,0.6098471598009663,0.2191610240685985,0.4047101989694575,0.052511990343205237,-0.5608491398252435,-0.11613082832081884,-1.2170472942250492,9.893977243667148,0.8266105043562607,0.6861062195740925,-0.18164853239193876,-0.2514455529147453,-0.07175226911479067,-0.4678554107755101,-0.23470311745470568,3.0406272588350634,9.332913599145066,0.13986251963359422,0.5422668152030036,-0.4602400118286974,-0.8027981940933301,-0.24816761892124822,-0.6392933462655456,-0.11565038421708511
-2.0540173350678446,7.045940103818427,6.551189368234594,0.5799062735868754,-0.30550295246458536,0.509002591702641,0.01820781763381613,-0.4194667983420382,-0.4766211693029313,-0.6827975270879374,8.411712246123505,5.2251045770054665,-0.088302731225692,-0.23957934297602412,0.28541181147293077,-0.07833721221224664,-0.36071924219288465,-0.47731004803649835,-1.1221347302476448,9.693587097603361,-0.8281663144240425,0.5669989534731595,0.17388867530707708,0.3961983065767592,0.05420114977573729,-0.5576697350384844,-0.10123771761105035,-1.340983758925849,9.899710793165912,0.4129016403726465,0.6502529703020429,-0.15202396827938908,-0.23022740260003344,-0.06205668277942393,-0.4636739365987533,-0.21977333666855328,2.736649969748222,8.956214059599949,-0.10114585820608202,0.5294385627014249,-0.4055202707689743,-0.8692797505591093,-0.22556392180994,-0.6423296763368925,-0.099415105636227
-1.8478827472368373,7.142750029334987,6.522571983182515,0.597175873207177,-0.35034115889119927,0.3894069910042923,0.012192113212291241,-0.434965393087841,-0.45772261191835245,-0.45346210566927925,8.261394591242864,5.1088129905303,-0.37301436678617245,-0.18059984975891394,0.3204120893336712,-0.07614737970755965,-0.36294902026790526,-0.46530439198039,-0.9158596711594559,9.696749503739932,-0.9246013631490341,0.5506744138831167,0.175226838840812,0.42557902085551874,0.05029065658043986,-0.5556969919822846,-0.0956317539290642,-1.1995251772768014,9.862876737448849,0.12571323299645762,0.6624996558363994,-0.12109682691828774,-0.20564271235075354,-0.0589423627642373,-0.464128534951411,-0.21120451100917798,2.646841472492108,8.901976988413155,-0.3147903623611783,0.5668306078868903,-0.37441435137561563,-0.9709374370640754,-0.20684590230370592,-0.6460780981602595,-0.08735230771873095
-1.737190709358528,7.655818256569632,6.330896881970479,0.5894047095236197,-0.3654658595995932,0.2800016040963121,0.0021866189248831054,-0.4375630986616597,-0.4621766608422411,-0.513242153511861,8.491679949304539,5.405493808276146,-0.6025865033677301,-0.12839513408533607,0.3449703612765322,-0.08425309074867804,-0.3471591086406031,-0.482430625463555,-0.8771795971908958,9.742721793648949,-0.9475951301372446,0.5783033627575054,0.13271117219158937,0.46201331749300845,0.03219348965400494,-0.5575707498996314,-0.08468331378884651,-1.2582036041277411,9.660214407436765,0.0007019950801295527,0.7104677190169085,-0.073893964549156,-0.20483165509539536,-0.06461040710797131,-0.4608402533781644,-0.19978892278024674,2.317185537549512,9.136722018373165,-0.7097652741317825,0.642945213525669,-0.34028842367170464,-1.039807985637473,-0.1993720915388029,-0.652225034058612,-0.07462275196403297
-1.5437421681533416,7.688558354059662,6.167243309877081,0.5033345164961897,-0.31879957659584,0.17034888807051293,-0.003254274226992708,-0.4417783071961004,-0.4502677166522195,-0.45810399401872515,8.129033933679654,5.1857178186751325,-0.7997030435572196,-0.14991142395278764,0.3888575256308758,-0.08968192363495811,-0.3342845486423842,-0.48485253573132,-0.754979190550787,9.694016237164268,-1.0837928967177202,0.5914396571216651,0.1380882187425747,0.4485043076563592,0.030477442683997397,-0.5558499619339248,-0.07834040139990343,-1.3402065108627823,9.185974098494851,0.02240171974848408,0.7037759284042476,-0.03066462628053314,-0.22731849136138177,-0.057853115817757164,-0.46449623237255017,-0.19166308614567143,1.8550782851674468,9.418499402322675,-0.5199416759874286,0.6582155354316407,-0.29398106551103803,-1.0151888008811136,-0.1762622090951356,-0.6581872514290618,-0.06351515413788779
-1.3603169345288206,8.089506928753035,6.111238526419399,0.4628055946071884,-0.2021825536141122,0.1160501616085194,-0.00793697042883668,-0.4495741580426112,-0.4493712486604912,-0.18813975023207585,7.940099869811717,5.011724823405067,-0.26458700957105113,-0.19506547127719315,0.4274874808876337,-0.10142103114492726,-0.328790872032032,-0.4888714831271258,-0.5946576899532995,9.899333817897787,-1.6876176079691763,0.6737163683598182,0.07625497711356188,0.396959138993509,0.03314616563131882,-0.5560986664195938,-0.07125441347236304,-1.3966285723566831,8.843941608956776,-0.15090926800232995,0.7050411676007887,-0.027626073649927536,-0.33301878166224413,-0.04569412874815349,-0.46281214454522807,-0.1825609160400825,1.5503107758311796,9.535869292476663,-0.36440326432584286,0.6506680866196849,-0.26395906919638673,-0.8472510316250169,-0.15411949098444463,-0.6619474350532655,-0.05265336626559211
-1.6147296914672042,8.216617115541505,6.027661866647599,0.4778709692207253,-0.10355326949547368,0.10321176856271035,-0.008959477239558089,-0.45424987371717274,-0.4440407089361587,-0.2704278012179449,8.155539745243205,5.466740520005758,0.1416460423651759,-0.2189192522590361,0.426957438013003,-0.10022355460797588,-0.32529394977196735,-0.4845324538980798,-0.5911370295309751,9.748298468445109,-1.441552813805327,0.8170095178999945,0.009033194549536607,0.3866273121573909,0.01868761736203412,-0.5638464328177851,-0.060049343959690485,-1.4904798588030022,9.177979886694121,-0.40418724174785226,0.7727979525253915,-0.008797087519921415,-0.4602422733884075,-0.04946011043933938,-0.46661542320631183,-0.17084108266550768,1.55154580669709,9.48091651751687,-0.7894322921533297,0.7221457899465386,-0.2675808906318322,-0.6757304562569053,-0.14837156447667577,-0.6724827434753233,-0.039938511672896075
-1.842446599167317,8.20612725718248,5.975920053912578,0.46472088006659157,-0.07901166298785511,0.1052991351485195,-0.01663025500730875,-0.46383574373491027,-0.4307175894275442,-0.40221843492334336,8.462562799337633,5.748588269785775,-0.005512841097044989,-0.24800198192652698,0.33661977320346664,-0.11291690537499233,-0.3279257718649284,-0.4776723609120857,-0.6211928434607825,9.364562205125996,-1.2973940691420214,0.8550773106449968,0.03726881845521184,0.3923936878111983,0.01254293845031521,-0.5660075760655773,-0.04516783009401139,-1.7703917719397477,9.528921441305593,-0.5087164485993849,0.798468867379024,0.027656208452585873,-0.4883310971323512,-0.03977773367948962,-0.4675842415083718,-0.15929559218749356,1.4531195083807322,9.232673944653067,-1.1066234283199938,0.760831802938097,-0.23984888925102707,-0.651075852787533,-0.13624141263082867,-0.6737648964991773,-0.02693341767784496
-1.8342907262335308,7.872315960060265,5.803479833557027,0.4844643549045432,-0.05890930523452149,0.08430079406927801,-0.013299066726104047,-0.4780379908340206,-0.4276415591983402,-0.3160618515361548,8.66968158192706,5.707863169285965,-0.8601455849377548,-0.23434022772593643,0.2561408636403878,-0.10901113725735188,-0.32488484679428015,-0.4867511246564469,-0.6583690643521356,9.126289419147119,-2.0318530628796583,0.8513236541663368,0.07244637776002921,0.4393081624581159,0.012736535270282822,-0.5691678481594032,-0.027098799750235804,-1.936430438406211,9.44863620990183,-0.7732475256422958,0.8399973651549237,0.07897865206469133,-0.45702117239339135,-0.029922150873213038,-0.4716777314949835,-0.14016004212280675,1.207663267759155,9.19429599949644,-1.480920606566741,0.8207365970137988,-0.1978146446098729,-0.7332894397071862,-0.115404287596031,-0.6811981357009377,-0.003387958237570281
-1.7511457922099505,7.9931539750775835,6.210120514297271,0.4309560062291715,-0.10298317661639661,0.07020461467737255,-0.018387539335051783,-0.47213693022124725,-0.42956851253258665,0.09356500797493876,7.658306962109184,6.184630002818167,-0.8615062113653954,-0.2174403750338363,0.27128674597552177,-0.11911297265707456,-0.30099942902298527,-0.5010858306334671,-0.3706856984966607,10.039648321036312,-2.1740117185810717,0.7644089235149392,0.035179689635455744,0.3685313788280247,0.0034630858031759948,-0.5622874728562819,-0.016870394856548076,-2.0306395653372156,9.376581447230597,-0.6948131330055803,0.736915125496396,0.10443386981477046,-0.4242986876118551,-0.02574962200433527,-0.4584548274933836,-0.12972132545825177,1.0317606900421739,9.70316521367527,-1.3223070895653735,0.7376856337637999,-0.14096311794708452,-0.766379036612522,-0.10251248754491235,-0.6744274618843656,0.009874755418072124
-1.6764929342457702,8.083189530357169,5.481467672545948,0.479692545251784,-0.18180848132347488,0.13748529653281774,-0.023333788706523553,-0.4831081787178876,-0.42820894143103194,-0.03980498265949958,7.706409930827119,6.114133304727469,-0.08039224201813411,-0.22197806561335892,0.309882571303791,-0.12715479427692983,-0.3023528231642462,-0.5066932342512595,-0.43585552047028964,9.662754415093133,-2.3268251997397074,0.6985208121743582,0.013409843774768651,0.23995230898703881,-0.002607940550945137,-0.5505396622666767,-0.010545028514720417,-2.2225696933247456,9.086122193973392,-0.9707276379703549,0.5865642007738515,0.0992212042967922,-0.45181021222016127,-0.02329773690994504,-0.4533191961946116,-0.12583289651496637,0.6446971882392056,9.405410858973255,-1.3911002053038661,0.5865965641747245,-0.08559512095998593,-0.7299511707081878,-0.0920116032850352,-0.6661732856206128,0.015314791260561223
