# sampling frequency: 40
# units are seconds/meters/radians/a.u.
seg1_acc_x,seg1_acc_y,seg1_acc_z,seg1_gyr_x,seg1_gyr_y,seg1_gyr_z,seg1_mag_x,seg1_mag_y,seg1_mag_z,seg2_acc_x,seg2_acc_y,seg2_acc_z,seg2_gyr_x,seg2_gyr_y,seg2_gyr_z,seg2_mag_x,seg2_mag_y,seg2_mag_z,seg3_acc_x,seg3_acc_y,seg3_acc_z,seg3_gyr_x,seg3_gyr_y,seg3_gyr_z,seg3_mag_x,seg3_mag_y,seg3_mag_z,seg4_acc_x,seg4_acc_y,seg4_acc_z,seg4_gyr_x,seg4_gyr_y,seg4_gyr_z,seg4_mag_x,seg4_mag_y,seg4_mag_z,seg5_acc_x,seg5_acc_y,seg5_acc_z,seg5_gyr_x,seg5_gyr_y,seg5_gyr_z,seg5_mag_x,seg5_mag_y,seg5_mag_z
-1.5268433698749069,-8.497165055556003,4.872646950737656,0.02159840049304484,0.04624754927754593,0.0009628125274427783,-0.006059202507567,0.38968867595334233,-0.2718685322075787,-0.19637368640777142,3.637528523449338,9.328301054036267,0.026966444560525275,-0.05621250721471155,0.034957296826272466,0.06148199594825255,-0.21541767148809565,-0.3389739250663183,4.182767826114915,-8.91877923830869,0.9752240815590896,0.08777120996406952,0.03356952577548785,0.00548490981257471,-0.07434905375482681,0.4421216606174702,-0.2019056083139157,2.7606311434400927,-8.827217536156189,-3.298952681098247,0.0405167178747792,-0.024214007149410063,-0.07601019437827972,-0.29638376722138793,0.6596456606236917,-0.07076916688072213,-1.055932541434952,-8.588542267423058,5.172286179506728,0.016730127665610543,-0.01969325475852217,-0.016391829468009867,-0.02704085726776405,0.5477996322170875,-0.45260201862347915
-1.5373079347860001,-8.392996170189038,4.897028947305312,0.018572591149193417,0.012320663257910818,0.012346194793946379,-0.011904784679516953,0.39191967682494805,-0.2701563493371248,-0.15050801073452114,3.4806247843035103,9.086499760445653,0.015465968491031877,-0.05014794632078983,0.009289480687400715,0.062026499378409886,-0.21836317344686598,-0.3252530089808149,4.0788863848508,-8.926017763855876,0.9294444758618686,0.08145501853020631,0.0278848099872147,0.0257916819385762,-0.07065421350951878,0.44796480596568433,-0.20178040048150894,2.727977108423051,-8.797100747773792,-3.398216666912014,0.054254507393995254,-0.02169554941037993,-0.06489561837456115,-0.295068302971827,0.6640251074510823,-0.06394135813309418,-1.053119597074648,-8.303553621540628,5.116423237656835,0.015577588942707997,0.01655298326812172,-0.007162572000147978,-0.02525094830451556,0.5514219494149682,-0.44723046298090974
-1.5431063867734989,-8.364804153275964,4.827029230606445,-0.0031023467093457195,-0.023512876077862777,0.0019766763625035156,-0.003596040643898163,0.393589252078987,-0.2808985621921035,-0.13983612343813828,3.4088971159469765,9.082023315687985,0.012617843815552882,-0.03830773976517195,-0.0006584197218932435,0.059269440766823715,-0.22119221887053375,-0.3481489651260188,3.9377019848412655,-8.84645602245349,0.830998765483164,0.07083224104151595,0.027299500060461314,0.02095654319026532,-0.06811446048211549,0.4457345287896603,-0.18735914605348145,2.522669238717408,-8.841471982070745,-3.2792068841170883,0.046860235977751304,-0.007129238869056523,-0.059210915617455166,-0.29588518597361285,0.6571656254304067,-0.051246788563021325,-1.0639008761300959,-8.240439265172434,5.132191348265184,-0.009178558706724087,0.05160364396092832,-0.01229900496060415,-0.021791891331043273,0.5444962759393964,-0.4338590466100074
-1.567548488191275,-8.38854472367661,4.804943051209928,0.0035258373684974934,-0.023046313970425093,0.003486739483743499,-0.01796587017440856,0.3992812958441783,-0.2721015508792077,-0.05896530090136347,3.5003113099344034,9.271298613415539,-0.008045566836041431,-0.04154610004194179,0.009443425998638117,0.05734378794840144,-0.21710247977412903,-0.3367345174238196,3.984335937818511,-8.776085392049861,0.9160231672588424,0.03734789393049605,0.028380010170636287,0.0034119751861638042,-0.07124042078812313,0.44076657163639715,-0.20947775694767198,2.610375098115808,-8.500885308831288,-3.089048350112257,0.02031684078775827,-0.008961862420905548,-0.036285130402874996,-0.2986273214102545,0.6579456526216401,-0.07416131242514969,-1.1731175825345814,-8.36512583284027,5.274034081513564,-0.003367522991917702,0.0608502869579606,-0.012227365539344722,-0.02589636394877998,0.5434098253790237,-0.45653580102306474
-1.5668773138727186,-8.410576639826838,4.80557727655108,-0.010586814618679939,0.006791015563909871,0.0062472173677917305,-0.00994313250163507,0.3936232184986952,-0.2769912343031515,-0.05778389872230827,3.5730582301888445,9.09445062758764,-0.039355928306368936,-0.04204088654711936,0.013613398050310064,0.05686975344667984,-0.22471536912681592,-0.33929209440114094,4.118041468499837,-8.688007151702285,0.8899205897711786,0.018036980622695195,0.02440926522129603,0.026134264106206364,-0.07065161105707478,0.4438638568115654,-0.19854297260392267,2.642790776601794,-8.379864139141954,-3.1410182307771066,0.030156202408819197,-0.04368682460816635,-0.00503965781910215,-0.3004332734412547,0.6603675102559707,-0.06314496085755888,-1.17111004612241,-8.310809801418262,5.269836792374438,-0.012251999626585781,0.04746927145448699,-0.011283872018521298,-0.026006698947474306,0.5472704371188601,-0.4450443889609072
-1.4827775629967965,-8.324046251447205,4.780880222142157,-0.04038631543219634,0.01743324166652268,0.002608786270999872,-0.002634507528912967,0.39089144909954626,-0.2740651603194703,-0.04871010956296218,3.483103747726275,9.05433061780221,-0.06533012393996306,-0.040836929774453815,0.005175146141452825,0.06100386565999384,-0.2153665374740701,-0.33579868117961303,4.049968388867736,-8.788335084258819,1.0426008997241416,-0.004381351650346894,0.01725237015468242,0.04443069482645782,-0.07316669520944828,0.43962488669802685,-0.20504932558258945,2.8491442669380516,-8.547051337386918,-3.4711264726282365,0.03610361052174146,-0.04512135313183644,0.024100087009106683,-0.30172658281493925,0.6557397587183995,-0.0682643902760046,-1.076007933371903,-8.305357745161361,5.0999170562842435,-0.04374824585460846,0.03928322581189787,-0.009502055170128957,-0.025105728102808172,0.54312808113296,-0.44921915451398187
-1.4414574686693686,-8.318290958745234,4.711279886017343,-0.06415553181111949,0.0029135864500140136,0.006675699366413091,-0.004099675309902195,0.390650655903894,-0.267962073230916,-0.0021310697533785325,3.472313580134232,9.033069956858748,-0.06497030668349221,-0.04393550638768115,-0.0012996606907164831,0.050009732631983654,-0.22212815233471872,-0.34395115714944396,3.99045390471416,-8.735601833751552,0.8318965399309199,-0.04593549424972404,0.003126982770228992,0.03822764057312799,-0.06696963702018166,0.4479906089334645,-0.19887996684133066,2.55583747370881,-8.583128406136922,-3.4467692190682317,0.012338770762338058,-0.007452395379413804,0.05819379191274068,-0.29284856837540313,0.6615779590448949,-0.06202205044553259,-1.0058853290783853,-8.302570450954095,4.981284615126284,-0.0672740534571675,0.05055920468121696,-0.0023757252461046176,-0.018853881947090808,0.5542778336739161,-0.44483005632407047
-1.4217359368484368,-8.308760746781706,4.668154335788202,-0.06611954930319376,-0.007270663958933193,0.01190602496800664,-0.0038392417950889233,0.3935828634095096,-0.27210951455399385,0.09610315040329925,3.4793315622369625,9.118654650539424,-0.04133736128474589,-0.06024988595325155,0.013591950913484502,0.059555103217341414,-0.22644438635419326,-0.3409818736875095,4.124083204513543,-8.798353710180715,0.7775945615991351,-0.0419628790048693,0.017114607088633993,0.037383526810941446,-0.07557747491381447,0.44283835603574284,-0.20337147158638635,2.4913945302752536,-8.963893521689448,-3.478264767704363,0.01778054253459435,0.0038638134945192153,0.05339784719869381,-0.304864802675455,0.6559829994625416,-0.06553749899701053,-1.0496218772151666,-8.339850807840246,5.0411147075256775,-0.06787524190613918,0.06609581967559669,0.005338006987077832,-0.028234331502252654,0.5458357130422896,-0.4469851267136705
-1.3506351022409024,-8.332074145856755,4.706952054183483,-0.04688833119986826,0.018749457945560377,0.018522293730505523,-0.00971010948303876,0.3914151134128781,-0.26722724596831654,0.144370716125338,3.472826360817478,9.115639808792233,-0.029572480846678385,-0.06926333051528699,0.02559777680781973,0.05391599355020705,-0.22360145429016182,-0.34516128482322395,4.2454102471286275,-8.783732751671273,0.8682684130864434,0.01441438205743118,0.023327008055962457,0.050541969550656304,-0.06485467663307129,0.43501379558135383,-0.2004032356243877,2.6518785842254546,-8.927626840481905,-3.439871182421147,0.04830121490691826,0.003909851098180466,0.002955994571333726,-0.29632432840673933,0.6525557620744042,-0.06565620936201298,-1.0120851890112517,-8.310568398123372,5.10424356042873,-0.0494247224376604,0.043652872483450726,0.00964651330294103,-0.018762113662969745,0.539385273972951,-0.4451366181207996
-1.402443168048038,-8.494544844835273,4.7130658188792385,-0.03616011355037165,0.03865828634672589,0.016540847854894722,-0.006304731159241774,0.3891962483391122,-0.2652769182378478,0.10589352353584332,3.531591837639252,9.032610719592482,-0.040373570450454914,-0.04181698888886687,0.006427141771467156,0.05783265830722524,-0.21511996598549682,-0.33505980674727076,4.09120346817685,-8.78901014723176,0.9097671531446159,0.03391594030470066,0.015394080116764108,0.06183900824404147,-0.0697340936797025,0.44132651747928847,-0.20437040848731944,2.6860566180611776,-8.627085556451643,-3.3301617630144005,0.0657168154485539,-0.010421319910052568,-0.005455997125462079,-0.30154162778158716,0.6545279979058426,-0.07266454804235675,-1.0327014385422797,-8.337210437800785,4.993928681817087,-0.03495722599643065,0.01237640612100122,0.003914657093861044,-0.026056477186420617,0.5453327476803548,-0.44871417570768585
-1.3759721961811822,-8.52908681106486,4.790796657845627,-0.04340495746251479,0.024341118689300927,0.010533563197258884,-0.00820729326298609,0.39800292368393486,-0.27234868299724746,0.05178250701948059,3.5111377390749317,9.17747766640053,-0.028364246136322935,-0.0326378717885439,-0.0051607487085363855,0.05564794851112569,-0.2200169591430937,-0.3354592289815997,3.983215409216298,-8.865290133080274,1.0671690053601568,-0.02311879931341482,-0.0039102373524289346,0.020502569793899496,-0.06861282416615291,0.4483733108628232,-0.190570917964559,2.898444406591986,-8.941849944790526,-3.4893335749587315,0.009369647222055298,0.019090843022472884,0.027519391665251792,-0.2984115421106618,0.6618204775560026,-0.05804123168645894,-0.9815069963740727,-8.408890805067958,4.970753762280455,-0.04937172028235424,0.015272324619794782,-0.0015831595208889912,-0.02194092651170072,0.5545111783044585,-0.4345492959368467
-1.4206674567481175,-8.400526603111903,4.73884135279459,-0.029539804485924318,0.014151037543413604,0.010650649387631925,-0.004055327859249094,0.3982198261305963,-0.269419336207466,0.06231687993727124,3.507431037155057,9.126554745685926,-0.029015240018136646,-0.046758436635391386,-0.0018140242842946503,0.05271076270162536,-0.21734013282972392,-0.3354935423685095,4.105849873619765,-8.851325141324452,0.9106774282841537,-0.010109925094225493,-0.02003321671562134,0.012013738660970589,-0.0684642757362564,0.4431086157897087,-0.1992802867792952,2.669602501131984,-8.842713495131967,-3.4074506827801367,0.006825544943520195,0.04944692149430655,0.00971092024268919,-0.2992302941328801,0.6586595548072287,-0.06438515921618343,-1.0351886200634415,-8.420877624114366,5.046634175387012,-0.034946897151635195,0.012828122237600428,-0.0011987699238023277,-0.024271772471560687,0.5472400870884484,-0.44188463169193415
-1.4237552763137582,-8.442912310421667,4.721056195860202,-0.02521484929228848,0.017081558468830083,0.02302738355617326,0.0008452709737439004,0.40111922751223217,-0.267464751672012,0.08176696648185056,3.5403249718856156,9.15811854460732,-0.025953129313388598,-0.040948461441864155,-0.0008006481041593138,0.060524564083429544,-0.21904163082779163,-0.33646923008918994,4.0712775652504725,-8.86412129999404,0.8702672513689103,-0.0007377118276793015,-0.019752638753968675,0.021816092077054424,-0.06966965135047663,0.4414559765898932,-0.19607066821879984,2.603257184694167,-8.71779487050256,-3.2391186646954506,0.01712684461693543,0.04237265875080205,0.009106007294936016,-0.2987217601366913,0.659877190386905,-0.06292434890343687,-1.05662380282055,-8.509459972678913,5.058761193650326,-0.024679508298957223,0.0160232642284517,0.010478646648633672,-0.02200027709795288,0.5528235532924639,-0.4396830284315139
-1.494045624220972,-8.495988769706637,4.7830512649452,-0.013390697800166128,0.020469793652980274,0.027599991217915894,-0.0030879782976562767,0.3965031347799756,-0.2672240629596924,0.032035358717262735,3.4913504471695775,9.209050711977138,-0.010577664620028203,-0.025002269071171458,0.00040062136606368873,0.05464832514760137,-0.22310627947194367,-0.34492796459079544,4.134882002043482,-8.815105427663623,0.8185151914975152,-0.019356422475671015,-0.009302087077826949,0.009365760777420214,-0.06477719799834442,0.4428980782776361,-0.1958871119074968,2.453694963097647,-8.859221568088593,-3.1818385398263276,-0.0006556191926473346,0.02013030938510789,0.021079390966867843,-0.29186234708892916,0.6584010201362328,-0.06106405214452372,-1.1115321533651215,-8.364502477207598,5.110133868411906,-0.011777404874182556,0.0061164241691703545,0.013458688302073486,-0.01422487456994814,0.5490832290112522,-0.4397624186001414
-1.5500534560728347,-8.497758368909588,4.7762861207549845,-0.004007642371730779,0.022498292423968027,0.01769487927695272,-0.006022843845541203,0.3957910440207183,-0.27015409964315196,-0.013169394132130835,3.6440202046735117,9.166447186119353,0.00043382823397503047,-0.009751666147532811,0.0004461910022274012,0.05587773712331435,-0.2200850202273109,-0.3396104820312853,4.047764567921392,-8.76987780811803,0.8517121874342338,0.012524496002195644,0.009370230684376115,0.01889250247618249,-0.06659872069806164,0.4368844307308536,-0.20627876159546701,2.526452609827424,-8.820238737474094,-3.1762644084477003,0.019306110649103442,-0.016408768296012722,-0.005547565917800557,-0.293957261692299,0.6545174466770726,-0.07154299479117911,-1.1583875500296876,-8.247188066646864,5.085574479429418,-0.006011302111222371,0.005269305437532979,-0.0003347732569947098,-0.020887243984394756,0.5477129475145477,-0.44654966748354297
-1.5776592663565205,-8.39358241003298,4.781624615647738,-0.008594016144877568,0.00944099962623325,0.002098170764987297,0.005447881311052125,0.3949892756692415,-0.2689361559283329,0.05063459905557252,3.603152421733937,9.086013560334443,-0.007484263077583328,-0.0025684079900728674,0.01701762103180268,0.05223521248614079,-0.2217359773749046,-0.3354190525896278,4.130786722122349,-8.853322417312917,1.0442282544679895,0.038101015617037465,0.017895318374225387,0.02763231925183585,-0.0672541035508585,0.4428389794983921,-0.20050666255861177,2.776494793279626,-8.876626292810649,-3.411434305004683,0.036688260609011564,-0.019713607972561675,-0.021912492696847693,-0.3000088520257602,0.6608644250607222,-0.06803299923086248,-1.1719735707870063,-8.21621781278093,5.0739210884868,-0.014049521944833006,0.011110052437592858,-0.013448067480333106,-0.023523053604351717,0.5486966295086806,-0.441640727538732
-1.4671796951797118,-8.351097242829812,4.719643900120185,-0.028964235846229442,0.0026114989341279767,-0.0006537584883165598,-0.010149230013062357,0.39971927944736924,-0.2677077546901058,0.11151705072892074,3.5458930865909366,9.158258451435639,-0.03609489641145617,-0.004298155323084263,0.02492835433527232,0.05195291375586691,-0.21919674889750607,-0.3442504329554854,4.104115022704039,-8.869381147972632,1.0859820942523506,0.027578117543850852,0.021916182114901338,0.016790657528638484,-0.06845966956464933,0.43973677695835856,-0.1962972839836911,2.8324776574129316,-8.807491073735845,-3.3650931454172213,0.02244707833565652,-0.003955967563276465,-0.018178809637355364,-0.30145057221999544,0.6557347736626371,-0.06582680739521926,-1.092425001402033,-8.359421690733896,5.068277233063755,-0.0372911350951934,0.014344343276340772,-0.011892675909253256,-0.024229202684042793,0.547463811188286,-0.4370008462400185
-1.4486056253651063,-8.428853079406343,4.740851809724993,-0.058528141019548695,0.007875638691577163,0.0019999712486818886,-0.0001656751614015995,0.3952678301691286,-0.2694227616426084,0.13319224393974566,3.483048095073013,9.373422583840151,-0.07366608100088712,0.0002814401464347017,0.02606822664499277,0.05614901659104039,-0.2259019829873185,-0.3370726440342739,4.078539108587127,-8.832796141901476,0.9386577224876699,-0.014048450923114958,0.01919727722823218,0.004163299614876241,-0.06874936183381475,0.44278601477666674,-0.20440081951557992,2.647542063453396,-8.51974635118656,-3.255824219670378,-0.002047376083661073,-0.005510458124384664,0.01026811221361822,-0.2991318298779798,0.6574595413992397,-0.07537573907400504,-1.0849807907075208,-8.438913329548711,5.059879889336677,-0.06613806603592176,0.003173663837558213,-0.0050117888896308044,-0.023562600022199547,0.5511699001869583,-0.44944247049994307
-1.467120662325423,-8.611586726789998,4.7516617173206015,-0.08403721815486684,0.018720659046405116,0.003864847171566863,-0.0030803764028006207,0.3977223722663744,-0.26526997694240595,0.08737205241093543,3.5056332802304735,9.504451889709738,-0.08368709310364425,-0.018489326172440684,0.026282642685831265,0.05392267864270704,-0.22356908767495812,-0.34320856448693443,4.103839615983865,-9.023189521727236,0.8605007485314637,-0.08908739003340706,0.020328590469407295,-0.005051199913161961,-0.06406047619553568,0.43948037108529264,-0.1955953304742592,2.614363923489119,-8.622700223358782,-3.328045315835257,-0.042646546163689826,-0.012947829393997596,0.07971059505669371,-0.29287349920004685,0.6535233383858053,-0.06325741010658253,-1.124819454788185,-8.510459241776976,5.116319640015555,-0.08894374205725539,-0.011689337353645267,-0.002024010149453966,-0.019816147669166412,0.5481465179275306,-0.4355692014014274
-1.5007677395299162,-8.609175395101683,4.733919729436382,-0.08538789130648257,0.0292764761707314,0.004245531916841018,-0.0054995809454730675,0.4013980545272219,-0.26453420639528946,0.08017527086230276,3.5043334784420446,9.26127324305948,-0.06548937406474302,-0.03247038999690674,0.03565639935631393,0.0424415246497156,-0.21595872452665998,-0.33865573748162864,4.213527164199975,-9.044685132966336,0.8738314821495333,-0.09559426087042482,0.015562328155267964,0.0175140714005888,-0.06579604952166308,0.44329993461353134,-0.20174535857853518,2.6690550342341393,-8.998383497624848,-3.4120209761911178,-0.02587374434632515,-0.024529588613234354,0.09958784462958564,-0.29365294955385574,0.6540192117540355,-0.06690854400560996,-1.1204547379963214,-8.568213512291472,5.118491235434856,-0.08791797398467356,-0.02562389673785557,-0.00217426203526063,-0.021562378703210948,0.5496539515436931,-0.4418968709620637
-1.5144418268468345,-8.575616652529023,4.691816416051432,-0.07148427089175217,0.03651803200683511,0.002617147000525209,-0.0076825941511592735,0.40410088965583296,-0.26892535335381246,0.05692179165717869,3.445273487558681,9.099310434323295,-0.039058293521634604,-0.02497494507646024,0.033152347286513964,0.05538920949827846,-0.22157454004774424,-0.34104833023749936,4.115215361887993,-8.944614031770374,0.8987528090924786,-0.03741585444163439,0.016952351269750275,0.04633011552790932,-0.07452144515665907,0.4485462727757365,-0.19712073957794907,2.5895913907935797,-9.140058484009254,-3.425237394167621,0.02500706778468511,-0.03183232558618656,0.056028210774458756,-0.30460448667031836,0.6640377688307227,-0.0650362924498884,-1.1445144438480348,-8.46903268535642,5.003087513831918,-0.07609899170324537,-0.036310028557107556,-0.0035787429261439426,-0.030706099209938754,0.5572873965288664,-0.43495379679040325
-1.5031459153147693,-8.441473007847337,4.569477625755088,-0.05400912916061187,0.01754357543501973,0.001523665733721728,-0.013815085773405341,0.39900715448415336,-0.26575464010536565,0.08126041572564663,3.3483668763345737,9.15731444029283,-0.01975239660730216,-0.03318480661104838,0.02568025360963474,0.0426926193890723,-0.22409881779332327,-0.34364940817981154,4.004997778147398,-8.804888569750414,0.7862292711251107,0.00628885519902601,0.03365301493206185,0.0466074122352669,-0.060881857710386844,0.44478772125381294,-0.19863323908292047,2.4018828969405743,-9.00592490064297,-3.2863635703786995,0.044339541519408214,-0.02689260767212578,0.013775359140211066,-0.2878331338789755,0.6567050043697982,-0.07015400491825909,-1.0785743526026403,-8.390365791223466,4.818322481331112,-0.06132446959497495,-0.023426916733364046,-0.0076048134929806235,-0.016618154965943696,0.5525184839829664,-0.4380194323048836
-1.441448142516453,-8.364786951440767,4.590071389799959,-0.030144128972664042,0.00018939917251209153,0.0061063263450988215,-0.006976724755754206,0.3994565597973299,-0.2677086366398452,0.23255243939607834,3.265745281321028,9.051188641350613,-0.033549034600561155,-0.03790550052143495,0.007638130699971328,0.051976810728513435,-0.21536533117159523,-0.33405855250366123,3.9194905348253526,-8.82388596584021,0.8727794914556894,0.038996225183473454,0.038364197056885256,0.05889388917893187,-0.0760830958126354,0.4384580200416018,-0.20256711029622665,2.5639975066574476,-8.791416737257041,-3.2687284780018313,0.06695595492672972,-0.03108844525719761,-0.016550205084528872,-0.305426442577064,0.6559943872414534,-0.07114560027457428,-1.0285259111300038,-8.378148530222202,4.917094262669645,-0.030240319222209204,-0.0062545428976289825,-0.0021666519057299254,-0.03177949950916199,0.5502307967096508,-0.43814839579326326
-1.3842316389559488,-8.492617834077901,4.621602779739547,-0.04189612409875312,0.005526747948511822,0.00956148474953021,-0.0091884451116999,0.3972760477498704,-0.2716171302471035,0.2314039178446667,3.3482889051914433,8.905582746100507,-0.030961394010217743,-0.010188395590300953,-0.013720134337519766,0.058584976194024176,-0.2259189343473463,-0.33854591232756753,3.8158002891209755,-8.792689575534416,0.9223944624891836,0.028742964464396604,0.018557409684325784,0.0592454394667347,-0.06351009200552826,0.4480558207468356,-0.19353603002368547,2.6905598704402007,-8.64890598847629,-3.41226228112037,0.06361728652302619,-0.0017208355608729845,-0.0029233962132468143,-0.2940476160883704,0.6630414420997024,-0.06053835508248815,-1.008784300675378,-8.383849252189755,5.004704161372397,-0.04578931224066419,-0.009336414975016666,-7.063243762938341e-05,-0.02331499177236613,0.5569343292927393,-0.4264706127553235
-1.3671852602282373,-8.517185633291403,4.616883398945785,-0.021366994143896326,0.013149609226685304,0.008624087165617756,-0.01282867181473157,0.40070884317353567,-0.26404432402154887,0.1224593244324682,3.4955420209973593,9.109026402810908,-0.009293395390750822,-0.003282266745052271,-0.017894355007250062,0.05244589270955689,-0.2243781994315893,-0.34758472690084585,3.867041353201937,-8.825856639642549,1.0149569751997716,-0.01868941926236818,-0.014892424597369305,0.017741038392582634,-0.05797399184232098,0.4360335166753262,-0.1953447872752548,2.7641042924715,-8.883909892217831,-3.3008430699433116,0.006487589757696852,0.047380451337025516,0.021087359157456936,-0.28802087576888646,0.6496158417422356,-0.06528182355641068,-0.9632728401718971,-8.516394760906655,4.953953200664075,-0.02327629356770005,-0.01961510491825091,-0.004741401248181173,-0.017362436333972903,0.5459068795327846,-0.43144847470042885
-1.3945544841266508,-8.38720640870822,4.609636839696483,0.0076371406968300855,0.015005388042315765,0.016654822445056228,-0.009952117551268878,0.3916581552277532,-0.26454197879890234,0.06247302663655001,3.614806909776749,9.151742302592833,-0.006695619178198216,-0.01450605109108354,-0.008664916362170975,0.04873550673680759,-0.2147095493815736,-0.35286001799646866,4.089583520041669,-8.811029190579147,0.8633620871377103,-0.021123968802054242,-0.020416209661079432,-0.003935204457799611,-0.06268442267393137,0.43881215817252817,-0.20658325936049135,2.5079367406593756,-8.8455035580538,-3.1323714383382746,-0.013102097834722487,0.04192011449497134,0.018490633603472147,-0.2942337843555666,0.6569638995837042,-0.07422087014158908,-0.9812213359890071,-8.412293079191578,4.941783071782434,0.005439364687895416,-0.016523950993989907,-0.0016943147111137522,-0.023489211800721527,0.5528504338917247,-0.4425998103713022
-1.5158600812017,-8.39812645378959,4.604554872883655,0.0017960864132747056,-0.00028959578638294414,0.01796938265151475,-0.005963143141890386,0.40579803676092413,-0.26697119089116894,0.18459207274037856,3.53927846538531,9.102515957050018,-0.010399770392851823,-0.0033853188095512013,0.009840111449250026,0.042217177278485646,-0.21933245772353957,-0.3359126646475073,4.176719063975431,-8.828504079540522,0.8233250919937806,0.008394091277377846,0.0077173143390338135,0.011307194745806418,-0.0660952380951572,0.44898811663638355,-0.21282042726782063,2.3610214662108575,-8.900012136961408,-3.067192247815611,0.01121315926161293,-0.010967600424123711,-0.003043623220844772,-0.2974992498701055,0.6638179540793584,-0.08173342416428725,-1.066833516793289,-8.283546489497148,4.9478187610545055,0.000227263118248307,0.006682201594180263,0.0021889530213823247,-0.02516046941693479,0.5611914258301061,-0.4481677084903507
-1.4686186885857737,-8.488515876461364,4.62266466696785,-0.02072041834301126,-0.01203548087569534,0.014047508988478142,-0.0069826319166246525,0.3982299242069152,-0.26136272612725686,0.1843823062096574,3.4910982133489883,9.328705544866786,-0.03625291492404399,0.0010162008902278904,0.023182571648993747,0.053676922001913145,-0.2238259168051476,-0.34393557100092986,4.141755776958976,-8.85058213823579,0.9354558562569979,0.010460349001471796,0.04283735657747547,0.004606418806581452,-0.07280242228991397,0.443727010498016,-0.19241921190259212,2.572823392192295,-8.761285571703773,-3.2801180211413716,0.006602879792024953,-0.05816479117457428,-0.009200949302666253,-0.3043432304404612,0.6593962128317652,-0.06334054863347567,-1.0468280985881255,-8.38070228628547,5.020183364548637,-0.02538129333189363,0.03004896360396094,0.001185215646286578,-0.034096122238068356,0.553872555813387,-0.4273717997740061
-1.4255074547892757,-8.567222962944667,4.683731735235888,-0.039783839627473734,0.0005578171909744226,0.012236625575578588,-0.008928538048374427,0.39921276970180175,-0.25501345010084253,0.14083140488729268,3.403536714056332,9.352805206392041,-0.04809542845769285,-0.008875427953457426,0.01768825330873387,0.049038807633308916,-0.21962873914021744,-0.3403267368744067,4.07896839470294,-8.983977446804214,1.046068453936328,-0.04745721303279627,0.040116706883127885,-0.014045355887730003,-0.061407314673933476,0.43843562491635935,-0.19901815348791163,2.8214893807093975,-8.628587559830734,-3.420782841667881,-0.03292043313349445,-0.055042616246125164,0.04007606452840547,-0.2900078299054674,0.6535296121187391,-0.06817843531830212,-1.0539354526727542,-8.504728353611599,5.062583906886326,-0.042787764995830466,0.020838128595559197,0.0001669290164201279,-0.02124984714362153,0.5503540551813844,-0.43457222292132125
-1.4578407525579293,-8.572046617835364,4.67285103314921,-0.03572789056966254,0.010401887393625703,0.011312571418229802,-0.012586520182577788,0.4004641489171642,-0.2659975923871209,0.14107358008829346,3.357683630798973,9.305449508730984,-0.03554148289368337,-0.027600254455599823,0.010951638859282844,0.05069169275431912,-0.2132075246283023,-0.35093833152218296,4.037599296181801,-8.937016379068435,0.864391653673709,-0.06762205832377312,0.025368965131456696,0.0005514029517173207,-0.0654925187437453,0.4446260397034841,-0.19493236244194023,2.6353265452659427,-8.855618872110519,-3.4677211622830466,-0.029545235349922157,-0.03285182079844287,0.06483086998756617,-0.2965669138199091,0.6567064878050803,-0.0658890187819666,-1.046845142131453,-8.51536934367353,4.997132742367047,-0.0343632945823897,0.01329218489524758,-0.003392730928685395,-0.022404633470019662,0.5535229175669265,-0.43039841198623335
-1.4687828127006122,-8.541821288712798,4.624273188021348,-0.03322565792381891,0.0072558914930710774,0.014883257848003198,-0.010839346893700067,0.406548383833791,-0.2552505215313978,0.20074397376996042,3.40135314557395,9.235156467310137,-0.012789552363082806,-0.031224114469903957,-0.0014829638978402543,0.05412601257889607,-0.21410839231438947,-0.34702859741937214,3.997559388832278,-8.900520373812713,0.8104511284276946,-0.009024088178333776,0.0162855824941236,0.03462732723409001,-0.06239358065438214,0.44639021230493964,-0.2059716087364373,2.5119749925617882,-9.121393790943154,-3.3839301489523783,0.024538932605621105,-0.019173571057211306,0.02206184852841788,-0.293447034685892,0.6630600100276685,-0.07055708160890098,-1.0613804619270986,-8.533620285543194,5.000691555133764,-0.03331264424812233,0.020038543011134502,0.003601928537458082,-0.022692984224783323,0.5577186852706219,-0.44087707732199316
-1.4197637477514655,-8.601761730492482,4.699761783449848,-0.011868592822312299,0.009903633111472918,0.015234257238588768,-0.0074204779857225305,0.40727500540448647,-0.271852578888336,0.16286309217007733,3.5006043202730956,9.131063360578445,-0.00893198763067293,-0.023652946179405367,-0.007744540141264608,0.0480575139735895,-0.21767086155033674,-0.3398677596457369,3.994276040985557,-8.915176139644814,0.8360190633421939,0.042545510732341495,0.01360511358741006,0.052059431055264956,-0.05944038220625896,0.4488378290430104,-0.2045674939870244,2.466939397490912,-8.902228997121302,-3.259112315472396,0.06116387628162197,-0.018709301116659475,-0.019519518358110322,-0.29156892556763464,0.6650222237335806,-0.0764374491579789,-1.0309750628908552,-8.542055938868733,4.9653963094423395,-0.016595503419160825,0.01629590746132984,0.0015849997717336324,-0.02067423219390859,0.5618366535886433,-0.4379474481356265
-1.4472930395980343,-8.5581091605592,4.717301321033437,0.0031923605648526312,0.01691244253629377,0.01688042992582046,-0.00888424680700061,0.4070324646355295,-0.26379549282616394,0.12696464684345657,3.529990887207673,9.04213949009402,-0.01319457640295249,0.0019934021023543607,-0.013374786562969088,0.05464100020634572,-0.21793953600861016,-0.34257122927911193,3.999315395511553,-8.865031805497074,0.9341988100562753,0.027188752512413414,0.020289401302741577,0.04341809176593372,-0.06452404235644194,0.44532981040948266,-0.1964150816603407,2.5297157377062325,-8.798318113476778,-3.321174580782202,0.04903718022084172,-0.027291976194789028,-0.006974882964735563,-0.2938963161090377,0.6603684059323099,-0.0673821123812288,-1.067221888400462,-8.43296241804917,4.994052923926042,0.0009798460687145492,-0.0015628795957514587,-0.0027286489423904276,-0.024347623895159005,0.5545184925462529,-0.4303783204866286
-1.4997920281539086,-8.532414474023371,4.69986693588696,0.007083730445332533,0.009238416075093799,0.010064792367521419,-0.008709329969533351,0.3953130163012707,-0.26356197443158036,0.10971951149502904,3.4165625269990887,9.122048784586,-0.02992946208136877,0.026488100048556923,-0.0286856406820128,0.04926109677421382,-0.21502707490989317,-0.34260108575907455,3.9144999593282286,-8.762054989166158,0.9912839266838297,-0.008147870187183397,0.030033809160983242,0.01985487125857146,-0.056970947436825625,0.44694799401572827,-0.19967344888208602,2.5869642299290856,-8.660501031953833,-3.322286368850221,0.010128543612644592,-0.01112889220986467,0.015444924068054523,-0.28806079070054363,0.6598773729416706,-0.06916879528788131,-1.0540879607190898,-8.400865548592128,4.953613512596028,0.008878059072053369,-0.012727871271064234,-0.007237043251242084,-0.020692023945326182,0.5576747412978614,-0.4350344480433813
-1.4626587553278834,-8.474801732960392,4.6843876997805385,-0.009865729858374406,-0.013005219007615578,0.01032342670461384,-0.007685871528489325,0.4033633328123687,-0.2637990079536802,0.19825483301795266,3.414144918577321,9.13792206885081,-0.026039681532486023,0.034072142070348914,-0.04552705555408418,0.058796450817657435,-0.21889180809456005,-0.34183756648785857,3.8417843244309444,-8.738456535399624,0.9457714937966106,-0.034895733865602914,0.03331346167907776,0.00624930739663459,-0.06111159709166285,0.4474736795310184,-0.19867335079944093,2.5511498889018553,-8.696583269574717,-3.150485070560437,-0.010811693361175441,-0.002013841073950232,0.03584313357942893,-0.292706870856686,0.6637902693599758,-0.07007633966823723,-1.0298732152845964,-8.467460231699928,4.954721333571701,-0.015203011741347531,0.005183210933690984,-0.005793861442019071,-0.025534861804873042,0.5596665839119396,-0.4325452988982149
-1.4088933142405737,-8.522875700897933,4.6371248517873465,-0.001139148401083681,-0.018482957985688508,0.013873763837530965,-0.001118767862015211,0.39917582509729654,-0.26526908195521665,0.16999167531371726,3.469895340650222,9.220698727833152,-0.017937285435859943,0.03137016601356368,-0.035104518248708964,0.05096650381814557,-0.21801121860153522,-0.3462199860398423,3.9835790452678324,-8.921839686905352,0.9484820953194686,-0.037271933303253124,0.023992546490995394,0.0017564377914617189,-0.05282972371703448,0.4488401179392408,-0.202177486853186,2.6270299497336795,-8.933112807039306,-3.1979224342619035,-0.015874159916172706,-0.005886026865403107,0.033645882893684455,-0.2849284462193641,0.6601240767529827,-0.07238370481704508,-1.0119870078485333,-8.510700830959246,4.9964367615120855,-0.003914283385850663,0.007181860341217504,-0.0019561307764310283,-0.016074028961272753,0.5551852268107932,-0.43459469135391005
-1.4709253659110877,-8.496912988410518,4.64128066107588,0.010256064848606505,-0.0006585428284904095,0.018005326410932457,-0.006486795398157909,0.3996955008999551,-0.265267522678138,0.11333614812343239,3.4808730493353623,9.272531150165271,-0.023094250625891315,0.024387421402329218,-0.013186003957747529,0.052431843558998714,-0.21701478417274517,-0.34526537885728065,4.130578560201151,-8.925507393053238,0.930892439325625,-0.03697373324423954,0.022915255761639948,-0.00409896479155929,-0.061885738102258364,0.4437704724645256,-0.2015390221201601,2.6029212328351816,-8.871629168705624,-3.2853278464098996,-0.019356321323293794,-0.01685437238945678,0.031132142573021198,-0.2925099494221052,0.6589131560529501,-0.07326263669441611,-1.0918819131882862,-8.440023265815347,5.081637890554378,0.010438719907968328,-0.0067425138596971254,-0.00028873263545683086,-0.024136544790210098,0.5562502665248438,-0.4364771267221578
-1.5026649694056307,-8.497090483499626,4.617390973624962,-0.002960196663625459,0.017219864361274925,0.015621959675148133,0.0001218826561415001,0.40233843079467246,-0.26062751438652576,0.10592826333035305,3.417205859658839,9.19020586006201,-0.02935348950039031,0.016766103381527928,-0.014640480612001561,0.05097929083026537,-0.22191362066091583,-0.3459113120058469,4.065815988130285,-8.90207386195394,0.9036896158878969,-0.027074880386560755,0.03145496436413526,0.01010316177760253,-0.06117850729657925,0.442992709340375,-0.20421878948137073,2.528644240195107,-8.88700011208657,-3.3555720626908583,-0.0021165233805484026,-0.03562191668577765,0.02874040722416973,-0.29225289294722634,0.6591550037987154,-0.07228945652785337,-1.0807817301938578,-8.390476245368012,5.01031028384224,-0.004646812523952044,-0.008480653415623166,-0.0017160935322183249,-0.0214608773361275,0.5567193377240975,-0.43820623137057957
-1.4151562960863493,-8.392326659312673,4.546383455955178,-0.016187922616228333,0.0052063444929849835,0.012634951222358089,-0.01404830160774828,0.40071451687498066,-0.26233506921985966,0.1153348678290198,3.3890624757763503,9.170633272408647,-0.04171877269655481,-0.010059926375161354,-0.020883466834305205,0.0544031190449459,-0.21716791818701894,-0.34014185497891564,3.9506478467631996,-9.034606307590623,0.9101105872793565,-0.02830631244745514,0.03545972530145827,0.006181669853054793,-0.06411982736302645,0.4396025049554648,-0.2034099603923471,2.577193924208827,-8.9716382723166,-3.4216276571022615,-0.0076392965464944515,-0.016469945843330405,0.029882020734757576,-0.2915348871226127,0.6552496370920551,-0.07303849759637361,-1.005627858366247,-8.349390689622052,4.829032777889723,-0.019456967159349567,0.007358847036204107,0.00020636195807968282,-0.024424571854823312,0.5530849859146381,-0.4379529573590219
-1.3588607546994442,-8.271112469726596,4.505781987078477,-0.021855536164222013,-0.013234961858161007,0.018716673571642133,-0.007980875593602676,0.39482253591187594,-0.2667365616818866,0.14777173171242275,3.4405269467864956,9.230524909045622,-0.06319283418845749,-0.038037833724164034,-0.014498375729817744,0.04949369651292627,-0.21656801570295683,-0.3472160051336491,3.974420074951739,-9.002840974685705,0.8944532630382362,-0.05513426931138611,0.027907784780067564,-4.0226471092350314e-05,-0.05866152116002789,0.44723550037694676,-0.19746747368306927,2.530849944758011,-8.812617946186185,-3.314120500484485,-0.02368276253222024,-0.003997195086334799,0.04865832422396239,-0.2875712108244198,0.6613418413228745,-0.06917238768935735,-0.9736690287933407,-8.28895123155455,4.79651467968523,-0.02384489374617994,0.023539988318542066,0.005388765461243582,-0.01846694966443072,0.5566574644684487,-0.43041775027367213
-1.4610811240182309,-8.350212755227027,4.539387367898828,-0.05210235068567814,-0.013778181834348015,0.018320365153736907,0.0010880265625908677,0.40087292250954965,-0.2664890203720441,0.14819773530189556,3.399133711431506,9.212310843113267,-0.0681271253407181,-0.04844177387578708,0.006671967893897202,0.05632581847764596,-0.22251086727961883,-0.3534898002846689,4.086652812808916,-8.905955604102404,0.9124107170342448,-0.07851862267043629,0.029095850920134864,0.0011619647890258097,-0.0633652355897999,0.4435078045549499,-0.20323269704576935,2.5128246496707356,-8.787797863770363,-3.3136319189780528,-0.029905688703504726,-0.01140812238797791,0.07407888701074003,-0.2942024792056528,0.6620871097705325,-0.07225819967277207,-1.0627301454285,-8.254952725159548,4.870242417956571,-0.049176432193507785,0.026552616967290932,0.007123411395228008,-0.02534648840715516,0.5567484703095537,-0.43573208951992265
-1.502379062797189,-8.444269766955804,4.547216967011342,-0.06775274144933723,0.0001754852441422132,0.011476995296171725,-0.011629146805719862,0.39678774668044364,-0.2562360607034597,0.16011887033893396,3.3052929769404096,9.265087795418227,-0.06097603192384684,-0.05746358612539931,0.016730446540090524,0.0487846725971496,-0.2171969083687406,-0.3408542446774718,4.074260883823223,-8.947119327384407,0.9987519940608005,-0.07117872419395556,0.02989437806934072,0.007964562509524722,-0.05633211749941271,0.43999473076675244,-0.2068950638331553,2.6633189963443678,-9.025616216962328,-3.4021215045479862,-0.02219282233699649,-0.015045088256757455,0.06700301917126487,-0.28601517292340584,0.6535482589569813,-0.0801948495721059,-1.1248465134567702,-8.301593913669906,4.999583582862868,-0.07034088815773118,0.020328652223240453,0.005173346882637375,-0.018601351282723496,0.5513263050972765,-0.440205181804169
-1.4490321824223602,-8.476360402894441,4.572328481289211,-0.07634696505986042,0.010191289250065395,0.00594367525778074,-0.008413833388643235,0.40385063746391014,-0.2581834226140431,0.15482435884917317,3.2374864600996514,9.076786695957793,-0.049890449272971184,-0.06284970005177394,0.010193827531557287,0.04853164120891474,-0.22145225611853359,-0.3471317545854608,3.957729911149376,-8.78528086447603,0.8781373747141319,-0.038765378302801135,0.018479806249325992,0.023313277612298254,-0.06178989621967276,0.44734410281883874,-0.19158498849432407,2.556737239272485,-8.81632438519558,-3.440825518722085,0.006412944328524364,-0.0014775741068231807,0.04243872257500327,-0.2897389071169848,0.6615839668331502,-0.0669452781230194,-1.0665700004440921,-8.3913578709995,4.846341948152798,-0.08015006861096301,0.009573820230375733,0.0010261173687102759,-0.024997396845825047,0.5603733609810414,-0.4274195638687399
-1.5215992538685226,-8.526352387182929,4.472559696924426,-0.06358680198136543,0.008712153670677689,0.009125752747095366,-0.0142912098121804,0.4009571287248339,-0.25916080204545067,0.23131354235815227,3.3445136777661304,9.10202775175389,-0.047032605232214995,-0.03700736865745392,0.01894401921773516,0.0494858741342673,-0.21511939852593742,-0.3482161291683749,3.8549281460227287,-8.78557160951508,0.8277893391499929,0.003624603568731848,0.008815957511320228,0.053206445719744644,-0.06091355185430403,0.43916968153819547,-0.19878940000948983,2.4608519436148217,-8.780696165339995,-3.38714964530055,0.04596792748401392,0.02422628566146845,0.013998877593341777,-0.28857793350149524,0.6537772212641607,-0.07088295800909455,-1.1483561959309945,-8.556726998331383,4.842721401333726,-0.06359274193937853,0.011754178580092856,0.004903327700541093,-0.02340470391073811,0.5540348926973383,-0.43380621737672165
-1.548364719844349,-8.662978596227939,4.524998403841039,-0.055009061228743224,0.0168591909162176,0.016433266120370143,-0.006759198962448909,0.3948122864221813,-0.2633188188365494,0.22675285484841354,3.3766814927002713,9.307868729010126,-0.05154677290095983,-0.018317150834769966,0.029593247452639585,0.05731067891121589,-0.21404222142723725,-0.3436221073246439,3.926410989560001,-8.96679192137173,0.9253634512617812,-0.03717837872625386,0.010416704644418864,0.016241633188758365,-0.06209822602476985,0.4479412574880627,-0.20038224289739281,2.485172632012911,-8.846768977792369,-3.262796640091683,-0.00044303297176772065,0.04315314800494884,0.037739594566567704,-0.2885746051756618,0.6625671435034555,-0.07135404287342274,-1.1888390554438595,-8.607556566082758,4.946961427647374,-0.053279553888247295,0.012538571452244568,0.006287929103155462,-0.02429426634323304,0.5616071942102286,-0.43254743682532515
-1.472123781749693,-8.683059527485442,4.573082957808796,-0.05038705740000941,0.029157301053825562,0.022996286892121076,-0.006056759844595307,0.38967801287884324,-0.2599055372091579,0.21319707955293912,3.2500222357432222,9.222686026774126,-0.03549178002211661,-0.021075373313258674,0.0291739427669362,0.04927951732815153,-0.21716711755837306,-0.3391471877950519,4.071082689601,-8.851298223732815,0.7632965470958238,-0.06064074327811707,0.020433138891221298,-0.0019491966882691188,-0.053510305628363425,0.4458075936235919,-0.1933345673388531,2.3517457628888137,-8.847710448904577,-3.196529751890367,-0.02461769153785876,0.026934896839911727,0.0564821055872579,-0.28023240324646564,0.6627970224182665,-0.06828879824092743,-1.1154940488599396,-8.719003475539258,4.955698908966364,-0.048769118880346504,-0.0012889938094295269,0.010776694743467593,-0.013267821878538795,0.5600034779236635,-0.4258083765392601
-1.4974028204755676,-8.644212714882887,4.516920721557757,-0.03467395693127931,0.028568056515209748,0.02921655590023522,-0.012846854339836374,0.39778281275014477,-0.2684419302291546,0.14840982078303736,3.271429810385379,9.19495603907088,-0.011428028626662895,-0.01547904379886167,0.009969076124751756,0.04953560539665841,-0.2183467577665219,-0.33668716220972006,3.877079081074393,-8.892723870878434,0.755199465262128,-0.005217739801839082,0.027268963019868298,0.02727837007926536,-0.059098125989543684,0.4468606379821464,-0.19037716202505256,2.3475263311145254,-9.066325288498936,-3.275201118432675,0.019760860479848413,0.0006382865816129817,0.013978154468158447,-0.28773802228067025,0.6615747711314575,-0.06330923242599128,-1.0914150280583859,-8.627446128833148,4.867464296079042,-0.029853048874007356,0.002951461951594972,0.01766220601381422,-0.02103257265716768,0.5603047078529909,-0.4203721171750042
-1.5072088032643305,-8.565044643046301,4.603635325542458,0.00145685758000988,0.018044338567671823,0.03526280087637394,-0.0062858507304307705,0.39211923216978906,-0.25746131345926476,0.15044626050375903,3.4595056020316335,9.308399376715268,-0.013064381069157475,-0.01869755805445125,0.005075316254211654,0.05536358506846599,-0.2162488163468623,-0.3438229018171241,3.829263415724964,-8.955169083099378,0.8333814033096898,0.012174083016187708,0.026651768386572416,0.021471098099153412,-0.05543547835892118,0.4453911926571698,-0.18940553155476056,2.438935293702214,-8.941853219244042,-3.2918603513395976,0.021213694033991634,0.017112401057324356,-0.004088637607501038,-0.2840915931433847,0.6593757037818,-0.06433842596387739,-1.1028219801787478,-8.542414324984644,4.881058397910107,0.004524497474399593,0.011767303486948334,0.018875462411559758,-0.017909726626078988,0.5561261062871183,-0.4213911498632926
-1.4992766574714798,-8.493002738530006,4.613277923625238,0.004999017883305483,0.014667295397229886,0.03536006757534254,-0.012314244785647088,0.4046014442612621,-0.2523229545365622,0.1625213841110079,3.5079801419970034,9.324382975246744,-0.04237506946259565,-0.02699455842159342,0.015933705490668918,0.049271229782918924,-0.22166569822391738,-0.3454215039579644,4.015196784831964,-9.005342891005657,0.9442602826948256,0.00579248009989353,0.02282731777863076,0.019053917558490313,-0.05258671702571787,0.4461808125496421,-0.20042863448868337,2.5451219673868395,-8.822009102081779,-3.3097815648976283,0.017053500256569244,0.02117169239610466,0.0038945072966829796,-0.27931709246595016,0.6630489378898612,-0.07293973124090104,-1.0947201613440527,-8.387636577216027,4.9124584128184425,0.006716845490123405,0.01101267345349204,0.017270255356205955,-0.015022156827332024,0.5593079459495867,-0.43043504847062497
-1.5464394657061757,-8.472236812488001,4.606171060038864,-0.03102912889249246,0.009144993899679921,0.02608749786292098,-0.005254145751990237,0.40164061078505836,-0.2645340403097909,0.19263318550244518,3.2816575311131726,9.247242648739212,-0.04105144453008591,-0.026956206429443033,0.021325311203509636,0.04756437995237199,-0.21571555976529222,-0.3396544458709367,4.058762691375912,-9.0021985761953,0.9416446373867814,-0.029877450220135174,0.037721962922244674,0.01798637739057374,-0.057224778468426725,0.43944326673153644,-0.1956478266696443,2.516855866382623,-8.81828357473336,-3.286975434384198,0.0031757443984017295,0.014971394502517256,0.03705054168519019,-0.28640300871005725,0.6542671481975971,-0.0726197034571904,-1.1317748712368472,-8.2996331134933,4.935202902009535,-0.030383440631161128,0.011276067100619364,0.013539930101556534,-0.021204534192595235,0.5520487715006069,-0.4311474180606277
-1.5253520672026986,-8.55918429906474,4.543861228677004,-0.04783990193397427,0.002853098126981512,0.014804317445446104,-0.010149267466159835,0.39921888427528796,-0.25379219488568705,0.2990673252992286,3.138295597899562,9.246567133398893,-0.0154447704441405,-0.01888716934871495,0.007109898024639071,0.049975539409374256,-0.21510984606680375,-0.3477298939692388,3.9080606551723167,-8.804894995412594,0.8462860276894204,-0.0034377562685220806,0.04777210740489566,0.03647418831082263,-0.05692963984806862,0.44413261572993695,-0.19230474378614099,2.405490049092185,-8.997351570534935,-3.2151560591652486,0.030668055101967975,-0.0010728814489170911,0.015585857937862302,-0.2863484243296762,0.6630495159910338,-0.06918513194297989,-1.1369304185484936,-8.385857798257684,4.906575257359652,-0.049370261863734714,0.015157955793513136,0.005879669945512482,-0.0193524260766366,0.5610377171160582,-0.4247770627919429
-1.4703634489550055,-8.692220026939188,4.565164429965194,-0.01876461106298512,0.008007304566983493,0.011837973611495417,-0.017191700861396934,0.4056075374981814,-0.25378506247640653,0.24289778434032416,3.3826469860487354,9.344050781561226,-0.031614147103530735,-0.014942230120173006,-0.011133745414374896,0.04997333586077644,-0.2166070048802449,-0.3496583505105456,3.7673172942875475,-8.911563462634348,0.8622816332866391,0.03661337941036977,0.0325913078842773,0.05193936398864118,-0.052570763374730926,0.4474196884339653,-0.19922689698645482,2.5261159015794026,-8.81516600576129,-3.247289427317994,0.058368244204400864,0.007167261139951613,-0.014520346319808084,-0.28372166904017304,0.6618341109766838,-0.07361634174394391,-1.0951796535401295,-8.622033846574004,4.910501498552363,-0.023730626834282644,0.013322833195406667,-0.0013988554962520248,-0.015734678208980245,0.5600411822966099,-0.4289610909610277
-1.4984205218916353,-8.650065651539336,4.602118748033276,-0.016502833582068586,0.014237126612932475,0.011777064641491919,-0.007451509196396154,0.4016509655596077,-0.2616035811867468,0.17146063395275443,3.5109715989665355,9.270869136574245,-0.05613389277735136,-0.017647917018350563,-0.009581751696544506,0.04022350994043096,-0.21135630353223728,-0.3404336746963509,3.9358639660156154,-9.03123034740333,0.9321760559545291,-0.014644009031494246,0.012968265794175978,0.04053058722467663,-0.05576955025388974,0.44521356290666086,-0.20087690870141242,2.517405172734502,-8.694164305171052,-3.2805020187595018,0.03043334584315548,0.020746514488551752,0.030649463133425408,-0.2854897734166446,0.6633099286486926,-0.07822969151530186,-1.1068296062274778,-8.570640965267971,4.919271811115015,-0.019626810108294472,0.00458006223685559,-0.004383967595623768,-0.01990446161805079,0.5605840393691535,-0.4318547105836163
-1.480642914804761,-8.530289952688385,4.557805860201047,-0.03492059332940505,-0.003027256546002974,0.013719437682609066,-0.007447683094010055,0.40213482195819317,-0.25696414874877677,0.25918288276334783,3.2559570171005987,9.325223945362003,-0.055138375415841136,-0.02812710853119066,-0.017053560073380183,0.04996977832011467,-0.21489015978138482,-0.3491987253911009,4.003918834129041,-9.023596747842731,0.9892673457351313,-0.04895483168218455,0.020075303129232346,0.03598842118290845,-0.06422570925132748,0.4502679313292758,-0.19283186688309192,2.5532507746909476,-9.021354395861561,-3.3390553557123495,0.011899103826390221,0.023628477286899187,0.0616789803274282,-0.2934128272548064,0.6650082822525286,-0.06811154727270839,-1.0686684723699724,-8.547456085830527,4.826705641062557,-0.03382716635841115,0.018181380685212592,0.0012023470962062375,-0.027358684089254324,0.564283406877639,-0.422500735792814
-1.4576589563059592,-8.590542869061366,4.505288439564879,-0.036240825696766246,-0.027681126710061333,0.019583734778589518,-0.008637814863690203,0.40752197480218505,-0.2659921077432709,0.3379037374305712,3.1937641224618756,9.31466468128165,-0.03967895784665486,-0.021488103412077596,-0.03801850625623324,0.04849095825373888,-0.2092631626319806,-0.3483097910336363,3.8671788913823812,-8.985414936269628,0.7958740682313966,-0.03068505041705659,0.021958270137420553,0.04376940401096136,-0.053044677059234865,0.4486584076146946,-0.19826539055853395,2.3839573901804685,-9.036335231658724,-3.1243039035244644,0.0247830968403413,0.01651306739324182,0.04351255175542477,-0.2827497660804502,0.6611015286428796,-0.07387453500698592,-1.0700997881676164,-8.486132773067528,4.784593068927162,-0.038525925502906185,0.04500869451228102,0.006284474635535403,-0.016462060465569785,0.5598005154662379,-0.4279800733620229
-1.4237400017340407,-8.770919027369452,4.583758770542669,-0.01904719482437954,-0.02808305027326296,0.01338786326011416,-0.005236804409879041,0.40432003393120086,-0.25720665251591995,0.33822495862296553,3.322407787273781,9.210840732904083,-0.015650255600247107,-0.0044038852231588965,-0.04500488938535653,0.03702305353252043,-0.2112503299122365,-0.34823759335129134,3.859380815149048,-8.987374671254926,0.7647394446292635,-0.015564356210168384,0.008595748905234702,0.041758110392128005,-0.052042594460554335,0.45039614061263966,-0.1961029427572508,2.4015451734442896,-9.042688744800026,-3.1529425047757154,0.03354176116080999,0.0012606716793970875,0.02822877351476583,-0.2857176884041099,0.6662372958881433,-0.07724395229832867,-1.0811315018965273,-8.714486719362558,4.94264484585071,-0.02214925221021376,0.03989006960089485,0.0018925323680469342,-0.017372578692143873,0.5668929454472813,-0.4286751945910692
-1.4694188123339043,-8.775337597566043,4.6365241810840425,0.0120090674195283,-0.003026680483748686,0.017728857548147844,-0.008212253210488178,0.39677215317731185,-0.26136377442416653,0.2582719895182795,3.382062021106447,9.119268662231947,0.0021724585532825395,0.0277710393214018,-0.040365459490056904,0.04827805825040946,-0.20861817500550178,-0.3387973893626453,3.985254621758109,-8.821051664265585,0.8812170294547064,0.0034581403985850996,0.004604234167565167,0.03580978231871703,-0.06475867473668172,0.4492137546417335,-0.19793906389347476,2.444308548384636,-8.912875945886778,-3.194528254871391,0.031757104467256166,-0.00902806978372419,0.012961950348461631,-0.2925827916969018,0.6625864806631196,-0.07911509124881676,-1.127844732911995,-8.671424464710393,4.990957273675937,0.016009892480954316,0.0016937249119278206,-0.0022395713141129424,-0.028663446903957192,0.5623752116127415,-0.4303102670737803
-1.5215973289944755,-8.620208873217635,4.613894097784627,0.03422786020652013,0.0086671589511657,0.010192740818746635,-0.004492404703434385,0.4065150707647146,-0.25989084911389176,0.14437888647280261,3.275460235626373,9.14002317538289,0.006248349912026539,0.05583393342664152,-0.04408202323494511,0.06141517335502981,-0.20632811613018032,-0.35035696543945355,3.8860530845581467,-8.857212568604846,0.9361854438718185,0.012229454981404786,0.01436459184393943,0.02746920442995797,-0.055418945746021714,0.4509787741577515,-0.19120207424756464,2.4416456858748563,-8.880210553805046,-3.244204505015707,0.02494218784564259,-0.020134075949503664,0.003338051996643731,-0.2836794062886899,0.6681769024318086,-0.07091939172278433,-1.1493552315248605,-8.435311199190275,4.91291938131042,0.03633685919754116,-0.02587376680880703,-0.012854373682974365,-0.021227668286824097,0.5644528713609133,-0.41937626015372514
-1.5643220172089447,-8.482433371655928,4.515029584700323,0.031548282019150754,-0.0024130183194953484,-0.00015659256019621122,0.0062651541930185935,0.40913808895761894,-0.26037870785270667,0.132995634065237,3.1858868748432685,9.252879779321894,0.013559752501899598,0.050752698699681374,-0.04751633172696088,0.049741585678597856,-0.21035490136143886,-0.3407268929339128,3.7611412335439662,-8.93456940338116,0.8883363248036349,0.004737776615153095,0.022300021100325588,0.0038450208933036903,-0.041046647325621154,0.45953228192132767,-0.20145860290268935,2.418440027661444,-9.077611484220977,-3.2727812909232625,0.003413439557050874,-0.003346780401080454,-0.0026084948413412825,-0.27379296921695895,0.6711134795973438,-0.08056529445801659,-1.1540781235820798,-8.386601474151082,4.808846883679094,0.026473505358535227,-0.02417930857871787,-0.019462605470150877,-0.0075969059327076,0.5697337290441082,-0.43094179990660486
-1.55941147066093,-8.440208661296083,4.469049199299295,0.0283040907668726,-0.011476452322402231,0.0014289919356895145,-0.007457366331986314,0.40042411159142394,-0.25501267077658996,0.1803619183273671,3.2305380279745672,9.330279735428112,0.011723287948208759,0.03802227901912203,-0.04914630065300354,0.05023475539363147,-0.2145392581299654,-0.3428565396336872,3.763400626806564,-8.998398391264478,0.8388197218418405,0.01979277790949812,0.02559791372165401,0.0019484254473909062,-0.052990818155104875,0.4499744211024537,-0.19218240956904517,2.3421145133392645,-8.979969633555347,-3.1295792745162103,0.007900805526925242,0.010824612214731182,-0.021531636176250056,-0.2841483715641974,0.6659761316208039,-0.06920834367909937,-1.1735366095891735,-8.354815629279724,4.858103692245278,0.02174684654163638,-0.014213754086063447,-0.018304380931226064,-0.020276013653477927,0.5627382050059524,-0.4203682338176883
-1.5301253739040983,-8.501754823865497,4.500840374391275,0.03123080327554802,-0.006453507310732002,-0.003201130449442434,-0.008952185404756076,0.3955597571681538,-0.26502670552710356,0.16140626028970836,3.3174348918280634,9.332122762770913,0.0002745532264654604,0.02648050337084101,-0.03943244162808988,0.055345697645747705,-0.21261970239555025,-0.34583627335971157,3.8483104633011505,-9.061607516958302,0.8740006731860701,0.017938741266648316,0.021367961896002822,0.008329755769482092,-0.05471140781050139,0.44778599689076126,-0.1921349152807477,2.4655185380092197,-8.904588745208432,-3.1334071756757336,0.012732394303936313,0.001436710685014466,-0.013963529163383281,-0.28541929306104435,0.6632995408021222,-0.07285916401680433,-1.1645236211010939,-8.360070867668657,4.874584551870589,0.024852475995315912,-0.013848172078574712,-0.02270255970115331,-0.021574686244851884,0.5576369484246545,-0.42355186850027643
-1.5496004700667914,-8.52125880796909,4.526148976852507,0.015555284112480834,0.0001553250381070397,-0.009087041504941993,-0.000869313465763403,0.4001516741372495,-0.2667332636910041,0.1456252202991224,3.225188433594371,9.195420984892369,-0.012046028192583914,0.022706941119175674,-0.03764147361347272,0.05510580881174961,-0.21978439919252798,-0.35084443052125314,3.8934788328394023,-9.030399334606408,1.0165879501659847,-0.002283387931126956,0.01612128130819705,0.00914269273999516,-0.04838981426036009,0.4460085107788738,-0.19435360681155117,2.5645252252718787,-8.915102880098335,-3.152952434456086,0.00594868605970277,-0.005108794113045437,0.0053105254799887935,-0.2817800793002423,0.6603684190746909,-0.07437772176090528,-1.1615661373396868,-8.377269140506213,4.893132682321017,0.010961356000213252,-0.02075053471372191,-0.028342338183911554,-0.015738335136169252,0.5580801940341806,-0.42701611546979445
-1.5029471721797594,-8.44681048759145,4.4607417822160444,-0.0015584402518583546,-0.0002585370358725581,-0.013788917998975476,-0.00794779430890693,0.4001873471357875,-0.25989578371732763,0.12747012802954516,3.193877017849345,9.235183740251188,-0.01955264764934095,0.009054458374807497,-0.03520116968851462,0.05242392896280209,-0.21581419271381147,-0.3465064266033011,3.7914416090915037,-8.91791464071313,0.8453168273269115,-0.009553634718962261,0.009060763980244508,0.012970827103579115,-0.04944147661364874,0.4446569103099966,-0.20311469307223862,2.396111702221062,-8.790512216347041,-3.141426466530405,0.006761176785830546,-0.011227607252826665,0.01567594137036179,-0.28310857976719134,0.6586763252093564,-0.08242026879901539,-1.115562560846782,-8.404246002170177,4.798026846702877,-0.010358065886955469,-0.018358146361668333,-0.030361380127475322,-0.01973516351468214,0.5549760348061379,-0.43407646506451497
-1.5543238667591022,-8.462634001015726,4.40605414559667,-0.014290788894435764,-0.0009946026983539745,-0.007985971903725839,-0.0037489458221742736,0.4084639352938425,-0.2601332639215717,0.09840633368243507,3.3068191853449385,9.195035711849455,-0.018829963540771367,0.0045545849573833145,-0.027378947951285468,0.047811064019392745,-0.21520666116171247,-0.3384425505857108,3.7921579673536736,-8.863459204457438,0.8787510745300791,0.001853462199529894,0.0038221452325497294,0.033028014755601215,-0.05108349084050958,0.449147156589079,-0.19755613034146252,2.4202008027433686,-8.887857907035393,-3.086846044102265,0.0283645628820825,-0.014578076532739327,0.008143310635974942,-0.28523162309542505,0.6645277720636578,-0.07725363781376694,-1.1801230755889431,-8.46869499208416,4.798853754372825,-0.021229170926838365,-0.007464993156339154,-0.02196552999440009,-0.022337345558284,0.5583955126472311,-0.42818165252243795
-1.5596665452442726,-8.489353108513184,4.48261745274927,-0.005638542400861825,-0.00368479750618798,-0.0033751345057751706,-0.012583336467624495,0.40095183529557266,-0.26453315773160563,0.10498749070622007,3.3742923709136914,9.205872519009912,-0.032414212409199505,0.0008955953616075754,-0.015600122975142326,0.05194608282902815,-0.21031189572062609,-0.3385378381541955,3.8028180363401383,-9.075833888925906,1.0411760788647653,-0.0048448536742727154,0.0010562162953618105,0.029120558476998657,-0.05665692966159806,0.44636325519243997,-0.1901443212018951,2.566041367041858,-8.918196180155766,-3.1786785756919573,0.021719272890818462,-0.01610397242058219,0.01712935207097123,-0.29126569415314224,0.6635479912072817,-0.07180487199535467,-1.1701674396984856,-8.441683500620654,4.822385056927797,-0.011123758447556163,0.0002306155531934308,-0.019034479122556732,-0.026227702123393346,0.5569556695546742,-0.4244935156397929
-1.4666702423701596,-8.367886105962906,4.425928708750155,-0.0208372242086087,-0.015293619967410134,-0.003062378417603814,-0.009646489218809902,0.40215583390806314,-0.2659966848335929,0.12809606521769948,3.2376241057354136,9.211936258384862,-0.04492318287857774,-0.02857299141096515,-0.01108028167001055,0.047548696078251525,-0.21058928700053908,-0.3397393608722173,3.8783539655228068,-9.020178106889123,1.0198854617439497,-0.04243517347959471,-0.0023614054186640756,0.009573713187964525,-0.05540747868517376,0.4517268955220607,-0.1902376843208339,2.5956082830342426,-8.97241351280221,-3.324816280099151,-0.008278834561452562,-0.00460973546287539,0.04265847536265693,-0.28562239056419914,0.6654911326161975,-0.06992200182777047,-1.0594817131190286,-8.363983031802308,4.723209100270012,-0.02562639604894864,0.018486101061552504,-0.016360492874131174,-0.02419261796167778,0.5622925366139404,-0.42106994200301306
-1.3934776309496184,-8.335751335664384,4.386621390432787,-0.04455413434619737,-0.03101349406843691,0.007620456963202693,-0.006250495002231545,0.3982249526576022,-0.2606298797434353,0.17507005661597957,3.19527097363252,9.200233699895835,-0.03822950062247687,-0.052237229757854955,-0.004581081464142883,0.062403360791577864,-0.21419272386598806,-0.3536484810101476,3.863936704679514,-8.981221715899059,0.8679107742173563,-0.03178828261542769,-0.007280632451571657,0.015709708732717476,-0.055662137119469324,0.4502596197569741,-0.19045685756516742,2.440704746753817,-9.081440743648376,-3.319874006145209,0.0022155127829340255,0.020170506076535005,0.03234378355611972,-0.28956772802699154,0.6681874921486858,-0.07303928888164382,-1.0195322020944366,-8.437679633767436,4.7508243305187285,-0.047317883292671135,0.04191328646240695,-0.0011164661308649217,-0.027601855084681548,0.562567844565134,-0.420308764118979
-1.4640871140366145,-8.467368903298032,4.4256905084339575,-0.04276277407234875,-0.02318299877992462,0.01781707507441308,-0.015017782048920913,0.40168864652020353,-0.2537889994150615,0.14045551112566418,3.3547629544274518,9.318166849148314,-0.03142423076126414,-0.0616617655723828,0.00978787242250982,0.04508590577120095,-0.21515687117308496,-0.34966565467857846,3.836655987610562,-9.13887735093986,0.8163714733578593,-0.02128385166783465,-0.007238360901483071,0.010466705816133999,-0.041853878761458706,0.44731188269536026,-0.20248290713824074,2.343272170335209,-9.091267586576523,-3.190840112158019,0.0006768812181923169,0.02766413471493931,0.020411417498305898,-0.2782443744331039,0.6623363380701347,-0.0841861754575827,-1.1214209359553264,-8.454090069044764,4.869639176978391,-0.043652127616796856,0.04437313031404422,0.007570998260449604,-0.01234194802002938,0.5595289842316322,-0.4314331886547313
-1.4990486393411786,-8.557220318398196,4.569566619233758,-0.030375617974729135,0.0012273678444365602,0.022301305563301798,-0.010348473558620473,0.4070378428529252,-0.2601331875283196,0.13701289416493564,3.3755321555156637,9.401596376892508,-0.028832258516363247,-0.0770005435654997,0.032216417840337,0.05338971516189999,-0.21635582274382012,-0.3499182447297881,3.962615538750643,-9.065589164475963,0.8821566338609875,-0.042259957212384014,0.006773581863991221,-0.00688261005282747,-0.05914731035996572,0.44748592662266407,-0.1972235709387639,2.3608491578853026,-9.035295066777094,-3.062614229540793,-0.023448933518807683,0.00585590374855966,0.037545334691784844,-0.29089184158323916,0.6608779952590828,-0.08036069445100308,-1.1617729089087372,-8.526526477073057,4.995087371033651,-0.02962927297059629,0.021478469825612436,0.008275846251843265,-0.028436081757268028,0.5599268533918728,-0.429346253011448
-1.530377017349175,-8.569678788470675,4.5202088906713405,-0.03781065876688726,0.017353701206819512,0.022094197610197184,-0.004266286164808602,0.40333598880258126,-0.2557437271860329,0.18724908038721744,3.2684982309725905,9.222610637251753,-0.03085769163299648,-0.07639191226967823,0.036366858495953225,0.04949858364060621,-0.21456169090204252,-0.34407482240906595,3.993003582455923,-9.066999881208309,0.9146276540492578,-0.012260552668196078,0.020408209854948345,0.014092041327883598,-0.04963112193024716,0.4495976799899759,-0.19952773076085467,2.4335107851185778,-9.054240510767732,-3.1527642961453726,0.0031015807629966702,-0.0341123623908547,0.01815092121313986,-0.27986433212284256,0.661592967776732,-0.07732975228727422,-1.155652877607313,-8.464258510184969,4.909997872454251,-0.03714319846597181,0.006818470063930784,0.010223817667814161,-0.017426470740119493,0.5627492697248246,-0.430157008396609
-1.5373433115965647,-8.616958163764648,4.533275176649778,-0.04219866115464285,0.003235045589497598,0.019050507809229362,-0.007455970809210172,0.4006693247174546,-0.2552564525957201,0.2557064270341693,3.1459010452194343,9.175563346325866,-0.010417427224666188,-0.048579516266622914,0.018671429439646642,0.0472910299620578,-0.22081303465480645,-0.35250987178895155,3.7689007839701456,-8.898265482037658,0.873381634794529,0.005133530828352265,0.027812767438707506,0.02348395430149549,-0.049829121255437904,0.4487249438081588,-0.1929195799738212,2.395607166586312,-8.97730243730499,-3.254298039290214,0.021411613288690304,-0.04033274077877968,0.0036113401456167294,-0.28321286486299635,0.6632957459571756,-0.07215506302546111,-1.1457776963197928,-8.478476555733058,4.771695905756988,-0.041588431611171185,0.016957635616030947,0.007585290201228652,-0.02126323408733247,0.5615260819877194,-0.42012014390727376
-1.5032306758545981,-8.710987718932628,4.565449412719153,-0.020483688340444284,-0.007505559838451895,0.00928749635170669,-0.0067061467562863925,0.4033456004305237,-0.2503712181901575,0.2690492717520264,3.1922683541445385,9.305672870603987,0.001742517354001514,-0.033460713965891314,0.003182027681182153,0.052866674102041725,-0.2140501607229398,-0.35801282468770884,3.6602869841878576,-8.910284988749519,0.8885185741237493,0.008739939918375744,0.021605565806241945,0.008761527858503391,-0.04994740464231089,0.44269158845869505,-0.2040572581101065,2.4544960203238557,-8.97073724290198,-3.3383665000226954,0.009720701411515152,-0.004729679334989404,-0.005259168989140918,-0.2831342503178058,0.6557496377163029,-0.08413474316185549,-1.141859985195195,-8.560097193510268,4.872101301614911,-0.024209732710605395,0.021166956246301567,-0.003569463733979933,-0.02363664983471033,0.5540312666718714,-0.43233926511427684
-1.4512156906407823,-8.654642240986373,4.506658990325581,0.0009704579980601764,-0.0001965305321422812,0.007641629866981056,-0.008654545576288147,0.40433932737767847,-0.2562299370597324,0.2256571968314279,3.3606497870388865,9.347954909385617,0.0008957996120356264,-0.04786784259900359,0.004057817390185801,0.04385531739252647,-0.2144681082147803,-0.3521152078683539,3.8318222160087783,-8.982777721155447,0.8859300868307501,0.017403521106480073,0.003691659043917723,0.007515459839541632,-0.048481098339508345,0.4482407600358952,-0.20781775470406266,2.4747456981076597,-8.958251106090643,-3.2334168425188192,0.013934772504492573,0.027386193395218836,-0.015396245372418236,-0.28072442190594843,0.6616126478572889,-0.08708528601226466,-1.110007584390558,-8.593046336162793,4.864703635601622,-0.004172485045736538,0.003762213519287804,-0.009321511249705866,-0.01821028561624073,0.5613099614743824,-0.4345517285242372
-1.4705362856564423,-8.584206735577034,4.579376747530899,3.2353387496605346e-05,0.0037975884965310122,0.009311382221202867,-0.01452820782717671,0.402179417248442,-0.2601366645900458,0.2410151976856605,3.3572579033120014,9.266662911288973,0.0013101740633647057,-0.04572996943532403,0.0011175474790884442,0.041668524961056094,-0.21119999652685684,-0.3460570166484499,3.90588126715218,-8.98522529553489,0.8776040594229115,0.03574285418229172,0.00241144024030239,0.026718967960437417,-0.054552801550606024,0.44688904966665427,-0.20262174958531684,2.372524790828812,-8.932263831960999,-3.159978738380711,0.03584794835960203,0.02089380927751703,-0.0268023587074356,-0.28502343135494634,0.6640447041417266,-0.0799435407082963,-1.110167413143457,-8.531128045631405,4.83838675718794,-0.004678783975184996,-0.0052517480839448195,-0.006976655687099228,-0.023272499599057583,0.5603480773556183,-0.42548075489764986
-1.4893499894661346,-8.61463379232268,4.560844460468632,0.0031997340746136717,-0.009590375145015744,0.005985800901267969,-0.007224334465913327,0.3982213529912705,-0.250131679719556,0.250195645927862,3.222379089328469,9.26794498557228,-0.0069114573682687985,-0.036433359453992564,-0.007127561219854481,0.04459251971417445,-0.20923847785355693,-0.3460995393251305,3.8303549867382083,-9.014865759305895,0.9058539331442215,0.035631617298671425,0.013246186183977915,0.02944827129494042,-0.057390323961258836,0.4526448412547104,-0.194631273769453,2.41324252479682,-8.910463113502155,-3.1978762223630137,0.037627771655240144,0.012632806989245416,-0.022108278581417826,-0.29105587819802126,0.6694128504393914,-0.0749705607754649,-1.1128522036374928,-8.474458309077953,4.784210660706508,0.0012733330422047952,-0.00681463220409326,-0.008512096092418394,-0.025598854599497418,0.5679209191410961,-0.42079102508623745
-1.5238551660133663,-8.57154189249567,4.514137895815005,-0.003797545239438394,-0.02251545804583676,0.0016407072074515478,-0.006955115105396688,0.4028681882934324,-0.26062559717732675,0.28776989373549633,3.2271319435363264,9.208668113214088,-0.015081776156993085,-0.01883031636802743,-0.012710124878629363,0.04946928417989142,-0.21718136918849434,-0.35477483900798273,3.735310886277044,-8.924104411004787,0.886512366297324,0.014350418810260784,0.01606877948196624,0.023773600293814444,-0.05229068455040532,0.45280386861706573,-0.19833590562394166,2.368925399178096,-8.820925385119548,-3.1496582623898193,0.0244563622759843,0.017573705589315453,-0.004554337941553592,-0.2879197935131726,0.665264150389622,-0.0774619567188071,-1.1461713404375002,-8.436708904086508,4.83656519622822,-0.009269202267988228,-0.0044679049712095815,-0.014476015317875379,-0.022924016629848516,0.5674089841114246,-0.42154715229876183
-1.475162686118951,-8.62871501521979,4.556661010760933,-0.015893881014576464,-0.021268787908184306,-0.005422714653304078,-0.01206439169689815,0.4058268579385476,-0.25891291605037725,0.276776928905045,3.2746535525325315,9.16081832545439,-0.013374769804215739,-0.014319700816982186,-0.01284574074144261,0.04288386114610314,-0.21766480967678428,-0.35327907105795414,3.7476845279773046,-8.85989040921492,0.9397139247632613,0.005377524972596314,0.015025271738294446,0.022623358246721757,-0.04799221352355729,0.4455829357299834,-0.20582679749818478,2.4784642677977216,-8.839997349295192,-3.1899641062963204,0.019395337252900113,0.027103739047920315,0.002006083614534662,-0.2848435705589182,0.6611244194370255,-0.08459095776915293,-1.1247710723150746,-8.552638323404421,4.897234948213042,-0.02083469949628175,-0.006045329318723184,-0.01964378111076946,-0.02088512640923199,0.5591238709234543,-0.4306316624743736
-1.4266292593244378,-8.525397896939195,4.461622151693839,-0.010756898676375765,-0.010982050290837611,0.00035240782581950344,-0.006946665843548429,0.40408372672782317,-0.2545215128951029,0.28669445556428996,3.326677678053892,9.289689648135974,-0.026271377317419756,-0.030698543774763123,-0.005544107498481172,0.05189697706754801,-0.2169907655290167,-0.3584488339029459,3.8279143900778867,-8.94756188982895,0.9969030527795686,0.007793524751988116,0.0065093425780679455,0.021987316892733873,-0.055798674787131165,0.44467232367081766,-0.20428675911618832,2.546424643396922,-8.860161760476936,-3.1310437246689986,0.019743446966041855,0.03710221756239746,0.0015688147920063533,-0.2880207684757234,0.6608833262518106,-0.08479374946891297,-1.069737685557968,-8.613541416623633,4.865856867545569,-0.018219097410044148,-0.010835349453630072,-0.012916856342819685,-0.02697383337906986,0.5606501452631073,-0.4305753146655008
-1.4001235856780676,-8.526137725707898,4.483472089335514,-0.015409444942716777,-0.005658819937566074,0.015307108854110404,-0.011810413498738861,0.40728351767570986,-0.25232066677679926,0.3016906387280607,3.3696858087848955,9.297789712551985,-0.05045698542395568,-0.04244959323600727,-0.0002548156672000204,0.05506294023096094,-0.2160286550461036,-0.3599408294346353,3.8763834287937233,-9.006641437649387,0.9128554043633553,-0.010946741328444568,0.00736498346257743,0.02640412738349981,-0.04508947696619387,0.445753887940964,-0.20951455776969197,2.396640536312758,-8.741856809910896,-3.0241539867491833,0.018304229820811417,0.022597045808685722,0.01913919257406323,-0.2765942762567846,0.6613669915126833,-0.08860509220946489,-1.0530602291611106,-8.548899201577632,4.861280911789964,-0.015972127606980788,-0.008787784813992332,-0.0013853283976327773,-0.015028344239663656,0.5602929919304065,-0.43238399283401746
-1.4475040516509583,-8.51996153262412,4.5356352905906485,-0.034943704145808545,-0.0009220836197948977,0.01596731976157266,-0.007179682189324673,0.4057902182815874,-0.2501249424180682,0.31621109213870113,3.254746214811766,9.128567644330841,-0.055105511758611433,-0.03499952533078066,6.645150538139898e-07,0.044604596005972386,-0.2151259695064059,-0.3477112394215535,3.884088385581759,-8.929266890294517,0.8970524882234976,-0.035235281582908916,0.01810963004040311,0.04023521389992663,-0.039432129935896836,0.4477418818383817,-0.20543786219084145,2.3469447704556576,-8.791245321487445,-3.0307079565484276,0.0171386230340067,-0.018467454873282156,0.050753848061023926,-0.27340881274779516,0.6603846700313454,-0.0876717108617842,-1.0837118337552831,-8.465780266402463,4.8460699312118285,-0.034417449229780905,-0.005027855000192417,0.004846045770779933,-0.01232652965286915,0.5602578869298327,-0.43045324930430695
-1.4294146382351935,-8.633113315981689,4.528954737748611,-0.049205495024864467,-0.012179585834615786,0.01533519730082614,-0.011605998353298792,0.40069424217253913,-0.2557445832173143,0.31877028016287356,3.097154066300527,9.198266603005045,-0.046985519336891934,-0.020641651082672748,-0.016120388308714793,0.04674515307733594,-0.21192439818348816,-0.3612015571898089,3.73917240623908,-8.893328439554187,0.9679387756671014,-0.028748883738936012,0.02588013137822333,0.040226671731713536,-0.05083470505847548,0.4472235567178538,-0.1955747613273513,2.443691251800026,-8.979593205817395,-3.1258821507920107,0.022889503756287996,-0.033829720900194496,0.044430114872750684,-0.28547352332105536,0.6606211018439216,-0.0767699766978328,-1.0888967817021047,-8.55756907090006,4.7877081812921185,-0.04940901430764613,0.0036969777423249647,0.006541460213100244,-0.023943647035496757,0.5595880351104524,-0.4171770442268639
-1.474647431191034,-8.594230148825854,4.4507285989307865,-0.03509060705303564,-0.016024294502268378,0.0168758889648521,-0.011579378649707464,0.4050851173773747,-0.2523226734688052,0.3413090858192219,3.125123805327541,9.171931145835176,-0.05044472363013117,-0.008794236581013621,-0.03270526685163793,0.042623415658149304,-0.2170024395394853,-0.35744075280323684,3.610244332745876,-8.914112526856536,0.9234610607939291,-0.028055247598609705,0.00855773560376843,0.03444856325765559,-0.04697658932676322,0.4541100571065887,-0.2066998000866846,2.4914852681271014,-8.873749949012517,-3.1315701154775355,0.020044328158482297,-0.01104941217973748,0.03760490847159906,-0.28122156226223244,0.6686955210639619,-0.0882861692723469,-1.1118243066159121,-8.528070833617386,4.790601028944852,-0.03802152630621501,0.0035076597727116917,0.0027169764932180557,-0.018626296152862567,0.5654504265895167,-0.43086897508913247
-1.4969278348279949,-8.632526471085054,4.4598070170856055,-0.03234992217359835,-0.0161980294920514,0.015262173827366908,-0.017188965740487682,0.40609718214580953,-0.2545176269023534,0.32078008994894575,3.2161054192452077,9.193335664224872,-0.04443579733852852,0.007166725429168352,-0.030754073234486087,0.046745721902371466,-0.21266438186413802,-0.36167736369334785,3.632720381697727,-8.948810574900207,0.8522819098333205,-0.04354354249757382,-0.008346579305533211,0.025482074280922022,-0.05089775069613601,0.44806335373729944,-0.20437770493808188,2.336899600786431,-8.912752919737445,-3.088830256312229,0.0066396399109712265,0.007916006680057212,0.048268428409198566,-0.2861095882960617,0.6608873517974005,-0.08799310239034121,-1.1611040663645529,-8.550222952177945,4.8181100573427305,-0.033688774994034915,0.0036162233934334724,0.0011777728007012203,-0.024010801755542557,0.5623214863655709,-0.42863963583956066
-1.4896672061112433,-8.622073429030404,4.459032851443643,-0.027447259190468875,-0.009519599568399414,0.016123125875231258,-0.00032921079102232704,0.40843593793342325,-0.25134498346038237,0.3275669129606633,3.1906409951055386,9.285558655060361,-0.020229059772362206,0.013591588115061152,-0.030820419825770145,0.039462001851130434,-0.2122441426904745,-0.3496946802604908,3.7509128887144585,-8.954304776653059,0.8796411950249894,-0.04725107935342632,-0.0026108605404105796,0.008487825644694661,-0.04674465676811009,0.45094277073217526,-0.20616412358851482,2.327288580233331,-9.10864585061777,-3.1179535678691868,-0.011449447790523135,0.008690843111568949,0.044202941398759646,-0.2807932386522815,0.6660174968247347,-0.0926913569027741,-1.1466145669109389,-8.602426244882501,4.825747752962893,-0.029174658537513994,-0.00811578054186785,0.0021070527795242033,-0.021084678789304288,0.5657290791795063,-0.4332887282887241
-1.422360227274046,-8.653436552676702,4.443863146899517,-0.009658508862541144,-0.006053450313369745,0.01608958317843498,-0.0037470017785269033,0.40845544886633217,-0.2506122679021816,0.3372179047875104,3.2740756965757227,9.27241699407937,-0.003820867432478325,0.011954899261953323,-0.029350249857539108,0.03849502372562286,-0.2169056529234836,-0.3508352795119114,3.775905323380031,-9.021301462141972,0.8621883789488727,-0.006472675229527266,-0.003011644712210114,0.008979579806454254,-0.05256308475583721,0.4481601991434166,-0.19875043300250658,2.3767269777417876,-9.169291643154093,-3.081020361395376,0.005993748058827102,0.0027450217097549747,0.006953268441551801,-0.28723092715455556,0.6630724994493494,-0.08064851541055716,-1.0920153430182742,-8.538913027710615,4.723405485346841,-0.012120922411002105,-0.012233927524077889,0.001342854140283436,-0.026382048827855515,0.5630465788535057,-0.42104882842493163
-1.4705116058108898,-8.636025362103254,4.409240483457537,0.006826343341876848,-0.014836204912824249,0.013110387574877536,-0.013517196839460071,0.4077856372615216,-0.2557378721480611,0.32898853457725424,3.249379364256171,9.146187373978124,0.005217980608941619,0.030313951628283688,-0.0187359300821386,0.04774162959863218,-0.21108336532731087,-0.3548699996975851,3.8572416235797204,-9.046390465007319,0.881315129693537,0.011631372762742639,-4.920321900228451e-06,0.010923437757618297,-0.055960183397227074,0.44749535171348587,-0.19553920462140667,2.358870282527712,-9.04938967730328,-3.1429565897527905,0.011247361685003022,-0.012808993310163016,-0.008591121434767701,-0.2889320657428659,0.6613639370690982,-0.07989743079737978,-1.118872408018321,-8.54493013417916,4.726760262586755,0.0024989465633135305,-0.009245891164400043,-0.004884097833763436,-0.02883998946144139,0.5608712198372472,-0.420305633973829
-1.4567714154208475,-8.625960953196339,4.47407667581489,0.007885392778198046,-0.020422233910274357,0.008259190265854296,-0.0044860925856163745,0.4074896592430846,-0.257203980591802,0.35504922040673825,3.208579450392934,9.246363681041469,-0.005722443221302997,0.04808885885363691,-0.016993811100925856,0.04650058376436179,-0.21118414711894487,-0.3607249197882195,3.777312352187614,-8.858080886975856,0.9042543161947885,0.018528577989108237,0.014151344280243706,-0.0005276199044267957,-0.04866514679151866,0.4505377911758273,-0.2015031912108753,2.353976538126433,-8.924642634279563,-3.1874000134347487,0.004869368835794525,-0.017020355479556156,-0.015668194551081364,-0.2824001187085905,0.665516238287714,-0.08485855118810835,-1.1279688319685086,-8.477900182865534,4.759408495987832,0.0020541628247137227,-0.010078866997368215,-0.006503969337176025,-0.021277349336767684,0.5647231972579887,-0.4257229991354895
-1.425157527187328,-8.581688370769887,4.45576867491224,-0.005042140898081629,-0.013939255354804251,0.0008456052964909761,-0.005478668994636932,0.40481272872470053,-0.2608681655041665,0.27745302492953244,3.253603990301939,9.378744066999683,-0.03456526581515678,0.03846508109983247,-0.016823565499348363,0.05360513819821602,-0.2122825599921034,-0.35462616151653165,3.7431695527850586,-9.002835587341833,0.9582180999753288,-0.014152317047772662,0.013132679115890077,-0.015362276114508163,-0.04794117308112549,0.45413820218713896,-0.20522752734182337,2.5137632286874076,-8.760486501245701,-3.100751685857465,-0.02073796698019036,-0.00907185826096118,0.0030208519032823684,-0.28072889184191446,0.6662520522011964,-0.08780831806785086,-1.0747703814203027,-8.440026278875758,4.806071656241328,-0.011247276292852947,-0.014930106432294435,-0.012869111232427375,-0.022734991972284888,0.5691518992017226,-0.43033084484044637
-1.3852650168277367,-8.50869815242216,4.452106586879291,-0.023526335871161635,-0.007564050945475521,-0.0014529390116395594,-0.010370718923590727,0.4031284308045929,-0.2562306659614232,0.2683172768690228,3.3088067773053673,9.279718295387294,-0.04662792720207834,0.00958059847625262,-0.010271641138323942,0.040903103788976825,-0.2113640435984299,-0.3558190758055971,3.851231113242596,-9.113554009837538,0.9751124809212044,-0.06601652047089711,-0.007036639271686139,-0.025966700477261004,-0.0423113359583648,0.4488250268214401,-0.19957251253154068,2.570235345259804,-8.885447390293567,-3.0882233149258256,-0.05013192112653532,-0.011996284934174319,0.0509281293387156,-0.2762477013668582,0.6672115480447711,-0.08127369140273617,-1.0598119318001258,-8.494430798483716,4.8243738177581506,-0.02869999257702927,-0.023023788112346955,-0.015761461862283457,-0.014426334532388396,0.5644013718604279,-0.42358251774952493
-1.3654778153577687,-8.542922439024256,4.450922040736462,-0.04594535964291553,-0.005327744591839952,0.004154634261552995,-0.00723551315349292,0.3965171707827919,-0.2555041986852973,0.24201913124968738,3.1922428794453563,9.106740330054523,-0.04082062875066964,0.004237707678608914,-0.011654170928498596,0.05137937367350812,-0.2064835882921079,-0.3578891150104084,3.90400038168895,-8.913033600119075,0.8602011469981484,-0.05005560349569791,-0.012266199402076784,0.0015871313461610572,-0.05498912772620632,0.45061792086636143,-0.19852589472406015,2.3466702765241894,-8.897915144177047,-3.126106053004544,-0.017907408791997734,-0.03139109674723277,0.047324438933411074,-0.28478157254535774,0.6650219096430244,-0.08018884607810554,-1.0210215992327623,-8.555885664557051,4.717149655522103,-0.04952949994114811,-0.03059829614971191,-0.006870422498968683,-0.02908312445418148,0.5645536885245844,-0.42468254221390966
-1.4170281996508975,-8.56500607141406,4.359196844216078,-0.03708744648675068,-0.023752489742021626,0.011076405831656885,-0.008167694392091467,0.40409114711123506,-0.25476525706744935,0.2501755141237717,3.013201061148468,9.245466494487752,-0.033517138647438015,0.00996072308753464,-0.02645513633421441,0.04969825535422197,-0.21254633848481055,-0.3550964841186785,3.7074235090743257,-8.868493816757201,0.8109871193319317,-0.02876047073639472,-4.036213749995018e-05,0.017842610513006205,-0.04346977446514943,0.4581350419711576,-0.19799947593373746,2.274424512558339,-8.892146570509581,-3.161821001091217,0.003738223200666577,-0.03850589508623806,0.03212029850281012,-0.2755685974382273,0.6735677095214732,-0.08590871741519893,-1.0614607307415012,-8.528325945284312,4.657096633529646,-0.0376773399239089,-0.012012575657022883,-0.0015014287670487483,-0.019728289084591198,0.5732539773410696,-0.4259443348742173
-1.4488235936239655,-8.559324635449133,4.390920413694841,-0.01948521614001654,-0.03617544052609584,0.012073739094404106,-0.0079202276765835,0.4048253937358734,-0.25891465486941084,0.2374624281471493,3.1530427883719065,9.253483594781283,-0.03588073879551733,-0.005548633257187569,-0.03484321395142948,0.048732823157725466,-0.2152187153690468,-0.3540727441797449,3.5797122713503,-9.012464587943976,0.8410484404752596,-0.03189561321038218,-0.011945666161916658,0.008677228755872077,-0.046184844225634375,0.4496362389157403,-0.19589253459119166,2.39426059683204,-8.967747119616845,-3.1484495767233183,-0.0029417171768207784,-0.02074495822128743,0.029257054148506413,-0.2769895561848655,0.6640392916931479,-0.08175813445262536,-1.0756972138814938,-8.489517519634342,4.74426429356693,-0.023139600316264226,0.010491503145933312,-0.0011034459399607277,-0.021733390961817905,0.5656938998806464,-0.42302911134001864
-1.3994839795105805,-8.477411008304736,4.383908349078014,-0.01644638751999648,-0.028530097963266825,0.015293934541134343,-0.006485692537504147,0.39944040719519647,-0.2528167450724826,0.22253424528398516,3.246867394195001,9.20270348879927,-0.033249796050637076,-0.022126647943946542,-0.01810107862409546,0.0502119600133278,-0.2176226046646174,-0.35208468346210064,3.7794976440707826,-9.003042551330811,0.8922762983359791,-0.03134229957234462,-0.029616425776920703,0.016516709137039176,-0.047915608441300356,0.44694464433809816,-0.19681426115551415,2.4199063269425376,-8.938807137524577,-3.229352255502199,0.001299420899031584,-0.0002987675234851657,0.034030364401429355,-0.27724025145686415,0.6608660354091833,-0.08200500372344834,-1.068280134235235,-8.486294226636465,4.784123432566298,-0.018763432160672753,0.011706264877969485,0.0009057340441043066,-0.020076248595039856,0.5605500232125344,-0.4230640684491857
-1.4515075719348574,-8.479072368903173,4.398779496889621,-0.017490827656607397,-0.014933514334484529,0.021832269682939585,-0.010132580310206927,0.4019001374368486,-0.24963980665450647,0.2859547701918832,3.1809008828859113,9.220505198018174,-0.031288179282289635,-0.021235113308159685,0.002995452551605692,0.0426343302587425,-0.2144717735880356,-0.35211096709331685,3.855091363919075,-8.99484453119416,0.843168143551494,-0.019778344773440818,-0.02174049768404495,0.02311810778314139,-0.045182644896683256,0.4475093944306277,-0.19098340044745551,2.270266221407449,-9.061669965436353,-3.185479384408897,0.01020165468111259,0.0004090958224902976,0.025321148697785307,-0.2755098265555763,0.6571984180226074,-0.08008163522867444,-1.1311053195247185,-8.462865192836773,4.788557879268527,-0.017647062277917916,0.008064874334970265,0.00949181826208364,-0.017115336663915452,0.5600133656390646,-0.41869643108042875
-1.4350841148634297,-8.568085767748649,4.395326801015453,-0.029819346892607318,-0.003470901017174047,0.022193004191125878,-0.015469215600461163,0.407793023440975,-0.25109846505220784,0.3346423849548117,3.0972737265183987,9.313231752567452,-0.03322847925336901,-0.02415420260840166,0.0024073873516132207,0.04651491706940474,-0.21309639939862918,-0.35825092326938435,3.8075215219619216,-9.049374231663895,0.8352556606382507,-0.018523409684903725,-0.00491148450924374,0.006259348413427207,-0.05176418171890841,0.4499792253520919,-0.19145889732133914,2.338290443036531,-9.072257096981756,-3.1704861819358503,-0.0013810126417633955,-0.004988076086020094,0.01802006021197943,-0.2796584891791705,0.664772834684338,-0.08050058232567943,-1.1147739568628705,-8.4692505558499,4.818377501647052,-0.03156607177559986,0.004996106927100525,0.009978435359847547,-0.02586974117253879,0.5642565221289886,-0.41958295389536987
-1.3939137329103073,-8.662168697051772,4.427205548302278,-0.029685943543411693,0.010999407637764937,0.022374874961788097,-0.008358849791467594,0.41312738401471355,-0.25695416461175147,0.28597827944931187,3.187998448681279,9.299629821645052,-0.03303284353264986,-0.014696909106037744,-0.001616592056252084,0.04045325005047442,-0.20969536867696958,-0.3433924110631794,3.7508201772449685,-9.001740672827141,0.7881968289396758,-0.02563169426761535,-0.01025933684725354,0.006396955324690029,-0.047923396027263934,0.45006872670730874,-0.20003641163367192,2.3278728365962076,-8.923957050827067,-3.1700416174618895,-0.004466435020293798,-0.005325515027388927,0.02367439312638336,-0.2775281476423703,0.665512371644687,-0.08565456059696286,-1.0787163464397116,-8.618732527480404,4.83766688416772,-0.03046947803355868,-0.0024365155420465134,0.009762578008694761,-0.021287545155179024,0.565710268141048,-0.42815992283497284
-1.4818689194519528,-8.79606361797607,4.456884174215549,-0.025306162061787565,0.023678943478853194,0.026702284236143913,-0.013238780003472434,0.41339343971613235,-0.24938492789397698,0.21288530165646205,3.268298748536548,9.33787969697201,-0.014755391320095143,0.005612337530749497,0.00420709798219647,0.049198933677907807,-0.20690527702865563,-0.3534790313337583,3.7602827047045753,-9.02814213053126,0.8476301355208673,-0.036469182733525146,-0.01840904501440615,-0.002819210067788469,-0.05193408453232514,0.4542365852574455,-0.18468794689541804,2.3269836258307364,-9.009036875734452,-3.14680845465647,-0.017829402654377054,-0.000205818818680301,0.03050524993508445,-0.2812420911123114,0.6679297337563811,-0.07119587748531583,-1.1458198934272579,-8.73787220455804,4.803845280028843,-0.023279414587882297,-0.011899722129735085,0.012498368520754456,-0.026980595279844987,0.5683841068283247,-0.4112553498160391
-1.5697954064718298,-8.74931521332838,4.477260804610173,-0.003422006131420096,0.013001919476046652,0.020783296513665055,-0.0071747657984676215,0.40651959452526465,-0.24719529207643012,0.2479935171122393,3.1355337915212687,9.300534457084687,-0.0012029542585779707,0.023369792446123753,0.006107690158878915,0.04548359124542794,-0.20222009152511905,-0.3647765780323503,3.845653321780351,-8.931119231617082,0.8235686040569242,-0.01494433642947239,-0.0010895323117150776,-0.0006200863040522738,-0.04662824975573136,0.45238443800311023,-0.19202536530189768,2.244291187954147,-9.008660777787401,-3.102286688155571,-0.007795234884299877,-0.011579840121181897,0.016379336917789446,-0.2754853815544767,0.6676945026644423,-0.07908456821319457,-1.204606977443764,-8.560566699864278,4.751940665820397,-0.0010691346313901277,-0.0034253587002888155,0.004165745061128683,-0.01973250008262323,0.5688399757215374,-0.4210794096979928
-1.520944596423458,-8.68709747772945,4.429158266927012,0.0017289704775204744,-0.00410647493886942,0.010337991036187835,-0.006397583733900033,0.41408074750127777,-0.24450271009776314,0.25898769332393745,3.0873556056400746,9.214859001581823,-0.004253609078130614,0.039141726628646435,-0.011822819686468838,0.05065989895630707,-0.211131215352074,-0.3582976867211019,3.6635409608482483,-8.925703012787332,0.8105849393075601,0.023252967669762183,0.01147980267645077,0.019354385241044172,-0.047414324733212616,0.4614585547909941,-0.2053458006419916,2.275988986638824,-8.952752265456342,-3.082738788818978,0.02189679971634653,-0.025426748351897187,-0.01383573241398879,-0.27930655481080346,0.6750480029320395,-0.09171731450050596,-1.1802751178628352,-8.51614833777138,4.724113936021187,-0.002024513564921682,0.007945101068469603,-0.006445676367709698,-0.02292233611695911,0.5747690199742057,-0.43030599732961217
-1.4077875300135065,-8.638363740221216,4.470248617375414,3.878738524826483e-05,-0.013137944242487952,0.00615828430815136,-0.007418278448414003,0.40701512432422543,-0.2540308035282278,0.24080475214634797,3.2365436580734963,9.385337194578039,-0.009948812987768294,0.03252184070793012,-0.0187376054260525,0.04749187108050832,-0.2108644115161543,-0.3563379836590794,3.5904730378973144,-9.107557212505768,0.8934528821407431,0.003868848677258073,-0.0006206890136446839,0.0030011008081734358,-0.04816059801817947,0.44887587045978544,-0.19830670437859943,2.453079242424449,-9.0333563256088,-3.282890137287383,0.001999498602039257,-0.0012794463742701752,-0.0035270230103884997,-0.27653602046831016,0.6647769548281599,-0.08444789586454521,-1.084516658938162,-8.597537911086418,4.787289339161715,-0.005570825891532274,0.008375317521685263,-0.010483933007091637,-0.020781464336256945,0.565205240233806,-0.4254810618797111
