# sampling frequency: 40
# units are seconds/meters/radians/a.u.
seg1_acc_x,seg1_acc_y,seg1_acc_z,seg1_gyr_x,seg1_gyr_y,seg1_gyr_z,seg1_mag_x,seg1_mag_y,seg1_mag_z,seg2_acc_x,seg2_acc_y,seg2_acc_z,seg2_gyr_x,seg2_gyr_y,seg2_gyr_z,seg2_mag_x,seg2_mag_y,seg2_mag_z,seg3_acc_x,seg3_acc_y,seg3_acc_z,seg3_gyr_x,seg3_gyr_y,seg3_gyr_z,seg3_mag_x,seg3_mag_y,seg3_mag_z,seg4_acc_x,seg4_acc_y,seg4_acc_z,seg4_gyr_x,seg4_gyr_y,seg4_gyr_z,seg4_mag_x,seg4_mag_y,seg4_mag_z,seg5_acc_x,seg5_acc_y,seg5_acc_z,seg5_gyr_x,seg5_gyr_y,seg5_gyr_z,seg5_mag_x,seg5_mag_y,seg5_mag_z
0.179434,-0.785077,9.85635,-0.055295,0.022451,-0.00644,-0.067139,0.441895,-0.596436,-0.261579,3.220768,9.211403,0.000875,0.013497,0.007042,-0.691895,0.076904,-0.406982,-0.737052,4.267852,8.844596,-0.010373,0.019304,-0.001335,-0.259033,0.59082,0.777344,-0.258294,3.667815,9.114745,-0.044487,0.007113,0.008768,0.639648,-0.073975,-0.105713,-0.311355,3.236143,9.239288,0.011982,-0.012774,-0.00134,0.375,-0.202881,-0.579834
0.094822,-0.876461,9.69673,-0.080385,0.009256,-0.009719,-0.06958,0.441895,-0.590332,-0.275617,3.335057,9.226157,0.025255,0.00532,0.005956,-0.694336,0.076416,-0.420654,-0.70436,4.288303,8.822779,0.008259,-0.014363,0.003597,-0.261719,0.590332,0.775635,-0.15605,3.674435,9.107551,0.029624,-0.02428,0.010355,0.63623,-0.073975,-0.107422,-0.272715,3.259484,9.251568,0.002008,0.006521,-0.006027,0.373291,-0.202393,-0.572754
0.145044,-1.024729,9.733281,-0.061781,-0.014017,-0.006928,-0.074707,0.445312,-0.59375,-0.269224,3.385238,9.241073,-0.032576,0.004341,0.008042,-0.696777,0.080566,-0.416992,-0.625167,4.316578,8.828775,-0.010663,0.007377,0.0005,-0.258789,0.594482,0.775879,-0.095564,3.809585,9.142227,0.014895,0.006107,0.011408,0.637451,-0.066406,-0.105713,-0.373131,3.249008,9.267366,-0.00301,0.001612,0.000192,0.369385,-0.200439,-0.573242
0.233606,-1.099974,9.865131,0.018624,-0.001275,0.002004,-0.072266,0.44751,-0.593262,-0.230791,3.219428,9.208408,-0.037286,0.003349,0.009009,-0.694092,0.069336,-0.417969,-0.691036,4.267176,8.82936,-0.014815,0.015103,0.000808,-0.261475,0.594971,0.775391,-0.185902,3.749594,9.153213,-0.04335,0.018013,0.009094,0.635742,-0.065918,-0.107422,-0.253796,3.236654,9.228312,-0.008391,-0.023469,-0.002292,0.370361,-0.196289,-0.57666
0.174226,-0.939981,9.775304,0.083014,0.016058,0.007365,-0.073975,0.446045,-0.594971,-0.246205,3.265892,9.235022,0.01719,0.013264,0.00604,-0.694824,0.071533,-0.412842,-0.707704,4.271393,8.819579,0.005016,-0.005387,0.002828,-0.256104,0.592041,0.77002,-0.219377,3.660485,9.113448,-0.008318,0.002392,0.009013,0.643066,-0.071777,-0.112549,-0.258358,3.206522,9.18734,-0.00056,0.02158,-0.004289,0.367432,-0.19873,-0.573486
0.083207,-0.773571,9.714052,0.060208,0.000176,0.00526,-0.065674,0.44165,-0.599854,-0.296632,3.373791,9.231122,0.009779,0.006839,0.009012,-0.700439,0.078369,-0.418701,-0.640834,4.308587,8.827471,0.007532,0.005221,-0.001882,-0.262451,0.595215,0.776611,-0.170873,3.744565,9.111935,0.035237,-0.014715,0.012953,0.634277,-0.067627,-0.105957,-0.394403,3.252489,9.312932,0.015009,0.005191,-0.006217,0.374756,-0.199219,-0.580078
0.192659,-0.753353,9.852992,0.011194,-0.013184,8.6e-05,-0.073975,0.446289,-0.593018,-0.239902,3.314359,9.217528,-0.041172,0.000763,0.00787,-0.692139,0.074707,-0.420166,-0.681106,4.314972,8.854721,-0.018839,0.007087,0.002203,-0.261719,0.585693,0.766846,-0.107725,3.805846,9.157448,-0.026004,-0.002848,0.008617,0.633057,-0.077637,-0.112549,-0.276426,3.282226,9.241071,0.004651,-0.029033,-0.001829,0.368652,-0.199463,-0.575928
0.214927,-0.806104,9.902421,-0.032102,0.005394,-0.00269,-0.07666,0.439697,-0.599609,-0.232711,3.23283,9.245873,-0.024399,0.010458,0.008759,-0.696289,0.072998,-0.418457,-0.678679,4.250394,8.820939,-0.017162,0.000244,0.00545,-0.252197,0.589111,0.775146,-0.175001,3.668326,9.100777,-0.036204,0.028975,0.008022,0.642578,-0.073975,-0.108398,-0.222833,3.248521,9.223623,-0.030291,0.007407,-0.000473,0.367188,-0.205566,-0.583008
0.14827,-0.871266,9.757559,-0.046182,0.017234,-0.006577,-0.066162,0.442383,-0.593994,-0.259349,3.277199,9.233234,0.022719,0.008805,0.004944,-0.697754,0.077881,-0.420898,-0.678026,4.268096,8.810744,0.005479,0.006457,-0.002243,-0.255127,0.591797,0.780518,-0.24615,3.680065,9.111063,0.029675,-0.004082,0.012887,0.640625,-0.071045,-0.103027,-0.343329,3.159839,9.258354,0.003065,0.018255,-0.00426,0.375732,-0.200928,-0.573975
0.105832,-0.935586,9.701377,-0.050859,-0.000292,-0.005276,-0.068604,0.443359,-0.588867,-0.274167,3.374132,9.226086,-0.010611,0.006696,0.007075,-0.694092,0.072998,-0.419922,-0.691741,4.321108,8.834899,0.017895,0.009477,-0.001238,-0.25415,0.592041,0.773438,-0.140952,3.813038,9.135598,0.01842,-0.023234,0.00768,0.64209,-0.072998,-0.112061,-0.3596,3.291581,9.275417,0.043481,-0.020645,-0.009509,0.372803,-0.198975,-0.570557
0.197231,-1.030004,9.798444,-0.008138,-0.006406,-0.001058,-0.068115,0.445801,-0.599609,-0.243934,3.303839,9.221198,-0.027057,0.003084,0.0085,-0.690674,0.073486,-0.412354,-0.687132,4.336538,8.852498,-0.012922,-0.001247,0.002946,-0.254395,0.594971,0.775146,-0.124321,3.7738,9.128334,-0.04629,0.021727,0.009074,0.642334,-0.06543,-0.111328,-0.24148,3.321139,9.220095,-0.01669,-0.006197,-0.000365,0.375732,-0.19873,-0.577148
0.198708,-0.954449,9.829667,0.049517,0.00259,0.003335,-0.066895,0.447998,-0.596436,-0.255401,3.256003,9.2281,-0.014393,0.008593,0.008415,-0.689941,0.070312,-0.418945,-0.663468,4.274046,8.826575,-0.030426,0.000658,0.00492,-0.249756,0.592529,0.774902,-0.230731,3.651787,9.100925,-0.02194,0.011625,0.009857,0.647705,-0.069824,-0.107178,-0.301554,3.199973,9.265783,-0.036215,0.01724,0.001098,0.37793,-0.195801,-0.574951
0.152009,-0.84138,9.775287,0.052744,0.007138,0.006836,-0.0625,0.44458,-0.595703,-0.233193,3.308323,9.240708,0.007289,0.008389,0.005739,-0.695312,0.072266,-0.412109,-0.693771,4.251083,8.826556,-0.003956,0.009224,-0.000336,-0.257324,0.594727,0.777344,-0.174035,3.699548,9.127477,0.032872,-0.018378,0.010728,0.639893,-0.070068,-0.104736,-0.333968,3.173996,9.224869,0.028137,-0.014599,-0.008332,0.380859,-0.197754,-0.575195
0.124229,-0.769161,9.796026,0.019615,-0.001915,0.00043,-0.069336,0.445801,-0.591064,-0.281213,3.342419,9.227954,-0.011138,0.008933,0.008663,-0.69751,0.07251,-0.409424,-0.704046,4.292047,8.82254,0.020863,0.00113,0.000207,-0.255615,0.592529,0.770508,-0.14439,3.794484,9.118711,0.007617,0.009957,0.010309,0.63916,-0.068848,-0.110596,-0.264566,3.308391,9.253906,0.016572,-0.000449,-0.005351,0.373047,-0.198486,-0.571777
0.183658,-0.798223,9.839327,-0.019428,-0.001765,-0.00132,-0.070557,0.444092,-0.595947,-0.256818,3.293654,9.242071,-0.025723,0.001161,0.007049,-0.693115,0.076416,-0.412842,-0.640387,4.341993,8.858379,0.004552,0.003656,0.000422,-0.257812,0.593994,0.77124,-0.176848,3.766581,9.131205,-0.039698,0.004939,0.009855,0.639893,-0.071533,-0.114258,-0.322837,3.254966,9.267483,-0.020344,0.011913,-0.00113,0.374268,-0.199707,-0.577637
0.179482,-0.876038,9.851716,-0.040405,0.00461,-0.005097,-0.070312,0.445312,-0.598633,-0.227872,3.265658,9.225161,-0.00026,0.007708,0.007474,-0.69751,0.071045,-0.420898,-0.713018,4.294571,8.854136,-0.0364,0.010054,0.0042,-0.253662,0.589111,0.770752,-0.161867,3.643195,9.10258,-0.028541,-0.003069,0.007595,0.644043,-0.074707,-0.110352,-0.305139,3.224969,9.221467,0.001947,-0.022391,-0.001883,0.373047,-0.199707,-0.581299
0.138745,-0.923981,9.756539,-0.028224,0.008831,-0.002901,-0.067139,0.440918,-0.596191,-0.274657,3.314983,9.235291,-0.007871,0.010542,0.008265,-0.692871,0.074707,-0.418701,-0.699324,4.25836,8.820154,-0.007161,-0.012142,0.004315,-0.258789,0.599609,0.779785,-0.172687,3.693151,9.100396,0.040089,0.011827,0.011712,0.638916,-0.064697,-0.10376,-0.242913,3.211121,9.226777,-0.00566,0.008803,-0.00316,0.377441,-0.20459,-0.580322
0.140386,-0.959081,9.760664,-0.010135,-0.000244,-0.001722,-0.071289,0.452637,-0.589355,-0.25341,3.323047,9.236243,-0.009727,-0.000983,0.007212,-0.689941,0.070312,-0.408203,-0.624497,4.29881,8.817625,0.017949,0.012582,-0.004421,-0.25415,0.599365,0.772461,-0.204704,3.843219,9.164733,0.011395,-0.010216,0.013269,0.640625,-0.061523,-0.111084,-0.368084,3.235321,9.283441,0.019137,0.014366,-0.00794,0.372559,-0.19165,-0.570312
0.187166,-0.961652,9.811969,0.021887,-0.004566,0.001607,-0.068604,0.454834,-0.599365,-0.250175,3.312858,9.217055,-0.011486,0.011796,0.008227,-0.694824,0.071045,-0.413574,-0.716832,4.329237,8.856893,-0.001859,0.015313,0.002049,-0.266113,0.592041,0.772217,-0.136538,3.740356,9.117911,-0.062864,-2.1e-05,0.00551,0.634033,-0.068359,-0.107422,-0.307572,3.30851,9.247384,0.00797,-0.030134,-0.002225,0.374268,-0.190918,-0.581055
0.17975,-0.88468,9.820901,0.038641,0.005279,0.005778,-0.080566,0.44751,-0.597168,-0.263618,3.288015,9.23376,-0.0169,0.005047,0.007719,-0.694336,0.067383,-0.413574,-0.683249,4.299233,8.828694,-0.011337,-0.014355,0.00418,-0.255371,0.582031,0.774902,-0.187548,3.62464,9.076328,-0.00086,0.019298,0.011733,0.640869,-0.077637,-0.107178,-0.235395,3.215571,9.22095,-0.037712,0.014407,0.001533,0.366699,-0.197754,-0.578369
0.142935,-0.801886,9.801614,0.021559,0.005301,0.00013,-0.069824,0.435303,-0.594238,-0.219673,3.304352,9.202612,0.0012,0.007067,0.006912,-0.689209,0.074219,-0.419434,-0.651554,4.2851,8.850896,-0.021117,0.015184,0.000364,-0.259766,0.577881,0.77002,-0.205838,3.754999,9.14517,0.038933,-0.004995,0.012375,0.635498,-0.082764,-0.112061,-0.389532,3.183046,9.224741,0.018465,0.009758,-0.008728,0.375,-0.208496,-0.575195
0.153261,-0.817525,9.811181,-0.015038,-0.00148,-0.00031,-0.073242,0.431152,-0.602051,-0.29239,3.323312,9.243305,-0.01625,0.008565,0.007946,-0.695312,0.070557,-0.410889,-0.700361,4.250175,8.813665,0.00712,0.000675,0.001018,-0.255615,0.589355,0.773438,-0.137874,3.809871,9.109039,-0.016723,-0.012761,0.00613,0.638428,-0.075439,-0.108643,-0.281495,3.294855,9.258415,0.022047,-0.025492,-0.004529,0.371094,-0.21167,-0.583008
0.18731,-0.872077,9.817409,-0.027381,-8.7e-05,-0.003854,-0.070557,0.440674,-0.592041,-0.223818,3.285612,9.213956,-0.013178,-0.000376,0.005789,-0.693848,0.070312,-0.414062,-0.629534,4.339018,8.841608,0.009308,0.000421,-0.001845,-0.259277,0.59375,0.775391,-0.141929,3.699404,9.13169,-0.039316,0.022398,0.010213,0.636963,-0.066162,-0.106689,-0.25144,3.255707,9.239133,-0.019196,0.013926,-0.001969,0.371338,-0.199951,-0.57373
0.153397,-0.92507,9.792877,-0.019708,0.006495,-0.002418,-0.073242,0.449463,-0.594727,-0.239566,3.304731,9.25121,-0.006209,0.014696,0.009162,-0.69458,0.076416,-0.408447,-0.707044,4.298076,8.807386,-0.020017,0.017955,0.002835,-0.263184,0.585938,0.772705,-0.239557,3.659978,9.119326,4.6e-05,0.006999,0.010347,0.632568,-0.075195,-0.109131,-0.348869,3.219563,9.282964,-0.008481,0.001284,-0.004337,0.37207,-0.196045,-0.574707
0.144866,-0.933718,9.761465,-0.007718,0.004024,3.4e-05,-0.077148,0.438232,-0.595215,-0.279777,3.30208,9.220867,-0.013409,0.002501,0.006876,-0.68457,0.072754,-0.417969,-0.691841,4.28378,8.83473,-0.0061,-0.012527,0.001586,-0.251709,0.597412,0.776855,-0.147738,3.777896,9.132474,0.033251,-0.022368,0.009752,0.645508,-0.065918,-0.104736,-0.272819,3.20836,9.220496,0.009229,-0.013954,-0.001949,0.365723,-0.202637,-0.577148
0.162521,-0.930762,9.78464,0.016513,-0.001491,-0.000247,-0.066162,0.449219,-0.594482,-0.229991,3.314231,9.225789,-0.00508,0.007979,0.006262,-0.690186,0.073486,-0.413574,-0.631223,4.290394,8.821244,-0.007435,0.010954,0.000149,-0.253418,0.591553,0.772949,-0.137179,3.783176,9.141601,-0.024507,0.016797,0.008773,0.643311,-0.072998,-0.109619,-0.29729,3.283087,9.229284,0.017978,0.012351,-0.007104,0.376221,-0.192383,-0.571777
0.177652,-0.898006,9.816679,0.022547,-0.000812,0.003413,-0.065918,0.441895,-0.593994,-0.286284,3.277387,9.253115,-0.021407,0.008852,0.010124,-0.69458,0.069336,-0.419678,-0.706135,4.282928,8.817226,0.00725,0.010042,-0.000157,-0.25293,0.590088,0.769531,-0.218719,3.688107,9.108856,-0.028945,0.01095,0.010982,0.644531,-0.076416,-0.109131,-0.3155,3.257581,9.27882,-0.025016,-0.007034,0.001704,0.375488,-0.201416,-0.577393
0.171948,-0.845305,9.825473,0.017171,0.005016,-0.000881,-0.06665,0.441406,-0.597412,-0.235019,3.287055,9.225953,-0.001958,0.001281,0.005341,-0.696045,0.082275,-0.412354,-0.671114,4.330499,8.841648,-0.000618,-0.001876,0.000376,-0.258789,0.594482,0.775635,-0.170891,3.710074,9.114938,0.010582,-0.013758,0.010872,0.635498,-0.068848,-0.105713,-0.288967,3.195254,9.20835,0.004853,-0.000746,-0.004114,0.374756,-0.202393,-0.577148
0.152384,-0.823688,9.780615,-0.002323,0.002901,-0.000351,-0.074219,0.445557,-0.591309,-0.267684,3.324932,9.243296,-0.005605,0.015963,0.00816,-0.689697,0.069824,-0.414551,-0.673467,4.302264,8.832835,-0.023319,0.007073,0.005375,-0.260986,0.5979,0.769775,-0.139391,3.75013,9.128927,0.004211,0.007892,0.010269,0.637207,-0.062744,-0.114746,-0.318949,3.278584,9.268945,0.012564,0.000286,-0.006388,0.369629,-0.19873,-0.571289
0.163669,-0.865622,9.811742,-0.028693,-0.001358,-0.003171,-0.073486,0.449219,-0.602051,-0.258309,3.279972,9.238685,-0.029985,-0.003669,0.008019,-0.693115,0.070068,-0.410645,-0.659877,4.274894,8.818499,-0.000507,-0.002447,-0.001257,-0.258545,0.596191,0.774658,-0.190914,3.751846,9.116537,-0.009349,0.005859,0.012177,0.641113,-0.067139,-0.10791,-0.283359,3.233481,9.255233,-0.015687,-0.005325,0.000868,0.368896,-0.192627,-0.581543
0.168729,-0.932168,9.820389,-0.017807,0.003552,-0.002525,-0.072021,0.446533,-0.595215,-0.225571,3.281789,9.234788,0.008455,0.01284,0.006013,-0.700684,0.072021,-0.42334,-0.670264,4.307715,8.831258,-0.000493,0.011683,0.00023,-0.262207,0.597656,0.7771,-0.187785,3.717002,9.10936,-0.024142,-0.001747,0.008248,0.632812,-0.064209,-0.106445,-0.30415,3.2339,9.227083,0.012653,0.002379,-0.005169,0.375488,-0.197021,-0.575439
0.149079,-0.914097,9.775226,0.003353,0.005265,-0.000215,-0.07666,0.449951,-0.592773,-0.303564,3.333505,9.228589,-0.011131,0.006346,0.009947,-0.693359,0.069092,-0.411377,-0.691659,4.311498,8.807731,0.004577,0.001039,0.001998,-0.251221,0.590088,0.766602,-0.154087,3.704896,9.103463,0.011747,0.0021,0.009725,0.644531,-0.07373,-0.11499,-0.29259,3.265976,9.27961,-0.006203,-0.002476,-0.002039,0.36499,-0.195068,-0.574463
0.14022,-0.899919,9.735475,0.01384,-0.001045,-0.000469,-0.064209,0.441162,-0.603516,-0.208741,3.286249,9.212732,-0.018073,0.000864,0.004915,-0.692871,0.071533,-0.410889,-0.658782,4.320023,8.854163,-0.007478,0.003631,-0.001878,-0.259277,0.595947,0.768066,-0.184493,3.780341,9.149241,0.006831,0.004627,0.012338,0.637695,-0.068604,-0.114502,-0.311585,3.232411,9.21535,0.006758,-0.001068,-0.002875,0.37915,-0.203125,-0.584961
0.162471,-0.880059,9.829168,0.018253,-0.00294,0.001956,-0.074707,0.447266,-0.60083,-0.288898,3.302247,9.238742,-0.005704,0.01308,0.010473,-0.695068,0.074707,-0.412842,-0.678782,4.270785,8.825352,-0.022662,-0.000477,0.007118,-0.26001,0.586182,0.770264,-0.156656,3.713221,9.113369,-0.034553,-0.004888,0.007924,0.637451,-0.077637,-0.111328,-0.318169,3.279361,9.268697,6.7e-05,-0.003971,-0.003263,0.368896,-0.198975,-0.581543
0.19154,-0.8614,9.813811,0.004831,0.002281,-0.000774,-0.075439,0.440674,-0.600098,-0.225241,3.29437,9.239749,-0.017503,-0.006161,0.004895,-0.698975,0.069092,-0.419678,-0.637903,4.280379,8.825628,0.001526,0.003126,-0.00144,-0.253662,0.590576,0.769287,-0.133725,3.690307,9.112205,-0.001784,0.006924,0.011144,0.643799,-0.070312,-0.113281,-0.258064,3.206329,9.236998,-0.014777,-0.005026,0.000868,0.36792,-0.203125,-0.581055
0.161565,-0.864392,9.811886,-0.00636,0.005065,-0.001491,-0.065186,0.444092,-0.601074,-0.235748,3.304142,9.224575,0.000606,0.020456,0.010147,-0.692627,0.074219,-0.418945,-0.715455,4.297453,8.818211,0.006492,0.019712,-0.001839,-0.260254,0.5896,0.779297,-0.207292,3.735455,9.130437,0.012056,0.0171,0.010027,0.638428,-0.07251,-0.104736,-0.289583,3.232175,9.226947,0.019035,0.004748,-0.009104,0.377197,-0.198242,-0.581299
0.145659,-0.890039,9.767036,-0.009904,0.00761,-0.004033,-0.071289,0.443848,-0.590576,-0.317953,3.305885,9.227293,-0.01341,0.001211,0.007504,-0.695068,0.072266,-0.408447,-0.686673,4.318522,8.819123,0.010608,-0.01361,0.001648,-0.263184,0.598145,0.773193,-0.202507,3.784652,9.115065,0.003041,-0.016157,0.009979,0.632812,-0.065186,-0.11084,-0.329916,3.252252,9.272718,-0.009703,0.004735,-0.000244,0.372559,-0.200439,-0.573242
0.144711,-0.896966,9.779912,-0.0114,-0.003119,-0.000654,-0.077148,0.450439,-0.59668,-0.203424,3.31209,9.232674,-0.009698,0.001548,0.005888,-0.695557,0.073242,-0.412842,-0.627935,4.336462,8.871095,-0.027912,0.010202,0.000224,-0.253174,0.596436,0.770752,-0.116086,3.728597,9.140568,-0.039703,-0.002707,0.009762,0.644531,-0.064453,-0.111328,-0.323664,3.24974,9.244047,0.016198,-0.006046,-0.006335,0.367432,-0.195068,-0.578369
0.17463,-0.935374,9.834212,-0.0061,-0.001028,-0.001805,-0.067627,0.450928,-0.598145,-0.278108,3.306086,9.239677,-0.019995,0.014903,0.010215,-0.69165,0.075439,-0.420166,-0.732877,4.248352,8.803075,-0.019359,0.007783,0.006171,-0.256104,0.594238,0.766846,-0.172439,3.641262,9.090584,-0.008384,0.026352,0.008781,0.638184,-0.067139,-0.115234,-0.256158,3.269116,9.223163,-0.020646,-0.012741,-0.000714,0.377197,-0.196289,-0.578369
0.173444,-0.924912,9.829971,0.020526,0.006153,0.002561,-0.070068,0.446777,-0.601318,-0.238783,3.264482,9.20626,-0.006729,-0.001952,0.005043,-0.693604,0.07251,-0.414307,-0.649135,4.285414,8.843052,0.019688,-0.009452,-0.002696,-0.260986,0.590088,0.773438,-0.239239,3.759582,9.151253,0.035788,-0.010297,0.014197,0.637207,-0.070801,-0.107178,-0.286981,3.157511,9.223134,-0.005494,0.020521,-0.000783,0.372803,-0.198975,-0.581299
0.13796,-0.832217,9.771103,0.014473,0.004892,-7.6e-05,-0.073486,0.445068,-0.594482,-0.261895,3.340195,9.239464,0.005276,0.01472,0.00701,-0.693359,0.071533,-0.42334,-0.675835,4.32614,8.844279,0.002855,0.023074,0.0003,-0.265137,0.582031,0.77417,-0.129622,3.78594,9.148811,-0.021264,-0.010063,0.005726,0.633301,-0.079834,-0.105957,-0.368647,3.28162,9.290932,0.037228,-0.008568,-0.012905,0.369873,-0.200684,-0.575195
0.148127,-0.869431,9.824421,-0.007179,-0.006203,-0.002841,-0.075684,0.434814,-0.592773,-0.290512,3.312143,9.225788,-0.027356,0.000169,0.00766,-0.693359,0.07373,-0.413086,-0.718084,4.313512,8.845333,-0.00991,-0.009106,0.002755,-0.259766,0.588135,0.77124,-0.148157,3.696059,9.095522,-0.030642,0.01927,0.010864,0.635742,-0.077881,-0.110352,-0.239247,3.293108,9.223685,-0.02169,-0.017167,0.005915,0.364746,-0.209229,-0.575439
0.20746,-0.899906,9.867651,-0.004107,0.003198,-0.000501,-0.074707,0.437988,-0.598145,-0.204086,3.271605,9.238952,-0.00832,0.006338,0.006646,-0.696289,0.07959,-0.416748,-0.617943,4.297931,8.837982,-0.024425,0.001684,0.004481,-0.26416,0.5896,0.770264,-0.222321,3.69739,9.103742,0.003994,0.003458,0.011492,0.63501,-0.070557,-0.109131,-0.299576,3.212101,9.237271,-0.015507,0.020193,-0.005309,0.368408,-0.204346,-0.582764
0.159716,-0.870681,9.781318,-0.002067,0.008568,-0.001246,-0.07666,0.441406,-0.598145,-0.275544,3.308854,9.225334,-0.003651,0.012428,0.009561,-0.695557,0.06665,-0.41748,-0.719118,4.250557,8.820678,-0.006213,0.014704,-0.000574,-0.25415,0.592285,0.771973,-0.159796,3.740138,9.107517,0.01536,-0.011483,0.009087,0.644287,-0.068604,-0.114502,-0.341823,3.216033,9.27121,0.015756,-0.013716,-0.00401,0.36792,-0.203369,-0.582031
0.130084,-0.87072,9.766146,-0.010673,-0.000395,0.000505,-0.067871,0.444824,-0.598389,-0.24307,3.31122,9.221303,-0.012581,-0.00039,0.005395,-0.69751,0.071045,-0.424561,-0.676207,4.30257,8.834161,0.021993,-0.006059,-0.001978,-0.251953,0.596924,0.774902,-0.148462,3.784603,9.128593,-0.010796,0.008189,0.012405,0.646973,-0.067627,-0.107666,-0.242777,3.267084,9.239621,0.009684,-0.001747,-0.004312,0.375,-0.197021,-0.582031
0.172968,-0.928966,9.799581,0.001055,-0.001645,-0.002227,-0.067627,0.446777,-0.595459,-0.260406,3.306514,9.224551,-0.010517,0.012067,0.009896,-0.696533,0.073242,-0.412842,-0.657918,4.343346,8.843063,-0.008381,0.012317,-0.000334,-0.260254,0.593994,0.767578,-0.187598,3.72034,9.123098,-0.032835,0.006398,0.008351,0.633545,-0.06958,-0.119873,-0.33369,3.275073,9.26219,-0.006625,0.011218,-0.003799,0.376221,-0.197754,-0.574707
0.178736,-0.905013,9.821979,0.009147,0.004984,-0.000334,-0.074707,0.446533,-0.601562,-0.256922,3.283679,9.238749,-0.018146,0.000534,0.005895,-0.697266,0.066895,-0.413818,-0.700952,4.272378,8.817219,-0.020975,0.002568,0.002435,-0.258789,0.598877,0.770264,-0.165994,3.675585,9.092962,0.00466,-0.006421,0.010839,0.637451,-0.061523,-0.109375,-0.298877,3.220322,9.243127,-0.015189,-0.018479,-0.000666,0.367676,-0.197754,-0.584961
0.147364,-0.870612,9.780801,0.011189,0.007598,0.001357,-0.071289,0.451172,-0.601318,-0.236824,3.283896,9.228437,0.0009,0.012448,0.005212,-0.696777,0.07959,-0.416748,-0.664478,4.273079,8.820698,-0.00667,-0.001338,0.00342,-0.251709,0.590576,0.772461,-0.185371,3.759437,9.135133,0.017201,0.012182,0.012093,0.641113,-0.070068,-0.110107,-0.265563,3.206135,9.191758,0.011363,0.010044,-0.006264,0.374023,-0.190674,-0.578369
0.135354,-0.857172,9.784535,-0.000305,-0.001306,-0.001924,-0.067139,0.444824,-0.596436,-0.300906,3.32354,9.229646,-0.009346,0.0076,0.008225,-0.700195,0.07373,-0.421387,-0.671751,4.295474,8.804498,0.013104,0.008004,-0.002536,-0.26709,0.59082,0.77417,-0.209461,3.774248,9.121574,-0.011368,-0.003127,0.009339,0.627197,-0.070557,-0.108398,-0.362965,3.26988,9.273296,0.009726,0.004579,-0.003746,0.377197,-0.197021,-0.57959
0.186999,-0.897303,9.809782,-0.011048,-0.002042,0.000436,-0.08252,0.443604,-0.596924,-0.216147,3.317189,9.219994,-0.017948,-0.000426,0.007045,-0.69458,0.077637,-0.418457,-0.682428,4.329861,8.853194,-0.003334,0.00848,0.000889,-0.255127,0.588867,0.773926,-0.128542,3.725244,9.127659,-0.034089,-0.005002,0.008896,0.641357,-0.073975,-0.108154,-0.287024,3.257533,9.244279,-0.002315,-0.017648,-0.002733,0.363037,-0.200439,-0.577881
0.163806,-0.879372,9.82993,-0.004905,0.004261,-0.003458,-0.066895,0.442139,-0.596436,-0.265548,3.274357,9.250565,-0.010552,0.015566,0.00897,-0.701172,0.06958,-0.411865,-0.693552,4.304103,8.802531,-0.018943,-0.000222,0.004382,-0.258301,0.594971,0.776855,-0.168181,3.661402,9.092262,0.001654,0.020258,0.010145,0.635254,-0.070801,-0.105713,-0.254788,3.230979,9.238081,-0.016862,0.007687,-0.00294,0.373047,-0.202393,-0.576904
0.129015,-0.905147,9.783912,0.002954,0.004417,-0.000476,-0.07373,0.447021,-0.591553,-0.263699,3.306225,9.219943,-0.003557,-0.000667,0.005663,-0.693115,0.074219,-0.425049,-0.654939,4.275374,8.824396,-0.004809,0.000101,0.001269,-0.259033,0.59375,0.770752,-0.214342,3.774197,9.146519,0.02695,-0.006543,0.013243,0.636719,-0.068604,-0.111816,-0.333155,3.183086,9.246964,-0.000424,0.007666,-0.00171,0.371338,-0.196777,-0.574707
0.145303,-0.88561,9.798186,-0.000891,0.000149,-7.6e-05,-0.072998,0.448242,-0.600342,-0.232178,3.330481,9.226405,-0.008023,0.010154,0.007749,-0.700439,0.072998,-0.409912,-0.691518,4.284058,8.827542,0.00087,0.012247,-0.000556,-0.256592,0.593506,0.78125,-0.148341,3.782421,9.113257,-0.028609,-0.011631,0.006973,0.637451,-0.070557,-0.099854,-0.320222,3.273884,9.245304,0.033868,-0.014033,-0.009155,0.371826,-0.197998,-0.580811
0.184419,-0.894698,9.818333,0.0023,-0.002095,0.000158,-0.074463,0.443848,-0.588135,-0.275041,3.293662,9.227436,-0.021546,0.005292,0.00795,-0.698486,0.073242,-0.409424,-0.687237,4.305474,8.829529,0.00303,0.000526,0.001871,-0.252441,0.585938,0.770752,-0.157222,3.680453,9.115558,-0.025854,0.021086,0.009984,0.643311,-0.075928,-0.112793,-0.246865,3.289475,9.22923,-0.026165,-0.001546,0.002493,0.37207,-0.199951,-0.568604
0.175095,-0.885367,9.791626,0.010836,0.006522,0.000266,-0.066162,0.441895,-0.599365,-0.211912,3.285121,9.228762,-0.00536,0.006017,0.007407,-0.701904,0.077637,-0.417725,-0.662621,4.315239,8.834851,-0.014497,0.003981,0.002265,-0.255127,0.598877,0.772461,-0.226622,3.696198,9.112847,0.014035,0.004183,0.012377,0.642822,-0.062988,-0.110107,-0.311421,3.183725,9.258252,-0.011284,0.011878,-0.001123,0.376953,-0.203857,-0.578857
0.142427,-0.85666,9.785186,-0.001807,0.001101,-0.000344,-0.068604,0.451904,-0.595459,-0.271188,3.304904,9.243128,-0.005938,0.010476,0.008724,-0.684326,0.073242,-0.419922,-0.701865,4.283323,8.823867,-0.009606,0.005946,0.001988,-0.257568,0.586914,0.778809,-0.16394,3.774704,9.141658,0.006367,-0.017878,0.007996,0.63916,-0.074219,-0.102295,-0.310844,3.237555,9.255338,0.022812,-0.014263,-0.007095,0.375488,-0.192871,-0.578369
0.163574,-0.89542,9.81716,-0.010955,-0.001128,-0.002447,-0.071533,0.439697,-0.59082,-0.250726,3.304386,9.233125,-0.017716,0.001164,0.006895,-0.691406,0.075439,-0.415527,-0.667064,4.27379,8.821007,0.005857,-0.002035,-0.002403,-0.256104,0.599365,0.779053,-0.155256,3.754934,9.123143,-0.017398,0.015817,0.011995,0.637695,-0.062256,-0.104736,-0.276476,3.276212,9.25098,0.00255,-0.000263,-0.002469,0.372314,-0.206055,-0.57373
0.174049,-0.900134,9.809017,0.000327,0.003256,-0.000317,-0.071533,0.45166,-0.591797,-0.23759,3.289612,9.241347,-0.009254,0.011092,0.008821,-0.690918,0.074707,-0.412598,-0.68081,4.317796,8.825759,-0.003476,0.011664,0.000969,-0.259033,0.595459,0.776123,-0.219279,3.706667,9.133178,-0.019161,0.006786,0.008525,0.637939,-0.066895,-0.105713,-0.330572,3.246476,9.249482,-0.012943,0.007887,-0.00315,0.373291,-0.191406,-0.571777
0.173507,-0.882709,9.778405,0.000257,0.00429,0.000322,-0.075439,0.449951,-0.592285,-0.265876,3.318778,9.239167,-0.008245,0.004083,0.006914,-0.697021,0.068115,-0.414062,-0.704134,4.287985,8.845362,-0.012616,0.002802,0.001681,-0.252197,0.596924,0.775879,-0.163437,3.691938,9.107846,0.002155,-0.011116,0.010405,0.644043,-0.066895,-0.106689,-0.292455,3.215393,9.248364,-3.1e-05,-0.013863,-0.000501,0.369141,-0.197266,-0.57373
0.163329,-0.896577,9.795298,0.000492,0.000383,-0.001402,-0.065674,0.449951,-0.591553,-0.244409,3.297227,9.218385,-0.012349,0.008842,0.007816,-0.692627,0.072266,-0.420654,-0.668596,4.283373,8.827452,-0.003169,-0.001514,0.001351,-0.265869,0.589355,0.767334,-0.147031,3.750123,9.118321,0.013771,0.009187,0.011543,0.630615,-0.073486,-0.117188,-0.275851,3.231088,9.22656,0.005048,0.006722,-0.005617,0.376709,-0.193359,-0.575684
0.162026,-0.891404,9.804059,0.006146,0.002173,-0.00024,-0.07959,0.442871,-0.602783,-0.261469,3.300445,9.23295,-0.009183,0.005668,0.007486,-0.696777,0.072266,-0.420654,-0.679656,4.309088,8.819734,-0.002477,0.01079,-0.000138,-0.262695,0.599365,0.766602,-0.213389,3.77162,9.131394,-0.017729,0.005807,0.010188,0.633545,-0.064697,-0.116943,-0.344712,3.24685,9.283159,0.007333,0.002968,-0.003321,0.364258,-0.199951,-0.585693
0.151617,-0.878474,9.78596,0.000797,0.003065,-0.000695,-0.075684,0.451172,-0.602539,-0.241115,3.300413,9.222788,-0.010168,0.006304,0.006169,-0.696533,0.072998,-0.42041,-0.701029,4.305834,8.849007,-0.004706,0.003721,0.000674,-0.259521,0.59375,0.772949,-0.173105,3.698494,9.12531,-0.024769,-0.005318,0.007454,0.635254,-0.069824,-0.109131,-0.286669,3.258317,9.227487,-0.005236,-0.012444,-0.001332,0.36792,-0.195068,-0.584473
0.141704,-0.888175,9.789734,-0.001409,0.003322,-0.0013,-0.075439,0.446533,-0.597168,-0.283037,3.291601,9.21331,-0.015258,0.008814,0.009575,-0.696533,0.072021,-0.411865,-0.669712,4.299881,8.817851,-0.005629,-0.003275,0.002282,-0.251465,0.589844,0.7854,-0.143409,3.694327,9.099761,0.010262,0.005678,0.011893,0.645996,-0.070557,-0.100098,-0.299485,3.213549,9.23677,-0.009844,0.008372,-0.002124,0.368408,-0.199219,-0.578613
0.15995,-0.882806,9.799651,-0.005723,-0.002132,0.000694,-0.063965,0.444824,-0.585693,-0.246668,3.302827,9.244691,-0.004989,0.001227,0.005571,-0.692139,0.069824,-0.413574,-0.662819,4.289398,8.839425,-0.009005,0.012009,0.002665,-0.252686,0.590576,0.771729,-0.200475,3.758439,9.146342,0.009134,0.003521,0.01206,0.64209,-0.07251,-0.108643,-0.326587,3.225274,9.242918,0.012125,-0.002847,-0.004098,0.37915,-0.199951,-0.567139
0.180257,-0.925222,9.844797,-0.001456,0.004929,-0.001685,-0.067627,0.444336,-0.594238,-0.255655,3.299047,9.230327,-0.012296,0.015851,0.007495,-0.69458,0.078125,-0.416504,-0.696733,4.285974,8.814329,-0.003647,0.003358,0.002142,-0.253662,0.598145,0.774414,-0.1761,3.74146,9.131098,-0.026176,-0.000191,0.009204,0.641846,-0.06543,-0.108643,-0.270543,3.272017,9.239417,0.006392,-0.006672,-0.003856,0.376221,-0.198486,-0.577637
0.140896,-0.884637,9.776575,0.009242,0.001768,0.000442,-0.069824,0.448975,-0.594482,-0.275939,3.300123,9.221362,-0.012942,-9.5e-05,0.006223,-0.696533,0.073242,-0.414795,-0.65864,4.315577,8.826414,0.006422,0.000919,0.00144,-0.253662,0.588135,0.774414,-0.173629,3.706118,9.094339,-0.004325,0.004829,0.009126,0.641602,-0.077393,-0.108643,-0.296788,3.237097,9.254744,-0.018397,0.009087,-0.003156,0.375,-0.196777,-0.57666
0.139956,-0.883483,9.776693,0.00021,0.005896,-6.3e-05,-0.06665,0.438965,-0.595459,-0.220871,3.320206,9.229388,-0.000605,0.00954,0.005191,-0.687256,0.076904,-0.419922,-0.697781,4.291764,8.835375,-0.016584,0.013576,-0.000188,-0.253906,0.587402,0.768555,-0.18883,3.742746,9.132646,1e-05,0.005522,0.010735,0.640869,-0.073975,-0.112061,-0.326084,3.231955,9.265832,0.014146,-0.005335,-0.005519,0.375732,-0.204346,-0.574707
0.178286,-0.897217,9.809952,-0.0015,-0.005215,-0.001491,-0.068359,0.438965,-0.599365,-0.286803,3.29576,9.240071,-0.022476,0.00558,0.009134,-0.696289,0.071533,-0.41748,-0.661474,4.299494,8.822792,-0.003453,-0.009252,0.004146,-0.254395,0.595947,0.776855,-0.158909,3.740457,9.106338,0.002149,-0.007065,0.008417,0.643555,-0.064941,-0.107666,-0.267736,3.241809,9.243793,-0.008583,-0.008624,-0.001568,0.375488,-0.203369,-0.58252
0.177321,-0.892902,9.818627,0.001125,0.004944,0.000205,-0.067871,0.449951,-0.593506,-0.206633,3.289312,9.239204,-0.002446,0.001559,0.004673,-0.693848,0.070557,-0.423584,-0.65286,4.308718,8.833438,-0.004766,0.013145,-0.0014,-0.263916,0.597656,0.768066,-0.158328,3.739971,9.136173,-0.014151,0.012124,0.011341,0.633301,-0.063965,-0.113525,-0.29741,3.231466,9.214928,0.006861,0.007328,-0.005623,0.377686,-0.195312,-0.57373
0.156176,-0.872842,9.795392,0.000797,0.004441,-0.001912,-0.075928,0.449951,-0.60083,-0.287461,3.319117,9.231351,-0.009174,0.016474,0.011678,-0.688721,0.074707,-0.422119,-0.704686,4.286282,8.823913,0.000244,0.006194,0.00298,-0.253662,0.591797,0.770752,-0.200593,3.708409,9.109102,-0.009992,0.003484,0.007921,0.643066,-0.071777,-0.109375,-0.322135,3.256257,9.267054,-0.004134,-0.004682,-0.002839,0.365723,-0.197266,-0.583984
0.157107,-0.886441,9.791098,-0.005349,0.000892,-0.000456,-0.06665,0.446045,-0.598633,-0.254979,3.320565,9.227775,-0.013937,-0.003918,0.003927,-0.693115,0.070801,-0.413818,-0.642544,4.31344,8.836057,-0.002961,-0.004204,-0.000338,-0.259277,0.595459,0.763672,-0.159727,3.732035,9.12136,0.005367,-0.007601,0.010696,0.63623,-0.067383,-0.11792,-0.292423,3.21746,9.231115,0.000203,-0.001586,-0.001427,0.377197,-0.202148,-0.57959
0.176618,-0.911234,9.827422,9.4e-05,-0.000461,-0.001664,-0.072754,0.450928,-0.602539,-0.235542,3.292801,9.22787,-0.007559,0.015211,0.009744,-0.688232,0.067871,-0.415771,-0.685859,4.287027,8.832342,-0.013282,0.017662,0.002044,-0.255859,0.597656,0.768555,-0.164745,3.737165,9.144151,-0.007859,0.013033,0.009837,0.641846,-0.066895,-0.113281,-0.300723,3.256679,9.278404,0.005055,0.000693,-0.005565,0.371338,-0.196289,-0.584961
0.156248,-0.886393,9.791116,0.005487,0.007413,-0.000185,-0.068359,0.450439,-0.601074,-0.317114,3.294307,9.230428,-0.011725,0.000855,0.007397,-0.691406,0.073486,-0.423584,-0.695434,4.281785,8.806976,0.000501,-0.007489,0.000763,-0.256348,0.59668,0.777588,-0.19262,3.740437,9.099273,-0.00629,-0.002627,0.011289,0.638916,-0.069824,-0.104004,-0.312646,3.22495,9.225745,-0.007596,-0.001708,-0.000393,0.374512,-0.195801,-0.585449
0.16462,-0.876029,9.787431,0.000493,-0.000993,-0.000185,-0.070312,0.448486,-0.592529,-0.205403,3.306646,9.22401,-0.003386,0.006319,0.00686,-0.695557,0.074219,-0.424805,-0.645352,4.303367,8.853456,-0.006543,0.00958,0.000703,-0.257812,0.594238,0.767578,-0.137952,3.739685,9.129212,-0.016597,-0.005566,0.008617,0.637939,-0.068359,-0.11499,-0.309042,3.24707,9.260775,0.012327,-0.00292,-0.005538,0.370605,-0.196777,-0.570557
0.174069,-0.90598,9.836213,-0.004832,0.000471,-0.001666,-0.071777,0.446533,-0.602051,-0.284991,3.301649,9.238933,-0.020332,0.012908,0.009788,-0.692627,0.073486,-0.422119,-0.72914,4.284398,8.802876,-0.0049,0.007966,0.000783,-0.261475,0.590088,0.770264,-0.176232,3.71802,9.104619,0.003092,0.016462,0.01031,0.63623,-0.068604,-0.111816,-0.280134,3.252943,9.232884,-0.010162,-0.002986,-0.002437,0.371094,-0.19873,-0.583984
0.1633,-0.893937,9.818033,0.004549,0.007792,0.000572,-0.072998,0.443359,-0.597656,-0.246648,3.281396,9.216169,-0.006729,-0.001977,0.005001,-0.690674,0.071289,-0.412842,-0.659668,4.302616,8.835907,0.002497,-0.005044,-0.000418,-0.256592,0.583008,0.77417,-0.208199,3.769916,9.1225,0.006706,-0.003757,0.013202,0.639648,-0.079346,-0.107422,-0.329966,3.201566,9.241507,-0.002051,0.00849,-0.003158,0.368408,-0.200928,-0.579834
0.142987,-0.878032,9.786129,-0.000939,0.003131,-0.001679,-0.06958,0.439697,-0.593994,-0.266569,3.321355,9.24012,0.000264,0.015249,0.008224,-0.698975,0.075439,-0.413818,-0.672449,4.302425,8.854838,-0.013908,0.015783,0.002419,-0.257324,0.59668,0.775146,-0.165774,3.739145,9.127105,-0.024486,-0.005289,0.006773,0.641602,-0.065674,-0.105957,-0.328626,3.263926,9.244321,0.022245,-0.009222,-0.006723,0.373779,-0.207764,-0.576904
0.172378,-0.902576,9.82306,-0.010015,-0.00426,-0.000775,-0.069336,0.450195,-0.591064,-0.27292,3.310726,9.238263,-0.025345,0.000465,0.006992,-0.688965,0.078613,-0.413086,-0.699688,4.276708,8.809106,-0.00168,-0.005688,0.002042,-0.260498,0.595459,0.770264,-0.165374,3.700263,9.103306,-0.003291,0.013157,0.011708,0.636719,-0.066406,-0.11377,-0.265169,3.258354,9.255498,-0.022281,-0.004671,0.001702,0.376221,-0.19458,-0.573975
0.182962,-0.90621,9.815026,0.008209,0.005361,0.00043,-0.07373,0.451416,-0.597412,-0.215819,3.278527,9.214114,-0.004035,0.007259,0.00758,-0.688477,0.075439,-0.412842,-0.648111,4.317484,8.84495,-0.002719,0.006165,-0.000497,-0.261475,0.581299,0.769287,-0.19524,3.738987,9.154424,0.005944,0.001846,0.012758,0.63501,-0.080811,-0.111328,-0.309809,3.196578,9.212944,0.004414,0.011453,-0.005863,0.369385,-0.196289,-0.580811
0.151676,-0.872473,9.773736,0.006848,0.007073,-0.000485,-0.075439,0.4375,-0.5979,-0.286242,3.312493,9.244709,-0.002107,0.011102,0.006125,-0.702881,0.074463,-0.421875,-0.700328,4.287808,8.814906,-0.008392,0.009693,0.001272,-0.260742,0.590088,0.768799,-0.15652,3.756084,9.092071,-0.011667,-0.006245,0.007015,0.635986,-0.072266,-0.114746,-0.314782,3.259712,9.278095,0.012192,-0.013101,-0.003392,0.370117,-0.210205,-0.582275
0.150729,-0.889667,9.804397,-0.005629,-0.002593,-0.000973,-0.074707,0.443604,-0.599365,-0.249752,3.306605,9.220997,-0.018949,0.000803,0.008552,-0.69873,0.07373,-0.423096,-0.663534,4.297484,8.838115,0.003606,-0.00647,0.001019,-0.251709,0.597656,0.7771,-0.145911,3.723891,9.136012,-0.006888,0.008194,0.012446,0.643066,-0.065186,-0.104004,-0.282474,3.23697,9.25404,-0.007781,0.003152,-0.002903,0.368652,-0.202148,-0.581299
0.180208,-0.913502,9.841397,0.000446,0.000613,-0.00057,-0.067627,0.448975,-0.592285,-0.251856,3.275739,9.232224,-0.010665,0.013285,0.0062,-0.688477,0.074219,-0.408203,-0.687964,4.298235,8.838859,-0.013528,0.013035,0.00168,-0.254395,0.594971,0.769775,-0.193756,3.715897,9.114432,-0.008895,0.006049,0.009152,0.643799,-0.066406,-0.110107,-0.345607,3.240744,9.260031,0.00159,0.003668,-0.003119,0.379639,-0.194092,-0.572998
0.168735,-0.879214,9.801306,0.003681,0.008511,-0.000528,-0.066895,0.447021,-0.597656,-0.261112,3.300581,9.240258,-0.010415,0.002123,0.007561,-0.693848,0.080811,-0.414551,-0.685871,4.285715,8.847439,-0.001623,-0.001006,0.001479,-0.251221,0.587402,0.765137,-0.174704,3.722478,9.10465,0.00229,-0.008182,0.009571,0.643799,-0.074463,-0.116943,-0.297419,3.229927,9.248524,-0.007659,-0.01285,-0.001529,0.378418,-0.195312,-0.579102
0.160057,-0.875674,9.76578,-0.002181,-0.000547,-0.000414,-0.06665,0.441895,-0.602539,-0.240607,3.300779,9.230097,-0.006739,0.009156,0.006675,-0.69873,0.071045,-0.417236,-0.661152,4.296341,8.852444,-0.001566,0.003677,0.000919,-0.258545,0.594971,0.769043,-0.164875,3.744171,9.1269,-0.004518,0.008599,0.01177,0.636719,-0.069336,-0.11499,-0.288929,3.242232,9.232156,0.011722,0.011151,-0.005249,0.376221,-0.202881,-0.586426
0.159292,-0.898042,9.809459,-0.003495,-0.00044,-0.000944,-0.075195,0.450928,-0.599365,-0.276947,3.307997,9.234645,-0.01515,0.007819,0.009179,-0.690186,0.066895,-0.414551,-0.686402,4.297473,8.816309,-0.002666,0.00667,0.002087,-0.25,0.587891,0.767578,-0.19962,3.748894,9.11791,-0.010941,0.001177,0.00974,0.647949,-0.077393,-0.11084,-0.329808,3.255559,9.255033,-0.003219,-0.00589,-0.002827,0.371826,-0.195312,-0.583252
0.178105,-0.895956,9.810823,0.005089,0.005192,0.000773,-0.062988,0.440186,-0.598389,-0.231607,3.281894,9.215445,-0.011232,0.002136,0.004865,-0.688232,0.068115,-0.413574,-0.677552,4.312895,8.847925,-0.008192,0.001262,0.000118,-0.261475,0.584961,0.773193,-0.154434,3.72642,9.125565,-0.00863,-0.004343,0.010031,0.633789,-0.076172,-0.111328,-0.283665,3.229844,9.231258,-0.00136,-0.004992,-0.002218,0.380615,-0.204834,-0.580322
0.14797,-0.884995,9.791371,0.001267,0.002874,-0.001072,-0.076416,0.437744,-0.5979,-0.255085,3.299003,9.23778,-0.007107,0.012633,0.009157,-0.691162,0.079346,-0.411865,-0.680935,4.279043,8.817665,-0.008154,0.005952,0.00375,-0.249268,0.593994,0.768066,-0.176178,3.726705,9.116303,8.3e-05,0.011443,0.00976,0.649414,-0.068359,-0.11499,-0.303929,3.234584,9.259908,-0.002134,0.004889,-0.004362,0.371338,-0.20459,-0.577881
0.169044,-0.904735,9.792903,-0.000445,0.000762,-0.000647,-0.062744,0.44751,-0.601807,-0.267988,3.295242,9.232003,-0.0099,-9.8e-05,0.005954,-0.687744,0.070068,-0.422119,-0.676178,4.299243,8.820378,0.001229,0.002186,-0.003337,-0.251953,0.59668,0.775146,-0.192996,3.75927,9.138285,0.00122,-0.001223,0.011684,0.645752,-0.065674,-0.101318,-0.30778,3.212105,9.241525,0.003552,-0.002388,-0.001216,0.381592,-0.197754,-0.586426
0.166395,-0.882798,9.792754,0.002087,0.003759,-0.000356,-0.066406,0.451904,-0.590332,-0.230822,3.296858,9.219876,-0.012139,0.01134,0.008035,-0.689941,0.069824,-0.418457,-0.688075,4.312507,8.844073,-0.00616,0.008397,0.002576,-0.260498,0.591309,0.78125,-0.165674,3.728626,9.126787,-0.021662,-0.005046,0.007096,0.637939,-0.069824,-0.102295,-0.29434,3.255539,9.249253,0.008901,-0.004201,-0.006964,0.376465,-0.193604,-0.573242
0.147355,-0.889066,9.782744,-0.002252,0.001862,-0.000992,-0.073975,0.446533,-0.5896,-0.272227,3.296002,9.221654,-0.012695,0.004649,0.007674,-0.683594,0.07373,-0.41626,-0.678204,4.297461,8.82109,-0.005289,0.000781,0.001022,-0.253174,0.590332,0.773926,-0.163174,3.694796,9.118941,-0.003153,0.010188,0.011863,0.644531,-0.071777,-0.109131,-0.29523,3.248185,9.226562,-0.015818,-0.000208,-0.001014,0.371094,-0.200684,-0.56958
0.165265,-0.896273,9.810266,-0.001384,0.002516,-0.001109,-0.06665,0.443115,-0.594482,-0.234317,3.305991,9.220779,-0.002721,0.005347,0.006142,-0.693359,0.072998,-0.420654,-0.685523,4.305237,8.837454,-0.007776,0.001639,0.000395,-0.259766,0.60083,0.776611,-0.200132,3.7502,9.130804,0.002821,-0.001532,0.010127,0.637451,-0.062256,-0.108398,-0.321538,3.212338,9.258735,0.005047,0.003713,-0.005591,0.378174,-0.200928,-0.577148
0.173889,-0.891225,9.819594,-0.000749,-0.001919,-0.001355,-0.075684,0.455566,-0.595459,-0.253579,3.303021,9.256101,-0.018286,0.007803,0.007878,-0.694336,0.072266,-0.413818,-0.672644,4.279107,8.822411,-0.005497,0.009211,0.002188,-0.261719,0.59082,0.778076,-0.13532,3.740218,9.114673,-0.01023,-0.003165,0.00669,0.63623,-0.072021,-0.108887,-0.300683,3.259595,9.260852,0.011863,-0.010877,-0.003822,0.37207,-0.190186,-0.576416
0.174772,-0.904237,9.815357,0.001006,0.00758,0.000461,-0.072754,0.445312,-0.593018,-0.23517,3.278935,9.211953,-0.011455,0.006874,0.008222,-0.691895,0.06665,-0.421875,-0.704786,4.296159,8.822646,0.003034,0.004699,-0.001262,-0.257568,0.590576,0.766602,-0.199397,3.729836,9.119272,-0.005172,0.017947,0.013339,0.641357,-0.071777,-0.11499,-0.274847,3.243434,9.197918,-0.013767,0.003625,-0.001872,0.370605,-0.197998,-0.574463
0.134582,-0.867355,9.760231,0.012267,0.002396,0.001773,-0.070557,0.442627,-0.602539,-0.278863,3.322427,9.234767,0.001618,0.009807,0.007718,-0.692627,0.07373,-0.413574,-0.67574,4.308573,8.840736,-0.007066,-0.002785,0.003111,-0.258057,0.59375,0.771973,-0.213749,3.729897,9.132884,-0.006504,-0.009685,0.008642,0.641602,-0.069092,-0.109619,-0.356028,3.221977,9.253355,0.003919,0.011027,-0.004214,0.374512,-0.201172,-0.585449
0.171526,-0.868007,9.797799,-0.013461,-0.003554,-0.003774,-0.070068,0.44873,-0.595703,-0.251202,3.316539,9.228272,-0.019987,-0.000789,0.005949,-0.692139,0.075684,-0.417725,-0.665,4.298973,8.839115,-0.013797,0.009461,-0.00181,-0.257812,0.595215,0.774658,-0.111429,3.733486,9.097007,-0.008782,-0.008607,0.008909,0.63916,-0.070312,-0.109375,-0.301895,3.250729,9.271739,0.005716,-0.023891,-0.001233,0.374268,-0.196045,-0.575195
0.195249,-0.94176,9.847495,-0.001385,-0.000234,0.001325,-0.068848,0.448486,-0.596191,-0.246422,3.279064,9.243187,-0.01515,0.014477,0.009879,-0.693848,0.073486,-0.421875,-0.709598,4.259462,8.83023,-0.005684,0.006138,0.003344,-0.252197,0.592041,0.768555,-0.179325,3.715687,9.127694,-0.00311,0.028205,0.012697,0.644531,-0.068848,-0.111572,-0.225538,3.240684,9.192321,-0.007179,0.008975,-0.002747,0.373779,-0.198242,-0.578125
0.141762,-0.86699,9.782648,0.01236,0.013677,-0.000469,-0.065186,0.447021,-0.602051,-0.284986,3.293459,9.235151,0.00208,0.001863,0.005775,-0.69043,0.075684,-0.413086,-0.661836,4.311743,8.821408,0.009498,-0.003798,-0.000885,-0.256836,0.595215,0.769531,-0.233744,3.749932,9.123919,0.00234,-0.007649,0.008653,0.63916,-0.068604,-0.112549,-0.352107,3.199113,9.280429,-0.004639,0.01324,-0.005254,0.376221,-0.196777,-0.578125
0.12438,-0.868217,9.73781,-0.006402,-0.005083,-0.001306,-0.07251,0.447266,-0.600098,-0.237046,3.312357,9.228253,-0.008352,0.005933,0.007622,-0.689941,0.076172,-0.419434,-0.66563,4.329293,8.83421,-0.007836,0.014716,-9e-05,-0.258301,0.586426,0.764893,-0.116033,3.75368,9.133524,-0.01658,-0.01534,0.009184,0.638916,-0.075928,-0.113281,-0.322364,3.259362,9.249426,0.022427,-0.023403,-0.004747,0.369873,-0.196533,-0.583008
0.191391,-0.919525,9.847401,-0.00652,-0.002444,-0.001052,-0.072266,0.44043,-0.599609,-0.259489,3.306512,9.24033,-0.024373,0.00999,0.008049,-0.689697,0.063232,-0.416504,-0.71018,4.283223,8.804569,-0.012511,-0.005088,0.003174,-0.257324,0.602539,0.774414,-0.172508,3.706028,9.106788,-0.007587,0.028644,0.009918,0.63916,-0.060547,-0.106689,-0.241243,3.277195,9.244827,-0.017446,0.003624,-0.002484,0.370605,-0.204346,-0.581787
0.181946,-0.898111,9.803058,0.012102,0.008016,0.000426,-0.069824,0.456299,-0.596191,-0.241098,3.262455,9.217649,-0.00605,-0.000118,0.008405,-0.688232,0.077637,-0.430908,-0.624944,4.288144,8.827967,-0.001551,0.001579,-0.000132,-0.257812,0.593994,0.775391,-0.226924,3.741445,9.132134,0.010459,-0.005326,0.013676,0.638916,-0.069336,-0.105713,-0.338806,3.189945,9.257622,-0.010694,0.01316,-0.000928,0.372314,-0.189941,-0.578125
0.150473,-0.864409,9.761726,0.002861,0.006248,-2.5e-05,-0.069824,0.445801,-0.595459,-0.24596,3.318549,9.238784,0.004354,0.013959,0.00645,-0.697998,0.066406,-0.418701,-0.726624,4.293019,8.852597,-0.0054,0.020141,0.000575,-0.259521,0.593994,0.775391,-0.151572,3.735273,9.125693,-0.018291,-0.011184,0.005688,0.63916,-0.069824,-0.110352,-0.316807,3.24594,9.248904,0.028979,-0.019847,-0.006226,0.374512,-0.198242,-0.575684
0.161671,-0.903182,9.793171,-0.008185,-0.004785,-0.00146,-0.071533,0.445557,-0.597412,-0.281102,3.304666,9.232371,-0.025541,0.002016,0.008661,-0.692139,0.070557,-0.416992,-0.674184,4.303963,8.83368,0.006409,-0.016834,0.00249,-0.251953,0.602051,0.772217,-0.158698,3.714978,9.091347,-0.00333,0.017077,0.012045,0.642822,-0.064941,-0.11084,-0.257414,3.263083,9.249572,-0.018187,0.005995,-3.6e-05,0.372314,-0.197754,-0.577881
0.180383,-0.910899,9.820643,0.000351,0.002449,-0.000124,-0.06543,0.452393,-0.595947,-0.214308,3.279658,9.202789,-0.009163,0.00595,0.004927,-0.691895,0.068848,-0.414551,-0.628811,4.316846,8.846638,-0.013881,0.015754,-0.000709,-0.250732,0.591797,0.777344,-0.210191,3.736511,9.150144,-0.006182,-0.000197,0.011349,0.645996,-0.068604,-0.10376,-0.342759,3.212484,9.247194,4.5e-05,0.008093,-0.003362,0.37793,-0.191406,-0.578369
0.147604,-0.882657,9.81408,0.005065,0.005992,0.000583,-0.064209,0.445801,-0.591553,-0.281798,3.314183,9.257394,-0.005795,0.012593,0.009984,-0.695801,0.065918,-0.419922,-0.759156,4.263954,8.830999,-0.011777,0.007189,0.003794,-0.255127,0.595459,0.769775,-0.150878,3.729632,9.098443,-0.007058,-0.005566,0.007948,0.64209,-0.066162,-0.112305,-0.275101,3.239825,9.248764,0.005005,-0.019746,-0.002708,0.37915,-0.197998,-0.57666
0.160434,-0.89869,9.780108,-0.001335,0.002284,-0.001941,-0.067139,0.447266,-0.599121,-0.258043,3.299743,9.215499,-0.008215,0.000857,0.005254,-0.692871,0.071289,-0.414062,-0.63953,4.303493,8.837802,0.007184,-0.010309,-0.000576,-0.261475,0.587402,0.770996,-0.175723,3.740791,9.127702,0.005519,0.010594,0.014586,0.632812,-0.076416,-0.110107,-0.277229,3.225024,9.236459,-0.002378,0.017027,-0.003029,0.376221,-0.19458,-0.579834
0.177747,-0.901293,9.816337,-0.000375,-0.001646,-6.9e-05,-0.077881,0.439453,-0.596924,-0.25084,3.306583,9.242942,-0.012477,0.011616,0.008888,-0.690918,0.069824,-0.421631,-0.65319,4.297841,8.835334,-0.00886,0.021331,0.000527,-0.254395,0.590576,0.77124,-0.179382,3.749033,9.137691,-0.014808,-0.001917,0.006703,0.643555,-0.073486,-0.112793,-0.363132,3.27098,9.289429,0.011384,-0.003498,-0.006148,0.366699,-0.205322,-0.578125
0.188397,-0.904599,9.808351,0.001243,0.002301,-4.7e-05,-0.06665,0.441895,-0.598145,-0.262335,3.288028,9.23816,-0.014681,0.003359,0.006294,-0.686279,0.070801,-0.41333,-0.735295,4.291803,8.826248,-0.004865,-0.005113,0.001286,-0.254395,0.593994,0.772705,-0.143543,3.703234,9.094062,-0.010035,-0.002387,0.008839,0.643311,-0.069824,-0.110107,-0.244799,3.254235,9.226629,-0.012521,-0.019957,0.002044,0.376709,-0.20166,-0.577637
0.165946,-0.883973,9.806898,0.005161,0.00553,-0.00108,-0.067871,0.445068,-0.597168,-0.23381,3.310042,9.221697,-0.000325,0.009447,0.008264,-0.690186,0.068604,-0.415527,-0.649132,4.309629,8.818206,-0.006266,-0.000454,0.002115,-0.259033,0.59375,0.770264,-0.189744,3.737413,9.113169,0.007479,0.016178,0.011435,0.637207,-0.068848,-0.109375,-0.294384,3.202694,9.235335,-0.000145,0.025309,-0.005367,0.375977,-0.197754,-0.575684
0.154813,-0.862595,9.784321,-4.7e-05,0.001605,-0.000385,-0.073486,0.448486,-0.597656,-0.272461,3.312011,9.246613,-0.013576,0.007484,0.007588,-0.690674,0.077393,-0.416016,-0.687319,4.291991,8.847906,-0.006566,0.012705,0.00074,-0.255371,0.600586,0.773438,-0.206096,3.769758,9.135332,-0.008337,-0.008795,0.00991,0.642822,-0.063965,-0.112549,-0.351938,3.25281,9.294058,0.013358,-0.01106,-0.004231,0.370605,-0.19873,-0.576904
0.167234,-0.905932,9.807075,-0.006965,-0.001682,-0.001701,-0.068848,0.454346,-0.597168,-0.244255,3.275519,9.218323,-0.019897,0.001412,0.007164,-0.695557,0.07373,-0.411865,-0.687907,4.297462,8.832553,-0.001203,-0.003242,0.001224,-0.259766,0.600342,0.769775,-0.121971,3.729657,9.114141,-0.017547,-0.003749,0.008408,0.635986,-0.061035,-0.111328,-0.250079,3.26702,9.243912,-0.004624,-0.014455,-0.001714,0.375488,-0.190918,-0.579102
0.176643,-0.918593,9.825242,0.002064,0.004559,-0.000547,-0.07373,0.453369,-0.598633,-0.265314,3.298415,9.220093,-0.002781,0.012942,0.007237,-0.69873,0.072754,-0.406006,-0.666982,4.31859,8.829953,-0.005261,0.010688,0.000494,-0.259521,0.592773,0.772217,-0.197457,3.711461,9.122225,0.000359,0.023898,0.012328,0.63916,-0.069824,-0.109375,-0.291034,3.228051,9.219634,-0.010607,0.018524,-0.003651,0.371582,-0.188965,-0.579346
0.14683,-0.889885,9.775148,0.007763,0.004743,0.001008,-0.071533,0.443604,-0.596436,-0.256161,3.312519,9.226423,-0.0093,0.003048,0.007198,-0.699463,0.070801,-0.411377,-0.691308,4.282907,8.828073,-0.004694,0.004749,0.000675,-0.252441,0.591064,0.769775,-0.21806,3.752744,9.124541,0.00177,-0.012055,0.010482,0.644775,-0.072266,-0.112793,-0.3494,3.217388,9.258486,0.008939,-0.008685,-0.002399,0.371826,-0.200684,-0.578857
0.155893,-0.888367,9.775892,-0.003096,0.000404,-0.000686,-0.064941,0.443604,-0.599365,-0.236131,3.304342,9.205119,-0.014799,0.008412,0.008651,-0.69165,0.078857,-0.423828,-0.670571,4.297118,8.841473,-0.007321,0.001995,0.002736,-0.25708,0.599121,0.770264,-0.122711,3.739614,9.111944,-0.016039,-0.005527,0.007251,0.641846,-0.06543,-0.114014,-0.2716,3.266115,9.249262,0.012729,-0.00784,-0.004465,0.37793,-0.202148,-0.578857
0.175486,-0.913133,9.812271,-0.002158,-0.001349,-0.000223,-0.068848,0.450439,-0.601074,-0.272864,3.291044,9.231183,-0.012802,0.006513,0.008385,-0.692139,0.075928,-0.412354,-0.671993,4.289598,8.821085,-0.002702,0.006672,0.001076,-0.262451,0.58374,0.774658,-0.17961,3.71039,9.09755,-0.005177,0.020547,0.011771,0.637207,-0.075684,-0.111328,-0.287827,3.251114,9.254317,-0.019687,0.009193,0.000348,0.375977,-0.194336,-0.582031
0.163035,-0.891936,9.811452,0.005511,0.006603,1.5e-05,-0.075684,0.438721,-0.595703,-0.225876,3.288659,9.246266,-0.00322,0.004358,0.006121,-0.688965,0.071777,-0.416748,-0.695419,4.309982,8.847527,-0.003439,0.005361,-6e-05,-0.254395,0.59082,0.767822,-0.209412,3.748145,9.149197,-0.000672,-0.005413,0.009027,0.645264,-0.073486,-0.113281,-0.322666,3.206127,9.252169,0.0066,-0.00372,-0.00532,0.370361,-0.206543,-0.579102
0.141914,-0.871466,9.788194,-4.5e-05,0.002978,-0.001602,-0.065918,0.446289,-0.602295,-0.266528,3.308964,9.22619,-0.01346,0.010964,0.008201,-0.685547,0.072998,-0.40332,-0.685389,4.295281,8.824402,-0.005403,0.002378,0.002655,-0.262207,0.591797,0.77124,-0.133133,3.727722,9.117088,-0.008311,-0.004729,0.007936,0.634521,-0.072998,-0.105957,-0.278045,3.271356,9.243912,0.014014,-0.007951,-0.003438,0.375,-0.198975,-0.579834
0.164496,-0.909463,9.79854,-0.006471,-0.002674,-0.001887,-0.074707,0.444092,-0.595215,-0.261043,3.292498,9.219216,-0.012559,0.001432,0.007533,-0.688721,0.070801,-0.419678,-0.65762,4.294652,8.83751,-0.000589,0.001769,-0.000173,-0.256104,0.585938,0.768555,-0.184246,3.748147,9.117281,-8.2e-05,0.014268,0.011911,0.639404,-0.077881,-0.115967,-0.298547,3.22503,9.258028,-0.013368,0.00801,-0.000265,0.369141,-0.199463,-0.577393
0.180147,-0.899289,9.839,0.002509,0.003798,0.0001,-0.070068,0.437988,-0.603516,-0.244535,3.299932,9.229383,-0.005224,0.009762,0.005486,-0.699219,0.071289,-0.416748,-0.682616,4.294906,8.838384,-0.013877,0.008952,0.000856,-0.248291,0.588623,0.771484,-0.198909,3.729522,9.118611,-0.019605,-0.003213,0.008915,0.646484,-0.074707,-0.111572,-0.346437,3.234381,9.270056,0.008177,-0.004834,-0.004488,0.371338,-0.205811,-0.58252
0.162887,-0.887895,9.776577,0.000353,0.003822,-0.00134,-0.063232,0.443115,-0.598389,-0.273979,3.301161,9.237438,-0.018263,0.00648,0.008468,-0.699219,0.073486,-0.421143,-0.681864,4.263288,8.82086,-0.000146,4.3e-05,0.003218,-0.262939,0.595459,0.766113,-0.155852,3.701951,9.110118,-0.000902,-0.000395,0.00821,0.634766,-0.066895,-0.113525,-0.251067,3.259298,9.237876,-0.009135,-0.009653,-0.001135,0.380615,-0.20166,-0.579102
0.162288,-0.887687,9.776606,0.001315,0.001267,-0.000685,-0.076416,0.449219,-0.600342,-0.251908,3.28716,9.228167,-0.002929,0.006872,0.007892,-0.690186,0.076172,-0.41626,-0.662338,4.315702,8.835936,0.004497,0.005766,-0.002627,-0.250977,0.594971,0.777344,-0.196279,3.767947,9.131268,0.010488,0.010789,0.013515,0.645264,-0.066406,-0.103027,-0.301088,3.207792,9.263094,0.005984,0.018175,-0.00449,0.368896,-0.194824,-0.583984
0.160184,-0.891196,9.811566,0.005,-0.000591,-0.001847,-0.062988,0.450195,-0.591064,-0.279231,3.325269,9.237388,-0.005342,0.008144,0.007127,-0.692871,0.075439,-0.420898,-0.672469,4.304857,8.82589,-0.011787,0.005619,0.002232,-0.265137,0.596191,0.778076,-0.175015,3.743225,9.142066,-0.024115,-0.011259,0.008639,0.631592,-0.067139,-0.102051,-0.371379,3.263248,9.271144,0.010929,-0.011459,-0.004429,0.378906,-0.196045,-0.575439
0.170934,-0.894376,9.803598,-0.003144,0.000635,0.000145,-0.078125,0.448242,-0.589844,-0.236442,3.292137,9.239192,-0.025692,0.002959,0.007448,-0.701172,0.079834,-0.419189,-0.677506,4.294125,8.829765,-0.011641,0.000347,0.002134,-0.250488,0.596924,0.773926,-0.131832,3.69496,9.092545,-0.016096,0.006045,0.009947,0.645752,-0.066406,-0.104736,-0.238135,3.250902,9.231311,-0.015017,-0.013123,0.001167,0.365723,-0.194092,-0.57251
0.180892,-0.898248,9.795581,-0.000634,0.005805,-0.000971,-0.062256,0.44751,-0.591553,-0.269121,3.283997,9.212134,-0.002485,0.012282,0.007391,-0.693115,0.075195,-0.408936,-0.671735,4.270953,8.84603,-0.000781,0.007052,0.000998,-0.252686,0.594971,0.775146,-0.213325,3.719424,9.118368,0.018088,0.018059,0.013004,0.644043,-0.065918,-0.105469,-0.307912,3.206312,9.218314,-0.007656,0.021154,-0.0045,0.380615,-0.195801,-0.574219
0.138294,-0.87112,9.788276,0.004787,0.003882,-0.001147,-0.06665,0.448242,-0.594971,-0.264907,3.327752,9.249292,0.000427,0.002141,0.005819,-0.695312,0.081055,-0.410889,-0.682256,4.304279,8.822184,0.005994,0.001591,0.000141,-0.263184,0.594727,0.775146,-0.207106,3.786988,9.145611,-0.004156,-0.018177,0.009036,0.633789,-0.071289,-0.108398,-0.35249,3.246377,9.287588,0.025002,-0.011282,-0.006708,0.376221,-0.196289,-0.576416
0.169284,-0.889992,9.790534,-0.00476,-0.001937,-0.001095,-0.076416,0.445557,-0.591797,-0.238286,3.306358,9.2199,-0.022069,0.006137,0.008506,-0.689453,0.071777,-0.421875,-0.674348,4.313941,8.832644,-0.009498,0.007961,0.001938,-0.254395,0.594727,0.772217,-0.110231,3.722315,9.112274,-0.031793,0.004128,0.007789,0.641846,-0.066406,-0.109375,-0.260179,3.295292,9.244472,-0.003177,-0.013433,-0.002749,0.367432,-0.200684,-0.576904
0.178093,-0.911276,9.834919,2e-06,0.001373,-0.001217,-0.070801,0.447998,-0.595215,-0.281436,3.269347,9.22008,-0.014195,0.008396,0.008289,-0.696045,0.074951,-0.417236,-0.697322,4.283587,8.815573,-0.010018,0.000308,0.002746,-0.256836,0.584473,0.77002,-0.212032,3.695846,9.108092,0.001652,0.023068,0.012334,0.63916,-0.078857,-0.112061,-0.292786,3.211959,9.240856,-0.026371,0.017102,0.000493,0.375977,-0.196289,-0.575928
0.158157,-0.881726,9.785476,0.009053,0.006811,0.000133,-0.068848,0.438965,-0.60083,-0.2543,3.305651,9.203046,0.004387,0.003731,0.006658,-0.696533,0.070801,-0.412109,-0.667856,4.301137,8.855235,-0.004712,0.003189,-0.000881,-0.253174,0.589111,0.775146,-0.200761,3.758679,9.141966,0.011945,-0.018329,0.011201,0.644531,-0.07373,-0.108398,-0.357312,3.207597,9.240937,0.016898,-0.007402,-0.005504,0.37085,-0.205322,-0.583252
0.146406,-0.86453,9.776006,-0.002698,0.001247,-0.000425,-0.06665,0.442627,-0.592773,-0.258288,3.32643,9.246903,-0.018109,0.011237,0.008443,-0.684082,0.077637,-0.416016,-0.710173,4.288636,8.819231,-0.001244,0.00773,0.001796,-0.253906,0.589844,0.778564,-0.112775,3.746323,9.106254,-0.01751,0.000356,0.006416,0.643555,-0.074463,-0.104004,-0.267702,3.291338,9.250137,0.017206,-0.011417,-0.00567,0.377197,-0.203613,-0.574463
0.165717,-0.893976,9.825475,-0.005581,-0.004195,-0.000595,-0.066162,0.439941,-0.590332,-0.261591,3.279482,9.234978,-0.01997,0.001057,0.008121,-0.69043,0.068359,-0.417236,-0.676932,4.316389,8.818644,0.005501,0.000719,-0.000615,-0.257812,0.5896,0.768066,-0.19236,3.718931,9.111549,-0.008165,0.023205,0.013564,0.637939,-0.071533,-0.111084,-0.287118,3.253462,9.236984,-0.026021,0.011866,0.00095,0.376709,-0.203369,-0.574951
0.177737,-0.897113,9.795743,0.008137,0.006388,0.00108,-0.071777,0.442383,-0.601562,-0.241286,3.308177,9.247676,0.001601,0.008814,0.005862,-0.695312,0.074219,-0.417725,-0.683143,4.294221,8.853214,-0.017326,0.007518,0.002354,-0.259521,0.592529,0.774658,-0.219815,3.723665,9.125396,-0.010229,-0.012015,0.007736,0.636963,-0.069092,-0.10791,-0.357891,3.20016,9.251351,0.011194,-0.004917,-0.004697,0.373291,-0.203369,-0.583984
0.146891,-0.877683,9.771772,-0.003263,0.003272,0.000398,-0.074463,0.445801,-0.594238,-0.280332,3.315099,9.22809,-0.017145,0.007425,0.008125,-0.700684,0.074219,-0.42334,-0.693253,4.275243,8.82317,-0.006234,0.001089,0.003659,-0.258545,0.592041,0.775391,-0.135855,3.720739,9.099203,0.00664,-0.002571,0.009696,0.638672,-0.069336,-0.104248,-0.261274,3.233077,9.24165,-0.000166,-0.012013,-0.002971,0.369141,-0.200439,-0.573975
0.174928,-0.897299,9.817526,-0.003424,-0.002846,-0.000371,-0.07251,0.44751,-0.592773,-0.24382,3.295894,9.237748,-0.009561,0.003658,0.007035,-0.691406,0.080078,-0.421387,-0.659534,4.302189,8.823034,0.003122,0.003627,-0.001298,-0.259277,0.593994,0.773438,-0.20032,3.766528,9.140717,-0.002626,0.021162,0.014175,0.640869,-0.067871,-0.107178,-0.316611,3.241136,9.241885,0.0043,0.015429,-0.002616,0.369873,-0.198242,-0.57666
0.165076,-0.898037,9.816857,0.00516,0.004154,0.000141,-0.070801,0.44751,-0.595703,-0.270393,3.303978,9.224903,-0.010645,0.009356,0.008094,-0.695068,0.069092,-0.4104,-0.688098,4.30862,8.830946,-0.003206,0.007355,0.002947,-0.255615,0.596436,0.772949,-0.198631,3.732072,9.103437,-0.023057,-0.011869,0.006934,0.641846,-0.067139,-0.110107,-0.337535,3.246417,9.270323,-0.002614,-0.009405,-0.003198,0.373047,-0.197754,-0.576172
0.154963,-0.89377,9.803155,0.002136,0.003524,-0.001185,-0.068848,0.448242,-0.599609,-0.240863,3.291315,9.23082,-0.011354,0.002709,0.006181,-0.694824,0.068359,-0.416504,-0.693537,4.299134,8.834166,-0.008883,0.002008,0.00104,-0.256836,0.593262,0.780762,-0.127449,3.697438,9.111492,-0.003525,0.000181,0.010007,0.641357,-0.070068,-0.101074,-0.260992,3.233973,9.224813,-0.003728,-0.008124,-0.001769,0.375,-0.197998,-0.579102
0.174325,-0.887552,9.791442,-0.002227,0.001057,-0.000802,-0.068848,0.445312,-0.587646,-0.267053,3.307028,9.229515,-0.007654,0.011598,0.007621,-0.684082,0.065918,-0.420166,-0.690537,4.286167,8.842964,-0.009938,0.00184,0.003223,-0.255859,0.596436,0.772705,-0.211957,3.731277,9.117427,0.009885,0.017854,0.0127,0.639648,-0.067383,-0.107178,-0.338998,3.230286,9.258511,0.001602,0.014779,-0.006511,0.373047,-0.199951,-0.56958
0.172767,-0.887721,9.813203,0.000493,-0.000992,-0.000184,-0.066162,0.448242,-0.596191,-0.277708,3.296582,9.235983,-0.014922,0.000453,0.006996,-0.696777,0.074951,-0.425537,-0.662615,4.291423,8.840648,8e-05,0.004151,-0.001076,-0.259521,0.594482,0.779297,-0.18032,3.76839,9.132939,-0.011834,-0.016141,0.009821,0.639404,-0.070312,-0.101074,-0.337456,3.246254,9.270383,0.00636,-0.013266,-0.005023,0.373779,-0.196777,-0.575195
0.166332,-0.910464,9.790928,-0.000635,0.00443,0.000245,-0.070557,0.445068,-0.590576,-0.22745,3.278323,9.219747,-0.008557,0.011302,0.005932,-0.692139,0.06958,-0.411377,-0.695891,4.295452,8.835772,-0.005284,0.010681,0.00157,-0.263672,0.597168,0.772705,-0.131447,3.698763,9.106307,-0.023105,0.009927,0.010458,0.634033,-0.065186,-0.10791,-0.271142,3.260681,9.225932,-0.001341,-0.006502,-0.002198,0.372314,-0.197266,-0.572021
0.151396,-0.880767,9.807422,0.002162,0.004094,-0.002209,-0.07666,0.450195,-0.59668,-0.292178,3.290047,9.231092,-0.01109,0.007445,0.007692,-0.683838,0.076172,-0.411621,-0.692906,4.290273,8.828174,-0.000546,-0.003472,0.001873,-0.258545,0.59082,0.776123,-0.213166,3.704177,9.120033,0.011678,0.016028,0.010914,0.637939,-0.071533,-0.108398,-0.305343,3.221899,9.24689,-0.01405,0.015709,-0.005059,0.368652,-0.194092,-0.577148
0.174341,-0.882878,9.756626,0.001315,0.001266,-0.000685,-0.072266,0.442383,-0.595703,-0.25184,3.293284,9.24286,-0.005921,0.001445,0.006731,-0.692139,0.076416,-0.415039,-0.666687,4.319491,8.859688,-0.006835,0.006528,-0.001188,-0.258545,0.59375,0.773438,-0.179294,3.765401,9.163707,0.002484,-0.018082,0.009467,0.636719,-0.070312,-0.108643,-0.350484,3.20353,9.26243,0.019738,-0.011925,-0.004231,0.371094,-0.200928,-0.575928
0.161938,-0.905535,9.82146,-0.002155,2.4e-05,-0.001442,-0.07251,0.447021,-0.597168,-0.254413,3.304728,9.243121,-0.014121,0.012804,0.009276,-0.697998,0.068115,-0.414062,-0.695298,4.281262,8.808438,-0.009777,0.007524,0.002628,-0.255859,0.590332,0.769531,-0.114089,3.734617,9.106464,-0.025908,0.008436,0.008183,0.641357,-0.069336,-0.111084,-0.253057,3.290263,9.249766,0.001689,-0.009604,-0.002377,0.371338,-0.19873,-0.576172
0.162,-0.901167,9.808365,0.002509,0.003796,0.000101,-0.069824,0.445068,-0.598389,-0.285213,3.283244,9.216426,-0.012964,0.000783,0.006464,-0.691406,0.074951,-0.416748,-0.669991,4.297805,8.834725,0.003009,-0.004686,-0.000217,-0.25293,0.591553,0.769043,-0.212139,3.69989,9.092293,0.000817,0.017765,0.014307,0.644043,-0.072021,-0.112061,-0.306859,3.207349,9.234522,-0.023448,0.014906,-0.000928,0.373047,-0.198242,-0.582031
0.160006,-0.883235,9.799563,0.002088,0.003754,-0.000353,-0.068115,0.442871,-0.602051,-0.225562,3.302572,9.216973,-0.00102,0.011627,0.006856,-0.687988,0.070312,-0.420654,-0.681959,4.311097,8.858373,-0.006571,0.0153,0.000259,-0.260986,0.597412,0.770752,-0.198541,3.747921,9.130395,0.000102,-0.016272,0.007162,0.632812,-0.063965,-0.109863,-0.34904,3.211651,9.25181,0.0207,-0.008048,-0.007558,0.376221,-0.201416,-0.58252
0.150421,-0.89326,9.803272,-0.005276,-0.000144,-0.001106,-0.076904,0.449951,-0.597412,-0.288487,3.301062,9.228649,-0.014928,0.005822,0.008359,-0.689453,0.074219,-0.411621,-0.696854,4.29187,8.814486,-0.002878,-0.003192,0.001673,-0.254395,0.590576,0.77002,-0.11471,3.74458,9.104333,-0.005454,0.003118,0.010629,0.643799,-0.068848,-0.111816,-0.256427,3.266968,9.231699,-0.001232,-0.010441,-0.000926,0.367676,-0.195312,-0.580322
0.17927,-0.903898,9.822864,0.001243,0.002299,-4.6e-05,-0.066895,0.44458,-0.5979,-0.235225,3.283579,9.236328,-0.011894,0.003972,0.005883,-0.689209,0.07373,-0.404541,-0.65931,4.307274,8.82258,-0.005809,0.00303,0.002372,-0.255859,0.591797,0.777344,-0.197449,3.728571,9.147871,-0.008603,0.018047,0.012579,0.640869,-0.071777,-0.103516,-0.30482,3.224215,9.229566,-0.008186,0.015901,-0.003426,0.37793,-0.200195,-0.580322
0.160023,-0.89654,9.795327,0.003824,0.005061,-0.000583,-0.068848,0.443115,-0.590576,-0.263589,3.305549,9.222924,-0.007574,0.010634,0.007248,-0.69043,0.079102,-0.419189,-0.711076,4.277542,8.828716,-0.008853,0.012951,0.000545,-0.258301,0.587402,0.771729,-0.200813,3.717185,9.116453,-0.012358,-0.013336,0.007221,0.638428,-0.074219,-0.108398,-0.339104,3.230847,9.258312,0.005502,-0.013276,-0.004404,0.373291,-0.201172,-0.572998
0.15856,-0.887452,9.790944,-0.00054,0.002595,-0.000201,-0.068848,0.439697,-0.592041,-0.238231,3.300497,9.248901,-0.010375,0.00204,0.007482,-0.686523,0.073242,-0.418457,-0.678112,4.297436,8.844625,-0.00016,-0.005686,0.000591,-0.255127,0.594971,0.772461,-0.144048,3.738145,9.116237,0.004677,-0.00059,0.009817,0.643799,-0.067627,-0.108643,-0.264474,3.255361,9.231316,0.000846,-0.004802,-0.001189,0.372803,-0.204102,-0.577393
0.177622,-0.898884,9.80986,-0.002204,0.000255,-0.00061,-0.067627,0.447754,-0.593994,-0.234909,3.290971,9.229505,-0.009946,0.009678,0.006737,-0.697998,0.080322,-0.414062,-0.666349,4.302376,8.810846,-0.004515,0.010419,8.1e-05,-0.252197,0.593262,0.768555,-0.190275,3.755315,9.122553,-0.003718,0.017698,0.012419,0.643799,-0.068115,-0.111084,-0.322318,3.246965,9.236353,0.000878,0.01112,-0.004011,0.374512,-0.197021,-0.578613
0.155619,-0.891853,9.825833,0.003896,0.004028,-0.001221,-0.067139,0.447021,-0.599609,-0.276863,3.283505,9.219159,-0.011321,0.005839,0.007799,-0.694824,0.078369,-0.414551,-0.707667,4.302703,8.852992,-0.001388,0.004646,0.000833,-0.258545,0.5979,0.769775,-0.215693,3.746936,9.110365,-0.009885,-0.009219,0.008575,0.63916,-0.062256,-0.112793,-0.330902,3.234917,9.252638,-0.001969,-0.012622,-0.002959,0.378418,-0.197754,-0.58252
0.167233,-0.881395,9.778633,0.003496,0.001812,-0.000266,-0.073975,0.449707,-0.598877,-0.255024,3.298669,9.232448,-0.004427,0.005242,0.007181,-0.69751,0.080078,-0.422363,-0.669726,4.323972,8.845702,-0.011737,-0.005366,0.001632,-0.250488,0.589355,0.769043,-0.124569,3.705917,9.111918,-0.016279,-0.00355,0.008829,0.644043,-0.075439,-0.111084,-0.285518,3.255428,9.219811,0.006382,0.00089,-0.003923,0.372314,-0.19458,-0.580811
0.174139,-0.889473,9.827291,-0.007085,-0.000418,-0.000238,-0.06543,0.44165,-0.597412,-0.252477,3.31733,9.235949,-0.019528,0.010532,0.009594,-0.688477,0.079346,-0.417236,-0.710278,4.273589,8.844259,-0.008354,0.013817,0.001306,-0.260498,0.591553,0.766846,-0.201849,3.720025,9.128737,0.004566,0.021911,0.0108,0.638184,-0.070068,-0.115479,-0.301646,3.2393,9.258333,-0.005248,-0.0004,-0.001426,0.37915,-0.202393,-0.580566
0.185716,-0.911288,9.828098,-0.001382,0.002511,-0.001111,-0.075439,0.442871,-0.602539,-0.268834,3.249559,9.23802,-0.010679,0.001387,0.007963,-0.693359,0.068848,-0.419922,-0.653628,4.285487,8.839115,0.001422,-0.009883,0.001207,-0.250732,0.591797,0.771729,-0.188571,3.732854,9.141301,-0.000409,-0.017871,0.010488,0.644775,-0.070068,-0.10791,-0.293307,3.197299,9.245092,-0.006482,-0.001504,-0.001824,0.369141,-0.202393,-0.583984
0.185736,-0.894415,9.797418,-0.002325,0.001518,0.00086,-0.066162,0.447266,-0.598877,-0.211868,3.296117,9.237796,-0.003986,0.007505,0.00506,-0.692627,0.078125,-0.41333,-0.692911,4.311868,8.818398,-0.002569,0.021749,-0.000478,-0.255859,0.597168,0.7771,-0.136177,3.726214,9.096302,-0.013997,0.010043,0.008838,0.640869,-0.062988,-0.105469,-0.286339,3.246931,9.230585,0.018094,-0.005064,-0.005734,0.37793,-0.196533,-0.580322
0.129181,-0.91705,9.780359,0.006429,0.00702,-0.000926,-0.069336,0.449463,-0.59082,-0.309707,3.317595,9.22004,-0.011815,0.01339,0.010784,-0.687256,0.074707,-0.418945,-0.742492,4.316299,8.818121,0.008864,-0.004611,0.000527,-0.26123,0.594482,0.765625,-0.227321,3.729203,9.129346,0.00777,0.019075,0.010672,0.635498,-0.067383,-0.112061,-0.299295,3.255764,9.253525,-0.014324,0.005885,-0.000855,0.37793,-0.193359,-0.574951
0.163864,-0.872109,9.774299,0.010131,0.000246,0.00176,-0.074707,0.449463,-0.600342,-0.249423,3.294452,9.231132,-0.010611,-0.004931,0.006203,-0.695068,0.064941,-0.407227,-0.602826,4.345017,8.82859,-0.018652,-0.005607,0.003069,-0.253906,0.589355,0.77002,-0.169076,3.754521,9.145389,-0.015865,-0.027335,0.010652,0.639648,-0.076416,-0.112549,-0.367026,3.227355,9.268883,0.011445,0.003139,-0.004979,0.368408,-0.196289,-0.583008
0.181747,-0.887561,9.828117,-0.010834,-0.005138,-0.001513,-0.068604,0.439697,-0.597412,-0.227946,3.300538,9.233418,-0.019087,0.014648,0.009735,-0.694336,0.073486,-0.4104,-0.718717,4.259634,8.812852,-0.023427,0.022108,0.002875,-0.258789,0.592041,0.769043,-0.088829,3.686334,9.108741,-0.019197,0.013023,0.008081,0.640625,-0.071045,-0.113037,-0.268743,3.269782,9.23152,-0.002468,-0.025696,-0.002418,0.376709,-0.204346,-0.580078
0.202379,-0.912358,9.842777,0.005465,0.008201,-0.000365,-0.072266,0.446289,-0.601562,-0.285161,3.277292,9.225563,-0.005186,0.002686,0.007264,-0.694092,0.06543,-0.42041,-0.702188,4.278989,8.833893,0.017693,-0.010764,-0.000503,-0.260498,0.587158,0.776123,-0.246214,3.713147,9.124953,0.021325,0.02575,0.015143,0.63623,-0.071777,-0.105957,-0.24454,3.188927,9.199663,-0.022998,0.022888,0.001877,0.375244,-0.201416,-0.581543
0.112428,-0.859037,9.761975,0.004502,0.00938,0.000196,-0.073486,0.442627,-0.593506,-0.240531,3.323714,9.218302,0.003417,0.009714,0.006747,-0.692871,0.073486,-0.414551,-0.634467,4.329539,8.848138,0.004519,0.011488,2.1e-05,-0.26001,0.593262,0.776855,-0.19702,3.789781,9.139274,-0.008566,-0.032549,0.007571,0.635742,-0.068115,-0.10376,-0.40283,3.226049,9.291643,0.034083,0.005928,-0.010177,0.369141,-0.204102,-0.575928
0.171641,-0.885066,9.792498,-0.015919,-0.00895,-0.003515,-0.074951,0.447754,-0.589844,-0.276497,3.326066,9.266983,-0.023802,0.005147,0.007571,-0.693848,0.069336,-0.419678,-0.74705,4.297922,8.851847,-0.020859,0.009759,0.001304,-0.260986,0.593994,0.772705,-0.059422,3.694274,9.109653,-0.032189,0.006755,0.009098,0.63623,-0.066406,-0.110352,-0.255379,3.320534,9.261879,-0.001002,-0.033976,0.000541,0.371826,-0.199463,-0.573242
0.18423,-0.946604,9.845848,0.001641,0.003141,0.000217,-0.075439,0.447266,-0.596436,-0.253212,3.252716,9.212886,-0.016638,0.003911,0.007102,-0.69043,0.070801,-0.421387,-0.671596,4.278013,8.82454,-0.010367,-0.015239,0.003898,-0.258301,0.586914,0.77002,-0.214932,3.687154,9.117834,0.007506,0.030649,0.014052,0.638916,-0.075439,-0.111084,-0.242386,3.20449,9.211699,-0.038644,0.027079,-0.000601,0.370605,-0.199707,-0.580322
0.15245,-0.877869,9.764929,0.016441,0.009901,0.00109,-0.070312,0.44043,-0.598389,-0.273017,3.292558,9.237403,0.011135,0.010714,0.005686,-0.694824,0.070312,-0.416992,-0.658146,4.294944,8.832953,-0.000955,0.015987,-0.002482,-0.261963,0.598877,0.771973,-0.202827,3.767577,9.13524,0.011069,-0.029332,0.009462,0.63623,-0.066162,-0.110352,-0.402653,3.173249,9.261188,0.026205,-0.001095,-0.006402,0.375244,-0.203857,-0.57959
0.152089,-0.885232,9.769498,-0.005628,-0.002589,-0.000985,-0.074951,0.449707,-0.595947,-0.248338,3.32276,9.241341,-0.016673,0.002628,0.007727,-0.689697,0.079346,-0.41626,-0.725557,4.285441,8.83279,0.004433,0.007338,0.001097,-0.256592,0.590088,0.773926,-0.08297,3.737894,9.106734,-0.025974,0.001268,0.007175,0.639404,-0.073242,-0.108154,-0.242417,3.310766,9.255802,0.023395,-0.027851,-0.005313,0.368896,-0.195068,-0.577881
0.190577,-0.930104,9.851062,-0.002979,-0.003604,0.000274,-0.072021,0.442139,-0.595703,-0.2456,3.262133,9.221042,-0.024312,0.009553,0.008918,-0.688721,0.075684,-0.417236,-0.645735,4.333209,8.829706,0.000613,-0.007002,0.00221,-0.259521,0.60376,0.771729,-0.218785,3.706599,9.125283,-0.005709,0.036442,0.012176,0.637207,-0.05835,-0.11084,-0.272065,3.246247,9.23007,-0.037316,0.025746,0.001047,0.374756,-0.19873,-0.577637
0.168865,-0.892321,9.818868,0.008169,0.009696,-0.00237,-0.07251,0.45752,-0.596924,-0.268678,3.279342,9.243402,0.007737,0.002113,0.00625,-0.694092,0.072266,-0.415527,-0.672982,4.301102,8.83592,-0.019895,0.016729,0.000783,-0.257812,0.586914,0.77124,-0.228308,3.720061,9.128554,0.000571,-0.022596,0.010748,0.63916,-0.06958,-0.109375,-0.388738,3.170507,9.277921,0.003637,-0.003329,-0.004494,0.371582,-0.187744,-0.577881
0.141057,-0.87352,9.751236,-0.007575,0.001944,-0.001274,-0.071533,0.445801,-0.5979,-0.26257,3.314252,9.23716,-0.011661,0.009624,0.007763,-0.689209,0.070801,-0.4104,-0.72483,4.263898,8.821605,-0.005434,-0.004418,0.004196,-0.258301,0.59375,0.773438,-0.093746,3.725197,9.082693,-0.003769,-0.005946,0.00785,0.640625,-0.070068,-0.110596,-0.26505,3.247672,9.241812,0.022487,-0.020324,-0.004773,0.371582,-0.201904,-0.579346
0.181813,-0.923512,9.802296,-0.00687,-0.004887,-0.000941,-0.070557,0.445068,-0.597412,-0.274006,3.295383,9.232241,-0.020018,0.004186,0.008153,-0.705566,0.069336,-0.419189,-0.641436,4.300694,8.826393,0.010491,0.000585,-0.001962,-0.258301,0.591309,0.776367,-0.193251,3.742557,9.118721,-0.000977,0.030542,0.014358,0.639893,-0.073242,-0.102783,-0.284369,3.263347,9.24231,-0.013227,0.021765,-0.001216,0.373779,-0.198486,-0.578125
0.168781,-0.91072,9.827666,0.012198,0.006172,1e-06,-0.070312,0.441162,-0.592773,-0.241089,3.296346,9.229282,-0.003042,0.005543,0.007007,-0.693115,0.072754,-0.410889,-0.689563,4.323758,8.852425,-0.008078,0.016849,0.00013,-0.251221,0.593018,0.767578,-0.224485,3.738615,9.129578,-0.020632,-0.017885,0.007381,0.647705,-0.071045,-0.114502,-0.363202,3.205472,9.279091,-0.001742,-0.007886,-0.003824,0.374023,-0.202148,-0.574707
0.150215,-0.880403,9.756474,0.003798,0.004488,0.000444,-0.062988,0.444336,-0.598633,-0.274954,3.298624,9.245332,-0.01069,0.008958,0.009078,-0.699219,0.073975,-0.414551,-0.705488,4.284472,8.819388,-0.011005,-0.00668,0.00431,-0.264648,0.594727,0.774414,-0.096264,3.693515,9.098526,-0.005578,-0.005052,0.009127,0.631836,-0.067627,-0.105225,-0.237467,3.243338,9.241793,0.002645,-0.015325,-0.002321,0.380859,-0.200439,-0.58252
0.167296,-0.895863,9.810317,-0.004687,-0.002969,-0.001739,-0.078369,0.445312,-0.593506,-0.266411,3.296717,9.229042,-0.010596,0.003934,0.006686,-0.694336,0.078369,-0.421143,-0.660974,4.28378,8.827834,-0.002751,0.005111,0.000597,-0.256592,0.596191,0.774414,-0.206397,3.740169,9.133374,0.018247,0.029096,0.014391,0.638916,-0.068848,-0.106689,-0.316281,3.234325,9.235576,-0.001296,0.020554,-0.003894,0.364502,-0.197998,-0.572754
0.186687,-0.90737,9.829243,0.00122,0.003098,-0.000238,-0.070557,0.449463,-0.594482,-0.26255,3.294845,9.221215,-0.008251,0.00896,0.009221,-0.693848,0.066895,-0.413818,-0.684877,4.304545,8.817531,0.000375,0.008739,-0.000687,-0.257568,0.592041,0.77832,-0.204569,3.762015,9.13301,-0.017877,-0.01958,0.006734,0.639404,-0.071533,-0.101074,-0.364368,3.251603,9.270062,0.009779,-0.007434,-0.003642,0.37207,-0.195312,-0.576172
0.163772,-0.878892,9.823195,-0.001428,0.004112,-0.001497,-0.071289,0.443359,-0.590576,-0.250918,3.301399,9.240325,-0.012509,0.004879,0.006571,-0.69458,0.07373,-0.414307,-0.68638,4.297895,8.833206,-0.002594,0.001398,0.002047,-0.257812,0.593994,0.773438,-0.100072,3.694816,9.093391,-0.026341,-0.003663,0.009227,0.639893,-0.066406,-0.109863,-0.261805,3.273391,9.22596,-0.004615,-0.016263,-0.002297,0.371094,-0.202881,-0.571533
0.158635,-0.902136,9.779103,-0.002349,0.002319,0.000666,-0.071777,0.448975,-0.594971,-0.264091,3.297384,9.234547,-0.009485,0.010255,0.007762,-0.693115,0.078857,-0.425293,-0.678238,4.306314,8.807874,-0.012646,0.005371,0.001171,-0.260498,0.596191,0.777344,-0.20572,3.680473,9.097755,0.011253,0.032968,0.014926,0.636963,-0.069336,-0.105225,-0.285707,3.201902,9.222676,-0.01574,0.019261,-0.002622,0.374023,-0.199219,-0.576904
0.166595,-0.901353,9.801574,0.000543,-0.001222,-0.001015,-0.074219,0.446533,-0.591797,-0.258746,3.281618,9.227202,-0.010841,0.002339,0.006792,-0.695312,0.069092,-0.418457,-0.683682,4.296914,8.810998,0.001577,0.002587,0.000137,-0.259277,0.591553,0.770508,-0.225037,3.777183,9.1084,0.012128,-0.023305,0.009656,0.635986,-0.070312,-0.109375,-0.353948,3.224001,9.269263,0.01364,-0.004487,-0.0045,0.369629,-0.199707,-0.57373
0.156622,-0.901665,9.800927,0.004713,0.003539,0.000715,-0.073242,0.446045,-0.597412,-0.245661,3.309056,9.225072,-0.004914,0.007765,0.006267,-0.690918,0.078125,-0.411133,-0.680111,4.304195,8.845239,-0.008908,0.008778,0.001615,-0.256104,0.594482,0.774902,-0.085386,3.741025,9.132346,-0.033438,-0.002564,0.008232,0.641357,-0.070312,-0.110107,-0.267628,3.287136,9.226353,0.017967,-0.015523,-0.004192,0.370361,-0.200195,-0.578857
0.154334,-0.88767,9.805256,0.003026,0.002001,0.000112,-0.069092,0.447021,-0.595215,-0.290418,3.294922,9.235276,-0.019204,0.009851,0.009699,-0.691895,0.07959,-0.419678,-0.709342,4.296987,8.811802,-0.000644,-0.000838,0.002456,-0.263672,0.600342,0.770996,-0.209829,3.681183,9.092871,-0.005842,0.03218,0.011065,0.632568,-0.062744,-0.111572,-0.285733,3.253911,9.2534,-0.033962,0.015601,0.000732,0.373291,-0.196289,-0.576172
0.164673,-0.877766,9.779788,-0.000467,0.001561,-0.000841,-0.078613,0.45166,-0.598877,-0.244598,3.276449,9.227683,-0.002255,0.000486,0.005788,-0.696533,0.081299,-0.421143,-0.660908,4.304928,8.853887,-0.007644,0.005228,-0.000189,-0.266113,0.592041,0.772949,-0.213266,3.74418,9.140596,0.011226,-0.020639,0.010021,0.632812,-0.068848,-0.111572,-0.365756,3.190736,9.23368,0.012746,2.3e-05,-0.003926,0.366943,-0.19165,-0.579102
0.181276,-0.885299,9.82913,-0.006614,-0.000608,-0.000619,-0.079102,0.447021,-0.595703,-0.249868,3.310163,9.271488,-0.01387,0.011753,0.010397,-0.697021,0.067871,-0.42334,-0.691562,4.277498,8.831345,-0.011581,0.001858,0.003653,-0.259033,0.592773,0.775391,-0.091199,3.754272,9.094884,-0.016541,-0.009625,0.006648,0.63916,-0.071045,-0.109131,-0.266809,3.290978,9.283346,0.018811,-0.018814,-0.005395,0.36499,-0.19873,-0.580566
0.17444,-0.913552,9.819848,-0.003187,0.003607,-0.001461,-0.072021,0.444824,-0.595703,-0.26992,3.27568,9.227829,-0.015297,0.003313,0.005007,-0.69873,0.069092,-0.41748,-0.658761,4.291831,8.826163,0.009855,0.002364,-0.001052,-0.256348,0.594238,0.775635,-0.196421,3.740179,9.099193,0.002347,0.034015,0.014713,0.639404,-0.068848,-0.108154,-0.275418,3.231819,9.201072,-0.025013,0.016273,-0.001139,0.37085,-0.198975,-0.578613
0.155797,-0.901992,9.779162,0.007413,0.003664,-7.2e-05,-0.068848,0.446533,-0.59375,-0.245678,3.298025,9.220435,0.006192,0.00995,0.008954,-0.700195,0.074951,-0.412842,-0.687163,4.311641,8.875335,-0.002483,0.014932,-0.001054,-0.267822,0.593018,0.778076,-0.246561,3.766612,9.174155,-0.010751,-0.011741,0.006626,0.632568,-0.068848,-0.105957,-0.36933,3.219111,9.262978,0.013763,0.001178,-0.006608,0.375488,-0.199707,-0.575195
0.152431,-0.883301,9.792191,0.003026,0.002001,0.000113,-0.078369,0.445801,-0.59375,-0.281521,3.342901,9.258846,-0.016206,0.004881,0.005581,-0.689697,0.068359,-0.414551,-0.681207,4.280388,8.798552,-0.027937,-0.014981,0.007358,-0.253906,0.582764,0.776855,-0.087255,3.667921,9.066112,-0.026472,-0.020181,0.007893,0.639893,-0.078857,-0.109619,-0.276768,3.271465,9.2935,0.003927,-0.020248,-0.001861,0.36377,-0.199951,-0.577393
0.213243,-0.913719,9.814088,-0.014773,-0.006189,-0.001904,-0.068359,0.439453,-0.59668,-0.216843,3.203385,9.203093,-0.034965,-0.001306,0.009223,-0.688232,0.073975,-0.412598,-0.648833,4.287457,8.809425,0.018646,0.019183,-0.003982,-0.258057,0.589844,0.777832,-0.152687,3.746256,9.116717,0.040368,0.036646,0.013757,0.636719,-0.069824,-0.10376,-0.265136,3.196517,9.194253,-0.02933,0.008372,0.001415,0.375,-0.208008,-0.577637
0.134331,-0.920282,9.808496,0.023739,0.017566,6.3e-05,-0.06958,0.445068,-0.591064,-0.281252,3.301459,9.193623,0.041934,0.022835,0.005601,-0.699707,0.074463,-0.413574,-0.766376,4.312246,8.863744,-0.008864,0.00983,-0.002572,-0.255371,0.596924,0.776855,-0.287524,3.808684,9.197078,-0.031583,0.001092,0.011742,0.641357,-0.065674,-0.106689,-0.369732,3.215342,9.205988,0.044496,0.009467,-0.012497,0.373779,-0.200684,-0.572754
0.118482,-0.814457,9.732983,-0.002019,-0.006153,0.00093,-0.067871,0.447754,-0.592041,-0.30367,3.370754,9.273422,-0.043924,-0.006358,0.007403,-0.68335,0.065186,-0.421143,-0.628916,4.302392,8.786155,-0.006279,-0.027109,0.009729,-0.256348,0.593262,0.767822,-0.107561,3.648005,9.045246,-0.027972,-0.044459,0.003684,0.640137,-0.069824,-0.114746,-0.304793,3.32387,9.375189,-0.023384,-0.01613,0.002051,0.376953,-0.195068,-0.574707
0.192637,-0.941588,9.847776,-0.028369,-0.006308,-0.005649,-0.070312,0.446045,-0.601562,-0.179823,3.186003,9.193666,-0.026458,0.005748,0.007221,-0.701172,0.069824,-0.415771,-0.667424,4.289692,8.873337,-0.015648,0.044515,-0.008776,-0.256592,0.592529,0.771484,-0.080907,3.724884,9.168419,0.01762,0.050144,0.017122,0.639648,-0.068604,-0.110596,-0.268032,3.180062,9.091143,-0.001989,-0.006594,-0.003011,0.372803,-0.200684,-0.586182
0.198209,-0.932673,9.887539,0.021688,0.009474,0.003234,-0.071045,0.446777,-0.5979,-0.326243,3.304241,9.24058,0.029102,0.02207,0.008747,-0.697754,0.079102,-0.419678,-0.792589,4.2531,8.800928,-0.000395,-0.022876,0.010483,-0.262939,0.591797,0.772461,-0.348089,3.75035,9.07961,0.003278,0.01322,0.007434,0.632812,-0.067627,-0.109131,-0.299816,3.250536,9.321467,-0.002331,0.017863,-0.005714,0.371582,-0.199951,-0.582031
0.120491,-0.824154,9.693816,0.007856,0.01462,-3e-06,-0.078857,0.445068,-0.596191,-0.24352,3.333909,9.242531,-0.030145,-0.01736,0.005307,-0.690186,0.077393,-0.41626,-0.545326,4.355114,8.855178,0.017173,-0.005306,-0.007465,-0.256348,0.594727,0.771973,-0.103579,3.77699,9.150805,-0.007826,-0.063042,0.011474,0.640137,-0.068604,-0.112549,-0.374833,3.181485,9.248977,0.015286,-0.00199,-0.002473,0.367432,-0.199463,-0.577148
0.150668,-0.896965,9.787957,-0.024435,-0.019713,-0.002255,-0.069336,0.449219,-0.596191,-0.219843,3.268048,9.19982,-0.011063,0.026985,0.00946,-0.697754,0.074219,-0.416504,-0.771002,4.294059,8.824357,-0.032432,0.048082,0.003141,-0.25708,0.5979,0.776367,-0.055519,3.687072,9.082479,-0.043396,0.05443,0.007177,0.640381,-0.064453,-0.104736,-0.257606,3.360837,9.229576,0.022033,-0.030098,-0.008156,0.373291,-0.197021,-0.579102
0.221551,-0.982775,9.893844,0.012496,0.007476,0.001932,-0.070557,0.451904,-0.591064,-0.350731,3.287519,9.241849,-0.01232,-0.003701,0.006542,-0.686768,0.074463,-0.414062,-0.71203,4.267461,8.817778,0.006352,-0.051731,0.005794,-0.263428,0.584717,0.776855,-0.310866,3.687472,9.128891,0.031424,0.015545,0.013946,0.632812,-0.079346,-0.105225,-0.249409,3.156961,9.225476,-0.071292,0.030213,0.009708,0.373535,-0.193359,-0.576172
0.136484,-0.843947,9.760791,0.014892,0.015269,0.001074,-0.077393,0.437012,-0.593506,-0.163526,3.277435,9.222618,-0.00229,0.004925,0.005287,-0.693359,0.070557,-0.413818,-0.563577,4.306827,8.838855,-0.007856,0.039741,-0.006052,-0.267334,0.58667,0.772705,-0.128093,3.802303,9.135548,0.003477,-0.057095,0.007558,0.62915,-0.076416,-0.111328,-0.439409,3.166496,9.260583,0.058964,-6e-05,-0.014282,0.367676,-0.208252,-0.57373
0.110118,-0.881644,9.754624,-0.015221,-0.006798,-0.00134,-0.07959,0.4375,-0.598145,-0.335341,3.335635,9.242815,-0.004782,0.022859,0.010088,-0.698242,0.076172,-0.410645,-0.848641,4.270229,8.851923,-0.000271,0.016216,0.003933,-0.262939,0.594482,0.770508,-0.094411,3.734519,9.121301,-0.031649,0.047753,0.006388,0.635986,-0.069092,-0.109131,-0.195919,3.350115,9.21723,0.010257,-0.04214,-0.000205,0.363281,-0.205322,-0.577881
0.19693,-0.927223,9.852835,-0.003324,-0.003305,-0.002039,-0.073486,0.449707,-0.597656,-0.258319,3.28405,9.229635,-0.029008,-0.013271,0.006616,-0.692627,0.071289,-0.412109,-0.571965,4.335446,8.80741,0.010171,-0.047267,0.000992,-0.266113,0.585693,0.77832,-0.319445,3.694548,9.116888,0.000447,0.00779,0.017802,0.633301,-0.07373,-0.10376,-0.318283,3.217157,9.290248,-0.045061,0.053183,0.001614,0.370117,-0.196533,-0.575684
0.159503,-0.91284,9.797632,0.011066,0.010214,0.001654,-0.077637,0.440674,-0.591553,-0.216091,3.272255,9.242448,0.005454,0.018469,0.009329,-0.686523,0.06958,-0.414795,-0.654926,4.308935,8.845238,-0.036539,0.058875,0.001475,-0.254639,0.589355,0.781494,-0.114227,3.736784,9.129443,-0.005359,-0.04663,-0.0,0.641113,-0.072021,-0.101562,-0.437845,3.176535,9.249313,0.024287,-0.032621,-0.006504,0.367432,-0.202637,-0.57373
0.156308,-0.877335,9.779964,-0.004732,-0.001366,-0.002127,-0.070557,0.445312,-0.592041,-0.304623,3.324511,9.229933,-0.01258,0.002669,0.005274,-0.69751,0.067383,-0.419678,-0.825606,4.219675,8.794485,-0.004152,-0.021525,0.002245,-0.255859,0.592285,0.771973,-0.099011,3.698998,9.091151,-0.003027,0.042823,0.015985,0.641357,-0.069336,-0.110596,-0.139149,3.288439,9.20342,0.007133,-0.020664,0.000399,0.375488,-0.201904,-0.572021
0.168653,-0.920206,9.802842,0.001266,0.001495,0.000149,-0.070312,0.445557,-0.593262,-0.23266,3.265806,9.213409,-0.016855,0.004125,0.00942,-0.690186,0.076416,-0.41626,-0.536346,4.340546,8.833149,0.028025,-0.011177,0.00283,-0.25415,0.593506,0.773682,-0.313297,3.79091,9.15498,0.013134,0.011717,0.009703,0.642578,-0.069824,-0.108887,-0.372134,3.188514,9.27186,-0.022037,0.057353,-0.006479,0.376953,-0.200684,-0.579102
0.164964,-0.893258,9.811387,0.005677,0.002357,0.000158,-0.070068,0.445557,-0.597412,-0.287748,3.307761,9.230092,0.004281,0.01125,0.006344,-0.69165,0.072754,-0.417236,-0.748714,4.342847,8.869007,-0.019052,0.04983,-0.007759,-0.262207,0.597412,0.774414,-0.131056,3.76241,9.136698,-0.037114,-0.04662,0.008144,0.633057,-0.065186,-0.10791,-0.405217,3.266334,9.275907,0.03391,-0.047763,-0.004721,0.374756,-0.199219,-0.576904
0.156427,-0.893631,9.788955,-0.000467,0.00156,-0.000841,-0.075684,0.449219,-0.593018,-0.242783,3.318004,9.245456,-0.021132,0.002289,0.006499,-0.685059,0.074951,-0.424072,-0.726714,4.268751,8.836636,-0.018385,-0.043836,0.012446,-0.254639,0.59082,0.764404,-0.063143,3.649374,9.107426,-0.011674,0.035449,0.009947,0.641602,-0.070801,-0.115479,-0.136401,3.259887,9.20724,-0.027857,-0.002969,-0.000113,0.369385,-0.197021,-0.576904
0.175002,-0.897169,9.803407,-0.00889,0.000678,-0.000597,-0.067627,0.445068,-0.602539,-0.260856,3.234567,9.223683,-0.019527,0.010102,0.010525,-0.682861,0.070557,-0.411865,-0.578014,4.28043,8.812089,-0.005856,0.016092,-0.002177,-0.261475,0.599365,0.768555,-0.277403,3.742102,9.112205,0.03334,0.018724,0.0161,0.63208,-0.064697,-0.112549,-0.38072,3.175216,9.272032,-0.009836,0.038972,-0.002621,0.378662,-0.199707,-0.58252
0.158158,-0.939077,9.810977,0.001595,0.00474,-0.000166,-0.077148,0.450684,-0.602051,-0.25577,3.290234,9.229239,0.013193,0.005595,0.005376,-0.696045,0.071777,-0.412354,-0.788462,4.271499,8.855663,0.012784,0.032659,-0.004575,-0.26001,0.585205,0.774658,-0.158725,3.817907,9.142634,-0.006577,-0.039949,0.00672,0.637695,-0.075195,-0.107178,-0.333473,3.221794,9.239739,0.033736,-0.041098,-0.006639,0.368652,-0.195068,-0.585449
0.144047,-0.873473,9.766227,0.01044,0.005662,4.6e-05,-0.071045,0.438477,-0.594238,-0.274103,3.350717,9.232991,-0.016356,0.009522,0.008954,-0.696289,0.078857,-0.411133,-0.674722,4.34148,8.83169,0.004395,-0.035928,0.004429,-0.259277,0.599854,0.769531,-0.080902,3.707904,9.093939,-0.044224,0.02059,0.010639,0.63208,-0.06543,-0.112061,-0.235033,3.318492,9.232248,0.005035,0.014869,-0.004475,0.371338,-0.207275,-0.57666
0.154891,-0.889384,9.775874,-0.006404,-0.006443,-0.000106,-0.075195,0.45166,-0.599121,-0.252711,3.250716,9.243894,-0.029889,0.001603,0.007196,-0.694336,0.074219,-0.416992,-0.615508,4.31492,8.825143,-0.02959,0.027838,-0.000211,-0.255859,0.589355,0.780029,-0.241075,3.674917,9.115662,0.005694,0.02332,0.013887,0.638916,-0.072021,-0.101074,-0.375591,3.218658,9.250933,-0.043822,0.006746,0.002077,0.369141,-0.190918,-0.582031
0.210959,-0.919193,9.863198,-0.001756,0.000865,-0.001182,-0.072266,0.442871,-0.588623,-0.251506,3.275545,9.235721,0.004143,0.009607,0.007976,-0.699463,0.078125,-0.410156,-0.785183,4.231639,8.831767,-0.011792,0.004016,0.001704,-0.266846,0.594238,0.779053,-0.193116,3.765434,9.12669,0.017828,-0.028158,0.005802,0.629883,-0.068115,-0.102539,-0.273984,3.183035,9.244097,0.021952,-0.021305,-0.004354,0.371826,-0.200928,-0.570068
0.155598,-0.90234,9.77167,0.010627,0.01234,-0.000209,-0.084717,0.446777,-0.588867,-0.285099,3.321492,9.241355,0.000359,0.005216,0.005959,-0.691406,0.075195,-0.41626,-0.613969,4.300249,8.834589,0.019551,-0.019713,0.000403,-0.25708,0.593018,0.770264,-0.102807,3.77544,9.119634,-0.009827,0.008189,0.012605,0.639648,-0.06958,-0.108887,-0.282278,3.28186,9.236761,0.019014,0.016013,-0.008004,0.361572,-0.195068,-0.573975
0.140292,-0.846446,9.753023,-0.007405,-0.000922,-0.002366,-0.071045,0.446289,-0.599854,-0.258116,3.307085,9.223826,-0.026311,0.005689,0.008685,-0.685303,0.066406,-0.418213,-0.690292,4.3246,8.846913,-0.006432,0.03817,-0.002687,-0.255859,0.594482,0.779785,-0.231094,3.725843,9.118865,-0.03193,0.023532,0.01031,0.638916,-0.067139,-0.103271,-0.339494,3.279559,9.281459,-0.010527,-0.005898,0.000492,0.371338,-0.199463,-0.582275
0.175529,-0.946035,9.816889,-0.014352,-0.006146,-0.001458,-0.070312,0.447754,-0.587158,-0.286207,3.251539,9.242045,-0.013221,0.007646,0.008007,-0.693604,0.069092,-0.419434,-0.759638,4.287686,8.836819,-0.008945,-0.014174,0.004569,-0.252197,0.594238,0.764893,-0.183615,3.691705,9.087781,0.005432,-0.022861,0.008231,0.644775,-0.067627,-0.114746,-0.279018,3.198761,9.227305,-0.021209,-0.00815,-0.000897,0.375977,-0.198975,-0.571777
0.191763,-0.913711,9.813701,0.014237,0.010149,0.000495,-0.063721,0.449707,-0.601318,-0.253746,3.316831,9.240537,0.007821,0.002403,0.005289,-0.694092,0.07251,-0.414551,-0.596266,4.299855,8.843734,-0.016498,-0.002201,0.00283,-0.258789,0.591309,0.768799,-0.102026,3.752161,9.109118,0.012755,0.006724,0.011771,0.637451,-0.070557,-0.113525,-0.319457,3.211961,9.23372,0.023032,0.008999,-0.007531,0.37793,-0.197021,-0.585205
0.122167,-0.878638,9.756257,0.00873,0.004926,-0.000749,-0.069336,0.446777,-0.600098,-0.254868,3.315511,9.24098,-0.019632,0.012356,0.008749,-0.698975,0.075439,-0.417725,-0.717316,4.264591,8.820792,-0.002931,0.024976,-0.001185,-0.25293,0.594238,0.772705,-0.217992,3.767719,9.112317,-0.013158,0.01961,0.010902,0.643066,-0.06958,-0.109863,-0.304221,3.278666,9.275973,0.002236,-0.007368,-0.003419,0.371582,-0.197998,-0.582031
0.161545,-0.896656,9.78114,-0.010311,-0.005555,-0.002735,-0.067871,0.448242,-0.597412,-0.257415,3.255356,9.228412,-0.016569,0.001635,0.007262,-0.692871,0.074463,-0.424072,-0.69484,4.312818,8.8648,0.014535,-0.014341,-0.000272,-0.258057,0.594238,0.776123,-0.173994,3.724336,9.1078,-0.022514,-0.020386,0.009573,0.637695,-0.065674,-0.105957,-0.288244,3.241504,9.240249,-0.010069,0.003867,-0.000633,0.375488,-0.197021,-0.579346
0.190298,-0.924859,9.831449,0.003871,0.003453,-0.000191,-0.073486,0.447754,-0.592773,-0.238801,3.290441,9.229759,0.002144,0.008362,0.006592,-0.691406,0.071533,-0.411621,-0.641115,4.330084,8.831111,-0.015458,0.011527,0.000784,-0.257568,0.585938,0.765625,-0.126684,3.686537,9.118994,-0.002053,0.005838,0.00813,0.640625,-0.075684,-0.116455,-0.332705,3.2228,9.22288,-0.002668,-0.003673,-0.003857,0.371338,-0.196045,-0.573975
0.156675,-0.874624,9.802739,0.004547,0.00777,0.000588,-0.071777,0.44165,-0.603271,-0.27615,3.31266,9.233416,-0.019067,0.006627,0.009512,-0.695801,0.073242,-0.415283,-0.735716,4.268032,8.811184,-0.014846,0.007142,0.00143,-0.260498,0.599365,0.769043,-0.203817,3.756666,9.114634,0.013267,0.020653,0.014006,0.638428,-0.062988,-0.112305,-0.281398,3.234798,9.246126,0.002591,-0.004768,-0.002421,0.372314,-0.202637,-0.586182
0.150091,-0.898038,9.780401,-0.010033,-0.002081,-0.00222,-0.071533,0.454346,-0.60083,-0.251152,3.270319,9.225071,-0.008296,0.004872,0.00566,-0.692383,0.072021,-0.42041,-0.666833,4.278626,8.824837,0.006366,-0.00583,0.000922,-0.260254,0.5979,0.780762,-0.198015,3.769769,9.133919,-0.010937,-0.01278,0.008357,0.640625,-0.06665,-0.104248,-0.315712,3.244754,9.240646,0.007482,0.007457,-0.004813,0.372559,-0.191406,-0.579834
0.166879,-0.905536,9.829768,0.003099,0.000968,-0.000523,-0.072021,0.449219,-0.591553,-0.288172,3.300324,9.240273,-0.00404,0.011144,0.008099,-0.695312,0.074951,-0.416748,-0.664504,4.317577,8.840328,0.001103,0.012645,-3e-06,-0.26001,0.585938,0.772705,-0.141748,3.716577,9.113124,-0.022738,-0.002671,0.010382,0.63623,-0.076172,-0.108398,-0.335236,3.259094,9.258132,-0.000465,-0.004982,-0.002821,0.372803,-0.196045,-0.570801
0.168565,-0.900307,9.794984,0.004763,0.003305,-0.000111,-0.07251,0.441162,-0.596191,-0.234714,3.324269,9.238631,-0.016665,-0.000548,0.005978,-0.704346,0.079346,-0.404053,-0.706195,4.317523,8.845886,-0.01083,0.004205,0.001665,-0.252441,0.589111,0.773682,-0.180721,3.695867,9.117606,-0.000483,0.016913,0.011644,0.645264,-0.073975,-0.108643,-0.282634,3.229275,9.222782,-0.007063,-0.005841,-0.001977,0.370361,-0.204102,-0.579102
0.158132,-0.900441,9.794343,0.002034,0.00261,0.001699,-0.064941,0.44043,-0.59375,-0.243535,3.278486,9.233889,-0.011547,0.014887,0.009145,-0.688232,0.072266,-0.413086,-0.685004,4.281533,8.815524,-0.011937,-0.000127,0.003831,-0.25708,0.598145,0.775879,-0.213543,3.743783,9.120139,0.007282,6.6e-05,0.009907,0.643555,-0.063965,-0.106201,-0.297263,3.221768,9.233978,0.000623,0.003077,-0.003727,0.378418,-0.202881,-0.579102
0.15633,-0.895677,9.803057,0.00122,0.003095,-0.000236,-0.068604,0.451904,-0.593018,-0.275085,3.287683,9.229158,-0.002055,0.002974,0.00605,-0.684082,0.077881,-0.413818,-0.672846,4.286152,8.818553,0.004524,0.0047,0.000534,-0.258301,0.59375,0.777344,-0.152552,3.773899,9.122832,-0.000543,-0.013042,0.01125,0.638672,-0.070557,-0.104248,-0.311844,3.221848,9.267758,0.001908,0.002969,-0.002702,0.374268,-0.194336,-0.574707
0.164326,-0.877434,9.794907,-0.001879,0.002127,0.000287,-0.071777,0.442627,-0.593018,-0.228358,3.319005,9.223617,-0.008091,0.007393,0.005933,-0.688477,0.074463,-0.416992,-0.69992,4.317952,8.836921,-0.004701,0.009941,-0.000288,-0.257812,0.593262,0.770752,-0.134256,3.725029,9.134333,-0.02887,0.013469,0.009182,0.638428,-0.070068,-0.111084,-0.317907,3.282706,9.242255,0.016948,-0.008847,-0.005488,0.371338,-0.199951,-0.574219
0.158079,-0.927212,9.807625,-0.006637,0.000192,-0.000819,-0.073242,0.445312,-0.597168,-0.270016,3.283901,9.246072,-0.024401,0.010999,0.010558,-0.687744,0.07666,-0.424316,-0.699012,4.28681,8.818956,-0.00662,-0.002449,0.00227,-0.257324,0.595215,0.768311,-0.21824,3.690257,9.10662,-0.000311,0.010561,0.010522,0.638184,-0.067139,-0.113037,-0.266178,3.241966,9.2516,-0.027814,-0.002699,0.000504,0.369141,-0.198486,-0.580078
0.165939,-0.908855,9.799491,0.006874,0.006252,-0.000267,-0.071289,0.450195,-0.600586,-0.245011,3.276128,9.216478,-0.000463,0.001372,0.006648,-0.695557,0.07959,-0.415527,-0.661598,4.301672,8.827643,-0.005726,0.002984,0.001283,-0.257568,0.591309,0.772217,-0.164791,3.75759,9.141104,0.017821,-0.014935,0.011846,0.639648,-0.07251,-0.110352,-0.332833,3.168068,9.242706,0.005861,0.01309,-0.005687,0.372314,-0.194092,-0.580566
0.144967,-0.887896,9.776162,0.003003,0.002799,-7.7e-05,-0.071045,0.442871,-0.597412,-0.257419,3.316939,9.256627,-0.004306,0.013992,0.00772,-0.696777,0.079834,-0.426025,-0.711858,4.284779,8.838516,-0.008261,0.008515,0.003337,-0.264404,0.594238,0.77417,-0.148372,3.755523,9.128329,-0.022568,0.005485,0.006521,0.635742,-0.064697,-0.105469,-0.331863,3.283376,9.259316,0.026559,-0.017688,-0.007676,0.372314,-0.199951,-0.578857
0.185062,-0.91042,9.792398,-0.005723,-0.000756,-0.000547,-0.076416,0.448242,-0.595703,-0.259639,3.299401,9.234185,-0.022786,0.001294,0.007082,-0.700684,0.075439,-0.408936,-0.668113,4.291323,8.831081,0.002154,0.000824,0.000316,-0.256592,0.597168,0.768555,-0.179898,3.701771,9.117298,-0.012846,0.016082,0.011291,0.63916,-0.065674,-0.112549,-0.249063,3.26721,9.218603,-0.024365,0.000402,0.002517,0.367432,-0.196045,-0.575439
0.172111,-0.907101,9.822099,0.004588,0.004798,0.002191,-0.068115,0.449707,-0.601074,-0.230878,3.278064,9.228847,-0.006667,0.010824,0.007426,-0.694824,0.069092,-0.41626,-0.687129,4.313895,8.8339,-0.004472,0.007759,0.001643,-0.250244,0.596924,0.775635,-0.193856,3.720118,9.114167,0.006936,-0.009216,0.010194,0.646729,-0.06543,-0.107422,-0.342782,3.200858,9.266941,-0.00294,0.018351,-0.005309,0.376221,-0.193115,-0.582031
0.15118,-0.87343,9.781189,0.003008,0.004168,-0.001293,-0.0625,0.448975,-0.593262,-0.279952,3.307137,9.237181,-0.002484,0.006415,0.007046,-0.691406,0.079834,-0.419922,-0.700922,4.300488,8.847488,-0.009377,0.001104,0.001307,-0.258789,0.594971,0.773193,-0.145449,3.755647,9.11693,-0.001439,-0.004247,0.009048,0.636475,-0.06958,-0.108887,-0.31845,3.228718,9.245296,0.017202,-0.023038,-0.003498,0.378418,-0.194824,-0.575439
0.162575,-0.907729,9.799652,-0.007454,-0.000691,-0.001539,-0.071289,0.44873,-0.595703,-0.22461,3.324394,9.247751,-0.018835,0.00508,0.00773,-0.691162,0.073486,-0.414307,-0.666348,4.283484,8.8247,-0.005314,0.002318,0.001557,-0.257568,0.59668,0.77124,-0.164626,3.729308,9.114612,-0.015302,0.017784,0.011288,0.640381,-0.066895,-0.110352,-0.263081,3.26795,9.235642,-0.004232,0.005553,-0.003536,0.373779,-0.199951,-0.57666
0.171969,-0.920622,9.817862,0.00038,0.003011,-0.001146,-0.071045,0.448486,-0.599854,-0.268933,3.281729,9.234438,-0.010774,0.009842,0.007906,-0.694336,0.083984,-0.420654,-0.68611,4.299011,8.843367,-0.001802,0.007904,9.1e-05,-0.256836,0.592529,0.77124,-0.203116,3.726201,9.102621,-0.007231,-0.005612,0.010078,0.636963,-0.070312,-0.107422,-0.354479,3.220027,9.261942,-0.011409,0.009997,-0.001717,0.373535,-0.194824,-0.580811
0.151646,-0.895826,9.781374,0.005586,0.005556,-0.000608,-0.070801,0.447021,-0.593262,-0.232794,3.297405,9.222729,-0.003948,0.001686,0.006169,-0.696533,0.068115,-0.410889,-0.683544,4.293953,8.835694,-0.003405,0.002708,0.001491,-0.256348,0.594727,0.775879,-0.142675,3.719427,9.109575,-0.000962,-0.008376,0.009693,0.641846,-0.068604,-0.107178,-0.304348,3.226462,9.245331,0.010757,-0.017946,-0.004151,0.376709,-0.200684,-0.576904
0.150588,-0.899608,9.794538,-0.001266,-0.001494,-0.00015,-0.067871,0.446777,-0.595215,-0.256001,3.314727,9.245089,-0.010982,0.011364,0.009661,-0.692139,0.078613,-0.418457,-0.682452,4.312395,8.825771,-0.003867,0.003378,0.002288,-0.254639,0.589844,0.773193,-0.149718,3.737802,9.128993,0.000436,0.017756,0.010239,0.640869,-0.07373,-0.112305,-0.259279,3.247976,9.212128,0.000257,0.006799,-0.004175,0.373047,-0.197021,-0.57666
0.159685,-0.902733,9.808405,0.003077,0.001768,-0.000715,-0.067871,0.442139,-0.597412,-0.261453,3.283441,9.231287,-0.013866,0.003203,0.007284,-0.696777,0.066162,-0.414062,-0.680674,4.287585,8.828682,-0.006296,0.000586,2.8e-05,-0.263428,0.591553,0.772217,-0.208105,3.742901,9.12277,-0.008007,-0.004973,0.011091,0.633789,-0.068848,-0.108398,-0.351565,3.242357,9.296867,-0.004204,0.007352,-0.002938,0.375977,-0.201172,-0.581299
0.169264,-0.896932,9.796095,0.001198,0.003894,-0.000428,-0.078613,0.447021,-0.595459,-0.235131,3.290419,9.225164,-0.008124,0.00609,0.006546,-0.684814,0.07666,-0.414062,-0.676891,4.293589,8.863539,-0.0106,0.007244,0.001564,-0.252197,0.596191,0.775635,-0.133613,3.715001,9.133952,-0.018382,-0.008596,0.007814,0.642578,-0.06543,-0.10498,-0.30344,3.236021,9.234184,0.006542,-0.017176,-0.003736,0.365479,-0.200684,-0.577393
0.148111,-0.895159,9.803231,-0.006682,0.001792,-0.001207,-0.066162,0.448486,-0.593262,-0.269899,3.284809,9.229457,-0.01277,0.010433,0.008781,-0.696045,0.081787,-0.413818,-0.69527,4.273121,8.806319,0.000821,0.002826,0.001636,-0.259766,0.593262,0.770508,-0.165182,3.695331,9.101813,0.011556,0.01981,0.011996,0.637939,-0.070312,-0.113037,-0.25373,3.233538,9.228501,-0.010493,0.003982,-0.002272,0.378174,-0.194824,-0.573975
0.169203,-0.915508,9.804887,0.002185,0.001915,-0.000794,-0.071289,0.447021,-0.598877,-0.23207,3.29372,9.229877,-0.003687,0.003267,0.006067,-0.692139,0.072998,-0.41333,-0.671364,4.333328,8.856162,0.005285,0.004455,-0.000945,-0.258545,0.589111,0.776367,-0.218539,3.782382,9.149169,0.007683,-0.004622,0.011442,0.638184,-0.071777,-0.106201,-0.35021,3.200762,9.238192,0.007504,0.009263,-0.004217,0.37207,-0.199707,-0.581055
0.147417,-0.890286,9.790194,0.006869,0.004881,0.000953,-0.072021,0.441162,-0.592041,-0.245803,3.311415,9.235319,-0.013557,0.010117,0.008599,-0.69751,0.070068,-0.409912,-0.682312,4.309674,8.840692,-0.01512,0.006697,0.002106,-0.26416,0.587891,0.77832,-0.129546,3.734938,9.105204,-0.035043,-0.012961,0.005944,0.631592,-0.074951,-0.104248,-0.308549,3.300391,9.282316,0.018242,-0.01857,-0.005594,0.370361,-0.202148,-0.574707
0.186904,-0.89049,9.784527,-0.004337,-0.001893,-0.000653,-0.078125,0.440186,-0.593018,-0.268337,3.27067,9.211676,-0.017181,0.002533,0.007932,-0.700928,0.076416,-0.411865,-0.692479,4.284464,8.826032,-0.009097,-0.001086,0.002159,-0.263672,0.593262,0.767334,-0.143578,3.6839,9.097378,-0.00129,0.023122,0.010994,0.63208,-0.067627,-0.115234,-0.245633,3.238304,9.222568,-0.028422,0.000789,0.000885,0.364746,-0.204834,-0.573242
0.175285,-0.9045,9.823103,0.003401,0.00364,0.000187,-0.077148,0.447266,-0.601807,-0.240717,3.29983,9.240698,0.000683,0.00987,0.007532,-0.696289,0.073242,-0.41748,-0.672786,4.285764,8.834532,-0.002587,0.006609,1.9e-05,-0.258057,0.596191,0.776611,-0.227504,3.738079,9.145284,0.013096,0.000131,0.012309,0.63916,-0.065186,-0.10791,-0.358854,3.18053,9.248641,0.007298,0.012618,-0.006713,0.365234,-0.198486,-0.584717
0.154902,-0.879728,9.7866,0.002464,0.005387,-0.000278,-0.070557,0.448242,-0.594482,-0.276681,3.308947,9.244398,-0.013333,0.005965,0.009591,-0.697754,0.066406,-0.424072,-0.680201,4.307797,8.818981,0.002402,0.005408,0.001787,-0.258545,0.602539,0.7771,-0.129798,3.763464,9.115784,-0.010388,-0.018047,0.00477,0.637695,-0.061279,-0.102051,-0.313435,3.260454,9.269165,0.014945,-0.018999,-0.005173,0.371826,-0.195557,-0.575439
0.163063,-0.888307,9.813481,-0.010032,-0.00208,-0.002227,-0.071533,0.455566,-0.588623,-0.232811,3.295756,9.225334,-0.015867,0.004195,0.005634,-0.693359,0.079834,-0.411377,-0.684812,4.312106,8.826859,-0.004167,0.004026,-0.000132,-0.259277,0.599609,0.779053,-0.143319,3.71316,9.107668,-0.019544,0.023014,0.011018,0.638184,-0.063965,-0.104492,-0.256211,3.263662,9.240669,-0.007723,0.003687,-0.00166,0.372314,-0.189697,-0.572998
0.185577,-0.926537,9.823977,0.001272,0.002862,-0.001066,-0.073486,0.451904,-0.592285,-0.260911,3.283937,9.233088,-0.005063,0.011423,0.007789,-0.694336,0.075195,-0.423096,-0.690071,4.302361,8.830075,-0.010046,0.002867,0.003275,-0.257812,0.595947,0.770752,-0.232342,3.720485,9.127845,0.002437,0.003982,0.009008,0.640869,-0.069336,-0.111328,-0.341019,3.209772,9.272591,-0.013985,0.010206,-0.003762,0.37085,-0.192871,-0.57251
0.156848,-0.906642,9.778106,0.008283,0.004312,-0.000173,-0.069336,0.449463,-0.596924,-0.263405,3.295902,9.233474,-0.010749,0.003557,0.006096,-0.693359,0.070557,-0.413574,-0.671145,4.290671,8.833392,-0.004385,0.000975,-4e-05,-0.25708,0.592285,0.775391,-0.138144,3.755405,9.107934,0.003619,-0.020118,0.010469,0.641602,-0.070801,-0.106201,-0.304876,3.219414,9.239078,0.016583,-0.016506,-0.003153,0.372559,-0.19873,-0.580322
0.172257,-0.890549,9.805693,0.000346,0.001073,0.001094,-0.072021,0.445068,-0.595459,-0.230521,3.303798,9.242693,-0.011069,0.011392,0.008139,-0.69751,0.07666,-0.41626,-0.688129,4.28899,8.838854,-0.0028,0.007708,0.001199,-0.250732,0.602783,0.776855,-0.154369,3.734193,9.12151,-0.013536,0.023802,0.010243,0.646973,-0.062256,-0.107422,-0.26801,3.28174,9.236041,0.004582,0.003603,-0.003332,0.374268,-0.197754,-0.576172
0.182383,-0.898317,9.810879,-0.000789,-0.000315,-0.001743,-0.062744,0.452637,-0.594971,-0.277618,3.289288,9.228526,-0.014331,0.003527,0.006606,-0.696777,0.07373,-0.412354,-0.675871,4.300944,8.825906,0.003023,-0.000508,-0.000203,-0.263184,0.595215,0.767822,-0.207066,3.737111,9.109367,-0.007759,0.002837,0.011179,0.632568,-0.068604,-0.116211,-0.336512,3.243221,9.262778,-0.017283,0.006494,0.000592,0.381348,-0.19165,-0.578857
0.181271,-0.889478,9.80646,0.002044,0.005345,-0.000733,-0.07666,0.446533,-0.599854,-0.232698,3.291763,9.232595,-0.003106,0.005491,0.00549,-0.691406,0.072998,-0.412354,-0.660866,4.300412,8.857732,-0.012522,0.009461,0.001149,-0.26123,0.599365,0.770508,-0.15046,3.720894,9.113478,-0.00765,-0.017127,0.007926,0.635986,-0.062744,-0.112549,-0.312699,3.207764,9.255257,0.011837,-0.013184,-0.005637,0.365234,-0.197021,-0.58374
0.132959,-0.89914,9.794043,-0.005864,0.002674,-0.00049,-0.074707,0.45166,-0.598389,-0.273819,3.299785,9.245044,-0.016334,0.012606,0.009048,-0.690918,0.078857,-0.411865,-0.695213,4.27797,8.806178,-0.007864,0.00107,0.004066,-0.263184,0.588379,0.779297,-0.146426,3.71125,9.103951,0.003372,0.019753,0.011633,0.634521,-0.074219,-0.105225,-0.263556,3.259523,9.246406,-0.001233,0.002169,-0.004327,0.368164,-0.193604,-0.580566
0.183216,-0.917078,9.797906,-0.002623,0.000211,-0.001072,-0.074219,0.443604,-0.589111,-0.257744,3.270293,9.22099,-0.010219,0.000461,0.00409,-0.695312,0.076416,-0.416748,-0.663657,4.322183,8.819908,0.006374,0.000945,0.000468,-0.260498,0.589111,0.771973,-0.222338,3.78164,9.129245,0.00341,0.001893,0.013074,0.63916,-0.07251,-0.109375,-0.334254,3.206508,9.260733,-0.005738,0.00724,-0.003137,0.368652,-0.20459,-0.569824
0.17021,-0.900379,9.810077,0.004638,0.004565,0.001363,-0.073486,0.442383,-0.595459,-0.250314,3.318544,9.239474,-0.002154,0.013293,0.008379,-0.690186,0.075684,-0.415283,-0.693534,4.315448,8.822447,-0.01069,0.012472,0.001682,-0.259766,0.598389,0.773438,-0.145306,3.726733,9.117762,-0.029339,-0.012096,0.005768,0.637695,-0.062988,-0.108887,-0.310731,3.277747,9.247534,0.014464,-0.014612,-0.002961,0.370605,-0.205322,-0.578857
0.150149,-0.88849,9.791119,0.002157,0.001346,0.000231,-0.072998,0.450928,-0.594971,-0.277721,3.285449,9.235701,-0.022335,0.00409,0.007818,-0.69751,0.077148,-0.410889,-0.699508,4.293206,8.820218,-0.00183,-0.008243,0.001484,-0.25708,0.589355,0.769531,-0.14588,3.688923,9.092951,0.005762,0.017504,0.012528,0.641846,-0.074463,-0.112549,-0.258768,3.238556,9.239802,-0.021582,0.001858,-0.00078,0.369873,-0.193848,-0.575928
0.178708,-0.898167,9.81096,0.001243,0.002293,-4.2e-05,-0.068604,0.442871,-0.598877,-0.221962,3.274072,9.223274,-0.001678,0.00669,0.007232,-0.699463,0.068604,-0.419922,-0.662872,4.301697,8.844507,-0.008242,0.009572,0.000225,-0.257568,0.592285,0.766846,-0.221716,3.76015,9.147291,0.006912,0.003433,0.011797,0.636719,-0.068604,-0.114258,-0.355078,3.204909,9.249816,0.012025,0.010809,-0.004248,0.374512,-0.202881,-0.579102
0.158199,-0.891158,9.805053,0.000852,0.00282,-0.001522,-0.070557,0.446777,-0.601074,-0.288541,3.322489,9.24495,-0.008631,0.011377,0.008301,-0.691406,0.074463,-0.414551,-0.713117,4.29155,8.839488,-0.003938,0.005991,0.002884,-0.255859,0.597168,0.780762,-0.154288,3.751612,9.118713,-0.019602,-0.015528,0.007032,0.641357,-0.065186,-0.104248,-0.31051,3.276943,9.264358,0.006857,-0.018169,-0.003928,0.373291,-0.199463,-0.582764
0.167978,-0.899419,9.810204,-0.005348,0.000885,-0.000482,-0.069092,0.451172,-0.588135,-0.237012,3.290008,9.229355,-0.014112,0.001594,0.007348,-0.695068,0.072266,-0.418213,-0.660566,4.301979,8.821783,-0.000545,-0.000859,0.000306,-0.256592,0.596436,0.781494,-0.139954,3.711635,9.110477,-0.009918,0.017197,0.012157,0.63916,-0.064209,-0.10498,-0.259762,3.231422,9.233564,-0.011959,0.005956,-0.00126,0.375,-0.193604,-0.570801
0.159975,-0.923003,9.809605,-0.001902,0.002925,9.3e-05,-0.069092,0.449707,-0.589111,-0.25491,3.286229,9.23179,-0.005413,0.013906,0.008416,-0.69873,0.071777,-0.416992,-0.695516,4.2798,8.84273,-0.009976,0.012231,0.001268,-0.256104,0.586182,0.771729,-0.229886,3.733604,9.126876,0.002278,0.005484,0.009255,0.640625,-0.075928,-0.111572,-0.352751,3.220093,9.261986,-0.0006,0.005276,-0.00354,0.375488,-0.196045,-0.571045
0.177843,-0.890566,9.784689,0.003128,0.001536,-0.001544,-0.071045,0.438477,-0.598633,-0.264595,3.297243,9.216933,-0.01116,0.00254,0.007554,-0.698242,0.07666,-0.415527,-0.694673,4.297689,8.833117,-0.00248,-0.003863,0.001913,-0.259033,0.590088,0.770264,-0.149575,3.738559,9.110594,1.3e-05,-0.017419,0.008162,0.635986,-0.070801,-0.113281,-0.287839,3.233076,9.251041,0.005705,-0.013879,-0.002536,0.375732,-0.206299,-0.582031
0.15843,-0.900592,9.787696,0.001641,0.003134,0.000221,-0.073975,0.44458,-0.599365,-0.221686,3.278698,9.241817,-0.008205,0.010152,0.007062,-0.692627,0.074219,-0.41748,-0.671365,4.294772,8.83365,-0.006576,0.009529,-0.00022,-0.260498,0.586914,0.771729,-0.130203,3.743622,9.130877,-0.016122,0.015686,0.010765,0.637207,-0.076172,-0.108398,-0.291774,3.255533,9.240614,0.004697,0.007759,-0.005428,0.370117,-0.200195,-0.580811
0.165985,-0.899078,9.810269,0.002311,0.000652,-0.002263,-0.074463,0.439697,-0.595703,-0.281399,3.291565,9.243987,-0.01342,0.008213,0.007818,-0.697754,0.075928,-0.410645,-0.708841,4.29054,8.831105,-0.000623,0.001762,0.000905,-0.260498,0.591064,0.773926,-0.214186,3.710583,9.102524,-0.005112,0.007077,0.010268,0.637451,-0.073486,-0.110107,-0.330517,3.229009,9.27909,-0.013128,-0.001183,-0.001591,0.369873,-0.20459,-0.575684
0.168636,-0.898668,9.766789,0.001993,0.005575,9.9e-05,-0.073242,0.439941,-0.597412,-0.234095,3.293423,9.215999,-0.007153,0.003157,0.008084,-0.697754,0.072998,-0.415283,-0.667053,4.313967,8.837259,-0.007754,0.001055,0.001918,-0.251465,0.594482,0.77124,-0.173698,3.727893,9.128818,1.3e-05,-0.016097,0.010057,0.647217,-0.068604,-0.111816,-0.296406,3.222401,9.233785,0.005576,-0.005128,-0.003243,0.370605,-0.201904,-0.577148
0.175097,-0.889101,9.784871,-0.003161,0.002799,-0.001275,-0.063965,0.447266,-0.597412,-0.267585,3.302759,9.243577,-0.008831,0.011067,0.00778,-0.69043,0.081055,-0.420898,-0.673475,4.291405,8.835126,-0.00777,0.007817,0.002535,-0.258057,0.597412,0.780762,-0.141415,3.728436,9.119292,-0.004261,0.012222,0.010639,0.639648,-0.064697,-0.101074,-0.299468,3.251361,9.24635,0.004271,0.001299,-0.003717,0.380371,-0.197998,-0.580811
0.156016,-0.913562,9.805288,-0.003888,-0.001282,-0.001224,-0.07251,0.450195,-0.588135,-0.256816,3.294275,9.23948,-0.013793,1.6e-05,0.007093,-0.695068,0.076172,-0.416016,-0.677449,4.301512,8.827799,-0.000815,0.001325,-0.00055,-0.254639,0.604004,0.766357,-0.213153,3.739226,9.113163,-0.007638,0.008244,0.011153,0.644287,-0.060303,-0.115234,-0.322933,3.233434,9.25673,-0.005625,-6e-06,-0.002445,0.373779,-0.193115,-0.571045
0.176651,-0.911691,9.785031,0.003827,0.005048,-0.000571,-0.068604,0.454102,-0.602539,-0.249064,3.279083,9.25575,-0.006405,0.011063,0.007948,-0.69458,0.074219,-0.421143,-0.688558,4.320706,8.836154,-0.006493,0.005823,0.002288,-0.26416,0.596436,0.781494,-0.174254,3.719784,9.114161,-0.011411,-0.011569,0.007761,0.634033,-0.067139,-0.104004,-0.299834,3.25096,9.24648,0.003938,-0.002806,-0.004698,0.377686,-0.188232,-0.583252
0.164553,-0.898876,9.788576,0.002157,0.001346,0.000232,-0.078125,0.448242,-0.587891,-0.271815,3.302612,9.233947,-0.010734,0.003537,0.006074,-0.690918,0.078125,-0.411377,-0.692406,4.281418,8.820545,-0.005216,0.003831,0.002041,-0.260742,0.599121,0.772949,-0.142287,3.719569,9.104937,0.000694,0.009739,0.01115,0.634766,-0.064941,-0.111328,-0.300509,3.243194,9.240473,-0.005514,-0.002436,-0.001189,0.366211,-0.195557,-0.572021
0.163178,-0.907289,9.814814,-0.000471,0.000189,0.000375,-0.076416,0.448486,-0.599365,-0.225466,3.290628,9.238522,-0.011519,0.005034,0.008169,-0.696045,0.071777,-0.419678,-0.680742,4.285845,8.823692,-0.00345,0.003783,-0.000547,-0.257324,0.601318,0.776611,-0.207843,3.744297,9.11779,-0.001265,0.006927,0.010392,0.640381,-0.061035,-0.106934,-0.302897,3.226789,9.245265,0.003254,0.003422,-0.004967,0.368896,-0.195801,-0.581299
0.182488,-0.900742,9.803254,0.002936,0.005195,-0.000651,-0.070801,0.453369,-0.592041,-0.280306,3.296824,9.220358,-0.010091,0.008867,0.007169,-0.698975,0.077881,-0.41626,-0.691805,4.304827,8.832155,-0.005761,0.00297,0.002346,-0.260498,0.592041,0.779785,-0.163038,3.737635,9.13821,-0.015853,-0.010955,0.010292,0.635498,-0.065918,-0.101807,-0.30824,3.240187,9.245797,0.002861,-0.006053,-0.003225,0.373535,-0.191895,-0.572998
0.151689,-0.886079,9.792127,-0.001282,0.000674,-0.001561,-0.076172,0.447754,-0.589844,-0.244039,3.284348,9.241807,-0.010046,0.003489,0.00725,-0.69165,0.071045,-0.414551,-0.68064,4.296424,8.830031,-0.004432,0.000975,0.001027,-0.260742,0.593506,0.775146,-0.14462,3.70665,9.103575,-0.007403,0.009877,0.008484,0.635986,-0.067871,-0.106934,-0.301222,3.234775,9.251228,-0.004907,-0.001129,-0.000999,0.36792,-0.197266,-0.571289
0.163264,-0.920783,9.810581,-0.006578,0.001327,-0.002875,-0.073242,0.447021,-0.59375,-0.263245,3.29418,9.244121,-0.010925,0.011708,0.007134,-0.693115,0.06665,-0.416016,-0.68461,4.306464,8.822745,-0.004853,0.008397,0.001371,-0.256836,0.59082,0.765869,-0.194474,3.7162,9.106819,0.004703,0.008074,0.011026,0.637207,-0.072266,-0.115723,-0.301334,3.234376,9.251363,0.001594,0.000666,-0.003087,0.370361,-0.199707,-0.577393
0.171743,-0.911261,9.806892,0.005529,0.004416,0.001446,-0.070557,0.440186,-0.605469,-0.278719,3.290538,9.214153,-0.006938,0.003855,0.006086,-0.693604,0.07666,-0.417969,-0.681655,4.307492,8.83605,-0.000782,0.002854,0.001014,-0.262207,0.593262,0.780762,-0.176283,3.753941,9.136059,-0.004514,-0.00732,0.009396,0.635498,-0.067383,-0.105225,-0.301414,3.234823,9.251205,0.002491,-0.002331,-0.003673,0.373291,-0.200684,-0.588135
0.149847,-0.885902,9.792171,0.004763,0.003301,-0.000104,-0.075684,0.446533,-0.59082,-0.244499,3.313269,9.246954,-0.007613,0.007927,0.006955,-0.702881,0.072998,-0.418945,-0.683061,4.299925,8.852041,-0.008339,0.005422,0.001275,-0.257812,0.588867,0.779297,-0.151862,3.735716,9.120871,-0.017103,0.004249,0.009881,0.638428,-0.072998,-0.102539,-0.321835,3.242499,9.245761,0.004295,0.0031,-0.003121,0.367432,-0.198486,-0.570312
0.177688,-0.891338,9.820685,-0.002532,-0.002986,-0.000303,-0.07373,0.440918,-0.5896,-0.261991,3.281094,9.225978,-0.016196,0.006257,0.008724,-0.699463,0.072266,-0.405762,-0.682721,4.311212,8.821746,-0.008937,0.004565,0.002652,-0.263184,0.593018,0.772705,-0.181684,3.71907,9.105513,-0.003786,0.008094,0.011275,0.632324,-0.071045,-0.110352,-0.292433,3.253776,9.257745,-0.007025,-0.004055,-0.001371,0.37207,-0.202393,-0.56958
0.180918,-0.904563,9.794693,0.001618,0.003933,2.9e-05,-0.077637,0.444824,-0.59375,-0.235776,3.287993,9.220088,-0.005561,0.005982,0.008213,-0.69458,0.074951,-0.413574,-0.692169,4.299829,8.811819,-0.005405,0.003391,0.000584,-0.252686,0.593262,0.77417,-0.188026,3.737211,9.125105,0.001404,-0.003192,0.009896,0.64624,-0.06958,-0.108398,-0.303637,3.220404,9.222238,0.000988,-0.000642,-0.003277,0.362793,-0.198975,-0.575928
0.148545,-0.885348,9.792241,0.001573,0.005531,-0.000356,-0.063477,0.444824,-0.596436,-0.269316,3.297376,9.247614,-0.009975,0.008797,0.008681,-0.695557,0.075195,-0.412598,-0.689586,4.294192,8.840746,-0.000857,0.005471,0.001615,-0.259277,0.596191,0.773682,-0.150826,3.732919,9.092718,-0.003303,0.002251,0.008618,0.638916,-0.066406,-0.108887,-0.31992,3.257278,9.258056,0.005379,0.001535,-0.005158,0.378418,-0.199463,-0.577393
0.161631,-0.906725,9.77142,-0.006119,-0.001597,-0.000819,-0.073242,0.449951,-0.593262,-0.255997,3.289168,9.211114,-0.009779,0.002844,0.007381,-0.686523,0.074219,-0.40918,-0.681159,4.31011,8.835982,-0.003692,0.00335,-0.000931,-0.263672,0.595947,0.771484,-0.178049,3.73882,9.135624,-0.011049,0.007268,0.011523,0.633789,-0.068848,-0.110107,-0.304092,3.221596,9.221807,-0.00083,-0.004566,-0.003844,0.372559,-0.193848,-0.575928
0.170474,-0.92365,9.802788,0.001221,0.003091,-0.000234,-0.077148,0.449219,-0.595215,-0.255774,3.300824,9.23568,-0.012443,0.009728,0.008891,-0.692383,0.069092,-0.420898,-0.693646,4.309338,8.854876,-0.010133,0.00285,0.005403,-0.261475,0.600098,0.770508,-0.193208,3.70295,9.123611,-0.010775,-0.001918,0.008235,0.632324,-0.063232,-0.111084,-0.299802,3.251494,9.246293,-0.002043,0.000936,-0.003079,0.36499,-0.197266,-0.578613
0.157176,-0.893264,9.797454,0.006501,0.004604,-0.000327,-0.077881,0.453125,-0.598389,-0.260423,3.283932,9.245227,-0.011981,0.00536,0.007498,-0.696533,0.06958,-0.417236,-0.678858,4.295915,8.84515,-0.005188,0.002294,-0.000597,-0.261719,0.589111,0.769287,-0.158318,3.742423,9.127184,0.004711,0.000236,0.010273,0.635254,-0.071777,-0.115723,-0.317821,3.221308,9.23921,-0.003758,-0.000605,-0.001827,0.367432,-0.194092,-0.577393
0.148421,-0.906446,9.792568,0.000345,0.001072,0.001095,-0.075195,0.444092,-0.600586,-0.240473,3.304619,9.247577,-0.005974,0.007604,0.00694,-0.695801,0.077393,-0.413818,-0.688735,4.285067,8.834921,-0.004139,0.008156,0.000959,-0.262207,0.586914,0.773926,-0.174615,3.739447,9.124079,-0.00893,0.007251,0.010127,0.634033,-0.075439,-0.107178,-0.294631,3.237928,9.26235,0.0112,-0.001837,-0.004729,0.369873,-0.202148,-0.580811
0.158414,-0.901337,9.78021,-0.001724,0.00143,-0.00221,-0.076172,0.441406,-0.592529,-0.281992,3.298414,9.236294,-0.015345,0.005625,0.008516,-0.69165,0.064453,-0.409424,-0.688446,4.298248,8.803723,0.003787,0.002317,0.002517,-0.256592,0.595947,0.769287,-0.207034,3.732391,9.089017,-0.008769,-0.002088,0.009121,0.638672,-0.065186,-0.111572,-0.306351,3.256478,9.257561,-0.005083,-0.000792,-0.003461,0.367676,-0.205811,-0.57666
0.166274,-0.895898,9.789652,0.002487,0.004583,-8.2e-05,-0.070068,0.448242,-0.600586,-0.24165,3.271937,9.225646,-0.005562,0.004169,0.00593,-0.691406,0.066895,-0.41748,-0.680844,4.313722,8.871726,-0.002992,0.009871,-0.000722,-0.25708,0.587891,0.766113,-0.166435,3.735769,9.148075,0.000592,0.004345,0.011151,0.640137,-0.073242,-0.115723,-0.325157,3.219729,9.227514,-0.000523,-0.002259,-0.003459,0.372803,-0.195557,-0.580811
0.134475,-0.885247,9.791641,0.001648,0.004499,-0.000994,-0.070557,0.44165,-0.60376,-0.272718,3.316704,9.256166,-0.006111,0.012616,0.007859,-0.69165,0.083252,-0.404297,-0.683394,4.279957,8.841065,-0.018744,-0.005679,0.006113,-0.259766,0.598633,0.778809,-0.192263,3.710717,9.12266,-0.015424,0.001877,0.008981,0.634766,-0.063721,-0.105225,-0.32119,3.25029,9.251757,0.003488,0.000334,-0.006369,0.373779,-0.204102,-0.585693
0.196112,-0.915128,9.792163,-0.00919,-0.001996,-0.001326,-0.074463,0.449707,-0.591064,-0.24657,3.25961,9.191652,-0.025412,-0.000331,0.00685,-0.694824,0.06958,-0.420166,-0.639922,4.307522,8.869351,-0.006642,-0.002908,-0.00243,-0.258301,0.584717,0.776367,-0.151248,3.743121,9.162934,-0.008429,-0.010287,0.011657,0.637451,-0.076416,-0.108643,-0.311345,3.218641,9.210593,-0.008776,-0.005892,-0.000729,0.369873,-0.196045,-0.57373
0.151769,-0.907191,9.858478,-0.002397,-0.00778,0.000852,-0.073242,0.44043,-0.593994,-0.227459,3.32127,9.274053,-0.001087,0.004439,0.007133,-0.695068,0.077881,-0.414062,-0.649254,4.254928,8.798359,-0.001523,0.018124,0.005314,-0.262695,0.59082,0.778076,-0.125193,3.681721,9.052868,-0.003677,0.01344,0.005945,0.634033,-0.07373,-0.106445,-0.278068,3.241563,9.30217,0.010162,-0.00963,-0.007717,0.370117,-0.205811,-0.575195
0.237065,-0.956501,9.817282,-0.001188,0.020858,-0.001945,-0.075684,0.443604,-0.593018,-0.239313,3.248698,9.220661,-0.0163,0.015694,0.009171,-0.699951,0.068359,-0.415039,-0.781324,4.306125,8.830406,0.02655,0.015525,-0.007368,-0.25293,0.591309,0.773682,-0.25755,3.752301,9.119575,0.030068,0.027769,0.015856,0.645752,-0.071045,-0.107422,-0.25788,3.198317,9.147568,-0.021649,0.012699,0.004238,0.367676,-0.202148,-0.574463
0.045606,-0.848608,9.697438,0.041778,0.008753,0.002271,-0.065918,0.444336,-0.596436,-0.34799,3.308328,9.173521,0.01719,0.010112,0.008131,-0.689453,0.077148,-0.412109,-0.628664,4.398154,8.873573,-0.00463,-0.031263,0.00483,-0.246582,0.594238,0.769043,-0.214755,3.823015,9.184587,-0.025377,-0.040992,0.00824,0.64917,-0.066406,-0.111816,-0.429093,3.241687,9.296452,0.044232,0.019314,-0.014481,0.377441,-0.199951,-0.574951
0.174105,-0.785356,9.759992,-0.027837,-0.023305,-0.002507,-0.060059,0.44751,-0.5979,-0.176022,3.399407,9.264753,-0.027099,-0.014718,0.003427,-0.691162,0.075195,-0.418701,-0.607899,4.28294,8.826288,-0.063738,0.02471,0.005108,-0.258301,0.59082,0.774414,0.003845,3.630451,9.052413,-0.061293,-0.009752,0.004616,0.634766,-0.072754,-0.107666,-0.312903,3.36409,9.363753,-0.009649,-0.048539,0.002002,0.381836,-0.19873,-0.578857
0.292041,-1.037416,9.996846,-0.029102,-0.007694,0.001245,-0.072266,0.445557,-0.59375,-0.210979,3.171985,9.238323,-0.05302,0.023684,0.012512,-0.698242,0.071777,-0.408936,-0.787936,4.175725,8.815673,0.005633,0.01164,-0.002047,-0.263184,0.596191,0.772461,-0.227793,3.619098,9.11126,0.041753,0.073067,0.01665,0.63208,-0.064697,-0.112061,-0.111706,3.170876,9.078138,-0.058512,0.003527,0.004266,0.37085,-0.203125,-0.575195
0.183997,-0.924652,9.795915,0.047638,0.044687,-0.001595,-0.075684,0.45166,-0.597168,-0.316914,3.23818,9.171021,0.048356,0.005311,0.003436,-0.692627,0.073975,-0.414307,-0.667201,4.332895,8.807998,0.05433,-0.016873,-0.002121,-0.255615,0.598877,0.770996,-0.352498,3.859233,9.161883,0.050527,-0.033812,0.012021,0.639404,-0.063477,-0.108887,-0.426384,3.087243,9.262089,0.028676,0.058586,-0.009926,0.367676,-0.193604,-0.579102
-0.017086,-0.748462,9.574282,-0.006038,-0.006156,0.001166,-0.070312,0.449219,-0.596436,-0.255237,3.458162,9.248129,0.003282,0.004769,0.006824,-0.688965,0.078125,-0.408691,-0.643667,4.409321,8.861697,-0.012678,0.031422,-0.004665,-0.256104,0.593018,0.766602,-0.012202,3.827095,9.108766,-0.074011,-0.054767,0.004124,0.643555,-0.069092,-0.117432,-0.446137,3.384668,9.39284,0.085296,-0.052729,-0.014615,0.37207,-0.19458,-0.578857
0.279385,-0.990799,9.917337,-0.054317,-0.03311,-0.007308,-0.068604,0.447266,-0.604004,-0.242327,3.291955,9.239978,-0.071672,0.002246,0.011035,-0.693848,0.075684,-0.418213,-0.747425,4.278606,8.838744,-0.050121,-0.011751,0.011718,-0.254395,0.595459,0.772217,-0.091257,3.567465,9.074824,-0.045921,0.079476,0.01083,0.642334,-0.068115,-0.109863,-0.100567,3.377425,9.125653,-0.083695,-0.021971,0.013026,0.374756,-0.197998,-0.584473
0.240574,-1.016783,9.957958,0.050338,0.023337,0.005886,-0.069336,0.450195,-0.596436,-0.223607,3.167898,9.214409,0.004074,0.005496,0.004506,-0.697754,0.070557,-0.416748,-0.615454,4.222892,8.808867,-0.016889,-0.015103,0.00228,-0.257324,0.595215,0.775635,-0.391496,3.678334,9.144689,0.063842,0.00035,0.015968,0.640869,-0.067871,-0.106689,-0.348953,3.022482,9.202478,-0.052193,0.064528,-8.1e-05,0.377197,-0.196533,-0.580322
0.066531,-0.746827,9.629318,0.025855,0.03078,0.000616,-0.072266,0.44751,-0.59375,-0.270754,3.341281,9.251056,0.029665,0.012446,0.005439,-0.699219,0.073486,-0.414795,-0.695897,4.258336,8.813104,0.029835,0.04248,-0.005715,-0.26416,0.59375,0.769287,-0.08621,3.881565,9.138893,0.01715,-0.066215,0.00449,0.635986,-0.069336,-0.113281,-0.441508,3.193962,9.323346,0.107882,-0.040194,-0.018762,0.372559,-0.200195,-0.576172
0.101143,-0.86718,9.715583,-0.041454,-0.030781,-0.008541,-0.074707,0.446533,-0.598877,-0.275454,3.354341,9.227275,-0.033528,0.00482,0.011432,-0.696777,0.074707,-0.419434,-0.744234,4.355623,8.834259,0.028351,-0.013249,-0.001554,-0.251465,0.594727,0.776367,-0.056046,3.740662,9.102206,-0.067433,0.05618,0.012425,0.645508,-0.069824,-0.104736,-0.174552,3.465278,9.21982,0.004943,-0.016609,-0.001258,0.367676,-0.19873,-0.579346
0.27868,-1.015663,9.95257,-0.006441,-0.008367,0.002119,-0.065918,0.447998,-0.592041,-0.24865,3.239328,9.228505,-0.02272,-0.000981,0.007127,-0.693604,0.074463,-0.41626,-0.583158,4.386994,8.854682,-0.03087,-0.007815,0.006855,-0.253174,0.592529,0.775879,-0.327099,3.639822,9.101455,-0.010438,0.01247,0.012515,0.643066,-0.06958,-0.108154,-0.35262,3.169672,9.247269,-0.09651,0.046372,0.009233,0.378174,-0.198242,-0.573242
0.179553,-0.896865,9.782786,0.030637,0.028394,0.004553,-0.068604,0.447266,-0.591064,-0.212001,3.28181,9.24142,0.001514,0.008287,0.005483,-0.692139,0.072998,-0.417725,-0.749324,4.232521,8.83998,-0.060033,0.034381,0.002591,-0.255127,0.588135,0.7771,-0.128871,3.679593,9.121366,0.019295,-0.045355,0.006869,0.640137,-0.073242,-0.105469,-0.374723,3.103046,9.234448,0.045869,-0.043625,-0.009326,0.377686,-0.19751,-0.577148
