# sampling frequency: 40
# units are seconds/meters/radians/a.u.
seg1_acc_x,seg1_acc_y,seg1_acc_z,seg1_gyr_x,seg1_gyr_y,seg1_gyr_z,seg1_mag_x,seg1_mag_y,seg1_mag_z,seg2_acc_x,seg2_acc_y,seg2_acc_z,seg2_gyr_x,seg2_gyr_y,seg2_gyr_z,seg2_mag_x,seg2_mag_y,seg2_mag_z,seg3_acc_x,seg3_acc_y,seg3_acc_z,seg3_gyr_x,seg3_gyr_y,seg3_gyr_z,seg3_mag_x,seg3_mag_y,seg3_mag_z,seg4_acc_x,seg4_acc_y,seg4_acc_z,seg4_gyr_x,seg4_gyr_y,seg4_gyr_z,seg4_mag_x,seg4_mag_y,seg4_mag_z,seg5_acc_x,seg5_acc_y,seg5_acc_z,seg5_gyr_x,seg5_gyr_y,seg5_gyr_z,seg5_mag_x,seg5_mag_y,seg5_mag_z
0.5897891401526261,0.13460720348711133,9.748019279614573,-0.0016482430638042576,0.0010829859240531294,0.010988256380833311,-0.3813650218951279,0.1891695231892875,-0.6049531922630594,0.12151971879394913,2.2797036516398457,9.567542365440364,-0.009492194657215937,-0.0021046787857418323,-0.009749905066120878,-0.9032166436102127,0.3283991377666024,-0.22384494494326698,-0.15526211504101395,1.152079262575337,9.655831435741142,-0.0058615560523284605,0.00224689609864031,0.0028121745264699594,0.18945416739141824,0.603675512741947,1.0356028584552923,0.3640020877001556,1.1245664425423922,9.838278909596408,-0.0035782517985937816,0.00304501747601394,0.00627677318664854,0.45608554525143324,0.16599662305559534,-0.5164106064004121,-0.45986829131974877,1.0693067224072765,9.738742051932697,-0.007542635501513012,0.003941176900279849,-0.003279777939436764,0.306917634214691,0.07062689842824434,-0.6822213645441365
0.6001647350300482,0.14707567576271438,9.722312497492881,-0.0044105968992432356,0.0011932229923692578,0.011140631170758112,-0.37427682751507446,0.18875119868050994,-0.6045217180043426,0.1305575865834637,2.2602797625972246,9.553891260200157,-0.010648039239283907,-0.0036754885256286194,-0.010295564358336196,-0.8946667028563241,0.32917570864129586,-0.22269556433547275,-0.16554405408776804,1.133996830492615,9.66616590352679,-0.004650670456269562,0.005273656703499834,0.0039519790334480165,0.185337204970427,0.6096964737961453,1.042772681633584,0.3525247171562467,1.1194140010413425,9.845960273601326,-0.0031093424583959256,0.004445160623405499,0.007171140112181717,0.45400188744736575,0.17059627279302736,-0.5083011075596398,-0.45078346241862255,1.0519445859592556,9.753834691986627,-0.005975022548627061,0.003907992315318859,-0.004093545359075297,0.3066485077872613,0.0776661244498169,-0.6796676838704274
0.581831789117306,0.13058240480192604,9.736638806863214,-0.005525131349449521,0.0005423727448220585,0.0103600775758198,-0.37606977910353706,0.1998950136652452,-0.5992356151688485,0.13397787669300867,2.267282038937615,9.545043113127502,-0.010995531740150952,-0.002961677278490021,-0.009586151597456037,-0.8919917680884882,0.3377547013380897,-0.2196050133657947,-0.16001491707087442,1.1549802864892027,9.67183331107237,-0.006668998836526384,0.003923834547029857,0.00310530690366423,0.1767953636925852,0.6020993243313656,1.0379280203870207,0.3580906532584311,1.1194308890833453,9.830465405996199,-0.0032537556637770144,0.004087111109150731,0.006129670779242199,0.44584439816254445,0.16263687855445985,-0.5112198075995691,-0.4581071028361359,1.0785452126685684,9.749634642617066,-0.0075222257116124135,0.0037228719188460973,-0.0010679751960716547,0.29888769323254893,0.06907926747664925,-0.6809272392561596
0.591520564796407,0.14105264849732682,9.761651518547456,-0.00238083384706656,0.0024103345981027636,0.009842752019524368,-0.37732860696357834,0.1977966898543763,-0.6077999052505497,0.11617127998830346,2.2761734952662445,9.540856548527252,-0.0094808752175948,-0.004001865780605107,-0.010453031922959896,-0.8971536193959702,0.3340224320002857,-0.22613062587877253,-0.17756204148313298,1.1428355236751526,9.648320097190572,-0.006399859862778064,0.0033655241220345612,0.003007267716849604,0.1809594964598212,0.6001775743563236,1.0378681511106156,0.3657064292203004,1.1144735578649783,9.827764910173205,-0.004266677198053212,0.00417383883504653,0.00651507091800774,0.4499268577446325,0.15625771580754988,-0.5122782439032993,-0.43592396739401745,1.0714276943688117,9.747669914592821,-0.007684320645811579,0.004551904215569166,-0.0026844877024560137,0.30349998735935346,0.06794160425282787,-0.6839306085769405
0.6035427112172276,0.1328972346152735,9.729602720912462,-0.0021908403527346886,0.0013720789013775899,0.011071954842629362,-0.37834675288941894,0.19834098817868603,-0.6129130224218893,0.1245509586866794,2.2689251676885185,9.53902326779644,-0.009548839598803293,-0.00396277094118592,-0.011082839382758313,-0.8957343401661788,0.3347199070803203,-0.2317618703221095,-0.15405846097306442,1.1463683028194442,9.669488776571308,-0.004147727412660663,0.0028405313300782775,0.0033716685888602717,0.17940008878046504,0.6053306387969375,1.0327954144172276,0.3650390042948423,1.1244778555962993,9.846868867822653,-0.0016646790919963522,0.004136582415778657,0.006070330751955861,0.44655460779606515,0.16584892075639446,-0.5173055746974332,-0.45623064091643256,1.0608173857898877,9.783341044380283,-0.005329804480552681,0.0031983702782488305,-0.0018119417105125271,0.29855665669155895,0.07233017216780552,-0.6860008942008269
0.5917148601486597,0.14238227232071324,9.752418460234827,-0.0036042812538596165,0.00019603092108639607,0.010207685806344853,-0.3811421511817613,0.18968882106734394,-0.6071462591473495,0.12383387467384128,2.278541969596638,9.551463454675202,-0.010827902794242967,-0.002371958154642038,-0.009584776293218977,-0.8990797353254183,0.32521683365718573,-0.2272710842279996,-0.16540846680132756,1.1398649451458784,9.651258846355642,-0.007185086361827033,0.003935023039356482,0.0022880018909128648,0.18938393835947426,0.6055021124931899,1.0527084261521513,0.3623052911214425,1.1284874323000662,9.834213269340474,-0.004592171660282925,0.0031337692019062875,0.0066601967712431745,0.4608391655512075,0.16486979607246266,-0.502055000492069,-0.4468793294167445,1.0656767599343637,9.745108897786611,-0.00832184609940501,0.003954712550311939,-0.0028669963624362803,0.31120076322271595,0.07242369643198104,-0.6700363786666567
0.5989770001301706,0.1429848958349778,9.763889247382576,-0.00438030386985381,0.002425295762750786,0.012086614268310494,-0.3794120940972576,0.1915835638169419,-0.6012733261154477,0.12694079351206586,2.2858036708712692,9.542574771818295,-0.00874247635413107,-0.0016771433304665437,-0.00982575953535047,-0.8987854659550271,0.33065988292026427,-0.21779195023499423,-0.16175421460432315,1.1381316000678394,9.664481123645167,-0.004931942984820048,0.0034100304690335374,0.0026533917152857813,0.17850543096605695,0.6091572004383398,1.0428440132449084,0.3530160825076717,1.1206433699280405,9.818212336466617,-0.0033467905837824483,0.0037476317231111608,0.006722001134798775,0.4474117429456268,0.16967198644904374,-0.5070310354354967,-0.4457387560340954,1.0541125187400662,9.746736403534346,-0.008959395916432064,0.0033575518279724426,-0.0030515046346186866,0.29987080899058915,0.07512210531608661,-0.6764498556169617
0.5927337292069679,0.14581706228945118,9.733903925600853,-0.004445810193850451,-3.9047850145371534e-05,0.01020568219109602,-0.3720255678583177,0.18532569022266904,-0.6021414373983802,0.13789734298176515,2.265388596520937,9.538310930359183,-0.009313246271686813,-0.003412146656757124,-0.010451656618722837,-0.8894898716880146,0.3233618956309288,-0.2192738030440754,-0.15903390167190185,1.148557712271611,9.649090748085614,-0.00330696415443626,0.0024790970165317868,0.003460783013119555,0.17372471081257568,0.6022511455346947,1.04748578300244,0.3692511172831069,1.1225573281311676,9.831651366633897,-0.0035994760682914848,0.004652550536991211,0.006246840123977856,0.44470122018555525,0.16110577451395774,-0.5007225939916593,-0.4441006154787871,1.0829690950543087,9.745418645991643,-0.006114683537997772,0.0045187045688646855,-0.003496279629757959,0.2970606190255317,0.06842096400257637,-0.6709032236247833
0.5868254465635341,0.15000093429248482,9.745321457307291,-0.0024648169372894534,0.0009562442948535833,0.01029741148610713,-0.38141340594335277,0.18997478668510914,-0.6105589473135568,0.1319940728637257,2.2669401977846615,9.55066602171586,-0.009145636624851856,-0.0028214423255127417,-0.010452288549881006,-0.9027727272416721,0.3268875259077938,-0.2304295330735946,-0.1615731701187692,1.14167250514361,9.656963261506325,-0.0065801490272423754,0.005448403230969575,0.002857409668220769,0.17968341246284655,0.6077370051313885,1.0379372668806324,0.3531197938483458,1.1140505376067176,9.8312565372831,-0.0027868445694634613,0.005489287611013822,0.007022069842234707,0.4507829252744492,0.16672646543816666,-0.5092790275796817,-0.45833388284030274,1.070782145923852,9.76261981703048,-0.007838715213067098,0.004073122961185895,-0.002201920786833773,0.30445696047803816,0.07570729148166523,-0.6804034357269108
0.5974338643937998,0.13594837347500915,9.731843878681675,-0.0027324485051200874,0.001662182607158542,0.011155659377523438,-0.38381988083255864,0.1896468634457792,-0.6061503889373152,0.13128670890626382,2.276613993892651,9.56309971385025,-0.010647977236980228,-0.003679444112398037,-0.010289535304594194,-0.9007782982946124,0.3276716388805077,-0.22459114296833854,-0.16070462446737518,1.1457499019502264,9.649396729359243,-0.00700784841706653,0.0018531504936038804,0.0024339005344249033,0.1736270301191929,0.6020719441128846,1.0384517662140695,0.36732239914304876,1.1207413221305693,9.831930587947557,-0.004595169824638585,0.0031358119108528004,0.006658237600332742,0.4441405217636789,0.1636324041674756,-0.5116857850359524,-0.44713717324526275,1.070583768107847,9.756398146315433,-0.007853476477594112,0.002985644622273832,-0.0023175882734781323,0.2949934500497041,0.06758447293078097,-0.6809029226258625
0.5913002677335872,0.14025868679522813,9.74327268811623,-0.003032340451160536,0.001136947872852589,0.011073950782023168,-0.3704870081177336,0.19809903031693327,-0.6066241550741787,0.12243541735362777,2.2683842230207736,9.544706649688816,-0.010647969639986005,-0.0036794367338061264,-0.010288535360674736,-0.8873875768349321,0.3357781232282419,-0.22524072307055673,-0.156846523755848,1.1439279540956657,9.662634117278124,-0.005773717169934033,0.0037714645609466897,0.002563288338664249,0.17420653039799808,0.6005583473641296,1.0457589969007948,0.370854932558905,1.1229459505259247,9.84017096059109,-0.004612387388902347,0.0047412855145576496,0.006631254952430982,0.44242356949036743,0.158734249446324,-0.5073129145577847,-0.4457126182903829,1.0546609212244378,9.727456831429823,-0.007678204989460422,0.004547844163763491,-0.0026776236856487948,0.2955254798152041,0.06874016638606814,-0.6764956688362528
0.5874707086460572,0.15323227286266625,9.726836961915483,-0.0032730819417429472,0.0019533231700426027,0.011237370208194217,-0.3807569571053543,0.1958642260588126,-0.6121959212860322,0.12373439554808188,2.277015874889523,9.526335061633697,-0.008394949360202549,-0.0023919250278177187,-0.010531165172996484,-0.9020659615843389,0.33348405669067654,-0.2302395648233634,-0.16527974691758865,1.1319608459610562,9.62866789513025,-0.005504589211302869,0.0032131614187125906,0.0024642492390391326,0.18097598283214994,0.6069687465979136,1.044021964544949,0.3464896813467047,1.1182942168650627,9.842615816070412,-0.0029140488331877152,0.003525771886905134,0.006006583221708223,0.4495402291782245,0.1645428381823163,-0.5095284738062217,-0.45812549905441835,1.0643809273281186,9.753874546669454,-0.00706815797581365,0.0029690487692151514,-0.0027234902670954927,0.3013691795934109,0.07194889314351341,-0.6757850736644141
0.5871380472141383,0.15230110253583232,9.726871199236315,-0.003033315166923075,0.0011359110157494806,0.011075944486246462,-0.37512298257235654,0.19469488858664236,-0.6115187456531929,0.11984040743468347,2.277327220837583,9.548154570594104,-0.009480817320375708,-0.004004821402794305,-0.01044701021677421,-0.8939865574340089,0.3320679424222833,-0.2280933747212327,-0.1577993837934532,1.158253812614517,9.66315699053867,-0.004776910310091344,0.002435590171587364,0.0038126884747393206,0.17284562638433976,0.6040434595378091,1.0353004567826676,0.3540545730163412,1.113466451634977,9.839904716310194,-0.0035094377215833003,0.004996087277498861,0.005650565351709705,0.44243033441207347,0.16463434940213134,-0.5128847078729856,-0.4623000467652556,1.063490806005536,9.763229442256312,-0.005775253092378047,0.005249826111411888,-0.0022358585641573422,0.29517199524193255,0.07298681398566376,-0.6827748784856679
0.6136379205978618,0.14431410759646265,9.72698479274451,-0.004414520817524744,0.0011940225843693403,0.011152671250407078,-0.37747428541616435,0.18995665089660635,-0.6059480734738751,0.13812394710422288,2.263793388190155,9.553406825826267,-0.009797637109710234,-0.002620120265447534,-0.0109978513747468,-0.8980832704454891,0.32793731153427536,-0.22314849646503637,-0.16448635419624208,1.1514278313008461,9.657992486018617,-0.007030083141250544,0.0029615972527539344,0.003445306189525864,0.1851568399011375,0.6101381620662937,1.0488824177910456,0.37043948015869416,1.1284886116189643,9.835883247877897,-0.0031667154814244906,0.004432690558604896,0.005531436836063617,0.45695130391717714,0.16612182815794466,-0.5012791696009858,-0.4584455794120686,1.0561684296075526,9.786108636632633,-0.008329496241087865,0.002862197722861102,-0.00297682726488317,0.3074945309890492,0.07511042758173335,-0.6719030246853438
0.5893156293080596,0.13327350230855817,9.752691790143869,-0.003573948603545935,0.0014270515786335412,0.011157655316917241,-0.3777893967908089,0.19463060622795156,-0.6088150585422282,0.1300906928451571,2.266544881689159,9.556315715396899,-0.009214562983805519,-0.002782314642169025,-0.011077088663067251,-0.8954409260134075,0.3308474623059717,-0.2273402782327627,-0.15200540285777459,1.1324712398921848,9.660601177999643,-0.006974535366957954,0.003169654573768168,0.0028161547006588985,0.17907068750419128,0.595505610377351,1.0405411648233216,0.3608951135133719,1.1207470403974322,9.819871272223358,-0.004128258730325032,0.004537988412715891,0.00755063666332525,0.44651408859838954,0.15456276250597747,-0.5098201905963222,-0.44679376494642176,1.0512979302598255,9.749369220064567,-0.008328476411161245,0.002861190343210272,-0.00297585508529078,0.298988283035117,0.06218385423304323,-0.6771274099321607
0.5911784822180001,0.1413314288991119,9.724865531446424,-0.0006996317359789677,0.002876288072044698,0.009860719261829961,-0.3810735256254829,0.18860670295074483,-0.5991029955737277,0.10301114581148653,2.2699304879296496,9.533131157349882,-0.009178255469682435,-0.003494295971399943,-0.009186005018369118,-0.8997599691933317,0.3286965950940133,-0.21850210046545837,-0.16630231273866283,1.1314215391843165,9.65808979645124,-0.004877435591569256,0.0036191020792580575,0.002021258813216027,0.18317138869062652,0.6033430029873291,1.0412851378447592,0.3644068474641801,1.1232120798839518,9.828084747918131,-0.0029160470790720186,0.003527805241376665,0.006004615359167552,0.45195247310492087,0.16036127104100034,-0.5083591160847425,-0.4447899492504312,1.0486512863273818,9.740297103632809,-0.007355148205602395,0.005497256035716329,-0.00362605418484118,0.30357028249185847,0.07026892215784833,-0.6765700306809247
0.5916469563165028,0.1437315438759488,9.715603478212017,-0.0022538860298196572,2.7295168363722285e-05,0.010836814556795174,-0.3774111114711451,0.18457686370042764,-0.6052867386294107,0.13777255320756798,2.2692149507440402,9.566855246060765,-0.009268242530305499,-0.00463942420029546,-0.012414052983983482,-0.897837082049333,0.32401803150751085,-0.2250745560034212,-0.15138406986315975,1.152660185054449,9.653373735053144,-0.003577121478992066,0.003038407165214975,0.0035578406123523733,0.18148540275905303,0.6089021939751669,1.0472047115624588,0.3722530632312629,1.1295679049837748,9.844321134536983,-7.86014801005561e-05,0.00418708910859231,0.006010024176659663,0.4512957900858205,0.16497871251850238,-0.5046570742678164,-0.46154667264100113,1.0730966196215983,9.733260069787034,-0.003727552131963121,0.005339042982138697,-0.002385451768192496,0.30284600468175576,0.07484474371130041,-0.6728276874624644
0.5841994088605352,0.14234393440281431,9.745594388932453,-0.0025205104713547444,0.0007332312892607145,0.011696055268347536,-0.3726682792500419,0.189909303246045,-0.6169705724614541,0.13514684299940088,2.2803431900128786,9.569798247874935,-0.00901163818856954,-0.0029035883105986747,-0.009185629378592946,-0.8915899170673449,0.32517181667280526,-0.237582230426757,-0.16893066388222192,1.140275816374416,9.666330950175508,-0.007547189017358678,0.002973785468768452,0.0026270195891926907,0.1788501500854536,0.6049620275140982,1.0491582142129194,0.36959088348967656,1.1336368354359614,9.831662357897876,-0.005897914506031495,0.0025104792537571797,0.004956737273247197,0.45395929720895734,0.16201939167732907,-0.5039698770879643,-0.4488258401605449,1.0683763537310837,9.758967063367129,-0.009093937821990158,0.0039622118630261716,-0.002448393767814231,0.30314452234595646,0.07211953899601316,-0.6701869747813995
0.5846706632466342,0.14439995755734708,9.736337820934994,-0.0032222762623624348,0.002175099054991295,0.009852747068203441,-0.37423385250957775,0.1846049858796244,-0.6048202285714519,0.1270778953352304,2.2603683162561694,9.539442231683802,-0.01048129446165402,-0.003091684695194056,-0.010282138014712875,-0.8936639296676967,0.32062596532839516,-0.2238601626420495,-0.15870231452326672,1.1441370500735564,9.648395840398544,-0.007334590305757472,0.002206410273043156,0.0031581354869128307,0.17291391953699617,0.602054004657199,1.040168640255311,0.3642332193261654,1.1157349933577354,9.841238809167386,-0.0051935552863314185,0.00461018465591461,0.006298275313622648,0.44509694457424215,0.16167220778409586,-0.5119525425026134,-0.4503330916807165,1.052846759700058,9.739281341762714,-0.00926719401370423,0.002398028505152581,-0.0020884136086609284,0.2961589078840554,0.070564266328644,-0.6835565326843301
0.5867854268425138,0.12526633974816068,9.720711865109333,-0.0057459459047919615,0.0014749251492103181,0.00984279530740284,-0.3789829762604858,0.1952854315637264,-0.6039143518759204,0.12850664033890977,2.2688433698237325,9.561339071541218,-0.008177712834190805,-0.004410380922597478,-0.009343855570325306,-0.8980895836237774,0.33038182582744763,-0.22267845921730348,-0.17009196752253025,1.1370894090465677,9.666685567146395,-0.004362347978041034,0.0036079060825368967,0.002838574786415634,0.17587789495621278,0.6095841242472577,1.048491557452646,0.3592486934876123,1.122003411329839,9.852311850858438,-0.0033528041577076196,0.0037517319287060412,0.0067160829220004525,0.4420876869668866,0.16992830371446727,-0.5018558991672728,-0.4353452129144723,1.065246414415034,9.743740469035819,-0.006408706978727683,0.004649604776330428,-0.0024144629391921442,0.2972105048242611,0.07676041205210274,-0.6732174747945118
0.5925249266252837,0.14652374914082605,9.738558181736474,-0.0033704454395210985,-0.0006205903227140186,0.01005731441243462,-0.3762876938201026,0.19075066238985677,-0.6096086636083674,0.12070984518323745,2.2716957013445893,9.564229419650982,-0.009799583243008293,-0.0026220840211265617,-0.01099182176208766,-0.8971222950567226,0.32866063150064145,-0.22487023062815253,-0.16906271102664086,1.141785476659832,9.659058765127376,-0.004207315303312331,0.0026334657850907235,0.003997871545869173,0.1880244907584013,0.600726786706645,1.0368182376116621,0.3605748350350093,1.1185569204349195,9.828757413694554,-0.0037468850514406175,0.004299565699965307,0.0052004337514261895,0.4550871759825083,0.1615948211738707,-0.5142374039255121,-0.467747051358991,1.0752305081212996,9.73244845804221,-0.005784910778017827,0.004158295251565897,-0.0023456497801627773,0.31012995590348147,0.07060301091278384,-0.6790872580120717
0.5888931900724319,0.13304735330215461,9.734319836091046,-0.0015596050316630471,0.0036504235619488324,0.012197293714737711,-0.37998187200167194,0.1929234799365416,-0.6107747705810055,0.1329331854003665,2.2621251537232436,9.54103987568902,-0.009315153806838812,-0.00341608082722895,-0.010441612535273237,-0.8959335169453387,0.33378158413805187,-0.22638213197655252,-0.17217667646295226,1.163132922388624,9.67516293828584,-0.004475461789206128,0.0031927836598017864,0.004095907137015999,0.17436322510551075,0.6047472902361617,1.0406603334108706,0.3659411417736683,1.1163758728196167,9.849728368662946,-0.0015786388281151852,0.004482171219707802,0.0054721055004075154,0.4434169736497833,0.16092556213847403,-0.5077933090428461,-0.46703321666889447,1.0688207226487947,9.764526813536712,-0.006262970201364829,0.004036863111454825,-0.0030068331307525954,0.2969519276299111,0.07218439808841978,-0.6774369406420737
0.5984447729640217,0.14274202660434504,9.717935795599491,-0.0031232689110067815,-0.0003182967822849837,0.0115346459186195,-0.38140115053202384,0.1880380072876793,-0.6118044770685543,0.13924945661090504,2.256123766643658,9.529729538509434,-0.010648869002252552,-0.0036853667844033693,-0.010278484209127392,-0.9008120861610333,0.3259230689957559,-0.22994928478600463,-0.13405741438002486,1.138278177512179,9.65430422031517,-0.009263113266945878,0.00238417870639352,0.0020615774299576842,0.17271717656795793,0.5930321062327428,1.0383959485102732,0.36078179306842106,1.111883113541559,9.841801125509924,-0.006970717189221103,0.003883802719380929,0.007538308318504009,0.44213898252970285,0.15532599132283645,-0.5083117252633244,-0.43297104380298546,1.0679062590465787,9.786779044390563,-0.009727428253490232,0.003362036942321305,-0.0026299975611522425,0.2965369834005015,0.060485960927050796,-0.6790781960359661
0.618881249298003,0.11092906107128567,9.792330108756095,-0.007977126072029035,0.00018222773680220386,0.00827982075185777,-0.37867555581106405,0.19397896395364606,-0.5970968775597908,0.13937371118033287,2.2534451760289476,9.570558648493863,-0.00980055630965732,-0.002623065898966075,-0.01098880695575809,-0.896589591678245,0.33409826763440725,-0.2161249092282654,-0.14105969329241663,1.130407431010015,9.685714769140871,-0.006540248426258675,0.004059832730081649,0.005273068151141107,0.18000755424178877,0.6030698591167357,1.04205106539114,0.37474922840649344,1.107025372461178,9.823592597736578,-0.00660253632842345,0.0052497866881217,0.005165080421548998,0.44974204876304347,0.15916271372322655,-0.5085929335025001,-0.43304324021804963,1.0564634590989739,9.725912085019845,-0.00991607371614428,0.0020181515519986384,-0.0044788498935729075,0.3047873688055904,0.06810839057027221,-0.6783276242528328
0.5778518932047841,0.14592520903396028,9.73865617143685,4.205555838497227e-05,0.005598569773864186,0.008194750686700801,-0.3797977034102298,0.19399129965018347,-0.6175989079615894,0.12031814464639903,2.274880736997801,9.538034425289899,-0.007511263621987205,-0.0020445577642436543,-0.009343374997809017,-0.8981924943635056,0.3332234519524644,-0.23466231666577436,-0.1757216455479429,1.153359372899696,9.646879342075774,-0.002567726089462196,0.003301167106261454,0.0017584787363037857,0.17685124481666986,0.6093510233698026,1.0479910946367668,0.3553730604994327,1.1430202148369721,9.818150460235639,0.0010737242490638128,0.004457457740416331,0.006666129516396669,0.44276505733302024,0.16357028257143477,-0.5014197219878654,-0.4420710096327937,1.0564811780914851,9.68199081660201,-0.004332014041937189,0.008221430859673433,-0.004417887726059632,0.30022022374447377,0.07329821325520049,-0.6689128689458839
0.5484372475528313,0.14488102910618847,9.67435346161488,2.613960591358244e-05,0.0015406946070554628,0.011019166522418695,-0.38256134845469986,0.18719715409801474,-0.604482281517106,0.10114958173451156,2.2738792878280667,9.51234899758364,-0.0059946697894771046,-0.0030787752737669173,-0.010215314382277817,-0.9029505548311293,0.3289125206830104,-0.22067757683349723,-0.156233671696264,1.037639501614067,9.491032331347965,0.00891636779463885,0.005023746279684905,0.003492676433350108,0.17424372597801815,0.6082273345385573,1.032141251264777,0.3160918232407568,0.976327607720016,10.110073498942727,0.02474506880398601,-0.00036702917451277435,0.005463271681973605,0.4475251463190373,0.16436767853736764,-0.516348833633195,-0.35569430843663946,0.6929533326635019,8.509768001232015,0.04009134475682776,0.03674949884048674,-0.0017431510440127688,0.29882226067078144,0.07182151777963268,-0.6845467173753982
0.6533014036337954,0.13800391481876031,9.814632123711096,0.0023384970900452496,-0.0018984479704618916,0.010986559819311004,-0.37192062340446996,0.18653803444771774,-0.6199503384633421,0.19141302589277642,2.205743517503284,9.594975646510823,-0.001058122881869301,-0.007606237781388567,-0.011653491656145027,-0.8923310160909258,0.3246700604268689,-0.23903797968638632,-0.18971070860609657,0.7409002372075689,9.718127803973971,0.26461072133652613,-0.006959120400262819,-0.010022273545356987,0.16948475627776516,0.5996070496041265,1.0375023598293651,0.5188826036597528,0.772332685309448,9.50748373187664,0.2577611043837262,0.02415746625585922,-0.016325009126454234,0.4371962675403229,0.15001006958684096,-0.5095294898672319,-0.2222598618725979,0.9607774716036,9.802910909766158,0.18470196369445643,0.157871403375934,0.0020149045944717996,0.2948384349968247,0.05610927068752901,-0.6810786064607643
0.6313532984764758,0.14262080871233523,9.835420009240384,-0.010233036818743466,0.01834784980085934,0.013201956338033631,-0.3809059383661518,0.193773893768858,-0.6019670169702461,0.1165922800913742,2.2856652407789957,9.572116067526022,-0.008467802478813805,-0.0023557544056194805,-0.011147913184098591,-0.8988059136517685,0.3338255616490088,-0.21879220924048848,-0.09895637040382614,1.5385761475160415,9.715610197964725,0.23868330678504834,-0.006447103540002176,-0.009135873855246798,0.17858460214006905,0.6187417421084754,1.0343672040044782,0.32691875345138266,1.483883112339338,9.736280818476883,0.22338914767179266,0.014332629575438056,-0.010600907363206435,0.4480175135944556,0.16066886855638046,-0.5119851460652489,-0.6677997115671803,1.292098307359798,10.595907127844116,0.16983992890755825,0.12158493889616248,-0.007572313800417694,0.30970238317630233,0.06496231138388614,-0.6777040510905787
0.46334434305854544,0.13179344846826352,9.562300558467427,-0.017111632798660403,0.005378951261086447,0.008246572093583255,-0.37644211948176787,0.18436264795599933,-0.6067606881330783,0.03992531071266599,2.354488839751487,9.528004210982028,-0.004610221143577728,-0.000954347563180118,-0.009035441147833407,-0.8958607479079387,0.323312776754895,-0.22239921638096724,-0.23971452998076348,1.471053382249903,9.734089524611752,0.10580018587925769,-0.002069607430121622,-0.004623877052832181,0.1777200006527604,0.6155019066584633,1.0424108340634124,0.26681941379974566,1.5619788972120274,9.98226632888869,0.1190686818832103,0.002051795680545215,0.004231761226742767,0.4485074798940263,0.15254108769044697,-0.5030158878338984,-0.7326499137812457,1.4104706099635151,9.966343435126621,0.11259209233897298,0.03854091755660778,-0.009586139505918977,0.3071609707439414,0.05823288428359861,-0.6702067526604403
0.5876006853101106,0.1326747255658716,9.697615200756942,-0.015552196320261905,-0.02217177995137015,0.010191612846063819,-0.38045396484394034,0.1933678249906426,-0.6078352342534235,0.14698027779881262,2.285291272227239,9.54725057497399,-0.022974028681386982,-0.004742236733469744,-0.009358000208940932,-0.8985909055990038,0.32546560128485874,-0.22703262004621208,-0.16270422248589833,1.628872139117835,9.61346008574956,-0.04563177733149605,-0.0009636136049493572,0.002008796751570482,0.17440410368566395,0.6235897706044994,1.034937609451907,0.34830422275945105,1.6073542858719028,9.766392289961436,-0.050030455533502036,0.011489853489315475,0.010141001425122698,0.44487346200318384,0.1636255473373142,-0.5116921560009162,-0.696776474303425,1.7623858051335524,10.467682285578553,-0.05240345393180291,-0.01622874592118925,0.00225071807272542,0.3045569939194097,0.06736223086347004,-0.6776042218034575
0.5982341866991757,0.1118162248037465,9.928188698755227,0.00968684270384125,0.0032397780736109173,0.014466090227313926,-0.37995822153853254,0.18976907768257814,-0.612281318979094,0.09608730214091502,2.2416042506491323,9.57439507959866,-0.02722518499018553,-0.0002544828451899091,-0.01248199269875129,-0.9013310468011135,0.32711682979196155,-0.23337234248570674,-0.14413099323502604,1.5906106342227408,9.55565781029818,-0.31881912139844476,0.016651361871734365,0.017605632892352643,0.17157837648562083,0.6120809639284978,1.0365940637028168,0.22962750044401442,1.7586745193362208,10.013806392936122,-0.3250416392924026,-0.018970666938136538,0.0288002979503674,0.44018101891437994,0.15953187386208548,-0.5133910725193319,-0.9209965139540285,1.3711523750574206,10.532501287020615,-0.25428084442296867,-0.18218548462521497,-0.0038138374922860297,0.2998956833596559,0.06469746493093056,-0.6812513740336645
0.6913496700709719,0.11905447716814527,9.640059782474433,0.01274478301526114,0.012656298569085693,0.011787763546325086,-0.3862853082549284,0.19325308045989775,-0.6038882475906905,0.2573462047755192,2.197324053518854,9.52504395451334,-0.00022691676943376043,-0.00859773202064553,-0.007961283431766282,-0.9051507677951786,0.330371177180912,-0.22018259690061187,0.0005536064682177821,0.21464839808400782,9.70693547792566,-0.1068717187853238,0.0018663636845338213,0.009006582063564358,0.18070469268692893,0.6120865272126708,1.045038313026683,0.575743215363288,-0.3653661088658934,9.415504536192648,-0.08132435421983013,0.037788246725113654,0.005382975865590944,0.4527311136660007,0.16080628469924327,-0.5034792248235954,0.6104359612587936,-0.01870185278974465,6.784433991535129,-0.09774468203424308,0.048150553645551,-0.0068116634276533215,0.3087354127564804,0.07026052713757325,-0.673458477391469
0.5950808802110392,0.16786240887400092,9.72904446821024,-0.0004742050337287812,-0.0008855408256002577,0.014176428606393836,-0.37631145043011643,0.19103290560919092,-0.6125351308281771,0.10762459507513322,2.301321025410402,9.56137007469034,0.004461492027894747,-0.0002768229210353639,-0.009544386620177385,-0.8947347737085666,0.3303344157377125,-0.23100506282959313,-0.16436148620851906,1.2465992088025615,9.756807836660164,0.39892953293620304,-0.014335737637511893,-0.016080061308690965,0.17926129672156443,0.6146543551726366,1.0265172982419797,0.34643813607184554,1.3628864165330015,10.05562848050538,0.3973256609653461,-0.001170948083998657,-0.012745463037309843,0.45286908975108536,0.15868116148570596,-0.5135067742713534,-0.6132426479677093,1.1627192598781917,10.609425467725753,0.300905705735683,0.2105894754132336,-0.009242213743991562,0.3106782051439907,0.062070728173946904,-0.6797140650276882
0.5223053675578838,0.1332563313416318,9.856700316262312,-0.024701826910114962,-0.0007544818532824811,0.011041482393038878,-0.3845915144126242,0.19066678170937976,-0.6100379334520042,0.0662411210663489,2.258614936864845,9.553654142789183,0.003382261819403269,-0.001517498351717956,-0.0203236377830727,-0.9044869791665372,0.3290821290071135,-0.22994467580124123,-0.3059988802437754,1.4581056051988743,9.528106399359592,0.14945818136445485,0.0010286121293768297,-0.002307009388151148,0.17678933798473254,0.6231592385079494,1.0295357293669378,0.24354022645751483,1.5078891705761974,9.82967028063007,0.14583129409438716,0.00988355994616723,-0.006333776957462199,0.4504000819234202,0.15626578691499457,-0.5139913751690915,-0.7991803941663014,1.2840143785404645,9.723665373198859,0.114257349115791,0.08743978550141268,-0.028958644676489793,0.3091763180227869,0.06379805253643506,-0.6816224152633412
0.5897939117012283,0.22601291527560596,9.656291186035391,0.009191740222423394,0.010220565182329368,-0.0028160648141050747,-0.38256212724612443,0.18983073697916017,-0.600541431151814,0.15257978711573678,2.30778699556941,9.502329529575176,-0.01578431747385704,-0.004398407730719494,-0.0038728497671402643,-0.9010011812596355,0.32842604463940867,-0.22142083838757043,-0.1285829228118537,1.5254813570152725,9.483848964530067,0.1707206298083457,-0.002056911597460027,0.002201704231276314,0.17925234921176417,0.6255917465098716,1.0331896329666652,0.3819325984662262,1.571311721766698,9.737029938147485,0.16919615978399702,0.01629118031572409,-0.002534620931957037,0.45287821689676433,0.15424315335430183,-0.5076802910678417,-0.657651701903483,1.7461653473380119,10.018085548208767,0.1371151502716108,0.08597590982589828,-0.005841257792855213,0.3127072471467318,0.05908968200494241,-0.6753890647630205
0.6132114206184481,0.09987704566732356,9.691528380138703,-0.029708199476398595,-0.0023193994646234103,0.02745696339717877,-0.3835486509604284,0.18888254447291772,-0.603477032271214,0.19288574097146355,2.334912959174979,9.530031727615214,-0.031655178855230406,-0.006485258796733562,-0.018520702362026225,-0.9005084442049276,0.3250011323725822,-0.2226203779490102,-0.09508161741592784,1.4549711158005691,9.805935517046022,-0.058420170664075864,-0.007267214751540475,-0.0032437031823584236,0.16945593646075313,0.6255398045875392,1.0303669172090069,0.4243412261664218,1.556089533110553,9.92474682448194,-0.05420064666102427,0.021918886941574338,0.00042944355773600105,0.4423337608441894,0.15438107836046552,-0.5129596911519415,-0.6990448997153912,1.4359132194113378,10.314317174383076,-0.04938166553755365,0.008419758328969556,0.015782879693482237,0.3043543879591318,0.06126576633338607,-0.6781841873699248
0.5718887011140427,0.07631546969254135,9.887831373313396,-0.013289282731391924,0.0038658890432008816,0.016392151243530783,-0.378970030525537,0.18832127666994125,-0.6127954160026631,0.08713712165109364,2.234434472702659,9.570477757248138,-0.006713800667661694,0.00023912201910297978,-0.008074212485121104,-0.8988637183352626,0.3256815842743083,-0.23069434649137474,-0.18952114503591444,1.4902963379859038,9.540699918902654,-0.032485876848149804,0.011432393060502484,0.0035384036396402556,0.16583992437070805,0.626210498740699,1.035051040917617,0.2549607658859721,1.4876540077979599,9.768565248067267,-0.03662685537101766,-0.012967531835762089,0.017308055544140465,0.4372989579518206,0.16001113425323554,-0.5084793611998867,-0.7743874011657617,1.1505096168643991,10.114488618759935,-0.033659266622903077,-0.04070790885558215,0.013349805429815781,0.29951758721094757,0.06141052403025304,-0.6742162578428839
0.6274568638794106,0.1196785080101615,9.57814473356485,0.0007913069925093872,-0.0006987537137057284,0.009145183841300742,-0.3759936168550379,0.18850779134979712,-0.6059776813395755,0.0942509899353646,2.2391168103339227,9.540395477142718,-0.016180660826771096,-0.0024722460617830487,-0.001188900592561726,-0.8949203687658528,0.32744957044272327,-0.22487802316114888,-0.1722636939881971,1.24378378572834,9.6304773616586,-0.1401152531503034,0.008733426567336078,0.007175615027252828,0.17690463647405696,0.6162809353113997,1.035344872797315,0.32057983445865124,1.174273068703244,9.842226100640175,-0.13624033135089378,-0.0020447696801139965,0.016786711034445113,0.44697115222734524,0.147448016359054,-0.505726472957803,-0.48377890458984896,1.1612333295546002,9.60987157512583,-0.10692548515773702,-0.07372634841783708,-0.00056122700777404,0.3078847806560599,0.05510673310706629,-0.6729504680306244
0.5648205331785718,0.21915075022307814,9.640461841893705,0.11752984348059595,-0.002277496648530283,0.05859733408136032,-0.37791749235743194,0.18628031083756635,-0.6052608301563303,0.180359483824228,2.367087424603971,9.561300240823233,-0.006215157672433865,-0.008210788436708708,-0.02572064185346853,-0.8975948373687205,0.32671293363067405,-0.2238752136580981,-0.09844333786807222,1.2943652900780496,9.688360641619383,-0.03281168364724351,0.005562848293544231,0.0039192791551795215,0.17847955400862633,0.6209972919034225,1.0263280868257953,0.43313031995994605,1.264922244073591,9.712484498738169,-0.033835982649940644,0.0017642950342352617,0.006359209553481343,0.4506097998004039,0.15555502454392917,-0.5171726439826235,-0.45583058010083155,1.2371581114415444,9.288501470371704,-0.03206424011123651,-0.018844628473279123,0.009905964354521457,0.3098500325865886,0.06460474373211392,-0.6860129929020279
0.706208671300465,0.031116242157938873,10.018300902845752,0.06842126255390679,0.011550555148670818,0.04273831457003033,-0.3765861318258635,0.19371805244072265,-0.6127420936846161,0.1077421686717369,2.214424412491015,9.54612450114955,-0.015588503453484556,0.0003169209823022952,-0.012670623235329692,-0.8979151163490414,0.33350086423506836,-0.2302712245621454,-0.17964792593544038,1.3744107388190157,9.646142390570029,-0.11575826752759516,0.00414622496357682,0.004293661207072512,0.17834898521974157,0.6150905575087459,1.032634057534744,0.31252146323724206,1.384194262195856,9.908909012618397,-0.10898726642321392,0.008960383641785911,0.010216665189160415,0.4491919990755571,0.15651217088481995,-0.5127590571208134,-0.6439977038090604,1.2815959597869349,10.058684524999501,-0.10765974550713447,-0.02894008296312549,0.008099305675578086,0.3065042981602867,0.06327748074793717,-0.6808657727668974
0.6034782217939075,0.6683724319034462,10.268992862350277,-0.017828155722115612,0.09550978603503119,-0.007241487560616036,-0.3708390506199586,0.18420526231134693,-0.6087573668975972,0.1462928892821281,2.175821767158766,9.633836383644296,-0.002612424740724767,0.0011904568061205055,-0.013046668983568583,-0.8910067517978062,0.3235495191469216,-0.22610004653143834,-0.16792708298431702,1.075093007863811,9.582240853011509,-0.027649716440578443,0.005985170352812511,0.007995850586611801,0.17985694736860872,0.6143436990485069,1.0360303040802634,0.32734732354840873,0.9899392686209378,9.852613480706221,-0.03258973846661843,-0.0059408432749401665,0.008800650536182491,0.45044311595623115,0.15475215819059002,-0.5074115133045326,-0.3848041849544516,0.8578229640774069,9.570414041357353,-0.026335540168350872,-0.027404407823151466,0.0007129641671027062,0.3063415217411379,0.06027043124773909,-0.6760263749592433
0.6930739580108382,0.22114022759391663,9.6959572545202,-0.3589840201343373,0.13208893534019076,-0.009852029125240545,-0.38065495690178563,0.1928070631418134,-0.6024695135803375,0.16203104709948782,2.305119446303218,9.507194684005613,0.00821932792308954,0.0005117546342365438,-0.006805599877090779,-0.9048766171884834,0.3259891270875594,-0.21868826245872894,-0.10588591455384201,1.318031871906822,9.688422985973098,0.0013989880222411493,0.0033809256900891684,0.002667445030684021,0.17766761251500238,0.6203953089071883,1.0409819240189395,0.45712142780328585,1.2907535612762833,9.700117827964549,0.0031905279527842086,0.007905609285831113,0.006824382477725255,0.44540902884322814,0.15988884583094606,-0.5022027904261188,-0.47093543935698257,1.2486153427811117,9.310947085753858,-0.005766673975801649,0.013644761378698293,-0.003045238114695697,0.30705119724125324,0.06707343664937186,-0.6734872752782755
0.5544966106197562,-0.6384487338774605,10.175274870215274,-0.15863432280957482,0.20389605366987293,0.11402127455260229,-0.3718316569010612,0.20453392003790408,-0.6143442517010635,0.0985297111490045,2.4595901470433126,9.541479249722098,0.011402890617203516,-0.001865079993151322,-0.036722925471580264,-0.8979175725794623,0.335459196189519,-0.22955361539058367,-0.14408663873334637,1.295728574417914,9.664726275731324,-0.008382323732697138,-0.0017828696227142249,0.0031966267765670014,0.17955228632839232,0.6109819477440637,1.0281964940993122,0.34522994810647095,1.2218492285562852,9.847294650411799,-0.0015852510660506985,0.014781423286163374,0.0007600096662886801,0.4476369596460355,0.15045218008106423,-0.5166967093186375,-0.5091710711925568,1.0183938083832882,9.898699963048088,-0.013527546269107474,0.021163445360183154,-0.00713816597059066,0.3084719743604556,0.0552976386198229,-0.6849199883484448
0.5303234202609356,-1.7767312929669699,9.814859148558305,0.8522971698403177,0.3338880631383958,0.068590262347328,-0.3688961300162676,0.1777821617385011,-0.6200865509617237,0.03887800903195912,2.0147807972636214,9.581530736137806,-0.005008782850682587,0.004310441114400585,-0.028601357271185453,-0.9015225039015314,0.32496114680106075,-0.22749565251418025,-0.264483594291436,1.225289294580922,9.5880927882119,0.0033467162766246785,0.002098687765690069,0.0027526597730046978,0.17549034242924164,0.6116205257830607,1.0367916369048893,0.2248553240569477,1.2809557559133657,9.849397754004741,0.005769730405856391,0.004906976994992074,0.0009615933726657993,0.4462354251677416,0.15065751857634813,-0.5096026485486337,-0.6779582911274318,1.0262560495166904,9.809048338149168,0.0012437169160505754,0.010426259724002735,-0.02036679025768096,0.30462080736200914,0.057613807679561674,-0.6787320401718046
0.5534374187895807,-1.0648163235894026,9.98188777177048,2.608434998563169,0.600137931282867,-0.08362575175316503,-0.34801744759806513,0.13209526623126905,-0.6381699762011827,0.10997476070555856,2.1189986318402187,9.441250766678058,-0.022614712700491313,-0.0073070216225224385,0.058941024817034074,-0.8929936039972332,0.3311085388637486,-0.22638474331444372,-0.16294390154876298,1.4032095584428854,9.628594598727148,-0.0011416362071001705,0.005576756222748908,0.003404486275882055,0.17670661029343473,0.6133332642215764,1.0375227767846402,0.34635788431300774,1.3790707192875833,9.837183744658978,-0.001058598463554967,-0.0007846613041679231,0.01033499293326805,0.44971345020319264,0.15229651521409893,-0.504493190076915,-0.645332312829207,1.6541971544200567,10.081669923728562,-0.0032444202909496715,-0.0040863431586239864,-0.012233071060271047,0.3083242517288655,0.058074163772011016,-0.6751073292744026
0.2945232173185888,0.9898321894068622,9.90133226792452,3.5511699422049046,0.7740473935740522,-0.21483183849613544,-0.34167415992894207,0.0587957556915171,-0.647963412685867,0.13287572605924836,2.1029547575014202,9.607521493930545,-0.001248929909577576,0.0027227609048589185,0.09428868573236099,-0.8985522550389922,0.32648299750873466,-0.22142510615342023,-0.11918745715708265,1.46681534676162,9.696557767808276,-0.11342996664421257,0.008971799764800836,0.006055311806434276,0.17959058011971368,0.6141138815442096,1.0338343729785584,0.37645749327549916,1.484781393682375,9.81972869048251,-0.1155234902836935,-0.0068376266221243254,0.017935714311110875,0.44701950396647183,0.15798859062731077,-0.511508327435796,-0.6452649193002818,1.1072703812123792,10.175241491112837,-0.09368007926993485,-0.071602069154423,0.0042392177089584735,0.3082144750344773,0.06425656288914207,-0.6801383167752684
0.1325163010260087,2.7791090973283517,10.388048283829361,3.6808211795012022,1.0143053067720185,-0.2430360078208606,-0.3221375415802974,-0.017730071020065477,-0.661556550940451,0.10099063208434547,2.511142881892373,9.504842112897116,-0.047746774786726384,-0.015272126749389546,0.08498318466623976,-0.8978335243308383,0.32451141535193756,-0.22434618266185946,-0.20315870316131407,1.2477963614858774,9.660387504285861,-0.17906649896510668,0.014395494715019459,0.012073330082843682,0.17756033538561775,0.6037834933604213,1.042083221825029,0.31067361618812706,1.200713519813097,9.907145202834245,-0.18736344890038623,-0.010870760271584384,0.014441116205823966,0.44729694640978496,0.15500516789387753,-0.5044523235040878,-0.5263297722470651,1.436231137054,10.009310985886886,-0.14673083279041965,-0.11691776028810337,0.014682392034117059,0.3021981733727845,0.06095525135095156,-0.6749881053773427
-0.1878293648283716,3.584892145473003,9.844297570825669,2.3430857889643737,1.074509938098923,-0.21563182833906447,-0.30417520351213906,-0.057968596876895165,-0.6692926168653535,0.16049954254470783,2.240464309878567,9.508343447126755,-0.02307991516116745,0.0008928161635618156,0.08241237198656157,-0.8964338704755087,0.3406315727967442,-0.22423175347018837,-0.13861051492608134,1.1667348168844982,9.60611741477619,-0.204771320361498,0.01145387827753709,0.012837115205999453,0.18223732673557538,0.6054934353542243,1.0466825583304669,0.3770468681264019,1.1799397085532481,9.690289304258998,-0.2084578983654508,-0.005162529063115495,0.013736165685221895,0.4515504604251856,0.16250672317592382,-0.5007712970343114,-0.4708516372173198,1.3987283012369742,9.382985499533103,-0.17014146940887487,-0.12316601586374055,0.049938740318931855,0.30363760209376084,0.06994186185018955,-0.6712038703566002
-0.49568014479013756,3.7435571000105807,9.191298441165817,1.593110435884324,1.0882017663336592,-0.19927951749179423,-0.2784541458494207,-0.09587026016065926,-0.6812055617168704,0.17462955912529296,2.1694377742959645,9.62974098533312,-0.030244075910285717,-0.008602256720519261,0.0823678558458769,-0.8896406328548662,0.34012803811502584,-0.23013897756055368,-0.15117121416659338,0.9427669122382639,9.703528160779724,-0.0983584064845309,0.01058052671196436,0.006904086784014212,0.1783347828128352,0.6003605117284944,1.0435148872642876,0.4008889805906104,0.9046780077637153,9.898776928914991,-0.09777422715995393,-0.002701331882721614,0.018870312830822862,0.44706121993783404,0.15746091294596767,-0.5061412424688567,-0.30319037083409983,1.1234593887852067,9.278921107835481,-0.08141319748713842,-0.05598367514406451,0.09533608895525372,0.3009270118551321,0.06439325478015229,-0.6768727949583728
-0.8293592175277836,2.6966048305651884,7.917420842202288,1.5750826760750356,0.9725261986401795,-0.07619504916191197,-0.25987450285739894,-0.13705445602583563,-0.6721105592304601,0.11967918650051353,2.4482329408754397,9.442449823845662,0.00715864076230144,-0.006858275023590738,0.06091563644202618,-0.8929702357190898,0.3335818813155171,-0.22200792517339005,-0.18018682714595152,1.1869582089135489,9.63450313979838,-0.04591971195871336,0.006913148735014494,0.008869931183293593,0.1778047266147441,0.5986834972485069,1.0386250862600772,0.3503612183934103,1.1299061853453003,9.874669358306955,-0.043942269298389264,0.0015890427752542925,0.01270746583573014,0.4473090517385999,0.15966991445988835,-0.5080801714799413,-0.4132999279619437,1.2105534350702958,9.811055083442003,-0.03535175301476376,-0.025873529320774562,0.12549667747103968,0.29866994215186665,0.06759466070953861,-0.6797263228502798
-0.9456977982747425,3.4786213511594157,7.377563098138649,1.7356017205572631,0.7413284473698581,0.1798346097275597,-0.24678901814653514,-0.16801999289524092,-0.6647966401530262,0.29281418255698066,2.3817865526390323,9.740403508467725,-0.028047275807261726,-0.002735864075236856,0.011890928666560044,-0.8914796734232755,0.3377800969179078,-0.21643491334869958,-0.0031143526702455543,1.0244726611121902,9.56365714527686,-0.05802230887475539,0.008323302439143511,-0.0019824336934759473,0.17851053448730228,0.6016223917483726,1.0381506736066903,0.5161898443859926,0.9630422739137494,9.746158425958086,-0.04974102475029098,-0.004874382027995232,0.011692611155601529,0.45169722043817717,0.162095900122685,-0.511518293355029,-0.23292150859057092,1.415484607173968,9.772073790386226,-0.036915468028589166,-0.03439636403337224,0.16304014515607482,0.2998416113474355,0.06863309002119738,-0.6831431923035722
-1.432643747047851,5.284211106614987,9.043119419215888,1.6825230158139435,0.6559796063988178,0.17499176390391966,-0.24408524712023355,-0.19766890321347397,-0.6732604207018535,-0.031263021454058224,2.283547928112691,9.435842303877317,-0.03605614738876833,-0.02391024975170433,0.0063436980768742934,-0.9006269678374915,0.34253347821727603,-0.22885219103434662,-0.3700418173111605,1.161541463704565,9.759135177278115,-0.06793869156237241,0.0076116182122373125,0.0025020043932750436,0.18147347444201245,0.6011368520937873,1.0407997313766544,0.19555149587549117,1.1700824449143163,9.956940586388027,-0.0679493402390756,-0.0003124425051321203,0.006341999428833712,0.4524977180946226,0.16621348544043069,-0.5080765288870401,-0.5928802254564618,1.3458240188509352,9.775445608404796,-0.058180387013267484,-0.03970923571656501,0.21810766803529097,0.30326816746701774,0.071308058937504,-0.6807020746382093
-1.1901884197965398,6.219981980619142,9.324577772074635,0.7771725417339935,0.7353639487030497,0.093192690295873,-0.23193464440808373,-0.21487351417242342,-0.6733288055151725,0.22172875750937543,2.0193359773845088,9.545654997311757,0.016874523160296126,0.010216355859973884,0.009080931287869487,-0.9001089666677929,0.3383982111520269,-0.2271165165005539,-0.0987056276167927,1.1764166866217918,9.633125723353796,-0.05263545822305512,0.007633989358127056,0.006064911056975341,0.17813738590525968,0.6005716668072302,1.0479129828741631,0.42308452614467795,1.1573565769474068,9.790518829255705,-0.05121180925479397,-0.0013015539360924277,0.0143288801796247,0.44574420923565766,0.16866771473542058,-0.5011637038741025,-0.3882011012897032,1.1938594077185654,9.561936751907655,-0.04851008295424062,-0.02974607899428127,0.2451732596884062,0.29752234010774736,0.07256666137036545,-0.6703566022046539
-1.4492148813651549,5.520156086864525,8.502507173671559,0.024022523744951032,0.7765782640176513,-0.03166526786961043,-0.2184955005547461,-0.2161859256432254,-0.6739309198071511,0.15496844158480502,2.36965803842363,9.613393090309376,-0.03968644912972067,-0.017733243593542156,0.03910153692792894,-0.9013455582058756,0.34425926531051604,-0.22617431560944878,-0.17660750874231554,1.1985452272112296,9.632491923317092,-0.06271975729591728,0.011419997475428498,0.01181306456438961,0.18418261096437036,0.5989547905411742,1.041486058327775,0.35518496918692893,1.2061019628657974,9.767622239474505,-0.06964210927161474,-0.0006247517562616,0.008561429521027543,0.4512711175930451,0.16573873669152459,-0.5083134779004207,-0.5102728557388083,0.9978536111710352,10.006016406402752,-0.04514416602892928,-0.030052842044935753,0.2627629215863125,0.304023616732492,0.06790016335632754,-0.681008061754102
-1.2846163232701622,4.311558435918443,7.892865966157118,0.27454737668113716,0.7925029691544732,0.013313403315826047,-0.201130348806238,-0.23134224946591986,-0.6583834054098942,0.15641476905455196,2.4021822936775297,9.458806450058578,-0.0002672969667287397,0.0050599763042799345,-0.013216046009745245,-0.8977887878641609,0.3390157852740493,-0.2107807835961818,-0.11429718915829377,0.9622030300378708,9.62758491622455,-0.1535117642581332,0.013875576599158564,0.010118884839556955,0.1813850081587348,0.5944722505137215,1.0505190165610552,0.36235021114166654,0.9503099678147364,9.941750401758865,-0.14651144245094713,-0.01017575141049726,0.016532139098572967,0.4493471285661278,0.1662233240542807,-0.5053641148654318,-0.3277602169423265,0.6439296972398325,10.179420992810275,-0.11465764275497432,-0.08674856730313384,0.2079179151052798,0.2982869012211005,0.06431527782137415,-0.6731791240967538
-1.773616748669417,4.7109874965143455,7.994111393529542,1.1415024212822074,0.860268582846455,-0.08162193990104775,-0.18560510057546056,-0.24675628982333794,-0.6618711108493813,0.3296009313259706,2.216496582721878,9.809252508074064,-0.028877570868590295,-0.016397489775267435,-0.009032133402444041,-0.8985823098898231,0.34287644777629284,-0.2166625713208927,-0.0695446837941836,1.178082714524086,9.713311636795018,-0.17614672663739114,0.020171683214402526,-0.0012599274701289393,0.18434678898978354,0.586213253774746,1.047740001596284,0.5201572960456357,1.0562698557782526,9.829805923231023,-0.16730687822952411,-0.018205159677743915,0.014848973136181609,0.4534246688347163,0.16427856123952214,-0.5117610658541741,-0.20957369106516543,1.2357849800892977,9.673687081418853,-0.12871877735943865,-0.1098641291986398,0.19944192891545104,0.29990001530169286,0.06300004847536407,-0.6820098353778676
-2.2318393083288925,4.951815486199257,7.218062207376729,1.40826583671338,0.7567389344045929,-0.06615723146538754,-0.17053889932531835,-0.2854094048828601,-0.6624847891735482,0.015746539585235447,2.2324927818929163,9.3657079544302,0.0009458421739501125,0.0006550168298713149,-0.02380235350831011,-0.898346557789679,0.33036822784932546,-0.22438550238402488,-0.31346231133509256,0.8516688303856503,9.741718700467182,-0.14312816906164288,0.009374684358872676,0.01239092749689364,0.1770533092444823,0.5824947148290877,1.0480372848189885,0.2874883071642126,0.9161463936806968,10.009606683651246,-0.15500380545203177,-0.006876126709942948,0.009912335287786643,0.4446869287011505,0.16702393025373072,-0.5087362297703347,-0.373076959887139,1.0503752571223675,9.676714860118771,-0.12394662739695386,-0.09618969214732401,0.22350802581680085,0.28819846153060524,0.06385262938413508,-0.6799006907322014
-2.2630089032340988,4.9058463498586455,7.077326727296035,1.584848398500987,0.6289287338191516,-0.019040968712116486,-0.16033041403856743,-0.31482883102362325,-0.645118807724221,0.08373733385960855,2.2664821932239834,9.558166427938922,-0.007114503845333511,-0.004203742210607378,-0.021012111827740987,-0.8951289603009841,0.3360617310133245,-0.21566246729741215,-0.26386658504810023,0.970779541087536,9.698947123360913,-0.13467452160400037,-0.004082609205213183,0.013112866269856643,0.1875117428380909,0.5838139834139582,1.0452464485340998,0.302158364149451,1.046827618622975,9.823612428286637,-0.1467576943079469,0.005722483898308736,0.014236663529380725,0.45543865549684737,0.1723293552678307,-0.5134280128354878,-0.43321467249437,1.131671029640195,9.717270068515472,-0.12317245059284931,-0.07445041181968329,0.2506822024393268,0.30077560580513824,0.0706275354949037,-0.6853211352792705
-2.159785160119063,6.993375343317125,8.421396245222674,1.3430098909384063,0.6090424997017365,-0.0233404973526767,-0.1464618858272984,-0.3248513943814959,-0.6328973825212971,0.21824811867679206,2.282566664190394,9.57309970700268,-0.019059760955564338,0.0006743317010951161,-0.010268754601880562,-0.8927334893554153,0.3514672921456783,-0.21359622114889898,-0.11674147650472005,1.0907538802519845,9.632477472059342,-0.17131329849980276,0.004931106592328818,0.01959965700956454,0.18324013473623924,0.5812697959561727,1.054796804778965,0.40161462774139856,0.990915769367698,9.874371726687858,-0.18394436011899598,-0.0019655964524546814,0.014614489385511126,0.45161335409042075,0.17278887459931364,-0.5046020617743281,-0.2978076514799584,0.8134505421284753,10.24770809471439,-0.15040632869645176,-0.1024779287276133,0.24690159820007873,0.29649669540498,0.0694808134947528,-0.6764960410904367
-2.165692251855812,7.971924016277481,7.725364418176854,-0.12078908121898954,0.6526972088891294,-0.07981890309076199,-0.13293866434501656,-0.3378045690687717,-0.6395118511516612,0.23711894890766244,2.210979268583666,9.539438671863465,-0.007632763764810839,-0.00750803257308228,0.0019824959500907334,-0.8917232652492407,0.3394952499266645,-0.21546966406541793,-0.07647532060062762,0.8827135841588121,9.717728260813303,-0.2943253147775231,0.009905042083225731,0.013775364947669025,0.1699225932299374,0.572352068557209,1.0587849010999812,0.49179638279115256,0.8857252142266238,9.839327100805153,-0.28865413051370514,-0.009432478217506186,0.0219336237328256,0.43793517703798673,0.17169224758307303,-0.5040041899573653,-0.20765157970463088,0.8854830553365167,10.0046431570126,-0.23224562832453532,-0.16622898237804862,0.20610630940536528,0.27939576468657434,0.06984437564442253,-0.6770151982223479
-2.41243412912576,6.815747287030562,8.09076754079925,-0.6868123210065069,0.7390010016067284,-0.19317577450577778,-0.12999157670154465,-0.3253925818061609,-0.6525563989634668,0.11404460591985224,2.3661281845524913,9.599547257321927,6.309261205077204e-05,0.002343246852011836,-0.04410924284674179,-0.9018312317177658,0.34254474511193805,-0.2266460016581254,-0.23690852483131075,0.8636757233734252,9.67832136729209,-0.29448186617645555,0.013980864081352413,0.017338083249623153,0.17768643875470086,0.5719564970169908,1.0540580884504065,0.3290295684509525,0.7682140629211774,9.949514823480646,-0.28858315433289866,-0.012388965632545549,0.025572386647123812,0.4438597003639822,0.18585419384116889,-0.5117630640085753,-0.22330264917207227,0.9431701839279919,9.871361474770081,-0.22636542356554767,-0.1779793007593876,0.22088975034208727,0.2817134923046108,0.07775389944938849,-0.6820490363074742
-2.594549572200368,4.814955456234128,7.736299206774909,0.1365605682317727,0.9412705629718778,-0.42350574502103217,-0.10164503339120814,-0.3282476393910913,-0.6535301964485469,0.09917737048106375,2.1209524880644066,9.465627744755649,-0.022081734639611824,-0.005585427781202041,-0.024849426166548474,-0.8944918216110332,0.3430795977396581,-0.22450858570613735,-0.2473613212363168,0.4207959566099827,9.71687648009019,-0.2211087517509852,0.0017552395938827117,0.007109941707866055,0.1834779664436451,0.5665372502123128,1.0664069037011978,0.3076086560319204,0.38352114534885956,9.86258455752089,-0.21272373697247776,-0.009191400167081499,0.027105021904301595,0.44496502857282483,0.18573494529109516,-0.4968805164331754,-0.09562163221829133,0.6216815021849784,9.782961061118405,-0.15494955392899307,-0.17691905209381054,0.2427674280941198,0.28214781837383357,0.0775140799364263,-0.6664290087957573
-2.9664159759124193,6.2841757637302535,8.140849920555336,1.8017340093641905,1.1693245813602482,-0.7343175311764787,-0.07420323480196293,-0.37401704513920775,-0.6413856567021595,0.24683828939981375,2.159919534129912,9.632690812664144,-0.010576449077909694,0.008325193405997668,-0.005945412404124389,-0.8944765887961743,0.33574044679953635,-0.22640765533083823,-0.12450577438561225,1.02506945572254,9.809155037162137,-0.16906857314132268,0.002828296753154168,0.017204407994270553,0.18045160309955885,0.5656076624312311,1.0569116415949245,0.49331138649352535,1.1284707347761227,9.973953546639299,-0.17270727080138237,-0.01483750685891744,0.02434605119007104,0.44584874605089103,0.18900428661253466,-0.5110248758298709,-0.18669222144429998,1.03547053306047,9.914108806623801,-0.13254396073089417,-0.1719222430726723,0.2523806614236284,0.2787588407316031,0.07993963419403237,-0.6827113554965208
-3.273964718140801,7.665439323585592,7.8255766387148045,2.0764939878895503,1.351580030884577,-1.1367324186116097,-0.0426994788082812,-0.4073772579824198,-0.6225155387283324,0.13557282913814175,2.1497726251960003,9.483825617182308,0.0021158055613317754,-0.0020527766573532258,0.020770237644804724,-0.8913512731889006,0.33962953484616637,-0.2306103300173316,-0.20809005962094196,0.6841113915680773,9.681642493940931,-0.36282437540428786,-0.005771177843483114,0.024207633543725515,0.18627224288210353,0.5548248245639101,1.0682439857941148,0.3642539221943067,0.5981171824625995,9.899196180627095,-0.35690998024028897,-0.0025713201518124226,0.03959803702904263,0.4474156462831433,0.1901338748585812,-0.5005313576373598,-0.018858807963821098,0.7383660686556368,9.986806764065587,-0.29641893491152327,-0.2049266476595346,0.22783955516973578,0.2783783196151721,0.08076428442400804,-0.6731701115169263
-3.4643976705813335,8.059917771910122,6.900941380514981,1.2085127328908358,1.3418589799637577,-1.3057857554075807,-0.009878035648368023,-0.42537465613083103,-0.6010119238046004,0.15026770626152058,2.403810709205678,9.559600786446524,-0.004832142509623583,0.007598601944830434,0.020165773683414875,-0.8964095931074099,0.34923391907333406,-0.21648197649616913,-0.19175693631523769,0.4900528211567353,9.767349773223302,-0.34008637272788705,-0.010267957094057967,0.021402178204642314,0.1782336120193038,0.5469794582791832,1.0646130797487712,0.36277495392457804,0.5908354539071449,10.132785162295969,-0.33259579821150664,-0.015240992341751844,0.03737956461075303,0.43963938760214566,0.19731352498101618,-0.5040734492575226,-0.07001264552053396,0.5617727690116447,9.843874035154158,-0.2678702580599973,-0.19901771622572356,0.22175502327831895,0.26656798585374314,0.08514111914185502,-0.6778424313150888
-3.6113513147178797,7.57272467675761,5.846478722498253,0.3199676605781095,1.4568832616009555,-1.3075824834388585,0.027047827679450177,-0.43298819603962435,-0.6045520336266966,-0.036218317718400714,2.140284654108478,9.359509749698079,-0.025540603130183963,-0.002352422729551867,0.015448255728331434,-0.8928159096149699,0.34795573460758067,-0.22626639520285127,-0.2746378356566959,0.3318814451014686,9.717847475598502,-0.2762556680346967,-0.00686916825958166,0.03094365999885911,0.18618969658323178,0.5316383696312583,1.0670999338876663,0.3293743199911996,0.3623234534209911,9.793688703622829,-0.26856351887994995,-0.023577762841412164,0.05763410524344829,0.44341766395350146,0.18532747294436405,-0.5059037690075808,-0.0056262721618993705,0.7500495563604662,9.42585256124124,-0.205413153707154,-0.1569738087963295,0.22295290137168994,0.27194897377551236,0.07888583439608152,-0.6811794064026595
-4.422496262212055,6.703710603450834,6.177177133857361,0.42250968827329755,1.5096846775360715,-1.1363289695554752,0.06556346069216369,-0.44320506993166137,-0.5944640997696482,0.10830744107810533,2.797793693169853,9.893355235810757,0.0051832117380212666,-0.007288012622877516,-0.062474105140350886,-0.8918046613774161,0.34480841812702345,-0.22332068968918278,-0.24170284841538056,0.2840491395271069,9.783185038346552,-0.15357496551328015,-0.01609972215156359,0.03811571909642076,0.17582545550199835,0.5425663803653111,1.0646074659928886,0.25917241116188966,0.48177992444824763,10.22817129945198,-0.13656000310990857,-0.029278675722296137,0.06546724444002812,0.43552379756943044,0.2017514553354517,-0.504737191565798,-0.14353287595115594,0.36227076508647515,9.911061078229961,-0.10010899822591483,-0.10419436291023614,0.23425288205043238,0.26353554322781964,0.09419104358157598,-0.6803519620193886
-4.7195525609580296,7.145730346292232,6.543268475191416,0.455736590294983,1.4288691793365396,-1.1003373410315704,0.09787296432813594,-0.4475567914350542,-0.5898704047695416,0.47897359973869386,2.402171642515292,9.900887843240008,0.022274685958714298,0.06895131059650675,-0.14094088828464474,-0.8879684322970686,0.345001574194676,-0.2323847670375192,0.06333377638292836,0.28855323438674413,9.52448327035462,-0.03291682863733801,-0.02692380663458354,0.050912942144052925,0.1810115117554759,0.5381933184345236,1.0669596980999014,0.6691998288451848,0.57233881246169,9.940291801646495,0.00567319111209378,-0.07077336639783292,0.10432752488353088,0.43702790196698904,0.2007203039406245,-0.49914242412092674,0.09323349855426585,0.4876418763148245,9.87517457293999,0.040353383696081664,-0.0497115194450913,0.1592411934762394,0.264192482494887,0.08721263310295913,-0.6709441066850781
-5.623046893276604,6.837941767480801,4.852687745168017,0.34139159062961993,1.4150792525545857,-1.2520409154847667,0.12532211631945905,-0.4455395969360863,-0.5722180052071428,0.4050112897009138,2.4202207292835727,10.04924587763554,0.05530773826379798,0.16949010156562772,-0.22224323438164864,-0.8927978255979664,0.3403753926508915,-0.2279196930550202,-0.06621694408485417,0.7000127528107929,9.914746875025267,-0.16960679600714032,-0.03476558089672859,0.029129589099493088,0.18857493088230037,0.5312078375347085,1.0616980538026972,0.7871635084594326,0.3961548653663143,9.74069409306305,-0.1504944879066908,-0.044808991115130266,0.1470318290233345,0.4400394489769536,0.192708198058109,-0.5092382831202459,0.48732940967839117,0.5993533944174341,9.983457144185115,-0.11155865613855274,-0.11187223255051025,0.09947343710621795,0.2667995268809496,0.08370849394291605,-0.6798208002877745
-7.0503599969705855,6.275221640170955,5.454159640886218,0.0663726665409229,1.3295318465503623,-1.173091750264075,0.16046821573614276,-0.462343229082165,-0.5653651874296253,-0.09412380698393755,2.4052739923318565,9.735098472397329,0.1064140922208874,0.3431431476004812,-0.29926212327930657,-0.8864557547236795,0.3193175654548464,-0.23977616153458972,-0.4160160436241225,0.31949679033764644,10.026532492734578,-0.3482231851988363,-0.06927087224039541,0.03637640760206736,0.18992217088648808,0.5206875666826917,1.0660019724324254,0.03054754075147044,-0.14842147516234405,10.338504144351718,-0.3411309342329519,0.011417902648607625,0.0575345718543244,0.43602208837486545,0.19755565954832274,-0.49915715124462373,0.39524214217768383,0.09037109284413908,10.005904578991894,-0.2937915148130478,-0.1640943885474163,0.16593027915695274,0.26466818255648156,0.08892525761351597,-0.6709234007139852
-7.4748719763693385,5.246125585838981,4.381721690242769,0.6599983981046011,1.0769934428313148,-0.9539538687293592,0.17731123759748085,-0.456412532057526,-0.5568642051698847,0.2288256671527753,2.538743168125002,10.054077101021441,0.11440988321129515,0.5923211065130027,-0.3561096377687494,-0.8912762457868949,0.3220629516975323,-0.26222205615449584,-0.21990704138507153,0.3010011168699138,10.048876577696351,-0.18511524512577227,-0.09569046689294267,0.03393913442967992,0.18180613818437352,0.5167789946128326,1.0580052090525993,0.4441667986937167,-0.09073229185678164,10.36713906057026,-0.18820878406842625,-0.015811428162840018,-0.009725684394213894,0.42679850486401966,0.2042412055333296,-0.5000052426906437,0.41717979424603313,0.22453998765483354,9.955634381926386,-0.15773852098489596,-0.09975650550629521,0.22436265099982666,0.25340211544183316,0.09274905175406645,-0.6712160577469265
-7.689934589848892,6.620021778796421,5.652952937934707,1.2542217239766975,0.857477314714197,-0.7064377227813152,0.20074307593459054,-0.4867196985521807,-0.5354537166838917,-0.08478542136660154,3.2476329144315734,11.03413595673374,0.2604695562899682,0.7725258260885846,-0.37710308667161185,-0.8759279194697304,0.30248583606103746,-0.27684302570569663,-0.4260725921740378,-0.21132437231487347,8.981488306139346,-0.09588523718526994,-0.19330710594472508,0.016930853823695507,0.19250667245983422,0.5190734868613485,1.0557068512603505,0.3995135822348751,-0.16419752957345923,10.230876106191191,-0.10140539673356558,-0.0014135974490043512,-0.014831029821301482,0.43098249020284823,0.2063883869310264,-0.49856035040059166,0.40407967973696224,0.46223724976748237,9.766968905190446,-0.08949716165493052,-0.05595481046207844,0.26483187714824685,0.2563050421882769,0.09546546156687338,-0.6716974869044021
-7.670644399764385,6.9945307578072216,4.807171385740057,0.5463647201468663,0.6435080858282263,-0.49945611482544544,0.21890718125317887,-0.4821560494455177,-0.5147707631760756,-0.24529805366056684,1.5406727315743054,10.485272552314257,0.40759145703376487,0.9686819221049827,-0.4470310482831017,-0.8638442528028593,0.29481801090199905,-0.2971433859540855,0.3710572377915916,0.4402635636595227,10.23264827503405,0.00262686959029992,-0.25065326344746486,-0.01207643607573663,0.19641784249460142,0.5076817729126777,1.04825615650947,0.7270782424446117,0.16784778221903712,10.166773603086371,0.0033490338376845163,-0.07547445867786023,-0.023035410342297207,0.4277537293489396,0.19809780827030893,-0.49590763823778117,0.5817619985212734,-0.057965962461160425,10.773614314369086,0.017134756594959243,-0.06145766688032427,0.2527344344189343,0.25637155366541187,0.0849879397353179,-0.6730816680676489
-7.286217856526933,5.032653004949327,4.558588237619028,-0.1509826508704438,0.3333968421832902,-0.505049983811844,0.2289387258866733,-0.471796324305828,-0.49590665142131,-1.0450804669860772,2.8008823463051495,9.776350165467036,0.612201803618005,0.9831958167193837,-0.2607871193490311,-0.8470773903236801,0.2877019908566177,-0.31137905584763187,-0.24655183778552794,0.6165811147132442,9.978331216197654,-0.0908574575181665,-0.14062004868575406,-0.034917341120863234,0.19188356654349448,0.5055550351264975,1.0341293818603137,-0.01976758549112745,-0.06385731149131715,9.755635645139579,-0.1242235527663254,-0.06869123039216465,-0.07407754068759652,0.4152985895414795,0.19969542837558188,-0.4979865640122739,0.09414732835693237,0.37813173397670496,10.171043527935568,-0.10107373394273061,-0.11410067450653079,0.2717906476279653,0.24780365680508196,0.08760845642618716,-0.6731807723744417
-6.383404282403868,3.213038793208244,3.3442103621358608,-0.10765530810877005,0.11385521131103071,-0.8794362376689547,0.24009756299469376,-0.4662816704264896,-0.4976242570185777,-2.4129859478430538,3.380159922236086,9.048547067075017,0.5374585831562066,0.8087633653768999,0.19984960309681454,-0.8235858140252447,0.28271149246523725,-0.3391102535466209,-0.9825666403998703,1.3649334612392863,10.20460530563464,-0.2821432890795048,0.06491447436182138,-0.15622102283536426,0.18186456418466193,0.5057292410595347,1.0335079568635501,-0.8612584810881903,0.11211817108994668,9.370040751631452,-0.29932520178351213,-0.08396862760500352,-0.1748021646673518,0.4120342819991134,0.2099319327474183,-0.49129029799947055,-0.6083379980449889,0.6699892172202435,9.638406188483353,-0.22109729504864561,-0.2050494648340601,0.4382729109247315,0.24420503842073088,0.08894971867260462,-0.6670109874259896
-5.918639553477925,4.666409705600635,2.6682592741405076,0.5500611386824956,0.15927890609160028,-1.127150781119181,0.2616345915473801,-0.46207628091733133,-0.4840510956257026,-2.5822961962934317,3.276730422989746,9.700083018610558,0.21846185940408389,0.5170994063898137,0.4479430019053906,-0.7929719222298847,0.29323279693525317,-0.35309324369147954,-0.8419336676074161,0.5307822037725716,10.259691095456112,0.08129151005269714,0.28678921851660033,-0.2256734944759572,0.16284005255571718,0.5118117408651596,1.0171593860576749,-0.6489304769939517,0.2103213950525438,10.287366208543398,0.08558572189510358,-0.14602340767654165,-0.24383037715433345,0.4147612001596794,0.2125781848431049,-0.4893411194053828,-0.5764009859579677,0.2389024137091909,9.268138804648945,0.15252690007968153,-0.09696392807435626,0.6155961505073548,0.24429073897365278,0.07941505830308902,-0.6661833860405283
-5.930245056082741,6.895698183600334,2.587102063788793,0.3329581563624264,0.4442189007099297,-1.0047202041229168,0.2733623478930911,-0.4602911373494589,-0.4802059075239684,-1.348371883780661,2.750779352187166,8.900387833712896,0.7424211384337428,0.19075413624097678,0.16871979587085847,-0.7774707341222973,0.28043217740682314,-0.3760668439522478,0.0957316329071404,-0.8823783646898283,10.611561570779028,0.5963722990922586,0.38210194389524177,-0.10463747682303501,0.13380951252253812,0.5357140941555073,0.9912839799243328,1.0919530880366837,1.0715398686965143,11.009254544805021,0.5743393572864169,-0.18594695507562092,-0.16211362474181656,0.40824350618507077,0.22069708093961096,-0.48946889822792106,-0.08931756937167563,0.77862391443379,9.819911559547384,0.5542648142794506,0.04190344652566259,0.5361363667100346,0.23792988968957543,0.08034805393636724,-0.6665795419865097
-6.8153216750693675,6.937592116972489,3.121629642333451,-0.19098287455666488,0.6834267406602833,-0.5387224118537626,0.28831134884628296,-0.4559272188541979,-0.46560705860125573,-0.7821828411983948,3.0443848286269053,8.810674072637074,1.191168707617893,0.13880243201487527,-0.31974339967648285,-0.7610494623134726,0.2535983312089235,-0.3820969384297963,0.46189352546754536,-0.04306923897260601,9.407604770164747,0.6209160720146745,0.18330564962917628,0.06476815509873075,0.13154297319278205,0.5354212738235399,0.9624953035094669,1.1869786210953472,1.714513235950559,9.894516313032685,0.6314121929982981,-0.14426884541421423,0.023502394685000094,0.41619039318006407,0.2047195399897226,-0.4850162694219855,-0.10573092183984098,0.8758784581556512,10.143098837699245,0.595142363551769,0.15869673361186643,0.27052086795650043,0.25356074058715067,0.055256218610318965,-0.6625183724273496
-7.411493588779101,5.0633996954291325,3.6643576463226757,-0.5013478070776463,0.621537192608647,-0.2971942127357074,0.2920739673203844,-0.44437632920409337,-0.46816856919257854,-0.7698930542909213,3.220594783179738,8.995124869952393,2.283674147812632,0.13171742084444477,-0.47143838692594714,-0.7537296519022584,0.21783932981041923,-0.40166579334074226,0.22729485924637743,1.658938568881306,10.132353408855824,0.27774123061023503,0.21812059210968904,0.09576151738997707,0.11593721306346642,0.5514087293746718,0.9307988720102138,1.3083550004192532,1.1700300439516824,9.412654819171706,0.2844573186666214,-0.10427315338814507,0.10867326685293216,0.4011297883024763,0.2173473577082175,-0.48967634017141026,0.5755234573707849,1.2561421774358732,10.099555781312297,0.26776526658565747,0.009571043978811674,0.12316411875407313,0.24442621308171678,0.0623238521611128,-0.6662044663279667
-7.324745525753611,3.566022509367677,3.772713003389141,-0.22596899433551115,0.40962669647686584,-0.25113514076378746,0.31162459806039494,-0.44348309441235984,-0.4643914468389089,-0.8141080646993205,5.506530774141506,9.889507939806816,2.1793892497375498,0.13167926274469283,-0.30363544312450735,-0.7327055574112241,0.1841282554397045,-0.4159815758413325,0.42065090581490516,1.189332468682715,9.676247772639103,-0.09718169653845216,0.29482526986228635,-0.0033426816387743105,0.10012744217434667,0.5475279336770236,0.9114110651670803,0.9757248859586016,-0.03438226196675921,9.420783237229118,-0.079662166140059,-0.07578019077907347,0.06318866449261977,0.394560349984043,0.21468449155652317,-0.4842680344257575,1.258749827532862,0.42011611229687573,9.553085408254107,-0.021736772305164426,-0.08397720647668659,0.14524670448972457,0.24088355388122937,0.05948454183784659,-0.6581476767268044
-7.774981144143721,4.209371035768379,4.001235735070085,0.005734817564846147,0.1503445520167853,-0.262145387537851,0.3108434384798256,-0.4383775687437013,-0.4633419972896913,-0.7645441503036494,4.188577920285026,7.9474151256835235,1.5479013362351004,0.18864240745523483,-0.0752005301383144,-0.7227103402841987,0.16454560725154987,-0.4283647115315598,-0.10530052331073679,0.7797036666829814,9.782535227655947,-0.07539195691144955,0.3786622375588335,-0.08856156375087174,0.0930291499172746,0.5396334372376052,0.8821322071462967,1.129107006116155,-0.3741080918659511,9.729306704596315,-0.07234771442292907,-0.06632866512964732,-0.07735558866621989,0.3950360334218158,0.2124748590365117,-0.48331141203759354,1.2362228956574988,0.458234655898934,9.565199923429743,-0.014830382664069455,-0.09993539803940099,0.2522914321607925,0.2448215860730524,0.05343237132365611,-0.6595105488863736
-7.616722931759803,4.610984989060723,2.9356128002165125,0.08800990278650933,0.06172741156604086,-0.10134244237172195,0.3058005042850125,-0.4378662716533949,-0.45060253760757646,-2.0044227686245866,5.955940850229662,8.03181555978833,0.8764657938104854,0.28881510660172494,-0.09079064597077309,-0.708521865391842,0.15164098023330796,-0.4315514620315243,-1.1434355830796017,-0.45011184187290787,9.503943664036166,0.01673793353610277,0.24031993499179088,-0.15812196417791682,0.08812239649086376,0.5426920497462002,0.8597455788755036,0.07303528256555558,-1.2015924156742848,10.810008217646674,9.616419470662749e-05,-0.058698639820057706,-0.16265633134533308,0.396803700453756,0.2175764872614694,-0.48206885309794234,0.8902844444133551,-0.03430582667111909,10.296261479916241,0.04224473604129259,-0.06545573397723471,0.3988890350502292,0.248255184350924,0.05368080966529024,-0.6580832555540123
-7.574549712745033,4.412008122018125,2.84892056442896,0.13805297915900863,0.19105327266143976,0.07323671985879683,0.3208441819510583,-0.4277228365408052,-0.44838124397619916,-2.7022566282945917,4.320278866187271,8.653330736782085,0.6169913021710219,0.1993885746859561,-0.24719634918827108,-0.674424803725187,0.1458169033253587,-0.44568431630341915,-1.303618645480012,-0.0678653045201097,10.566728573179509,0.40630667052349034,0.15748601068128948,-0.17502384281236827,0.07187702187568519,0.5476814975237976,0.828953175762282,0.06772818669609537,-0.6682654962055461,11.148189134867645,0.368398154991685,-0.10628844811152498,-0.2979426540825703,0.3893245524854585,0.2212630947137178,-0.4756286896558132,0.4293180532630978,0.18349860782499833,10.276788818574392,0.3454793815531488,0.03998139735803018,0.6262754726978801,0.24521697124610478,0.04454087501474056,-0.6528156316386796
-6.853093149394462,4.289360209010102,3.8602138650807327,0.11557946410573428,0.22180669992860613,-0.050586250956288034,0.3178873770231461,-0.44083481498201876,-0.43778804394148707,-1.9797907815963438,0.6551010694807191,9.609599647240273,1.097934295767756,-0.0829922665160719,-0.5053979774291614,-0.6759561403084997,0.10799194311865205,-0.44246340717249555,-0.26011379179416666,-4.420291719425149,9.984677814036512,0.9169190403799201,0.09175231416604321,0.08144634080756445,0.06942087968853494,0.5630598233481606,0.7936881523907283,1.0966901668415698,1.5011795138640076,10.708578993363359,0.910189779891405,-0.14493335953436032,-0.06266386687972378,0.39022795388957016,0.218855449566378,-0.48151366074729185,-0.5829301035111794,1.8537587306599383,9.757152342792056,0.7914542943793447,0.21449476675623638,0.5174156012072705,0.2506320402314319,0.03123308616478953,-0.6579704869042781
-7.583870283812525,4.34708135146327,3.236309676719552,-0.16487949242116823,0.16523907684979586,-0.31392636998309836,0.3240917406673063,-0.4306934597221262,-0.4425828237345195,-2.4319642880998122,5.974565496862247,9.251143547150068,1.1103324964594359,-0.34102806939266245,-0.43919351281806324,-0.6675547829134382,0.08214206227898797,-0.4430695305061582,-0.8764636428999788,3.069675429269451,11.590925669934387,0.28759633830384274,0.12999848962891097,0.1907334705536066,0.058784389937386876,0.5467973996628533,0.7700038141974564,0.6243047722978048,0.7806037702732392,9.085146627620844,0.33657253228447664,0.012441463709301843,0.2220191804200373,0.38464074774745066,0.21617804114822256,-0.47538188525500147,0.08698210674530304,1.250860397322828,9.537748403003798,0.3701621583877674,0.1611755146963148,0.4292226355670067,0.2490218998588044,0.02722723412877315,-0.6523967682671401
-9.40725526685265,4.357343216805851,3.870378656989409,-0.1425620979934385,0.013537848201211861,-0.35281949136036994,0.3335620691498063,-0.422602083241255,-0.4374178250822105,-1.5012804158168975,4.7669031601302425,6.940974439160683,2.372141278678597,-0.31775928093983513,-0.04979432002417069,-0.6468715462505175,0.04636618780070979,-0.439056460302424,-0.9838748741642446,1.3889912539115832,9.942793095863678,0.2720201655194932,0.3631162702516344,-0.04697494063103759,0.04256029006689378,0.5323387153452493,0.7278365488699998,0.5543937914716497,0.1493745944889671,10.469298521500136,0.32041618868627253,0.0668186192243694,0.08237953847110172,0.3806792736385202,0.21084757910639007,-0.47587517148515246,0.7436140928184116,0.7005477256033711,9.946185553762245,0.27269200017806644,0.0997170641987546,0.5716767592455257,0.2507391112703303,0.023120648069343164,-0.6544346168642201
-9.996488090622076,5.490847175342684,4.017258071827012,0.16907687673178204,-0.2186650700100762,-0.07510318354180628,0.3294167581778456,-0.4243304443363273,-0.4393637322924297,-1.3608048590026558,6.379712952618198,7.766283265644859,4.0602421040187195,-0.06749428971204555,-0.21837686968383274,-0.6417875901223198,-0.01077343879756793,-0.4430676980535372,-0.48266343997832345,0.8591044713826317,10.310728234381878,-0.15502561167522805,0.18693011249439348,-0.09854859975948306,0.02584619871724369,0.5079960484256504,0.700986033631051,1.0148118016943766,-0.08955310828477678,10.366385283096097,-0.12100643647175534,0.13608699814853914,-0.04562934569250958,0.3748808280307059,0.20962009741982032,-0.4675327114017984,1.2732970745273258,0.4152026891530395,10.1689856023756,-0.05075125633838019,0.10966292890233222,0.7056277033830503,0.24888472646029414,0.018388519295705733,-0.6493572557143685
-8.928844934926891,5.481339313946709,4.3859337812979575,0.21502862405502093,-0.4049250795386217,0.14385250377954953,0.33277320453391235,-0.4146084230619688,-0.4331572309269446,-1.1827052053681817,8.73307881669232,7.961231650087872,2.8281886403519025,0.0425446560868685,-0.3389976635921087,-0.6200827774350103,-0.04356141629238704,-0.4317600261442518,-0.45909277433729,0.47292732704134566,9.451234225955615,-0.05799532806929947,0.2081655699855134,-0.15054628058753447,0.007324948821720367,0.4895367975248168,0.669313851570327,0.925087558462448,-0.33312613902854366,10.286488843076821,-0.05560949694447842,0.12169963229450356,-0.14006570804434848,0.3630411499136191,0.215287040969792,-0.45933219294957783,1.112542613325207,-0.5273041764310186,10.177214507073726,-0.03984175293171363,0.1147086655384007,0.7438892906896344,0.2406976062111376,0.015519922660718392,-0.6417324254623833
-7.212899402721823,4.603349513745108,4.140892517308781,-0.014517824407239673,-0.5059623120276577,0.1059784235356781,0.32032035611485465,-0.4216792543063651,-0.44414704024127033,-1.6197165283222383,5.500825290227188,6.846701598858806,2.743165868490773,0.16416370626632734,-0.5355571465877064,-0.6088692765724606,-0.09721882227755305,-0.43047222672327434,-0.7584447730252388,-1.3834016739705752,7.732124534144292,0.4065942466346689,0.06302286193963902,-0.06529639596886835,0.00035446932866902564,0.475241301960456,0.647312603260145,0.36775053269728575,0.03873750900887343,9.07910015537408,0.3449925003484124,-0.013373913036900746,-0.205429871984169,0.3618669548202285,0.211813900366099,-0.4503131663818358,-0.03368509779195873,0.28154228469560394,9.80884613697249,0.32751915862403447,0.1954038854698818,0.7183817309839371,0.242845346485737,0.0036859991692726147,-0.6333950600804734
-7.067506992499292,4.143893344880841,3.4447861931913706,-0.03566638953765285,-0.43841864834057104,-0.053657448528373924,0.3273920186310386,-0.41656212166119494,-0.4375394421338692,-2.149155072077182,8.121278151517084,8.521603417534532,1.1293731452515077,-0.003521472727402112,-0.5428363003047488,-0.584031415383311,-0.1180223666503271,-0.41805572262274104,-0.24903827864595623,-0.8702768847765325,8.341519460077205,0.2518750150811266,0.35210277254791283,0.011049811037071242,-0.0020856150799003735,0.4664771412857084,0.6414151395895266,-0.07997744391856673,0.3087922045451652,6.855847057002176,0.2754495215752056,-0.11137822388863614,0.02818221113403298,0.3680435498980986,0.21489268348531487,-0.4452173319311436,-0.5213891548679831,1.0471065246169236,9.079888261178366,0.29146408496967113,-0.009873448236244973,0.6796304900324281,0.24846346665702182,0.005660632484850731,-0.6319676712021323
-7.744914144402895,4.203295628113317,4.936708724094574,0.013098398042586225,-0.5591978180508375,-0.12744017476800834,0.32031707788542374,-0.4149718149441695,-0.4342932913376458,-2.0135117141753933,7.937724726329771,6.3346516561053665,0.5273513800771323,-0.1524639971654751,-0.40862823186494335,-0.5677072567702802,-0.1400562467526943,-0.40214726599706174,-1.1432869192945003,1.8466549612758807,8.654479766299028,0.285271643530645,0.7885916416165455,0.035616929455617896,-0.018197473946314793,0.4464360957210283,0.6280184914063741,0.03394847514585624,0.8871820832658196,8.978935210241659,0.30893870283938907,-0.2320026495704421,0.003080948751652048,0.374944853514443,0.20267447416402629,-0.45269166095629404,-0.1609458146838671,0.5951208797066893,9.46369898565724,0.3707467808084343,-0.1802282652420598,0.7392256085695492,0.2441067828619146,-0.009891140675935897,-0.6389925700529975
-8.522110139270753,3.979422497956374,5.176109515066725,0.021107506490580016,-0.6560355900367786,-0.14759628770347127,0.3251161085952382,-0.40998222182230587,-0.4384131672732183,-1.898363330627762,8.881575837218628,6.609434992327264,0.2625500539933187,-0.008091536186140082,-0.32011183914571767,-0.5414867463091647,-0.15235598982499027,-0.3961513720258479,-1.3349287024483754,2.4925094492916737,11.407731381653944,0.7284901295371561,0.6935723071093131,0.07615535730992454,-0.03635752816776741,0.44296272391865216,0.6172052879958967,1.280719231195627,3.0510930269916217,11.608460065018045,0.7262634630582401,-0.22820600067198546,-0.10930065664006833,0.3683355147035861,0.19610669921562493,-0.4475559010601879,0.3720302279844923,1.1896328398172744,10.017951858811763,0.7075836474363245,-0.07193038308598777,0.6440094211599783,0.2374480458288132,-0.025880004395027963,-0.6347640063374664
-9.04929936156604,4.140416209677708,5.642625971155767,0.09160259592663988,-0.8469354637172251,-0.11257866370938044,0.3072860069905992,-0.4080048309190402,-0.4363055373284858,-1.668065285334916,9.865593329009833,7.030016342332513,-0.2810479978116104,0.18093240107785674,-0.1561446630124982,-0.5280116370152182,-0.1596073528743844,-0.39375910334485126,-1.231293363916535,3.810622526402535,12.84597872911012,0.9186633347309522,0.5473932066848155,0.24872503596003662,-0.045477460872049,0.4436016581540899,0.5875228103278827,2.044168414841457,5.112784619852058,11.821066698621312,0.8478200890515968,-0.04351278737502313,-0.06511934736619104,0.3654783063038437,0.19336624901011149,-0.43631980210051585,0.2893025728549684,2.7028226672699676,9.681182578645862,0.7098507934866185,0.12467949133871652,0.18240714082496023,0.23811633789296507,-0.03166404023758236,-0.6236284755872491
-8.912454623821974,5.1126789591407285,5.735369547964979,0.2805560770853537,-1.1159275301176363,-0.06463895398309717,0.3007892693488864,-0.4178219551581975,-0.4378521195887309,-1.6502579597198734,8.506094089964282,6.637071213694932,0.18368074716992017,0.4007295110840045,-0.002954406788948152,-0.49863269760198875,-0.17926122749268142,-0.3935932677574412,-1.1883186726389452,2.6846264918637934,11.523129659061452,-0.06450596814535313,0.502574626400642,0.11771793555310872,-0.05385988577397377,0.41970678100657643,0.5415391137401917,1.6306847062117167,3.024986561081996,10.484177894099878,0.02589870503833622,0.18586308216743877,0.20501815555105643,0.35463221118941046,0.18986357679495935,-0.44430969415997884,0.44485066496906067,2.4635240921577144,9.501969688587947,0.03499226778289948,0.18386046383257268,-0.21073253710730358,0.23516682150393245,-0.03431901074269769,-0.6270522855539082
-8.886469894124664,6.134408152414519,5.309356956450777,0.34034554732695765,-1.1894879851011604,0.15529741054729435,0.281446866192225,-0.4129022140220293,-0.43789238468861513,-2.712276974197423,9.48676920976776,6.552289609908654,1.3048424878026692,0.44134247509593394,-0.055480478234570516,-0.4724151903848665,-0.19107299189886454,-0.38760095176669374,-1.6758303254141436,2.0266282406006244,10.83770885139582,-0.530414520839791,0.5508147986472034,0.05235259532760211,-0.05244748987046832,0.39440883286969,0.49714544645672465,0.636959647525743,1.0904513338225343,10.265751638631947,-0.4417452777691437,0.29422220390860443,0.20979296501748013,0.352314154392977,0.19593402047032993,-0.43667633007376744,0.5270971850110026,1.3668365956947497,9.941325619928111,-0.3320941125895952,0.19326162451063272,-0.22901288964562763,0.24433119243802823,-0.022502677199478523,-0.6286904250405498
-8.510653912087784,5.904502366837883,5.241681077682588,0.285266695805433,-1.1186416222028344,0.5229960497304555,0.2714105759070499,-0.412002292154785,-0.4402495246811819,-3.038083049929634,10.668362705769828,6.6606393368837935,1.6668719199687525,0.29484011828243634,-0.15542243743386702,-0.4351312546048771,-0.2091358116603256,-0.37456718849515164,-1.9736466807626978,0.36335651304869654,10.949024828229017,-0.04147433259093766,0.754223599637548,0.05522749025545126,-0.05966794513685187,0.3676466177397032,0.4438034269310031,0.12796801529988464,-0.04853030907990667,10.65951441506506,-0.012057178219837364,0.29686085722793204,0.04715195106538438,0.339896683958469,0.1945458848120516,-0.4312081700173741,0.3076023984518975,0.797000538348662,10.09474799657389,-0.06094112773311735,0.2582689853344315,-0.06542051942578181,0.24242652200926654,-0.021128953838400164,-0.623762013766617
-7.198103913936445,5.278389243966349,5.565927435776198,0.3027864906397736,-1.0565241663933893,0.7541219810897996,0.2596329744879813,-0.4244332845357471,-0.43300219915806526,-2.2341567548859604,10.946923640306304,6.758479012907964,0.3479572511089617,0.1608347164576519,-0.24734403415219403,-0.400290876279701,-0.23113058825253469,-0.3636819697184154,-1.8023116346412984,0.49384367930364503,9.18779729893011,0.5042851687544141,0.9431279674033262,0.12429065239189394,-0.05770419222252324,0.3599639866817218,0.3948935807697402,0.2157824047851858,0.3694676266191766,9.866461679686365,0.5015314424564942,0.23947150670560438,-0.021466276683579616,0.34126407125372515,0.20129957277734192,-0.4216474079215856,0.21419223209927768,0.971478019883809,10.275182299964705,0.3622670474933036,0.3186620262543993,0.057599300290238256,0.25446559081954967,-0.015814851598040823,-0.6140595720862834
-6.704257690118361,5.698728084324203,6.65568838706241,0.20868784906535084,-1.1728758590027804,0.8383247880666345,0.22515721268960334,-0.427102495589882,-0.4440207136573062,-1.0309709006555399,10.26517133329683,6.750947366602446,-1.9464743686537125,0.29866503572323394,-0.30555750871247034,-0.3748395423081734,-0.22507612798131704,-0.38467317394528167,-1.156501938711523,2.0435078143715093,7.816138869074684,0.7630848065483724,1.0587665370302706,0.12416310102829206,-0.06634574964458603,0.33486335267915035,0.3467057651418229,0.31245403665445537,1.4883366250058663,8.7448445118359,0.7285637120882411,0.0805163244632784,-0.1186054441968266,0.3301440144557966,0.1865049968405952,-0.4209288665778344,0.15174200288078832,1.4545386475059205,10.803383121175623,0.5566756090729926,0.21294360366544096,0.14108463973866284,0.2502092134011184,-0.03366905541927503,-0.6142839961974977
-6.546792044456348,6.009995666745244,7.143737837585618,-0.02038494981198203,-1.510673764959711,0.8276602041264366,0.21110479318741118,-0.4305607714350475,-0.43395344936589353,-1.2582994237699232,8.169740326915989,6.858522743238585,-2.7682695519153846,0.6145044962923989,-0.32885609253839554,-0.3278150669696403,-0.21272020466276045,-0.390736927987263,-1.9379640499430624,2.6947922203989836,9.750031529735297,0.13293245440118814,1.153061184251194,0.09066710791191063,-0.07010051880468722,0.3131966143011677,0.30117536090888863,1.048689862178247,3.2143186913680712,10.168644744974788,0.08069934893021256,-0.021877136462165183,-0.10741152430468345,0.32033159817237067,0.18688464644429,-0.42670082325292924,-9.597868808591814e-05,2.484832253718825,11.05578785462351,0.0522187968450033,-0.014262980136070861,0.10937842465357746,0.24625063070773637,-0.034841564542226595,-0.6193819027694398
-5.582077529190739,5.816254631180903,6.4994530387176805,-0.2352967639873065,-1.702905211265724,0.6048616223783266,0.1816185545118602,-0.4257450490247292,-0.4529670448553111,-2.2713114844418794,6.8171174541769535,6.752438092914615,-2.361084338399319,0.8443581812070192,-0.28339692341876965,-0.2944396065903357,-0.19475261359706156,-0.4228638583847549,-2.728808027840929,1.834840177924479,11.761206296778829,-0.3487683225033611,1.0387177949435258,0.09528776567771376,-0.07935468571767497,0.28679665340499216,0.26299570316517684,1.7371616593030066,3.9992696984998632,11.744512795273607,-0.27557590922539854,0.05379043722456953,0.17227801509126048,0.29589769864192966,0.18073298190189252,-0.42214032962897535,0.14882298960759283,3.04374026374398,10.400601848344015,-0.28237579838159843,-0.015770277875915326,-0.25369835903503846,0.23065511124987081,-0.03210030131899754,-0.6149976611268853
-4.628512054179331,6.350761222041586,5.813727077200431,-0.22095053014298272,-1.6717222576870514,0.6681106067068856,0.16305609515714678,-0.43167417570817596,-0.46292177064140144,-2.899579625258557,7.299281965702543,6.287457270810042,-1.1523712208655268,0.6648657833427725,-0.08590403332729395,-0.2532481180854436,-0.20004282251228014,-0.4348564281420957,-2.7452748461651013,1.9867099887846456,11.732861240885851,-0.5202407382861423,1.03779309966915,0.12063102975846249,-0.06752402114609111,0.2718317027742541,0.2183185054641768,1.1081601483185433,2.0814538322324045,10.77092457602172,-0.44377034901033335,0.18873762375912015,0.3408209419314015,0.2874582225071252,0.19351964949246972,-0.4236821160921897,0.36288163688950514,1.813827728962944,10.248868284356595,-0.48349663770577883,0.08058648373622326,-0.4808756316816628,0.23190580608251757,-0.007888317101810255,-0.6168366585989511
-4.535055513794787,6.558917779222251,5.167757721739164,-0.12007287607142177,-1.2949262373919732,0.649300730104167,0.14651625146062877,-0.41476449278616573,-0.4625815604536787,-2.9886819392935675,7.876186344915799,6.442028107005539,-0.7885189548049445,0.3970411457199105,-0.04273262711019461,-0.22305608527464885,-0.18455600901158553,-0.43739821026230113,-3.2449220167154675,1.5470112731823673,9.827486563578598,-0.8572444381749612,1.186014595361766,0.019571815448778493,-0.04683356161655381,0.24765443124553427,0.1737216319539953,0.5150639860245727,1.0242405848579914,10.71430308122326,-0.78816268541884,0.2290654592453471,0.3501972845598333,0.2836191599091406,0.19915816216382942,-0.4218982079601182,0.25395419701944094,2.0340709161414217,11.314527321140321,-0.8465162534647359,-0.0009213375651402275,-0.3981214284776918,0.24061170440030466,0.00847932724404668,-0.6130257411178333
-5.669153177422573,7.666400672897355,7.267669326961397,-0.4226031704223021,-1.1592606988952467,0.6879547740628907,0.12352168778052143,-0.41086143800259783,-0.4626087729132347,-2.996404326394907,7.452100965591951,6.189473763500611,-1.2333076997803265,0.41482000272748903,-0.2406048492959494,-0.19772727960627265,-0.18132614430848423,-0.4439618329977495,-3.881885248595413,1.2398342666379405,9.393725872036063,-1.3686162932841266,1.039495554971638,-0.04103471109223428,-0.03858160869027151,0.22653344080344148,0.13245731878089806,0.5957554338450521,1.7212047149343834,10.67128878455933,-1.2723928360473524,0.26452140700837906,0.4231014699438926,0.26854744962120924,0.20712122396183855,-0.42293043942531966,-0.31228370751278256,2.184888842786702,11.278433445726682,-1.2832828842529886,-0.10997167507178303,-0.3348557617336707,0.22888617185508334,0.03553699236644089,-0.6158828364356915
-4.8371177774991985,6.585721133021591,7.176602539979207,-0.5832659754918817,-1.3504661284567896,0.907483688400752,0.10967793377424044,-0.4006427405717244,-0.47116540635342835,-2.684248071747383,6.536569946067475,6.592462243824679,-2.0881946731388186,0.6219612617985312,-0.4112322575937393,-0.15592555043456163,-0.16467279610846838,-0.46027219344698395,-3.6891784456218657,0.34161170511701416,8.015149446205236,-1.630150839208265,0.7641154893023899,-0.04532577882130938,-0.03954381060175831,0.20311672142609094,0.09542915070463553,0.29291526301400145,0.810675709252096,10.322912266367814,-1.4876081751924828,0.24353412022088997,0.5948220882631442,0.24246683010916967,0.21299102373223144,-0.42412723327712293,-0.08633778390958471,0.9924754720510207,11.207363881742738,-1.4944959042510815,-0.22955672968137228,-0.4004096906266571,0.2062279727958478,0.05881476036179158,-0.6167118403842268
-3.6210994429789567,5.895937931686962,6.138637454920866,-0.49620114847270064,-1.3246300833337832,1.035716724762378,0.08542824667136016,-0.39716752407357814,-0.47680478315440683,-3.045926750078575,6.169873974525297,6.382424835572387,-1.8288555122852106,0.7165438130847442,-0.5333691912540272,-0.12215347185245704,-0.15464284491048402,-0.47647367523755496,-3.501346258609869,-0.0593287468304745,8.236198772276213,-1.384720833239617,0.7715779966190238,-0.05022029818265137,-0.025695087121137557,0.17751426096923972,0.07165007550157783,-0.28759750733024403,-0.719229507863366,9.196198222936587,-1.2566560694584015,0.1303116794583577,0.5695578993632728,0.2295362444215865,0.20769090809871135,-0.41721848049189564,0.10581428560706102,0.2942097629577791,9.795863261991554,-1.2183792833419878,-0.28933251962967255,-0.32137275860876713,0.19892635846202025,0.07153977739984706,-0.606414022872674
-3.3918049903517704,5.96358821680432,5.914931050079746,-0.35102887793373433,-1.0518897721119183,1.0117434743327582,0.060059254116043806,-0.3877002392223924,-0.4933460208129018,-3.5300063479321446,5.526168541566507,6.226802297785394,-1.364089607391279,0.5546705713317605,-0.4955894998510411,-0.10184387210263761,-0.14225155921403038,-0.49600749285703216,-3.931528492387613,0.41233803919260525,8.44670967088873,-0.9558041307761429,0.9339310247276522,-0.08578258823572009,-0.006035922359413472,0.17182752720044275,0.03476789663543421,-0.15888343273072342,-1.0946766407048476,9.923874315244214,-0.8288158087562203,0.029028204201413436,0.4419446935608725,0.22444787417326095,0.21878004415944355,-0.424661094188879,0.6695402513206977,0.02928178773183629,9.952042572647317,-0.8068535745609826,-0.2795791426620553,-0.04299197154719806,0.19552476052805814,0.0933148353819145,-0.6109195672763246
-3.5897525560615358,6.275050942481897,6.839818355564622,-0.5123655577835384,-0.8547860293733551,1.0080623920880578,0.042687411111457366,-0.3794406278417088,-0.4857880152913318,-3.6929351919930675,4.905523231111003,6.350994520507116,-0.7402044556393852,0.4962469731759493,-0.5279308815785551,-0.07673359003526391,-0.13434061561782323,-0.4967446684904875,-4.503493997923942,0.27073861117845255,8.80822222322355,-0.34440713001592277,0.8701988891048362,-0.0150931803773839,0.00882358151711198,0.16192059916522192,0.00254725836664009,0.3685200402874921,-1.2361071809882387,11.235766637916115,-0.28219345440723625,-0.06354468958569728,0.14507976255208177,0.2129528147609925,0.22038296513352162,-0.42870138569559973,1.440865878872436,-0.7076628571903784,10.231351051137297,-0.2399483039276431,-0.16646348404162528,0.2222146365228244,0.18990303706630815,0.09763059357418957,-0.6085868616486424
-3.521773415448374,5.736711129340115,7.211904581830749,-0.33231198680009244,-0.7837825676884911,0.9168755948974817,0.03677190360719585,-0.373896531843236,-0.4851838650395364,-4.060220264169623,5.3429093495689735,6.863595236329413,-0.4963478408077937,0.545737185172229,-0.5118157232039022,-0.04598526559297835,-0.13594301386184912,-0.4994075892289787,-4.92919934478313,0.6522628424497335,9.511872318266786,-0.016604142388700272,0.709011141474382,0.00018447148695978008,0.019534023506610928,0.15465415028849339,-0.027655271562348795,0.6510950010766287,0.7386347584134412,11.320704532074783,-0.018147379810598923,-0.09536665318524645,-0.005499003842041614,0.19549311472038555,0.21696280068162332,-0.4393188106948169,0.23140952997968114,0.2631956151474115,11.392047960685153,0.020242163260597287,-0.08986838178543888,0.27897711409145715,0.18205723979759142,0.09785408114821961,-0.6111743303967534
-2.8164757207535245,4.829534664559369,6.496016756394363,-0.507077189060464,-0.6894394578295069,0.7279082097670653,0.019702451861118173,-0.3612270416212339,-0.49710459654405903,-3.7239508960750043,5.461801333337671,7.0563611548699825,-0.9443317024111154,0.4916942695994759,-0.31855279348541693,-0.027836746507796925,-0.12548653431694082,-0.5152485058862217,-4.279366512250605,0.1656837217375754,9.485506395113246,-0.2363262437575712,0.6184467483139372,-0.05504563815921024,0.030738978354917797,0.14520060650231617,-0.05885626375378774,1.006294720160217,0.5279883153164548,10.510068000925015,-0.21770807614456014,-0.07704455770679616,0.0862191172954036,0.17957426832161638,0.21764615767327877,-0.4455248964623799,0.5825144649688399,0.8216233298256718,10.650051718934245,-0.16364230189888437,-0.1342777803668674,0.17176827671017048,0.1690747934375515,0.09998198851366835,-0.6131806491034285
-2.555990871716071,4.676335630632062,6.062718873908567,-0.34111319577151505,-0.6891858586832041,0.8536478573133296,0.0036785399408518675,-0.3496280598863241,-0.5009879573932177,-3.8193217430898123,5.319723130388368,6.895673012244663,-1.0146655776297637,0.41375148984047566,-0.25612285837278365,-0.01477518498666099,-0.1088839876876524,-0.5225516474740513,-4.427309923387059,-0.0017278883655868077,8.907639406402195,-0.6648780051377916,0.5920156688111956,-0.1536091752468693,0.04409126285838397,0.14891482853334534,-0.08559062189537615,0.9604134778286394,0.18453968653124703,9.660892427484121,-0.6341725816737529,-0.007948354192572348,0.19576008068009315,0.1652444763102231,0.22756244955505622,-0.4475251457532443,0.6071954989387918,1.1421758571770937,9.769850806793277,-0.5853749387550581,-0.22834313778066803,0.17669333091826303,0.15919381621673798,0.12132196973274344,-0.6085782287911051
-2.5716769670486257,5.943870290444181,6.7515501534140725,0.5272464239399912,-0.44242377344581946,0.947389861547216,-0.0007334245024193443,-0.36205597596991057,-0.48793305419286237,-4.376523204176511,4.860851848147911,6.716746858181468,-0.8507425498600661,0.3315548738788408,-0.3465777581420638,0.011112783891862245,-0.10509211643933493,-0.519358117799726,-4.953028254226613,0.03186579045199332,9.285283836780529,-0.8229043795529681,0.5053697614799112,-0.19801038899078538,0.05413891742271031,0.1498563013747634,-0.1037620258214586,1.070437772361347,0.07761596704449396,10.74544611913553,-0.802250085431881,0.05950147914820563,0.2590671449599798,0.14700420317201385,0.2367805280255603,-0.44925282140427136,0.9369241313212203,0.030103311707762453,9.99338010341807,-0.778719901211481,-0.2292747605191639,0.17178423906767776,0.14304275098988636,0.13429570733755986,-0.6030526870439679
-2.59446893587183,5.801245653781941,6.769687217430229,0.803821510460402,-0.21208512611799007,1.0454697856775557,-0.016277273972561384,-0.3693112178932415,-0.4874277055176828,-4.526566112929237,4.454277782474603,6.9571361585671045,-0.6520458650757418,0.2313885643058533,-0.392637752456515,0.01879222458259435,-0.09391554105638246,-0.5309735772562739,-4.9967901988711505,-0.322334560801865,8.931179448965903,-0.7063743389553833,0.39785989376127556,-0.17858025562926053,0.07235904825895821,0.14730040716925483,-0.13621116588895896,0.6046067175601227,-0.6196974835168135,10.628543423969585,-0.6958878007974114,0.06770387021318143,0.23109586758204714,0.13495726726122328,0.24139542829697222,-0.46376375964568867,0.8699470518458952,-0.31137749733271136,10.444406246429782,-0.6657672628292949,-0.17328407211417976,0.12472441479644811,0.1385042751418766,0.14459637845551063,-0.6082110344049787
-2.6734545860485106,6.05151371587679,7.386100948846439,0.5663005185334863,-0.05619557944917388,0.9271928275181361,-0.009798107247251267,-0.37857627403838284,-0.4831999938230407,-4.636324801673035,3.988281301373306,7.10733481577965,-0.3845856108124293,0.11395557925766081,-0.3369420329434748,0.04365264230222557,-0.09434412549489962,-0.5367746046811794,-5.218551745906559,-0.7125328321664655,8.782172465711627,-0.5902388444539576,0.381373844947725,-0.19632311265473928,0.07972270749435699,0.15113635482900803,-0.15237875081115929,0.5050631465528073,-1.2369083033538457,10.320917338911425,-0.6040419035289493,0.0767049649864061,0.15472454245386477,0.11911564942401896,0.24791931102688558,-0.46748616712288776,1.0370702700145629,-0.6906075622319663,9.633330889719657,-0.577077500020534,-0.1405345885383453,0.2469113954344928,0.1235795638313266,0.15902291619951392,-0.6012126692374848
-1.7256435385119737,6.00770387274767,7.288343630175687,0.33730670463403883,-0.01810221520974166,0.9166714550930586,-0.033467577359165904,-0.379331259008248,-0.48230709163553226,-4.121737604345497,3.003739039191886,7.466527179088339,0.082197031873725,0.15199776799038558,-0.29180334436755645,0.03871628710162646,-0.09221021329878291,-0.542613175916746,-4.974861072866835,-0.5286172952460817,8.97982383045959,-0.3730735863787175,0.248049169919215,-0.18103385212139195,0.09010819780694766,0.14756543636928568,-0.18743421081842634,1.17902313463949,-1.384727943074758,10.999019835725129,-0.41081923054602837,0.0972422500146422,0.04988854581623935,0.101893133245317,0.2518863279035932,-0.48684058118206985,1.890198639300647,-1.3467932374086764,10.20919883201646,-0.4013205241369018,-0.05364970472739841,0.2598111108731598,0.11219528002509199,0.16227245799332202,-0.6117677605847637
-2.095659950905022,5.584102837346761,8.114672535312167,0.04332700391246996,-0.012677858528504348,0.8629120437658174,-0.033523763430570126,-0.37540030864109464,-0.4842085430118122,-4.391121687215944,3.6971401676912903,7.839224265506788,0.48956732244829454,0.17637575191461377,-0.1523241872401172,0.05313597873948087,-0.09949003792477869,-0.544622120038402,-4.951002763505169,-0.8569031991789702,9.2219323098637,0.03704191304928138,0.153626017123457,-0.1262252049292564,0.10736858666851067,0.15235815642180503,-0.1910077433628158,1.013557344612273,-1.6594449215075293,10.177946397314509,-0.03111400001621571,0.09614430506178434,-0.12792109190113052,0.09247587111955717,0.255577568625335,-0.478674560548439,1.7694511227752283,-1.0290162402842156,8.549936488614275,-0.03817601590684274,0.1028488086245627,0.3579326732892494,0.10959716027669111,0.1684244096714386,-0.6004077286603768
-2.2188584280295403,5.297264236805389,7.9027628984391205,-0.12856114906540309,0.02760795266070375,0.8222142001904781,-0.033434561269808004,-0.3712870899987848,-0.4997821837350044,-4.889461214859482,4.894104861718096,8.585598091059595,0.33774439431839726,0.12507675892907555,0.04788795300800505,0.06547853440793218,-0.10126025260302768,-0.5598406781358071,-5.384509549072049,-0.8962131963719372,9.369870051191464,0.33612882406364997,0.1653677210733134,-0.10472629578862555,0.11754288421347565,0.1533797065434225,-0.21992389592181896,0.6224231202504412,-1.5145995327965607,9.853118004105053,0.235184864479594,0.2425301860914752,-0.29810890598428863,0.08159486374644433,0.2572747308536115,-0.4963923323303865,1.2392274538801342,-0.6474346843024377,7.99898731808858,0.13965279615335033,0.2827422157428615,0.49215665239369455,0.11073583950578632,0.16878005608724397,-0.607009377412026
-1.894367616863674,6.513792138134543,8.241125979673765,0.2914706671266161,0.08532478383809013,0.9286074835605992,-0.031085530031729165,-0.3763241013665714,-0.48619141312685576,-5.177507328723767,4.3362280481003195,7.788925043210378,0.24402010481356456,0.11360872424853971,0.02517532010513957,0.07903645406356698,-0.11210862407325888,-0.5486320032785714,-5.808744832093152,-0.9365036253585368,8.710480135079548,0.6401648505219142,0.1042109790527544,-0.03499759857649856,0.13808031445532168,0.14614565287960718,-0.2446189551574302,0.20722160028359418,-0.6798849583033938,11.032069934425756,0.5127078829496651,0.325613400577443,-0.3755175667138173,0.07730280254942715,0.2557129785462309,-0.5110158143169535,0.3943571066538447,0.5073375399499584,10.327217741756929,0.3946558521129897,0.44697577681811074,0.6913768387448457,0.11810179517278876,0.1637082132209775,-0.6069335615056721
-1.5024362854037172,6.364793720408979,7.85735770942425,0.2103475089865075,0.356200606357603,0.9445760005159177,-0.02948994161174738,-0.3686811951178886,-0.49049854809895316,-4.617869894720479,4.4114219925746525,7.814365082117675,-0.222031916685952,0.07797996833901795,-0.009164121103970125,0.09137723212826257,-0.09892971728425463,-0.5561474193418819,-4.957611936045008,-0.5314309440270396,8.631891001971908,0.7452546767557465,0.04255895352051767,0.026760212329615424,0.146968313326038,0.14695750022337986,-0.27962599726276316,0.21291334973408038,-0.15946329440184903,10.570362991607977,0.6443382632268613,0.2594545532610767,-0.37327058744145264,0.06487818442020404,0.2510925406510762,-0.5309641314389566,0.05259011671589241,0.3192349547247957,11.539661920664297,0.5669890987728197,0.4315723539355927,0.7897992945218912,0.1177345323811349,0.15757931137439465,-0.6211866743304842
-1.1869352705081506,7.161861146622239,8.366930705744343,0.1676005867473457,0.5606928267249465,0.8397591047866849,-0.029205790583448753,-0.37736740167891536,-0.49818293192410745,-4.5088040783522905,4.811074921965024,8.615590567028532,-0.27843164348940336,0.000164801417528487,0.05590716288886951,0.09518738723792425,-0.1014574957787971,-0.5700744946602267,-5.136574246937532,-0.32746699975948534,9.367636862812342,0.7805118100350996,0.0847730828161153,0.07373038160476822,0.14722846215745503,0.13763703856482515,-0.30679811065235657,0.7321380684618402,-0.00030502002258639416,10.502659345859065,0.6900434463100991,0.23989535558640931,-0.35653922369993407,0.045373180795217544,0.24530838395402224,-0.5496379193217936,0.5219662352156752,-0.4115132229435974,9.802638566368106,0.606275874294145,0.3913815055269256,0.7652171366359664,0.11060310193989142,0.14526183511878962,-0.6334997580853489
-1.4691208884583769,7.532111113174066,8.333657735131254,-0.028782342926457583,0.5287724531604919,0.7545245945092175,-0.027953901128780947,-0.3723841549895447,-0.486162517445972,-4.489298356479122,4.202487203871436,8.429646474740426,-0.5879906286750944,0.07844388393189329,0.08967018475472809,0.10031776869655691,-0.09187464281435483,-0.5645688693414461,-5.235258817465091,0.22827772825569304,9.787205823070517,0.8041938355620258,-0.00649510822370525,0.11405935314212375,0.16564917499567425,0.13762119661298156,-0.31920921445356737,0.9442111159801744,0.7035209691774246,10.903025535906266,0.7451057577973912,0.3317584962097936,-0.3364634868894271,0.043352369310669096,0.24587700419160738,-0.5579178245126353,0.5364460812059049,0.15929917445301195,10.04624871325742,0.6740271282106644,0.486491634223877,0.6237918802848158,0.12091496751376123,0.14647720101684947,-0.627990502589343
-1.5862701030414479,7.0951690137826855,7.854887768016543,-0.2763743647150476,0.6060927683271917,0.48933444135461684,-0.010872741937069908,-0.3786490454412298,-0.49711174492081295,-4.356851871639917,3.468553605976499,7.624983550135513,0.05892346140103032,0.02010414354633304,0.20082128069950586,0.11396417583489084,-0.1038539200092707,-0.5743506993901741,-4.811060361821919,-0.22929870706243966,9.121283746057374,0.5402026140134863,-0.022801058112190836,0.1383926166417879,0.17425733673878654,0.12517420948561134,-0.34429987044051796,0.7256872747422057,1.1113981392874779,10.088391010976455,0.5283490198328908,0.388465204290595,-0.21847958650201124,0.03527407320376268,0.23338134482298406,-0.5750316636188229,0.10151213092702963,1.0082139156501997,9.94146158685859,0.45394677264386046,0.48637178153783267,0.4994658758773596,0.12045793182907823,0.13096399386127733,-0.6355504129149507
-1.6475260621389731,8.029747154434277,8.07187523767609,-0.5714108946549978,0.9033405574444897,0.0409001830124701,-0.0030314821661227946,-0.36261500321466045,-0.5030624721100831,-4.307184881614836,2.376149443558148,7.386352252242911,-0.1435637333642877,-0.06227126295148863,0.2225616084659128,0.11200890335590534,-0.09920677394200991,-0.572172012408879,-4.873191289658127,-0.5747405590480477,8.260390294113426,0.22075776435648353,-0.09458737743028416,0.16919622221606562,0.1878401436748255,0.12703550107722672,-0.3512725392516171,0.3272974449054656,1.212447398884125,9.851541033550614,0.2414425783753735,0.4444055821484345,-0.007511480397542603,0.032375564806176996,0.2383040423927434,-0.5766793795244967,-0.274505968194033,0.7239942516817257,9.742806320975628,0.16589911510773914,0.4828802864884204,0.2870805910686581,0.12912099545285485,0.13088076738239948,-0.6258903584635716
-1.451015496529163,6.8878665059006225,8.047749735524432,-0.9393358909177812,1.0426413008129667,-0.3913611915631685,0.018770106351345052,-0.3536919900857516,-0.5138462976287167,-3.5817416949640304,2.820767334242218,7.079602207863819,-0.03819188171791118,-0.007270634431961493,0.1742625632882802,0.11853718825880108,-0.10095748074646824,-0.5814872124019789,-4.2747174979391165,-0.9285259126747376,7.18799299914355,-0.16290126270626298,-0.1960112275266856,0.1966310176935139,0.19464183725990433,0.12484234426803432,-0.3782207825447334,-0.06420977565550542,0.7014483339537497,9.458384232466228,-0.09049835209740034,0.4286362434272103,0.26961099715194164,0.03120212031023605,0.23626796164019856,-0.5971936392524047,-0.6222839756818352,0.2523247044822151,10.559304756352832,-0.17691557997630938,0.4092443584870502,0.06430421127087102,0.1296446513880805,0.1362281133446851,-0.6397326902621208
-1.7200155163211095,5.952748185008672,6.867042183636094,-1.2946689506397293,1.072227978798544,-0.7332266343259846,0.03353081264214422,-0.3274799160512198,-0.5267957268672967,-3.6131219843633713,2.952313443206827,7.273716864740842,0.12504776552553226,0.06777927279313645,0.25049694525823085,0.11390292817408411,-0.10072686435450792,-0.5807206645907118,-4.084732843854525,0.3107548384865727,7.888141727311655,-0.4986524746497539,-0.22561932184304606,0.18059332962975264,0.19468767726311287,0.13639322533474105,-0.38839205199730925,-0.07738996620199351,0.20128771989334077,9.729176236184715,-0.34909486914118154,0.30687484850753083,0.4098125322471012,0.022939264477145102,0.24911010750232826,-0.6065490425113422,-0.07583118361139943,0.5055208122800298,11.235788505829833,-0.400387945933664,0.24203597989899606,-0.02796836075557752,0.12121798862412272,0.15058289552475487,-0.6406281232441351
-2.5088952241808555,5.22253807636735,6.911481561885028,-1.091161175046488,1.0716653919042907,-0.9794527694824242,0.06576470165802188,-0.3097092456476156,-0.5333887180942396,-4.361629828354726,4.51967769052756,7.831782629981939,0.17435950410900192,0.026309623431680255,0.3957684587896642,0.1275280926537281,-0.10390304246385837,-0.5886141818371825,-4.887256428056332,0.3930588471763026,8.482812868137813,-0.23056142023460877,-0.1574527607843035,0.24664447500968073,0.20777622488510916,0.12756633507162857,-0.40324980345672273,-0.3487546459985914,0.10134121845928146,10.5052551834594,-0.10246820317023131,0.18534572738933328,0.3290911918079594,0.026690820752213386,0.2432998298795995,-0.6181000962062141,-0.18332871321024957,-0.23307037894084787,10.634444327067731,-0.1626386159508921,0.1629442248980268,0.04230640560198284,0.1207162477303692,0.1455207928895845,-0.6450961956458019
-2.862790624578542,5.722391961352045,7.039970844854736,-0.5648026101728661,0.9019947379281091,-1.1351449876196076,0.09146856685270106,-0.2973868620675586,-0.5395167517070474,-4.2375152938409215,4.10347431889569,7.594951445790147,0.03270853644728214,0.08910751728860802,0.4581237172578356,0.1299777634558939,-0.10829601239557539,-0.5898214457437277,-4.993299648453878,0.6048873716991388,8.649118143268208,0.003573663938021555,-0.24306888796066026,0.33933500946060086,0.2108084107727959,0.126468790693745,-0.4169643922613895,-0.1544494169046302,0.782770497253617,10.20853001023243,0.07514067960868108,0.18236564263661056,0.22695611705940333,0.020953988312358195,0.24321126543212687,-0.6319681792350854,-0.43556988308459144,0.012795297992464483,9.863498472698213,-0.0009403926868217669,0.19511141491337106,0.0036488213298170847,0.11917326448887655,0.14609250829587792,-0.6511727324234968
-2.2516607648349565,5.001856839901878,6.387663428203982,-0.9043923269493901,0.7412293432411672,-1.2525877799944143,0.11790527667566468,-0.28434056373178584,-0.5444204756460995,-3.6492647907920843,3.9517262662150414,7.031839617453696,-0.12285917553443237,0.10619206368362155,0.4856920504183831,0.14118768973388016,-0.1104762806459514,-0.5937967431160655,-4.0315731493610345,-0.5141898250916278,7.819193280482097,-0.12041127956867625,-0.2639584785822635,0.3538628509142643,0.20774729257436217,0.13260736927178204,-0.42469964231659013,-0.14576570982686465,0.6806466191758389,9.359013241901902,0.059437059312991515,0.16621541551207988,0.3783358765334984,0.010953081506352016,0.24846483939306852,-0.6364823924217321,-0.5091179371057104,0.32216472309595234,9.911690154914584,0.02062118221392592,0.1880912629893927,-0.16869186433599923,0.11105870050011764,0.15166157253128984,-0.6522089224708302
-2.262905839895422,4.911922972869327,5.614521503367116,-0.9940029892823823,0.8079821012154115,-1.2341015141985754,0.1315069831433392,-0.25370436715538186,-0.5419210298076876,-3.4753453251329516,3.9188066271434847,6.610008596347803,-0.31469856016194064,0.017672895814776227,0.4852135730979931,0.13359984000133845,-0.0994960968866004,-0.5904019261773703,-3.8550283757172776,0.08633173215158974,7.872817749703298,-0.3361171127164755,-0.2746841250245462,0.35164657037946434,0.21548330399967983,0.1327157785574354,-0.431620669310768,-0.07707133688437631,0.3382593952022746,9.829422703945042,-0.1511518612875922,0.08772432793739825,0.4687091807146818,0.010224257940532121,0.2524072895012872,-0.6403532078854443,-0.1772919900738359,0.7497173719090803,11.315626030079573,-0.18532050415709486,0.04297727682057655,-0.20861800773674288,0.10685776223209933,0.1601534362607476,-0.650805094109306
-3.0853581835515453,4.47923668924301,5.997523596246773,-0.8188245202839181,0.8358496134020345,-1.3218513193144987,0.16036340550367204,-0.24274528052421313,-0.5532171805579486,-3.8072278635503904,3.506406999399804,6.597948158276526,-0.19989404129930732,-0.07874840254580594,0.4493968486221444,0.14232383816449268,-0.10638633825960805,-0.6026250475410391,-4.317677591480269,0.13356210944167957,8.400536864146698,-0.2297938637680303,-0.34549969679504655,0.4221218191400331,0.21526237961268158,0.13796339933801705,-0.44818246264840017,0.06367438354119621,0.8112087012292092,10.038480512171683,-0.03419691015891719,-0.013827451703274863,0.4914183304191822,0.00521210618950202,0.25379382189227245,-0.6566577900865739,-0.23960443471638043,0.22959156395161795,9.62572832823509,-0.043226957459865406,-0.0031226964019352567,-0.20864519019364985,0.09792637223113108,0.16147444671836314,-0.6616649622034164
-3.3883306381889513,4.389893744038565,6.250703129902596,-0.6212135028628541,0.8054080529929423,-1.53428452262479,0.17363062777630414,-0.22747084108039087,-0.5526252262982446,-3.74130289308623,3.7177964529795036,7.195880102492234,-0.11487775817746976,-0.14783369033220048,0.5146103897667457,0.13718349736347865,-0.10764606555748969,-0.6050178355768673,-4.2265186876192145,-0.009026877441538732,8.367127383643876,-0.23553850125267578,-0.395964004285198,0.47614928812303703,0.21693814464052558,0.13702594724093844,-0.45187007015695335,-0.14722746622677202,0.4447083878165406,8.726846572066112,-0.020053408125908324,0.05800098970736059,0.5479591128665553,0.003935142743159352,0.2548381383088269,-0.6642085449216099,-0.5040626393958371,-0.8765557063790271,7.580435591128301,-0.041870412187750956,0.06759995873848833,-0.3773042354026555,0.09644152046216661,0.1636632565618448,-0.6618570473233002
-3.4986319911833217,4.2556213969488415,6.976030025877527,-0.7442296513008179,0.7491089247198722,-1.7239901597792544,0.19235172780742119,-0.20059602695216722,-0.5570486039893692,-3.5937067083609597,3.905428761132466,7.183871679459397,-0.041244891870565875,-0.17019169528724393,0.5828667997577486,0.12835698024065217,-0.10526675942500899,-0.6086305391086272,-4.133423937434014,-0.4052693073985165,7.875448325814742,-0.3515803565177317,-0.3989021350311863,0.4691544951766165,0.22620000822197522,0.15111577435726697,-0.46603171256984427,-0.6219222566318233,-0.6710273812481189,8.844204665621678,-0.11881816474240532,0.15749035951559975,0.5891049864827947,0.011077297156306105,0.2675147390080482,-0.6707678231632512,-0.4402940756701273,-0.28879010802414007,8.819092546079057,-0.15942935255483648,0.11683159469947067,-0.4924588088002125,0.10095296448639071,0.17667112709319213,-0.6639081514298725
-4.192339127778684,4.02131055434086,6.9527662229639695,-0.9034388061354462,0.6406030063433257,-1.6688926213577828,0.20262463467780426,-0.1699188938970836,-0.541827204942201,-3.5987010183769277,4.14352007057977,7.078445930260575,0.372372540006099,-0.10637377561287052,0.5566981965816568,0.121614566587454,-0.1071645078664564,-0.5973346808418929,-4.239872001753763,0.06578665802027486,7.73104886170234,-0.2505451775519632,-0.3858429078277909,0.41817724339501083,0.21536688277809457,0.14793779012862404,-0.4764344359324855,-0.9757184947879358,-1.0758711093515139,9.761260117753626,-0.06298765692573607,0.10187117037065228,0.4867357379958033,0.0021770160843280137,0.26449358537731116,-0.6802360283035761,-0.25484107085696306,0.2847725691637204,10.669774106633671,-0.1042514016865454,0.0684437000651702,-0.2354117611458263,0.08060374977381837,0.17637956889843195,-0.6709901470808665
-4.79954304993031,4.136346999843269,6.786949812235557,-0.5987412050411174,0.55175919762226,-1.6080615216200995,0.22393543062490254,-0.16291244933346208,-0.5558068861502272,-3.8762892366817168,5.604338698672858,7.667541018611007,0.4066389888269117,-0.06231965595193975,0.5304163432963381,0.13132664713229375,-0.1231096933771131,-0.6129166842920686,-4.393873657619793,-0.07272816207381763,8.716543362408874,0.009240276690696846,-0.37841666157393467,0.4171976743510413,0.22096209904908645,0.14264833669399707,-0.48190606679025916,-0.6743533965738138,-0.3562869098042077,10.254745898667577,0.16689424150942903,-0.01468660371795345,0.37438549808349164,0.0028100171109881117,0.26063515878944654,-0.6875944897573248,-0.3743509605300761,0.22339995171033997,10.097319419988306,0.14791275494282907,0.04779364460507461,0.021794832107323567,0.08085501780439946,0.169363024035555,-0.6750095434987435
-4.336886461880358,4.139975012944622,6.935230784264721,-0.23293369552279267,0.47798254654787337,-1.5919931898694495,0.2309738354200301,-0.15294911270880363,-0.5464494296986231,-3.081329985839595,6.158813825152454,7.701853396348035,0.25945203125117283,-0.10597252415910936,0.4799087859718631,0.12145786023192717,-0.13477773869729426,-0.6005479237833776,-3.4886697816769563,0.2194476938950055,9.175522300800331,0.09280439550589871,-0.3261785512487275,0.39318054943380143,0.2192032111702595,0.1407252881692242,-0.4877602079570815,0.12933573602159854,-0.1828060294224894,9.268255055176866,0.23226822946793313,0.0002250151395634249,0.3398888327453824,0.0003686138403219607,0.2611505758535238,-0.6880576574591767,0.1746477708793759,-0.06601664811964457,8.820476397396,0.20463041076824603,0.08036619526694293,0.11096514859240487,0.07819957757787122,0.17075359263351156,-0.6715370082321533
