# sampling frequency: 40
# units are seconds/meters/radians/a.u.
seg1_acc_x,seg1_acc_y,seg1_acc_z,seg1_gyr_x,seg1_gyr_y,seg1_gyr_z,seg1_mag_x,seg1_mag_y,seg1_mag_z,seg2_acc_x,seg2_acc_y,seg2_acc_z,seg2_gyr_x,seg2_gyr_y,seg2_gyr_z,seg2_mag_x,seg2_mag_y,seg2_mag_z,seg3_acc_x,seg3_acc_y,seg3_acc_z,seg3_gyr_x,seg3_gyr_y,seg3_gyr_z,seg3_mag_x,seg3_mag_y,seg3_mag_z,seg4_acc_x,seg4_acc_y,seg4_acc_z,seg4_gyr_x,seg4_gyr_y,seg4_gyr_z,seg4_mag_x,seg4_mag_y,seg4_mag_z,seg5_acc_x,seg5_acc_y,seg5_acc_z,seg5_gyr_x,seg5_gyr_y,seg5_gyr_z,seg5_mag_x,seg5_mag_y,seg5_mag_z
0.31643056616469656,0.2023618070786789,9.72031360509513,-0.0306130975293656,-0.00022310521234923165,0.014568170843375375,-0.4155475590132129,0.09561519360719374,-0.5503898353672777,0.03698701367747405,2.3065341099814995,9.521576625789717,-0.011226733175034422,-0.004163302095811931,-0.014456695814590189,-0.9808738110399229,0.3529967751807038,0.015637002943060026,-0.09291951877674473,1.939609717159763,9.537967262720015,-0.005292806674689375,0.0033790633630667475,0.0017801003603009655,0.4225000756756464,0.5520216565845979,1.001376176288746,0.188484086106499,1.9448242078204205,9.708174001057989,-0.002999865494188191,0.005894503817937063,0.0061342525019031,0.40462272146406747,0.05552729816719785,-0.5765701686822365,-0.5953990070387658,2.0120386678483526,9.571982827993596,-0.006193063728021587,0.006771184852936442,-0.005257166189880956,0.31713960440755823,-0.0788157548786259,-0.6817142688547233
0.3304009698901329,0.14450288885794932,9.767550648779885,-0.021809264812667144,-8.072985235291203e-05,0.006212086607726729,-0.4172285420866252,0.09589596387787158,-0.5530898866560509,0.01975905733292739,2.310718031483954,9.51032563218685,-0.005878824219184646,-0.002480278910713528,-0.009319127444401528,-0.9830923330109381,0.35265381456789957,0.010524957141016825,-0.08779821494403553,1.976426662545615,9.516094748083873,0.0011187096945253854,0.002975317528511648,0.0039171750310531515,0.42055078398115686,0.5505762537288811,1.0035893901226265,0.1689502656396255,2.0046029512876924,9.709827862128964,0.0037270288841253466,0.005185956605066337,0.0054565269895112045,0.39997199330845323,0.05312532877266251,-0.574113716026415,-0.6443002789235961,2.0356720623274245,9.656843430221263,0.0001225832426070145,0.005054038110785066,-0.007199097035279082,0.31736864131507225,-0.08100761419723443,-0.6797536952594646
0.3292485173867987,0.16704381441927935,9.734916423110104,-0.0016002751196898585,0.0017821586363186552,0.0052864197843433165,-0.41675814659421423,0.09175955149402314,-0.5555572629288282,0.04018665831177996,2.355955730552624,9.546568967163386,-0.010254517300521532,-0.003540956066336769,-0.006300005878535145,-0.9801611250383628,0.3479965951343969,0.00937955416838401,-0.08788742988829275,1.9700132129790782,9.524249437185931,-0.008068401649043103,0.003177391970911617,0.0028411145863736138,0.41744032078649235,0.554030353350752,1.0092188368553727,0.18750035569438434,1.9751472266251948,9.7045561085718,-0.006691922410846523,0.002102068337788097,0.006706302196477493,0.39780423637355594,0.05535571099683521,-0.5667910922476525,-0.6164910138571285,2.0599113693645896,9.605028347476747,-0.010487910744746923,0.0015574729326224917,-0.004176610261248987,0.3126875467075226,-0.07853063523235351,-0.6707512574516978
0.3318398919492501,0.19310278434304437,9.735796192051016,0.021128400917924176,-0.0022844343626489314,0.01679559481811256,-0.415284579076933,0.09005611802841229,-0.5582421121238949,0.042821155576569674,2.354804927026314,9.512089924406869,-0.011283993861410364,-0.004412155336558716,-0.013428595489541326,-0.9794308286777578,0.3492183376321137,0.009353525435032775,-0.08853099695611885,1.9679969259619594,9.524660116006672,-0.008925583017667287,0.003512986414370364,0.003339129115080544,0.42179707318102894,0.5571498688436647,0.9999047309046023,0.19907981727593868,1.9729831729426193,9.678122823340106,-0.007663452927556247,0.0026554051289346065,0.006463753540192986,0.40221146955403153,0.05921232542279896,-0.5746206548064653,-0.6061082082714365,2.034941402298172,9.578796545310832,-0.011492419688486993,0.002228365710510275,-0.007046872211406884,0.31738160496668355,-0.07197114254893745,-0.6785587299489798
0.3294243950892933,0.1922774775546593,9.781093454822894,0.01811412821720408,0.0009082857867861053,0.013875469284323804,-0.41571467218090097,0.09713134907905338,-0.5569726592882356,0.025631532794640192,2.297361872041907,9.51753031857213,-0.01034734928904116,-0.0035726736144711417,-0.01209308607986568,-0.981874636899048,0.3580437822046785,0.01139586244790341,-0.10102090707389555,1.950456583972771,9.53854692986559,-0.005985438656124436,0.0032095149737203796,0.003233132803835313,0.4242075118397081,0.5559045424881794,0.9967172389844433,0.1845112717709498,1.954907751204496,9.71880889363275,-0.004343721852754365,0.0054214518426495845,0.005887887089927558,0.40513235707899353,0.05917959388616081,-0.5795090015324076,-0.606448401387409,2.0030412241233284,9.557717604373085,-0.007597996064608894,0.0033635341288076894,-0.005132684576957136,0.31764418527753746,-0.07467005598841707,-0.6831886327370033
0.3224306691957435,0.23178772708631284,9.749559699130424,-0.005014268167263005,0.0033617756204317836,0.007016885806726756,-0.41910745749296036,0.0954888086542976,-0.5614113200974569,0.03969487039446427,2.322094514811176,9.536296042304539,-0.00699925469657351,-0.0040573001539433206,-0.0075684534188501925,-0.9816453752721647,0.3535583249001161,0.0065950956471321895,-0.08841100646963604,1.9477206491592716,9.51259593471228,7.82025638121021e-05,0.002956746364199031,0.0037201648211885757,0.4179224809872387,0.556703111108641,1.0053027283905238,0.1856176113716383,1.9716263628753874,9.705308151968461,0.00238416196564257,0.004710902426215677,0.005212164622520916,0.39755889883325096,0.056566553663322014,-0.5716766039433024,-0.6060204886270673,2.027589306813487,9.61565392171296,-0.001648395790586847,0.006360408451252619,-0.00839218789415548,0.3129752658627969,-0.07488894104160133,-0.677596398583094
0.32815200706982284,0.23227440227089263,9.737866701174582,-0.021843213432820436,0.00014017014844207066,0.00867057998393063,-0.4170219962631361,0.08762856136200943,-0.5577875429295042,0.04374491316899427,2.359672677736578,9.544026619428946,-0.008608032407181977,-0.0035741311331254286,-0.01085925438140798,-0.9804110841656419,0.346250960157915,0.007459995634873567,-0.0779845756073521,1.9747566622503803,9.519812865750572,-0.008138255094422288,0.003620853836260415,0.0046096645772277095,0.4178573209643064,0.5493761651994704,1.0038539983206007,0.19510927451946625,1.989958820127883,9.709599058722699,-0.0071932615639727126,0.0023032970535492784,0.007383743749303875,0.3987467198943703,0.05240323008649986,-0.573621692095916,-0.6063034945501111,2.072846336920479,9.591739170877077,-0.009639429328052413,0.0009061807913761861,-0.004339278120013032,0.3144260560230109,-0.08270542375257994,-0.6780551969483904
0.32587424890173033,0.1699359619403533,9.775047774207557,-0.01782753427779051,0.0039016982918647783,0.013650890411012162,-0.414445656305671,0.10272843465037877,-0.5561870882757387,0.034301255263294445,2.3268341528766814,9.518278866975848,-0.010931082231547939,-0.003421034135858318,-0.011750374363756632,-0.9779741026294584,0.36195420513750587,0.011305879681910817,-0.10350817249748215,1.9582157474359236,9.52326137033822,-0.00699164837209546,0.0010328389597898046,0.001782536878753206,0.4169158789536875,0.5552392050526839,1.0023835549791995,0.18608842920992655,1.9557635793066992,9.695901789174261,-0.005586726720075477,0.003566891469238122,0.006561696945293269,0.39535796489730163,0.05633524010106291,-0.5728919758392673,-0.6329605442523938,2.010944190539405,9.566767803682104,-0.00894242772584688,0.0034135744959555405,-0.007508926456462793,0.31248494689687134,-0.07537519341557711,-0.6773535613115382
0.3175893407034579,0.14538614736002575,9.723771563190967,-0.008492233867069515,0.0015581346946214715,0.009230705131267837,-0.4210747938789171,0.09355887349843994,-0.5619333132379059,0.044613465220917595,2.311479073692876,9.529925903467976,-0.011953899828038843,-0.0040339343203519736,-0.009796155970598842,-0.9850592717479131,0.35062536817324674,0.006664670723015278,-0.0945563635457937,1.9481904914142716,9.529004395690139,-0.0059657059389592116,0.004064811631935857,0.002971141875903228,0.4190599127520828,0.5544752513252684,0.9952907045808262,0.17617132330506657,1.9664597839113966,9.688260104116221,-0.002535471643541033,0.003924026975129347,0.0069051859383550684,0.39949829706017903,0.05653484674103212,-0.5790041488383179,-0.609246927042904,2.021885061661141,9.616651500477143,-0.0063703797065110855,0.004258365594461612,-0.0039318083446141325,0.31619271676755895,-0.07614110020783706,-0.6863650532175208
0.3317159145032412,0.17796874117588685,9.758063462247597,0.0035221676624665843,-0.0018985731364937557,0.011311139907315219,-0.4228245040649309,0.09596590342036779,-0.5550955665900763,0.03983905951122959,2.326988784888785,9.555300176299701,-0.005870817454036889,-0.002488285775049305,-0.009320011658955322,-0.9884646348052949,0.3536226116103131,0.010529723792040604,-0.0734603123761836,1.9490551771926612,9.529068524886632,-0.0009623036907313674,0.0029391730028519012,0.003522152419488874,0.42470401556033793,0.5600433139580515,0.9932868712526145,0.20637919461434803,1.978581803349545,9.69466379045325,-0.0003277427117400949,0.003605886508803302,0.0063238722473284974,0.4041736573557859,0.06162866788900388,-0.5790251778358819,-0.6079396187591792,2.0317583440710445,9.583670225024157,-0.005554563060895047,0.005815877457989018,-0.005928066092428072,0.3188914768697914,-0.07077656233650394,-0.6866114052778546
0.33613997360268383,0.21131377148102914,9.770472441981392,0.015396380495688526,0.003071952186314419,0.011097538393579902,-0.42187955461726306,0.09326785043372311,-0.5546185701303306,0.030342881258646294,2.3555876507118203,9.51299267557901,-0.010989341518607339,-0.003670888508948377,-0.010722251001645302,-0.9857703567694144,0.3514569820998948,0.012024104496204521,-0.08442107228510949,1.9678375897139508,9.507849576748258,-0.006769829513831469,0.0030986119254530343,0.0019565841380059855,0.4149300478015783,0.5530517768304868,0.9999595058031208,0.18886374889842383,1.9852404549456317,9.701546042286369,-0.005688558685077445,0.004951404472965109,0.005640516184847897,0.39388091174607237,0.05439509947973629,-0.5719085235740698,-0.6114787095866803,2.057431452163582,9.581709399181923,-0.008519485347091904,0.004017604423266385,-0.006490435125539482,0.3102848982972776,-0.07561310304231146,-0.6768764091671099
0.3145438039540065,0.21027648156024004,9.70997762907875,0.005159677611312464,0.004017762555211345,0.01185155285172633,-0.4181848196275313,0.09228730831409977,-0.5589851253523902,0.027897156543767777,2.3222795517393813,9.550188496667692,-0.010675794797475545,-0.003392071845859685,-0.010277734722920229,-0.9840863813888572,0.3513493667620467,0.0061588502087301135,-0.09181835117247074,1.9400005943361467,9.514141468148999,-0.0076988441749377395,0.0038776898812423583,0.004226161917737874,0.4235622498475882,0.5561815790005733,1.0094172651156104,0.18287925215086492,1.95784888991462,9.717761759903246,-0.0058223908854689935,0.004557646151787971,0.00617272321847496,0.40344611854998935,0.05873719100956823,-0.5653447408274471,-0.6183112379263921,2.024541620815098,9.637175626053377,-0.009203341212325366,0.002775913900806925,-0.005500416033794204,0.32025338835190004,-0.07218961955594433,-0.6675568319315555
0.32775638703650944,0.21790593828832608,9.76015307155136,-0.01294194759204161,-0.003282151046315497,0.010770756660236013,-0.4138447027154846,0.0844505918437817,-0.5614432386845236,0.04167686599300631,2.3353939512998267,9.538714674259117,-0.009401692404627173,-0.002745196741169939,-0.010758390203977806,-0.9811405183769301,0.3384073379687636,0.005900883488408688,-0.08622704069943478,1.9711980658686246,9.537048089160715,-0.0051075597920397205,0.0037272031780488965,0.0024701251871679267,0.42149420920230607,0.5588373967924074,0.9891608347848233,0.18842074731045533,1.9746290706615028,9.713317706067143,-0.003647647929256359,0.0024632414248148167,0.007044794267206677,0.401485950627799,0.06188584804444646,-0.5814618421361046,-0.6084399905776102,2.045056576809347,9.562860781228583,-0.0067047017517804395,0.0017751490374412768,-0.005639414359181599,0.31718984448581067,-0.07273226228277936,-0.6888117197894473
0.34451191237024154,0.20311592620368546,9.797671023618696,-0.014967671802392649,0.004158224670089129,0.009179581112933322,-0.41231662464940577,0.08666552686932731,-0.5658076515037446,0.030476912351273807,2.3193437499281218,9.516157237894344,-0.007795359110613113,-0.00442511176563479,-0.010963787037252305,-0.9789783880190135,0.34537909204612804,-0.00010017028573192348,-0.09072478617701688,1.9626821610704723,9.532246477651261,-0.003830671733994851,0.002795152391294847,0.0018525944445052125,0.41861636426501747,0.5586330490913372,0.9972377113800169,0.18513644783590671,1.9593015883343423,9.694728946224913,-0.00179479693598665,0.00598082558721302,0.006909817020291561,0.3960963306438705,0.05803006976488164,-0.5765604779089046,-0.6151118967387269,2.0358857515520583,9.56005723431841,-0.005672387656462925,0.006763760073630618,-0.007100445686093752,0.3142216368658698,-0.07441595523741802,-0.6822303091078818
0.31859297098180217,0.17340714839211607,9.719546451426297,-0.01219660004967601,0.003291092900066877,0.009564453604434104,-0.42042722463663185,0.09033626898811205,-0.5563356530797271,0.03408271756619429,2.3272382246666763,9.525497558357495,-0.01135614350991472,-0.004205570689698858,-0.010139552739453927,-0.9865172770895526,0.351635895573237,0.008605305876159586,-0.09081463047332178,1.956018796161693,9.540440713252881,-0.0050544944384275465,0.002426408997074629,0.0009575507040466822,0.4213195802951501,0.553504379180754,1.0057759633698982,0.18437164834852732,1.9949779400533387,9.712285737041192,-0.003138653294552824,0.005507773611925542,0.00666345160831602,0.4022003434509075,0.05702032011862192,-0.5721742954795698,-0.6114653094566954,2.0423667537731256,9.655475344860411,-0.007159914414274132,0.00523026299903434,-0.006293803344655902,0.3154027906952259,-0.07684148206996615,-0.6756249806364139
0.31497168742283793,0.19163730650956592,9.732305157136452,-0.0011624970427665062,-0.0023575992132840676,0.012235391312707634,-0.42674355218096055,0.09042248129720082,-0.5595681307347955,0.026148447994851057,2.332364334725696,9.542155392191221,-0.00794401569429673,-0.0035029389197008456,-0.012232677285599106,-0.9916426013342745,0.3481980636513749,0.007959519484623727,-0.09227418897854235,1.96562546990756,9.524804274479608,-0.00850298867705111,0.002910485873788606,0.0032096064457215936,0.42377758430087203,0.5588487837053764,1.0020858677634066,0.17353361159450373,1.9748159333564541,9.708371769198553,-0.006801712028050196,0.0034946186392526514,0.0057771165864698645,0.40223252273112436,0.06141638171822546,-0.5716970367379883,-0.6048735708330462,2.0356069244383552,9.591702331365026,-0.01001615503090599,0.0012123870152356054,-0.003507125193394832,0.3198191924658637,-0.07295162841124585,-0.6782991001015926
0.3353169539468503,0.17924377026749694,9.803336330366824,0.00728346003893,0.0017954061177498433,0.012432258512983721,-0.4129529455695646,0.09595266695555865,-0.5662328828587544,0.033476261452583325,2.3076035951956646,9.544793850994122,-0.008538981052644865,-0.0054814915133166945,-0.009798591244255934,-0.9797111494317532,0.35347849673991105,0.002193522875596726,-0.10086637647536194,1.9556778726651018,9.543642713483981,-0.005125335341682781,0.0028688849659497364,0.0027291095044803615,0.4234660310776637,0.5524974824597143,0.9991716350897923,0.19050488120380774,1.9579654171763359,9.7131743483298,-0.004588174767044053,0.004795851772735731,0.005346857215318901,0.4053636991199398,0.05601699963360117,-0.5741307182139344,-0.6013803572589085,2.009648433699203,9.549742953325417,-0.0064750607095268396,0.006470951398668875,-0.007283814303234749,0.3234747351246269,-0.07833421275942772,-0.6792403745592669
0.33216829106489887,0.2069961110647562,9.753853584128075,0.005177762519368476,0.003473472035659015,0.00999555587801488,-0.4143211598694595,0.09124746671427605,-0.5555379527832935,0.04691780235338145,2.352747744131702,9.51835816887595,-0.010571154001289752,-0.002441901652571705,-0.010071958369660948,-0.9803857623030945,0.34538041011276327,0.013092251170816822,-0.08578748331800876,1.9780501767495025,9.535343267532337,-0.002167395379425568,0.0034237382354043553,0.0023671288018768588,0.4182859820829809,0.5457000004956426,0.9989769754873895,0.20634901398059502,1.9884312087294815,9.691762895282615,-0.0015417562288992054,0.003528616420869774,0.005543302254524706,0.3977329064192016,0.04728154617334431,-0.5743393724783219,-0.6150503257706209,2.0597300649632073,9.598356311539238,-0.00568253366923089,0.005493044753989855,-0.004922786246499217,0.31517522606996135,-0.0817387530503284,-0.6807391086448068
0.3050185745186999,0.22632519630006032,9.746212893882593,-0.0038982208087302876,0.0003643344035571178,0.011316562241633582,-0.41771203109812355,0.08839487732389067,-0.5614506705239334,0.029234930999134667,2.338569105851992,9.53902830489878,-0.009145396544697149,-0.0027192138629215388,-0.009284698810835858,-0.9821245759593383,0.3464743618962147,0.006485940433018962,-0.09419146202472954,1.9619075065475688,9.525552160513792,-0.008299938633826845,0.004117950367842659,0.003643644664713212,0.4230662109934268,0.5630020337958129,1.000616590150515,0.16391760006417996,1.9675692937868248,9.723569241001343,-0.0046173365600357605,0.004641967977678123,0.0069482926237722595,0.4068798771423201,0.06332917422680456,-0.5746392965490627,-0.6195611677530202,2.0306206796379938,9.609165990331784,-0.009701893363304653,0.004034017013545278,-0.005838675269399073,0.32105471674748703,-0.06856307815902965,-0.6792813217839496
0.3273145681298547,0.18202157496973323,9.7361621867975,-0.012877539460385404,0.0012931362922373971,0.010961291072493025,-0.42889688823401684,0.0919326056233456,-0.5627515837911783,0.031387487729046315,2.319864628847856,9.53624529941437,-0.009583922967486919,-0.004685513468856933,-0.011170308907386446,-0.9928885011521067,0.3510343947875378,0.0030277460378848467,-0.09088784742824113,1.9678365301756369,9.53088236946051,-0.004542086774020319,0.0017662933953701862,0.0035646200889774154,0.4180669182993801,0.5517977843884357,0.9957911531986378,0.18308987466983406,1.9681222968267558,9.714739388223224,-0.003280293770083639,0.0034946559326817003,0.007044607987256854,0.3985041116083818,0.05385705875349085,-0.5785077993835842,-0.6223047155786211,2.0265340036011645,9.585714987852176,-0.006772174787598268,0.004911010309241761,-0.007133860903377602,0.31203172079168867,-0.07710431677123612,-0.6846750720517131
0.3270691949888569,0.17881122722330184,9.736230071763877,-0.012843414958577529,0.0010882498944607846,0.008500917913319304,-0.41427582401716945,0.08837559661292563,-0.5633723752751857,0.0424171215027723,2.3342306388077114,9.546336735320663,-0.009397902844167727,-0.004894384571789399,-0.008667723968552185,-0.980918738439648,0.349115717256157,0.003989808477650524,-0.06825995840765046,1.9506443255761277,9.51842706258029,-0.004503571874434501,0.0034799028571984693,0.003044638151942601,0.42195607786198014,0.5588252400390948,0.9852516776436276,0.2051801880887226,1.977549145741417,9.703601559952174,-0.005456019049995517,0.005592062834910939,0.006170531450085465,0.407066850240349,0.05889874043622914,-0.5885449398095501,-0.6090464335548921,2.0453726050122967,9.57144683952621,-0.00864444144788123,0.0036917537869171927,-0.005489130808327999,0.32209506536563326,-0.07251065860492129,-0.6929366955384806
0.3305127141121357,0.19142101876165588,9.759335849599882,-0.0035332298787150757,0.003914542998425401,0.011647359088550231,-0.4145281857236987,0.09103665349254514,-0.5596917787403143,0.02972281125756064,2.3346714617305353,9.52709709476921,-0.007817709210354531,-0.005157446765710232,-0.012200189447758712,-0.9799244982826512,0.34575451671523333,0.006978137682057165,-0.10472188471718105,1.9611423750694863,9.528838280983214,-0.004522339813304415,0.0026225921885547785,0.003303626919846314,0.42395435346385774,0.5510325332694923,1.0008805865569819,0.1783741326696267,1.957215284313881,9.717496632759257,-0.0012005939759108602,0.004401133203641656,0.007147558088522925,0.4048446831681392,0.05235205036752295,-0.576806863448941,-0.6133570528298222,2.0241364815748613,9.593591010989975,-0.00656121408469018,0.0052130321194701545,-0.006622617900516057,0.3193337190653634,-0.07955172277165193,-0.681456623499945
0.32242992470180143,0.17857737410360125,9.7026949272447,0.005149174795487169,0.0019420680821978118,0.009937930593922872,-0.41891534858541474,0.09253953018041038,-0.558990182213918,0.035190538751796036,2.326258592655866,9.533073598176829,-0.009824742488724727,-0.003534711044493761,-0.00914648363373493,-0.9865315268332892,0.3513278534241515,0.005192511276540344,-0.08893108067530286,1.9775889857054836,9.528602110919698,-0.0053992890698856145,0.0021008835378580034,0.004060636883565307,0.42099881703099734,0.5515331917978963,0.9965041480012646,0.16593406753563472,1.9900546439728548,9.708452792941424,-0.003352956825709745,0.005034052703159197,0.004521989374903704,0.4019282092870647,0.054325266231758804,-0.5770502648748566,-0.6284837529355796,2.056166516391698,9.5958100793852,-0.007881584701710902,0.004917641900459827,-0.004962662463698144,0.31714187568007485,-0.0795498663494938,-0.6824441477417047
0.3264044936733274,0.21246938304447394,9.772065824063484,0.0037892150392454704,-0.002068811864682515,0.012724512283577112,-0.4142407866563214,0.08937242213317062,-0.5660498489474247,0.03568674626810992,2.3240469650361715,9.533611046195297,-0.008805160368101595,-0.005056029252471047,-0.0090112867055804,-0.9828821893606237,0.34759348401797474,0.0010961947422854761,-0.08773908538658093,1.9527465964883939,9.524267845674203,-0.006748152996524948,0.003950882697781199,0.0016895866488181425,0.4224870224282306,0.5520174263830548,0.9994232244925854,0.1875219687373272,1.9688551183937593,9.70096434384116,-0.005132304700332392,0.0016024662225245867,0.007324634084281195,0.4053627963480791,0.05601581362430585,-0.574618715937684,-0.6264081783278473,2.020661063988809,9.610820884983632,-0.009479298456637844,0.002474644549610458,-0.007535029603330474,0.320060165466564,-0.0773506466060955,-0.6795051398746993
0.33192962432400264,0.19993932444385204,9.77085525074561,-0.00233959733568979,0.002566034633321636,0.012939774479001832,-0.4221090935957227,0.09497731450591662,-0.5543630580107604,0.056742943542026504,2.3146606204628464,9.524224426307779,-0.009513645841633368,-0.004451659311034841,-0.012199183709513063,-0.9874832182553136,0.34971857913981486,0.010598745706808594,-0.09859617162072679,1.972112445343485,9.5396838451107,-0.004286957082720304,0.0016739734179072548,0.002487088250757123,0.41862401714098646,0.5562005852452415,1.0011490254905082,0.19545330144116885,1.9640579116548051,9.69784231564707,-0.003486789026101295,0.004640294381982059,0.005054196408530769,0.39901896128076075,0.056307975031051075,-0.573387684520103,-0.5922509954350641,2.0303240111179552,9.552181128686321,-0.00838965637985911,0.0030546761162812764,-0.005324949169007161,0.3161534186994889,-0.07832003166460208,-0.6797678418090116
0.3298760270497174,0.20746338809973816,9.748821951007777,-0.00968499607151986,0.0032460619430195272,0.007351771144202269,-0.41886882499318445,0.09330223230958319,-0.5631343884126396,0.033765655854111724,2.338646791955778,9.524536830882731,-0.010192548637686417,-0.004066395064152422,-0.008563837308743877,-0.984341938610263,0.3483509048397297,0.002553493554111535,-0.08861248815103709,1.950604086989284,9.524698334532669,-0.002736128663853467,0.0015099197272413101,0.0005360301783733534,0.42444334531463257,0.555900051790853,0.9954956423219796,0.18087500635701842,1.9797581668287372,9.702371148710105,-0.0022777701073355156,0.004718597615617623,0.005833773125518032,0.4043959661282976,0.058454206252450264,-0.5785298717409125,-0.6318765542178102,2.050043882566018,9.59689699635348,-0.005042013962054486,0.004541727292780344,-0.005595687125319082,0.3181462663068423,-0.07467885732377556,-0.6858710208849991
0.31316432932576055,0.18237314539275218,9.749385597251115,-0.012580999879013857,0.0006095775500414669,0.010508003390499013,-0.41359817143370226,0.09220168685330823,-0.5535708837331514,0.02571384096031336,2.3143887085388672,9.542590358761078,-0.00957290789710437,-0.004699515346391852,-0.01117109354103636,-0.9804061163793125,0.3494655918021297,0.009597097343523025,-0.08157968799494127,1.9646290321315396,9.534929203934686,-0.004554687620384757,0.004776675515321752,0.004554208240961266,0.4220016666821829,0.5512907901684645,1.0006490726118173,0.17264925060471661,1.9746275604929338,9.717104903762042,-0.004360459287525751,0.0038141367899632685,0.005728823644456086,0.4026562272409732,0.05238016243108333,-0.5716758593204362,-0.6088683196739659,2.037762954102254,9.612693513603917,-0.006515394998959842,0.004273931271033265,-0.006968668775168831,0.31712190315513916,-0.07929457579808323,-0.6785389204970225
0.3326756803437636,0.17438456731302954,9.74147179571731,-0.004240383146988458,-0.0004794024797423369,0.01172009415615562,-0.42005993938623615,0.0923681331673241,-0.5673039059261051,0.04707044941848678,2.3340435628079605,9.531904713117273,-0.01077973591236313,-0.005110540573495459,-0.011719337468746488,-0.985100271413677,0.3499533672302086,-0.003089358175853283,-0.08195576869631112,1.9566209905401266,9.506670365491178,-0.007879295653212213,0.003517475744180912,0.0035191307731270906,0.42183105302095447,0.5549693314902359,1.007478413774962,0.18798493550110196,1.9740102962018693,9.699460951496357,-0.00523313669236733,0.0029869721053803642,0.006403451491241134,0.4022000322068954,0.056536487395365854,-0.570464111045354,-0.6127939805581494,2.023916510726461,9.554086892566161,-0.009785031272510122,0.0027710769239192544,-0.005182448617952826,0.31733042852053395,-0.07609782326328568,-0.6704899235779491
0.3225222919802358,0.18217108665937376,9.771274403710713,0.003919580473596714,0.002621821776165144,0.009852305135602814,-0.41995791267040733,0.08692454981915688,-0.5578205973852627,0.03709895666616815,2.3149044946569055,9.522950462808074,-0.010435822501167985,-0.004111376318760609,-0.010038228204700789,-0.9838169838155223,0.343598577794706,0.0094776361812254,-0.08581532807597957,1.9429519024678947,9.546443750545363,-0.004888008810957372,0.0019172403094149012,0.0019075642741354115,0.42034202727395054,0.5591133193176102,0.9991781852111612,0.1965518401738233,1.9610637823525119,9.707571605568438,-0.004354633309052758,0.005436505444157268,0.005877870643297333,0.4007438610214123,0.058976575994717576,-0.5751063691279991,-0.6063871160724674,2.0097975637122163,9.571061633055223,-0.007108099941378245,0.00428414363815603,-0.006641802504668879,0.3149348752316226,-0.07538533163104401,-0.6790497070514939
0.3054847608530468,0.20245219678968734,9.728571100162016,0.0020365851933430187,0.0028290405628172473,0.011220088067577304,-0.4181540001353657,0.09449238179240184,-0.5599455596886108,0.0427137057706077,2.3357059371874973,9.527590342455294,-0.007646356435501626,-0.0027666672819308753,-0.009526251960364898,-0.9840783369203421,0.3531038320250051,0.008567366126800533,-0.09322980340248635,1.9748634824216391,9.522323590730627,-0.0028590785784556256,0.0032491780947296843,0.0038181657102521025,0.4095481929524209,0.5552804023200726,0.9958405475841327,0.1686578227971583,1.9874722813879673,9.695394969280667,-0.0022797576704436055,0.00472060937039893,0.005832771908463021,0.388756205208405,0.05636912506044044,-0.5782518703176678,-0.6251513298083318,2.059898350564105,9.628089356108987,-0.005753546586805855,0.005500827289338449,-0.0064402085995970745,0.3071313873767197,-0.076840039783799,-0.6812834884841078
0.3149883615988605,0.21264137349085854,9.745146917849734,-0.0020124740471161224,0.0004815381227627526,0.009359167176945295,-0.4237710023367442,0.09696876287494068,-0.5572942664185723,0.04280031013793706,2.333754659200669,9.52806764623873,-0.008821820649731475,-0.002458362181104186,-0.008838888267790695,-0.9887145188950218,0.35408833164379927,0.009301831373255047,-0.0876833323863206,1.951984952031581,9.53094528757394,-0.00808139340935222,0.0023089907106605047,0.0030790882516358664,0.42346843670068696,0.551523685971319,1.0006387644679207,0.19317806590837477,1.9753384210455187,9.68556405187908,-0.005339787546491108,0.0027501093057350446,0.005333219455905407,0.40486830821878067,0.05504290927013767,-0.5743714355146344,-0.6163351228921276,2.0342511935020506,9.577707857954952,-0.006900643347879865,0.001460069353228129,-0.006159540962533276,0.3173703211395121,-0.07783081017957302,-0.6787858531176045
0.3244295292529266,0.2133566768395757,9.767021311177254,-0.008259824713748525,0.0007521289008964644,0.011851124495784583,-0.41915988320453096,0.0978709149607968,-0.5533375774034331,0.03480418488432339,2.3277181496435895,9.514338417444083,-0.00984308568254789,-0.004272039925425071,-0.010382809500399924,-0.9855291138701319,0.3534053829814352,0.011742491520014888,-0.09719243882139907,1.9535121404388507,9.533766605240396,-0.0034611235720893615,0.0034924547267273136,0.003239648376056795,0.4152179077128386,0.5584218211536347,1.0004349620460244,0.1998893261671955,1.9842834244664507,9.692320928490199,-0.0024515883774697722,0.0025496151301970782,0.007815375302269573,0.395139509310257,0.06023989957253153,-0.574122067123831,-0.605706910913835,2.025927514204881,9.573945622834392,-0.008637438912707929,0.0036807244980817133,-0.005494062267435632,0.3127369217303184,-0.07464624755529367,-0.6785753684223724
0.33765273899060627,0.18351759521228378,9.724529444356968,-0.007267923280313387,0.001208807957166806,0.008736687502375766,-0.41460648671529743,0.08516081716653236,-0.5575389142706778,0.03622013083702898,2.322757085631507,9.52841499326802,-0.009563901242505625,-0.004710539121161038,-0.01117292563349505,-0.981378796634308,0.3433430730355877,0.00873888345708111,-0.0819799564156481,1.9757506286093487,9.525556558471628,-0.004959878150401067,0.002357719582839947,0.003677134224075473,0.42523646798572534,0.5556706012618341,1.0047680671873171,0.18037299221285205,1.9737159354336997,9.71275281055048,-0.0057004595814592355,0.0049684602780359745,0.00562849669323242,0.40660790892338194,0.058456949873343635,-0.57096493508924,-0.6184630715489408,2.0378856727578305,9.589824402349015,-0.009526746383918188,0.005258095361331168,-0.0049892797584069545,0.32126635756739413,-0.07587837744823576,-0.6760860056066849
0.3117462186190995,0.18370136758776137,9.744293628199332,-0.007590431891553653,0.0015630383600278024,0.00979733212587829,-0.41481964452161446,0.0873683008684881,-0.5585016439602615,0.0511582710004528,2.333394632339254,9.530491171126103,-0.010118267484875225,-0.003838553359886559,-0.009593616638568605,-0.9799224875580211,0.34355332995666016,0.006775362410220227,-0.10729533854459575,1.9541191904007273,9.536768889125511,-0.0059598687310147,0.00405473833731025,0.0029581243592891326,0.42866474747664357,0.5619793525965465,0.9991163493662548,0.1714837511546984,1.9764519606005932,9.716308622229432,-0.002294402713291721,0.0014778836466226998,0.005530678540313546,0.40762311463290146,0.06503172493260793,-0.575133811591061,-0.6196392410482918,2.035867197549878,9.590177072369961,-0.006556715447395575,0.0020809103559164682,-0.006654540001572147,0.3259345543990529,-0.06881606302228878,-0.6787669754479833
0.3212018402783553,0.19300675235825276,9.760895442627582,0.0004952899144388791,0.002144757661516381,0.009667291630752736,-0.41962422651597603,0.09934685744644553,-0.5543071108315177,0.026818658070492975,2.3307685610179063,9.518658106779329,-0.009219986442067766,-0.0037123746897849627,-0.009491797625883654,-0.9840736316824396,0.35877277575536987,0.011391579263710401,-0.08361078999949746,1.9789245026753866,9.518088399512774,-0.0038475176761343963,0.001932813732827429,0.002105581108869255,0.41842012566306974,0.5591381582094179,1.003829091598904,0.19690433069744384,1.995069675737233,9.702840285294162,-0.004461271780350565,0.005201640157550838,0.004806633725717218,0.39687577736130947,0.06268271427099249,-0.5687601909965898,-0.6111157679534853,2.0630547469725893,9.595612296357043,-0.007060283032200297,0.003344038537623517,-0.006987839992738339,0.3124818524683265,-0.07024046421177037,-0.6746833739720269
0.32685562227650616,0.19722186979921066,9.74913643297216,0.0035591295576958555,0.0023083245991195158,0.012118728453787362,-0.4114155420009942,0.08829236454159181,-0.5560203426167811,0.03442873300431877,2.335033249444526,9.519957905658156,-0.009527533424592899,-0.003997219937802473,-0.009938226834405596,-0.9765078135783316,0.3489461734323857,0.007636834904706064,-0.08714595098732802,1.9589433313646134,9.52924258199468,-0.00700039503662947,0.004037158477957677,0.0027571120316352677,0.42025139542879997,0.5525083026100879,0.9930889471502873,0.18513454268323015,1.9830410066670558,9.687662221764823,-0.005000612856610852,0.0036246378432882352,0.006936474072848616,0.39972963238693066,0.055305608778733216,-0.5816876018374665,-0.6103413569288691,2.0179254204954935,9.575341463584591,-0.008842399939610572,0.003373684162520363,-0.006007259315156473,0.3169153470002802,-0.07858182363713148,-0.6853781876296872
0.3264855052042697,0.19712538898617785,9.74915020996587,-0.0035844115514636473,0.0011931859595489247,0.010934652765207923,-0.42325763010580014,0.09383359887855972,-0.563172061385079,0.032536550483176205,2.3201143724491184,9.525153661666918,-0.0082574378371876,-0.00334233273283895,-0.010418015274896459,-0.9877608258182902,0.3520260832279271,0.0034753493311796436,-0.09729393653442152,1.9662028189816065,9.524074556368321,-0.003715324532055674,0.0035797564548565,0.0043121847531638205,0.4150501486700893,0.5672155676090127,1.0018810717175581,0.18452160663504416,1.9823087410138946,9.68782313607132,-0.0008108897424181465,0.0039660699166291615,0.005396886346964349,0.3929970170248179,0.06734068318450742,-0.5719383508183716,-0.6125752172128478,2.0376459337209982,9.585965921234484,-0.005705727533207958,0.004561722182360168,-0.00678624896741608,0.3117844383303584,-0.0648806431227989,-0.6790966077540035
0.3278957755664929,0.19505502950586384,9.765989454905228,-0.005411263236379781,0.001531870842725897,0.009236720354531193,-0.41538689095396897,0.09864810936098456,-0.5642828394990395,0.03909499622283925,2.3382426778183416,9.54334613879127,-0.009803710948643084,-0.0035637159319068736,-0.00914802986397229,-0.980443772365508,0.3554393432616366,0.0026479693027727097,-0.08552526871084844,1.9753274814234294,9.51881800445845,-0.005122455250347533,0.0028618407996959814,0.0027191052655942648,0.4184121050069953,0.5574307989236302,1.0045658615347122,0.1917747862172493,1.9836008709739188,9.705711661223345,-0.003761417939118028,0.003858817694496002,0.006114608661878996,0.40123831107415103,0.05849816821671998,-0.5697350960811973,-0.614981608840292,2.0496589414764133,9.585191551165527,-0.007830771398757385,0.0039685217972207035,-0.005311658219933533,0.3168637447488159,-0.07513137719804369,-0.6741572321633007
0.33409287027304535,0.20524753726040926,9.748998519090165,-0.00887365798320133,0.0012627249973963953,0.01151306482124189,-0.418025284753323,0.08882735127656619,-0.5536378693343625,0.022953883575413583,2.339384488648317,9.54580207823101,-0.009770810066559893,-0.0040402015456931124,-0.011412655217493904,-0.9818615094726734,0.34557666345785587,0.010652419226600167,-0.08535165087101992,1.9628946156592613,9.534984172672836,-0.004736082949713427,0.00441947968965945,0.0038521769904978926,0.41375395121597985,0.5521019785406293,1.0077826168230366,0.19744724639739472,1.9618742475950492,9.716090019140541,-0.004031089402219341,0.0030703153221912425,0.007179028837776918,0.3951155988185899,0.05537127719867134,-0.568251163064903,-0.6078029728903276,2.0140633321256667,9.59179424355931,-0.008156554601012061,0.004615376208376056,-0.006995267935959652,0.3102619603713445,-0.07853390822120344,-0.6736940284610172
0.32327474005171575,0.17695145855701616,9.743004804838908,-0.0038697282681046897,0.0013465222603750108,0.009531982686374648,-0.4125727350785447,0.09198786214252842,-0.5589341351047152,0.047950515510681635,2.326175857918967,9.528354814745052,-0.011006530668740879,-0.003980734863225122,-0.009696178504275309,-0.9774882713044593,0.3491751081866866,0.006903591748891011,-0.09023313020426302,1.9596732166712654,9.522260462479688,-0.007295130845427101,0.0024108593952294755,0.004346643754039642,0.4302769654690123,0.5465922314955242,1.0020689752090532,0.17265868372053364,1.960844543311125,9.684135230039328,-0.004231579270607806,0.0042159183373050935,0.005191606249489357,0.4116872728595937,0.05231227202234281,-0.5731574081474398,-0.6099002338650499,2.041542450274021,9.613825192794256,-0.006804493691404498,0.002708958724825369,-0.006823658859499709,0.3278535487552876,-0.08346771627112243,-0.6782265388312725
0.32118668880328577,0.19522824377496,9.772598611101046,-0.0017098870007184145,0.0018425971445056582,0.010835230325555325,-0.41534219952558454,0.0907383967513231,-0.5514011063039763,0.029817921616750787,2.34401569963908,9.534163797106801,-0.006458881429166376,-0.003088991700649571,-0.01021540439519101,-0.9806198781060307,0.3488661457407414,0.016690560485294922,-0.09916815632847609,1.9556684977764056,9.533024121324745,-0.0034080640259978074,0.002192656182716719,0.0017250717257823707,0.42124047932440745,0.5544533207983315,0.9928341172170938,0.1784006036383592,1.9754052004722007,9.712008350383037,-0.003390079687402638,0.004887211094840087,0.0061174223679203305,0.4007220122950064,0.05798102474768384,-0.5831599467396995,-0.6050490663425316,2.0098375493443656,9.584206774441663,-0.0099376705660772,0.0046430168259249316,-0.006015676227515976,0.3164297302842578,-0.07760449411766668,-0.6856275656870666
0.31711105948764035,0.18857428862225167,9.744271604420016,0.0004553477958562979,0.0014770498375413427,0.010873051511062931,-0.41471086273735447,0.09447851892726189,-0.562598211508844,0.042259809474949644,2.3311712058824012,9.510395123697064,-0.00998271725005194,-0.003364833899670645,-0.011650457421626959,-0.9801946642900043,0.3525157548753536,0.0029457764791631716,-0.08677467691321011,1.9592089093849372,9.535728685360878,-0.0049589418592071175,0.0023537013024735034,0.0036721365464451343,0.42839646697711736,0.5558858011329103,1.0025494258485943,0.18470313276732697,1.9846830021428583,9.718716174079173,-0.0015527243328856332,0.003534679998528997,0.005537307780326457,0.4088007142126999,0.058677584491250996,-0.5741435426976939,-0.6148334878649857,2.0491166265231993,9.58970797726015,-0.0069213140141987,0.0036588391983047377,-0.007996038959247597,0.3222564397971069,-0.0751548139224865,-0.6782799415680594
0.31321396116321254,0.20021103344201885,9.762309210044082,-0.000496977088341264,-4.113077732465929e-05,0.010260726486600279,-0.42308451575953343,0.08941581528083932,-0.5602739529490763,0.03218780295635245,2.323328715223704,9.531783109131828,-0.00927124044362348,-0.003972255632254433,-0.008465516512803176,-0.9872528339583049,0.3489183690535031,0.006950091174867166,-0.08737576932295198,1.957914991532358,9.535989511942589,-0.005957925807043218,0.0040507146484574505,0.0029541199898684995,0.42004346663122444,0.5564181457552514,0.9940588920947852,0.19393013672162135,1.966528862496474,9.705635164495543,-0.004535417941362986,0.0032735604832580248,0.007854471010807424,0.3999945477923869,0.05799216970223281,-0.5807176166663031,-0.61093498001298,2.03920253348293,9.570376748129112,-0.007961733608812005,0.003644689705541772,-0.004308391218614115,0.3149441898482583,-0.07343516869615772,-0.6800323136692777
0.31913617116817294,0.20336831973752365,9.750565906211456,-0.004159409511317937,0.0023634781333729095,0.009393763549835923,-0.4201280979665958,0.09619159607610053,-0.5560443990189117,0.022147854088523898,2.333730506988512,9.521481030127426,-0.009578533357528164,-0.0021207930213290186,-0.010996386573752416,-0.9855304711602627,0.35438221040295714,0.011724179056328488,-0.10594858723123884,1.9623184293218339,9.541355241490363,-0.005815166009396239,0.002686281766536735,0.004167151131640765,0.418638547214197,0.5523089847429229,1.0077495205028026,0.19771631782568186,1.9609263910232007,9.69361572016403,-0.002889728124417508,0.004687987012989004,0.005438977765444248,0.40121662829264987,0.05532544650308843,-0.5692383428377884,-0.6148065741710951,2.033553895168904,9.615205567429559,-0.006846317357836846,0.0036410453193622284,-0.006479566777040908,0.3166033794861133,-0.07512238787907422,-0.6712295718137857
0.33375510772240646,0.17316959795966078,9.724853821231694,-0.006977786942619947,0.0013858813602872083,0.009548809362355656,-0.416959818169149,0.09373291180490673,-0.5579867251448942,0.03165958337373496,2.3216424680342005,9.519340679164637,-0.008492961782627286,-0.005529629064008291,-0.009808887020111259,-0.9813851894204041,0.34945516324557874,0.009113382318517584,-0.08947940351932901,1.9664980712347775,9.520609601410024,-0.005172614654032542,0.004154601675458264,0.004226677602936756,0.4260170620666343,0.562743251511658,1.004015511990328,0.17933112212043034,1.9755610940478727,9.689299144176136,-0.004266739334844551,0.004063069948126897,0.006790050224049773,0.40467692953911055,0.06188698585773941,-0.5717027025073799,-0.6182775644548758,2.0513825731485524,9.602051576060095,-0.007440024428608976,0.0036502598222014574,-0.006152702880208295,0.31810881370597427,-0.07001477309797248,-0.6768515392681154
0.33968494161451485,0.19354494272695147,9.759506561738414,-0.0051306668081272724,0.0005139446552453481,0.009382846742610999,-0.4097547412288012,0.08290851691655755,-0.5565335370687153,0.04149467090733101,2.3388499257926316,9.515966448630381,-0.009421882813306758,-0.003051028979623501,-0.009731379985275075,-0.9769696878395832,0.34071008619631343,0.01121188849963304,-0.08459711088359176,1.9493369692340865,9.521214155577082,-0.00493820250926436,0.0032089925522026256,0.003411138926722755,0.41174669136883174,0.5496632137021297,1.0024301829870583,0.1910088795166352,1.971606019042225,9.69508618019599,-0.004871734689635245,0.004026416960283144,0.006398256682546334,0.3921457576047292,0.05122861242783151,-0.5738506270357575,-0.5965551470823581,2.021232395985146,9.571354171373228,-0.007231063693568449,0.003952285890971242,-0.005641470384180516,0.3080752435505322,-0.07853487627557422,-0.6756585351696969
0.3175972059577241,0.18314604335198603,9.761203207648755,-0.000792100571455536,0.001833440180236711,0.011388903713272554,-0.4183627539710313,0.09210002924208417,-0.5663127308902578,0.02634579179711366,2.3374383485233206,9.5319035199522,-0.00864460692072216,-0.004606404073644312,-0.011074783686217783,-0.9828783351744969,0.34859320438557456,0.002298656522075361,-0.09087218329240104,1.964138578818838,9.521084032693608,-0.004917442232080488,0.004065288102902678,0.0031521390411194147,0.42230415087056095,0.560318488482324,0.999162460197729,0.1895632129047461,1.9785497397449423,9.684132927854794,-0.004003890406683782,0.003230205898107936,0.005574582447779769,0.40245062703840195,0.05871982032810438,-0.575352903691319,-0.615748527677579,2.0396472663786507,9.583019431409653,-0.0076616355482902335,0.00519962733035445,-0.004457314477418712,0.3178702462525892,-0.07466069419906887,-0.6797694122421452
0.31869775612554263,0.2156906629925549,9.740158323881465,-0.0011112151404985688,0.0013270606601249596,0.011185110500834377,-0.4148054458418576,0.08834784328129812,-0.5589822842197066,0.040116256370724725,2.3325883277030575,9.552161425087478,-0.010994511440704017,-0.0039977349018518625,-0.009696911200724898,-0.9801712335316007,0.34697040680473085,0.00671234451587793,-0.0867426069271955,1.9582602308727504,9.505768786385806,-0.005213171306274789,0.0024389987606644593,0.0047426774059501926,0.4244532431352636,0.5485974300820556,1.0052766350738094,0.18569310863548347,1.9684862112663666,9.686676557054565,-0.004762238276729442,0.005888667261467884,0.007616533888808566,0.4043687248330241,0.052614360404191964,-0.5707025919848023,-0.6001806819271128,2.0388300485850186,9.582384470964067,-0.0090413498375939,0.003059616641611157,-0.0065254045944000165,0.3188365779318055,-0.07783463495753208,-0.6790221524830861
0.3247720425524948,0.18516968189646876,9.766286595778695,-0.0026368360513098596,0.0018447694287178208,0.010291419017481542,-0.41177774835709824,0.0937256917679748,-0.5637970702580608,0.03332816946833417,2.341966594814656,9.520312673021046,-0.008858516862551978,-0.003929039398873297,-0.011312614790488696,-0.9792218503577435,0.35102939827754426,0.001748271106587423,-0.08241729780516059,1.953194404078337,9.526986373639966,-0.0049579846407720556,0.002350687323077989,0.0036691366029338343,0.42625288885786833,0.5627387586483297,1.0027929153525463,0.1831742240214119,1.9867349682655964,9.717909011717689,-0.0030353793080852695,0.002673892984843264,0.00581814392754715,0.407863528018842,0.06333231019620807,-0.5704911045189351,-0.6002908432285623,2.0154052354308596,9.572349433237163,-0.0058618599864877705,0.003317571706689494,-0.0076464868710923025,0.32226586452278017,-0.07075984225163666,-0.6782925980673152
0.33665545914309586,0.1918869150854473,9.742798342045838,-0.0038822169327913368,0.002205161945120685,0.010804320269343175,-0.4139207502644624,0.10251039075768682,-0.5603340281726703,0.027281472408885295,2.3303697860066217,9.533631376641939,-0.011146153800313465,-0.00307650955820543,-0.010962770379700029,-0.9809204576509503,0.3601592683365012,0.00695630499376843,-0.08538182115385372,1.9867015289281365,9.51601134021792,-0.004957991324462489,0.002350685157076175,0.00366813662761578,0.42839001735074494,0.5578318656362911,0.9993711753312498,0.1912850758901777,1.9766396560528865,9.693637429006813,-0.003019721909444154,0.005918609100787175,0.006119230580857546,0.4088048166125754,0.060134236095592625,-0.5775651064153356,-0.6193379643795712,2.049657380895282,9.606755083760627,-0.006858977278568727,0.005490441800145352,-0.004271940136670291,0.32497154885633306,-0.07126655371204178,-0.6824270099702419
0.32288511297093264,0.20033492096845779,9.739026130638797,-0.006067383722008032,0.002240358778979862,0.011368905325991585,-0.41701553401500313,0.09320513415063414,-0.5526187763288034,0.0160615395928136,2.3249470278971174,9.541569406440864,-0.010002594746443955,-0.002908346485602967,-0.00938651282735461,-0.9818717319289513,0.35142547883821684,0.010054690903830439,-0.09234261284613325,1.9537331403505378,9.530002618916209,-0.005099765416573044,0.0037141083295396064,0.002454101059934182,0.4200887287681557,0.5559460246964956,1.0013837929845475,0.19137171774321668,1.9676166390060759,9.705037250959906,-0.004746712587292329,0.0028008206139178704,0.0057140008314921775,0.4000068827541947,0.057524950830498946,-0.5721714641182489,-0.6091127817846901,2.03373654273208,9.591542491506758,-0.007390189665389755,0.002711141783775351,-0.006501732687356029,0.31738143932392143,-0.07563735421384414,-0.6800131580154941
0.33610605025603046,0.19734757153732946,9.7376212304004,-0.0051231943845166964,0.0017049420721388037,0.010051793164859076,-0.41334102332624867,0.09002958527315806,-0.5572468106334505,0.04298359692614971,2.3248984802228985,9.519378304844416,-0.009105323518736849,-0.002778188580392364,-0.009285764310540899,-0.9786937179380772,0.3477637055758432,0.009865747396996524,-0.08965767608639204,1.9655383516263765,9.527360038297003,-0.005538260972104758,0.003452249703220289,0.00283060830767464,0.4208139544326168,0.5556949022298067,1.0006474715585851,0.19376379762082363,1.9755987429126223,9.702950416734522,-0.003156548762294976,0.0055258696835696515,0.006650440673478705,0.4021938873224634,0.057496252883162124,-0.5775464652760338,-0.6124733310063509,2.0514521585491816,9.578449407601518,-0.008029728688411916,0.003653457173726077,-0.005828800637373364,0.3169038712201655,-0.0773530663651863,-0.682695752006394
0.33136128181055646,0.19174212044259714,9.766211772270456,-0.0014333872948042773,0.0008176887680159302,0.010984266336071531,-0.41777659134443,0.08907173078942257,-0.5538777177074429,0.02973423349488605,2.3362302558504595,9.530698485531707,-0.009349604318358152,-0.0028181720271911823,-0.01076024463082953,-0.9830852580061948,0.34605382930816847,0.010160604954745925,-0.0852718166881354,1.9538535894845548,9.520031852912629,-0.0059559962504525995,0.004046686627601024,0.0029481156698117576,0.41982714271377863,0.5544808043167421,1.0004126910460718,0.18194189807348618,1.963857246096213,9.68768775128569,-0.004373372539700542,0.0038292022028664535,0.005717810867679687,0.3982870520648254,0.056071568864645774,-0.5724087514150777,-0.605113507947559,2.0236788113975277,9.596372639970067,-0.007866600864032774,0.004890587007684635,-0.004970505765640462,0.31567170969025315,-0.07538901146660275,-0.6797788431426216
0.31375522345746804,0.18654317272913423,9.739324377139273,-0.0008171288664660984,0.001497109908278815,0.011995217602783253,-0.4207382371379671,0.10065401498812215,-0.5643187091801996,0.05038958047573683,2.32711827632614,9.521198411413625,-0.00851459362618266,-0.002933855688231956,-0.009630430737074983,-0.9848442554158104,0.3563920995895505,0.0016717073995825074,-0.09534882742862194,1.9610955744964729,9.514879391207455,-0.005119554231771174,0.0028558009344131553,0.0027110987608272063,0.4249281119352801,0.5522424009810138,0.9991624152733345,0.19929032341726993,1.9836847059482858,9.709933573857708,-0.0024255384485784882,0.004335919232484018,0.006357978974787717,0.40752999282455604,0.05257514490745046,-0.577544376754183,-0.6192240191120632,2.033951199608732,9.588407758482266,-0.007892761555100594,0.003972267849103241,-0.006835021665606245,0.3215365621759413,-0.07980392618855287,-0.682664357190244
0.33090353048234356,0.1908913021509432,9.766244128971557,-0.0023562595650454873,0.0008238508815577976,0.010436522964430638,-0.4169675654854502,0.09130475687865286,-0.5597129199870831,0.03532807879983486,2.3255334436529855,9.537170364665025,-0.010485410675700356,-0.005130649823072347,-0.010252945545301444,-0.9813933622265646,0.3440164331473714,0.005551731279449682,-0.09264476500224882,1.9727507234115236,9.512276008761047,-0.006812227084332155,0.0043792649256624416,0.003442130279689334,0.41904230759126815,0.5530081806043998,0.9943169758925957,0.17760625473104363,1.991887393439154,9.675614592679093,-0.004510201242493701,0.003436460355302014,0.0062480209649652925,0.3989958204261675,0.0550680237239038,-0.5811966646235962,-0.6099888634151177,2.0394675836228444,9.583599183676565,-0.007045269172642889,0.003330983554607574,-0.006995723611174305,0.3147166252229937,-0.07833243967651995,-0.6851464416776708
0.3231715161201204,0.19524262580967047,9.755962330426588,-0.005126222547193348,0.0017049494713747958,0.010054764726074169,-0.41731105296088455,0.10135500462482787,-0.5645250369427195,0.02642090066972474,2.3331952824920914,9.540417328225345,-0.008450324674867235,-0.002690992224746313,-0.010658448655207044,-0.9824050470407268,0.3554047428811513,0.0009476747806339654,-0.08334142081167789,1.9571551605573545,9.52592494498822,-0.004905909047877297,0.0010538940944556515,0.0021535599948984915,0.4246761242503699,0.5561379658422181,0.9935405229212165,0.20017898834608114,1.9600288339936196,9.711620429722547,-0.004239527956483021,0.00422495803708248,0.005184598951808234,0.4016889026944493,0.055300008643021946,-0.5782731968379746,-0.6102549209895226,2.0238978367548026,9.584912822832575,-0.0075226856024709415,0.005510433798756365,-0.0054635019608214545,0.31861120583798336,-0.07393378665474098,-0.6809876475703194
0.32115035156164373,0.1948662566590023,9.739194164930923,-0.004847011520479768,0.001545635838107949,0.011462332972667157,-0.4141569015526807,0.09815894350378328,-0.5657399094482413,0.03893695875978921,2.320230925546553,9.516651586139838,-0.010084219605791157,-0.0038855755496422723,-0.009596880930291847,-0.9767949425204401,0.3573520244631056,0.00015507291838572773,-0.09299444522323182,1.9645448935548033,9.520749328895777,-0.004957040789717859,0.0023476690116788455,0.0036641367087864246,0.4173729015753474,0.551572563169314,1.0018994303853102,0.17684401265324504,1.9816959961712115,9.687264825755808,-0.004231691215807141,0.005848317281920797,0.005335639832676791,0.39878340961739145,0.056804226621580946,-0.5707024423014605,-0.6011812095455449,2.0450392896653886,9.602891638240184,-0.007269895027467894,0.004878363245401812,-0.005298345245027951,0.31248303536448,-0.07806229518882903,-0.6780788160297099
0.32091132347925133,0.19368127077579345,9.739226118528897,-0.004201984817401344,0.0008371824439397522,0.009340043798071164,-0.4179584717241168,0.08791114059094576,-0.5617016103395465,0.04027322546344164,2.3442551906985534,9.529624842215439,-0.011134134572276605,-0.003093509596832171,-0.010963503076149619,-0.980649202740092,0.34431628379441637,0.008473473268085839,-0.08378558290077419,1.949039993334022,9.534373699628755,-0.00595503147215729,0.00404467261717281,0.0029451135097833866,0.42595625316022306,0.5622357582011455,0.9954718067743994,0.18086193958959554,1.9736456996669913,9.70753305237602,-0.002938701851422707,0.0029158146999306096,0.006883382094879908,0.4059049874218952,0.06551526683611958,-0.5819678402063323,-0.6182023562678823,2.0124276159140555,9.582416235890209,-0.008780550310223924,0.002419514650813125,-0.0063651827235459,0.3215674661795944,-0.07077733876262263,-0.6848883305229521
0.32782085140740014,0.1792574271421778,9.754813850584688,-0.002061154095925459,0.0009948975870440787,0.011245647050487738,-0.4094860253878433,0.08777063532255365,-0.554052774000042,0.031068652834027405,2.3224805791238397,9.534054207799834,-0.009096309817449352,-0.0027911932525375095,-0.009286559100762974,-0.9733064870602973,0.34661403706007465,0.013282940949218034,-0.08260977969370917,1.9842568495774142,9.53647261295486,-0.004466420226948915,0.0013157429802849855,0.0017760461047316295,0.42425991806638885,0.5505638512460517,1.0106448004236783,0.2002310997121014,1.9743114082940736,9.698745561654968,-0.0033716855234738954,0.0034287445445603556,0.004359924721706117,0.4055923639147321,0.05115791414651215,-0.5636212829464813,-0.6045611133772008,2.047155760074141,9.591157573808042,-0.005574903829292639,0.003598794637073175,-0.005619757775412711,0.3224559001769536,-0.07977424630265861,-0.6716734217548832
0.32020406808800655,0.18422576779620947,9.744518716587946,-0.0004743419981206155,0.0006106276072973536,0.009070685453372598,-0.42258219313305917,0.09087588311911253,-0.5602583681304325,0.033227528791250543,2.3329995776976147,9.53000702067712,-0.010515033701308088,-0.0025288129816530202,-0.010070568115264316,-0.9870265725868123,0.34810343331680627,0.002569595022965567,-0.08088695554796675,1.9532605627217796,9.50340241990846,-0.005609217576105058,0.0038847129864115013,0.004596189421370701,0.4269226695679356,0.5539455363037784,1.0032954972858728,0.19211226034963413,1.9690310103881208,9.713468482912699,-0.004411529106338896,0.003677370287300955,0.007314257905898645,0.4087865738164234,0.05599918597727792,-0.5714519945466217,-0.6175048525115414,2.0362144024731257,9.572737955324783,-0.0076818041826210446,0.004270286794145895,-0.006324767125800681,0.3244348884782184,-0.07661601194853677,-0.6753342335593744
0.3220542813467004,0.19089232702335018,9.75608550481841,-0.003930215190649207,0.0015374886755492193,0.012016004457711726,-0.4129953215836264,0.09373955130536947,-0.5640525293570672,0.04164838401120643,2.323722515355486,9.514315116214474,-0.007419781078886125,-0.004212464777968382,-0.010532297291463969,-0.976290447546377,0.3522677611905754,0.0024456697394665307,-0.06921277807047903,1.962962124672292,9.534765153812643,-0.004680093897944154,0.003115645550304259,0.0023315893530583766,0.4183681795659145,0.5557118038760968,0.9999307640619313,0.18752170482148098,1.967130427950866,9.704793553786638,-0.003535855199095705,0.00450351849827116,0.006641626995455055,0.39636492286625824,0.060478758540085796,-0.5726599077582392,-0.6175659581714538,2.0285190571704415,9.58543810960616,-0.006168609941653413,0.0036060062618351284,-0.00529388810113517,0.3146899458867145,-0.07342900309201901,-0.6780806305512117
0.3222909601638618,0.19802579284204191,9.75085624009466,-0.004242887939761006,0.00017249168071757528,0.010544816857144264,-0.4201857201462577,0.08984770439630596,-0.556581002261023,0.03371576882101914,2.3398416517285905,9.561494474251962,-0.009092302911531099,-0.002796187133393378,-0.009286482556921561,-0.9860301807000035,0.3454934200956099,0.006521008845014824,-0.07785888048645882,1.9527395316553402,9.516881642439811,-0.00426137291405989,0.00252019891646624,0.0022130775650119265,0.4219784745965942,0.5527446396142592,0.9955189519586427,0.18549323952835112,1.9797690101003607,9.714938637512516,-0.004378344222384271,0.0038342279442993496,0.005713807832038828,0.39950590517489215,0.05678655375521387,-0.5758307598461515,-0.6134683774636475,2.042310033843965,9.60025700729571,-0.006420399574311323,0.004236071807841709,-0.005460033786066863,0.31787031231777857,-0.07881660810838505,-0.6814664277323478
0.32774030076402644,0.19255945801783378,9.744389920846967,-0.0035553510206520777,0.0030369070934518324,0.01041955581710133,-0.422052340071554,0.09865532585324015,-0.5565334173281209,0.03479803873071091,2.323905123640027,9.545050613928883,-0.009924306687714511,-0.0026854986621929738,-0.010416215613337927,-0.9877471789874454,0.3550333941860621,0.0075706631854634224,-0.08706807386504159,1.9489007541972498,9.52758377278583,-0.004913542140586841,0.004058242860166196,0.003145128061079132,0.4290923814141236,0.5527021173293261,1.000598622287197,0.19709168735618382,1.9757655476375247,9.720745937943326,-0.0048464984915558345,0.004192314317058927,0.004790799311005395,0.409999412162535,0.05597981244917924,-0.5758482116491553,-0.6044796913262693,2.040113029519132,9.584035233548047,-0.00832034965496927,0.0052096000741632285,-0.005651821183152492,0.32372548730691214,-0.07638215858025689,-0.6797337109806477
0.310669181108684,0.16933978768052538,9.744833014674164,-0.004536001474493828,0.0020490353182824094,0.011674027834805822,-0.4091928823392697,0.08950242746899573,-0.5574554059393789,0.044175499131898416,2.3411065580647388,9.541762465489942,-0.00850158006566566,-0.0029498733438570097,-0.00963218628569226,-0.975033813195713,0.34849579493635735,0.009592349436064945,-0.07987604483453624,1.9625528314533591,9.537971389452688,-0.004904950953272419,0.0010518779180256237,0.002149557859552066,0.4269047975146131,0.5558878991100586,0.9984082889499728,0.1958671491860718,1.9772029816438996,9.688692560293736,-0.0037675068064099383,0.0054952519600698245,0.006255643480810231,0.4048962449572038,0.05846555898400797,-0.5724267963515015,-0.6173135350743008,2.036719472328564,9.577070576826754,-0.006921432489744338,0.0023740708755408423,-0.0058292864715864,0.3246946029656475,-0.0746688955440961,-0.6775355393292705
0.3215713785799912,0.20308890452716072,9.745703570455706,-0.0033260824562633437,0.00016335941752201443,0.011096480982493688,-0.4179794682164213,0.09443568193719007,-0.5526187947315722,0.04033433200432715,2.331484364441717,9.519933234056401,-0.01068630566777046,-0.004470302627285159,-0.010492513454623936,-0.9843147242543288,0.35215415299669023,0.010051455332848984,-0.09760540232882473,1.9607992206631926,9.514697110859435,-0.004956091131143045,0.002343655063316031,0.0036611389817921953,0.4198187681423253,0.5542346957049482,0.9994362559904979,0.18380306443713634,1.9711078537399447,9.694500718522033,-0.003317022548024715,0.0018914564503751037,0.006874571471170406,0.397817198980577,0.05900040048007575,-0.5738800071534456,-0.6065801994829259,2.036364424263733,9.584700060685742,-0.00758713005941437,0.0023990671004644063,-0.007020873201319064,0.3139580782876904,-0.0763599525681656,-0.6792960193720319
0.3205808608372164,0.18593931680087677,9.756229836860264,-0.0017292219578652175,0.0018276377386134593,0.010854937573143047,-0.41157566811907603,0.09296419625340088,-0.5601385333703577,0.03356294052829828,2.3333855392433627,9.55025009538557,-0.010070207545065888,-0.003903610292341961,-0.009599603100379724,-0.9770131336989829,0.3500966590567618,0.003954740065654662,-0.09382057764315324,1.961352029018938,9.527962944305568,-0.005117617991490123,0.0028517750795585424,0.0027060944160885183,0.41979768755514474,0.5525231040516155,0.9982190741548276,0.18293813343015047,1.975897129130384,9.71577577823024,-0.0027706724112835333,0.003468421070273822,0.004749718272553951,0.40021431946066294,0.0526379771125414,-0.5731369753262635,-0.6064324156839475,2.0362366944635015,9.608864639060853,-0.007813768521029392,0.003945456838183425,-0.0053215024981486,0.3173772512717622,-0.07759034162525934,-0.6800075338646302
0.33351675686509696,0.18385587690095556,9.75481893319974,-0.0016370011061012436,0.004345957554349854,0.009118350800139941,-0.4112549523087825,0.09810828521138433,-0.5627825585520421,0.03903402264710695,2.343198099372993,9.52460002208837,-0.008867389214210807,-0.003485591537664939,-0.009051473203642402,-0.9782374417709524,0.35474696586608045,0.004604895680961409,-0.08930011316821237,1.94977717480701,9.520599620334465,-0.005535353269837966,0.0034462120039392774,0.0028236017782256365,0.4171887539887607,0.5584128438931123,1.0031068749123955,0.18462040025353751,1.992126158959375,9.702492162000286,-0.0036756785543481376,0.004111795554666336,0.007170840151734756,0.39759621816068047,0.06193621561660814,-0.5721777254607328,-0.6087006693157401,2.0402148785494263,9.59681301988166,-0.0079728828123396,0.0027073098206814193,-0.006182773422626918,0.3124887249224322,-0.07122239857995404,-0.6763895297872896
0.32375326960055256,0.18949426776321937,9.72774119806699,-0.003314620212337465,0.0013533173988078712,0.011765457528972165,-0.4223264087877368,0.09863421180514427,-0.5533619425078231,0.04542600332401892,2.3319894083073507,9.543988480217395,-0.00904940521009717,-0.0032797146688707947,-0.011554019085766646,-0.9874965650364242,0.355553670002134,0.009269152727016228,-0.09496524308297906,1.9588487199421416,9.52846602948414,-0.004956112058384157,0.002342650762345101,0.0036591412476731575,0.4195605135831351,0.5539888573294276,0.9977294724436536,0.20298280525891021,1.9620008682063288,9.6972683831513,-0.0034470144831090233,0.0031220809685201904,0.007555824281919257,0.39803169746685346,0.05630009259411936,-0.5794888674405652,-0.6191254886656719,2.0171955242880437,9.603215981376955,-0.006623355386095149,0.0039290243227701575,-0.0059742203090081035,0.3146936212318712,-0.07709733094609576,-0.6802670454813754
0.33397825093067557,0.20651881571650704,9.739130140018938,-0.006735205830757536,3.8708311292269464e-05,0.010307179443667729,-0.41830073541926766,0.09772003373595536,-0.5670035399724975,0.028232350738584898,2.3359487445550404,9.53297259449499,-0.008953029415407722,-0.004454846000113641,-0.00926297389622337,-0.9816712769209017,0.3578655891156459,0.0018755752178714587,-0.08774869789671554,1.9716936765880073,9.50235032954444,-0.005534367564301544,0.003445202294481993,0.0028225973523163033,0.42078585564208043,0.5571461640273042,0.9947843712137936,0.18440281259612093,1.9821837153420383,9.714069782115292,-0.004280659676370526,0.004077142510208388,0.0067790417233224804,0.3983005352037648,0.05947523027805632,-0.5782770758086184,-0.6109992831882185,2.0443165388985567,9.608864316975566,-0.007811767594750474,0.003943449701564759,-0.005322486213869906,0.31422279130742226,-0.07148414964054348,-0.6812617614273829
0.3297892309629745,0.20873296279098336,9.762463525423609,-0.002992121408625874,0.000998087072202451,0.010704805400956387,-0.41285589872012346,0.08541868247643872,-0.5616717057187308,0.035929178930957206,2.3110604487539157,9.535341820084254,-0.009196308835860144,-0.004495827961286735,-0.01073743976644307,-0.9772434993182454,0.3410740836344504,0.004613012372656386,-0.08682652297438184,1.9477409601428621,9.534381838239957,-0.005351080477683492,0.003793370254451365,0.00351863536530829,0.42445808248958733,0.5522519130461112,1.0018506025511855,0.18493764704743942,1.967525757610394,9.704355371312419,-0.004006986471458757,0.004865618829375227,0.005715614212381356,0.40486942212849003,0.05431923691669385,-0.5709516628490809,-0.6123723544402274,2.026804555990099,9.58635733481556,-0.008063559371828333,0.0045725152540171095,-0.0054886290190520525,0.3219951577386953,-0.0778329256150708,-0.6760765307012451
0.33276636905290363,0.18794606269652558,9.749686762091038,-0.003276793636436259,0.002015000966925177,0.010565633372756289,-0.42431953895159963,0.09571467739399304,-0.5521813913772047,0.04036527654279482,2.3346217861125234,9.526699528440707,-0.009106665996948295,-0.0035315861290354886,-0.010526862345125914,-0.9882126649533857,0.35316705982822183,0.01224650705371411,-0.07887595425512306,1.9492362405060513,9.52415820798081,-0.005299940299812867,0.002501593109160958,0.002007054243068161,0.4222590752869569,0.5554329953267778,0.9979523135872415,0.17349248627824715,1.9920935076589537,9.706649846746767,-0.0031664973941042504,0.005534923625089457,0.00664343704098696,0.4021944717339279,0.05701260619750848,-0.5753482806746141,-0.6212200375553841,2.044768826608306,9.581558888541027,-0.0070101081229541565,0.004237269172257867,-0.005136125783732841,0.3173941901860911,-0.07686681399121054,-0.6829385892779497
0.3268756620200821,0.1916062025256458,9.75620451393387,-0.0024068831644602274,-0.0007073654028711277,0.010382690432612295,-0.4145031186161785,0.09686988143180093,-0.5562310572188962,0.03444022103143715,2.323062798908338,9.53994599038346,-0.009729268695379685,-0.0029103739073469068,-0.007914369234028645,-0.9769882935588456,0.35560860533386657,0.011420669090615185,-0.08965234916330084,1.9684677095821748,9.53967996177853,-0.006412400478934298,0.0029194840143896695,0.0035716230466674927,0.42514720006853257,0.5524755465859033,0.9950093434563793,0.19379645203124796,1.9791289642407808,9.687952706707197,-0.002937833322865137,0.004545209038943311,0.007028421171171461,0.4036198229541742,0.053322477920958476,-0.5826659833333416,-0.6173041065998752,2.050487502220616,9.585043966444442,-0.008062561532314503,0.004571513131192181,-0.005488620885885622,0.32106376828820776,-0.07810025246971869,-0.6848698029047143
0.3184300062342387,0.1798735629981533,9.756414502183473,-0.0023844010547737398,0.0025311087666257163,0.012988094356814025,-0.4148249176257277,0.0924514782009014,-0.5526035926378658,0.03962830591807388,2.3329152252711465,9.514309379999588,-0.009261299689454432,-0.0026073089942414743,-0.011789765428992162,-0.9816191072533001,0.34974456789571556,0.011550405173546309,-0.08523512311219891,1.9568596409296433,9.532319399831804,-0.0045460116250854886,0.004750566997743937,0.004535206335386931,0.41513454895331225,0.5600995668626187,0.9860265295617746,0.1700777729239017,1.9677593319278595,9.699370270303328,-0.004887637327827492,0.004043498818491931,0.006385244525974059,0.3946374182234346,0.062159531112643905,-0.5892628742783633,-0.6046585428012564,2.0226077646800156,9.59461409209055,-0.0070322562393644,0.0033199357082102977,-0.007002623513888966,0.31063369471616264,-0.06980547779988532,-0.694469684334108
0.32627287905174723,0.19026066415244675,9.756250830014599,-0.002332614106473598,0.001478584336339695,0.009248513707110525,-0.41827655700558514,0.0938631811413084,-0.5736233753531906,0.025252737520315583,2.3283803102446448,9.543805218145737,-0.009946165802378048,-0.00223295691150463,-0.008149188012493582,-0.9860839067647302,0.3486956676411869,-0.005015934994963568,-0.09533305351845206,1.9644226775611986,9.527114381251605,-0.004077135292697209,0.002865350731038282,0.002905115659174558,0.42480205838774576,0.5583703269550532,1.0098922495106304,0.1951980477336469,1.9916624228582522,9.707219743053537,-0.0030483244422961544,0.002683963399975768,0.005809143358713947,0.4053884362303483,0.05798418375242516,-0.5682765176094097,-0.6197976181959014,2.0390926448480995,9.574233630539368,-0.0066203513730511455,0.003926012172357752,-0.005976195873617144,0.32173163512205205,-0.07391160712382315,-0.6709621580984015
0.3127814652264774,0.19929804679235488,9.752469630599704,-0.003619859114091816,0.0011773031502732428,0.01096520119680816,-0.41333152114184485,0.09076433779694686,-0.5574852921574257,0.0440048464617606,2.3356057834256156,9.537837604086562,-0.009776022268789066,-0.004355162554340836,-0.010393539229993202,-0.9808946283415576,0.3430814555630939,0.0077655421179913305,-0.0774801058465928,1.9516342646991331,9.5302498347906,-0.006850931205257803,0.002655618952130308,0.003945134801487929,0.41766884193344583,0.5549970714935237,1.0057971311231637,0.19229264525624487,1.973785889456938,9.720846627620302,-0.0035438144178545528,0.004510563115356574,0.006636624575353874,0.39854855670441847,0.05802752255583819,-0.5704609797443263,-0.6197696843732223,2.0310772603040763,9.586987178214937,-0.009614036436326436,0.00304174323926934,-0.006213352353387577,0.31344125926254385,-0.0736548764155161,-0.6727154334479963
0.3237355794407806,0.1810181863474138,9.744745440681436,-0.0052052380804375005,0.0007039901457658749,0.011874728729559587,-0.42038149908245,0.08867624885996371,-0.5629390010448005,0.04122209814668831,2.3232470204321634,9.529476654195154,-0.0093808252800405,-0.0031050407699991316,-0.009734543126515815,-0.9858042351770308,0.34565988661978236,0.002366155115101039,-0.08727337500940492,1.9589741030276298,9.525095264642058,-0.003659414257900047,0.002269911671688432,0.002786610538236457,0.41794329468191144,0.5618241362891223,1.002606430578525,0.18761079307384784,1.9721378406099712,9.712121253408261,-0.002537146752617687,0.004106082117657401,0.005283739016902296,0.3997993750517962,0.06265354319258722,-0.5721835445559473,-0.6221968596649737,2.035083774090653,9.574931643163305,-0.0060714877235091315,0.004851905087374223,-0.005953992177219418,0.31493073432614294,-0.0707385992817025,-0.6763781143942041
0.3239870049430216,0.18823544817668558,9.739524937458128,-0.0023555847231824787,0.001145256314344871,0.00985186914175998,-0.4163113301950939,0.08324294655158525,-0.56001147064288,0.03951591882372447,2.3375126168950366,9.533555220079917,-0.008659852564988536,-0.004903418850362282,-0.010057961778142393,-0.979684063594217,0.34303726794101275,0.005318751271484226,-0.08422730527754267,1.970900652951731,9.522482008225907,-0.005994700371378249,0.0023230406540688895,0.0034511201916103537,0.42010330662189055,0.5632565783039365,0.9952647098474333,0.17776124874294327,1.9832014990306206,9.704448550180276,-0.003782304642819975,0.0038789277810987953,0.006098598351910252,0.39907827648364586,0.06533419385157173,-0.5760947437198225,-0.6181566740510783,2.0564380859062106,9.60126658098532,-0.00775992451358113,0.0030033216291054064,-0.005673502598542658,0.31569917748533466,-0.06856011238474152,-0.6822394853047387
0.3331974938890854,0.18950296666922517,9.761411237447973,-0.0017393939667526678,0.001820655524968672,0.01086579017319152,-0.419454392823395,0.09201919729950712,-0.5541157962010389,0.052305195509053895,2.335609148921137,9.540229555667706,-0.009403204955779626,-0.0038284523572119566,-0.010975113489534387,-0.9850331941188838,0.3514762596922639,0.012997776720875164,-0.08837735544510716,1.956418511002541,9.525610191431893,-0.005928377888996002,0.00489390561015823,0.0026780893346050106,0.41954724655028475,0.5537411632043058,0.9960210554552635,0.1740420022334963,1.9732747405424345,9.706926567597323,-0.003920140434964317,0.0034851930827126624,0.006628812725244965,0.39997494372205966,0.0538543405982822,-0.575336498939759,-0.6078826998347107,2.032812095335661,9.574595314473175,-0.007122940190524339,0.005184144038960568,-0.006307476248510389,0.31517434523578863,-0.07856053823988694,-0.6792832752605139
0.32348272140659895,0.1868359581610799,9.739568787328288,-0.004261049069876949,0.00016758092673418908,0.010556609136322878,-0.410813610882688,0.09709758973664666,-0.5588795825845324,0.03397263747638918,2.3238938508550526,9.547284761348745,-0.008458174507290929,-0.0022544855700401107,-0.008394180711581968,-0.9772548597099183,0.3545317543208367,0.006070007787295869,-0.09027324192616669,1.972159130910948,9.502059187454355,-0.004955190010740888,0.002337630347009542,0.003653145811241835,0.4193723219931993,0.5618014060682112,0.9972257958315225,0.20408034171216818,1.9870690995878855,9.681443354458294,-0.0031793110839056764,0.00391559258033805,0.006489395563267515,0.4002811026363428,0.062399142665852204,-0.5746248288299072,-0.6155450820359438,2.044871496480931,9.582197381101384,-0.007164215330521493,0.002995102861279018,-0.00600035886829105,0.31592402634068945,-0.07270495911476524,-0.6802732875586162
0.3140834531256789,0.21018569985175,9.758920135724775,-0.003545609017300965,0.0033632380663764726,0.009833024326488284,-0.4110964537088093,0.09852327237131452,-0.5532562904028191,0.04045993422762792,2.3311479426881814,9.535109811716904,-0.009267951069709287,-0.0054791553716832045,-0.010953737233585144,-0.9782054270725745,0.3566067274313919,0.012628373229959605,-0.08966468888653911,1.9538093241435996,9.526134460013537,-0.0062053959985231095,0.004120918396687241,0.0040056478963281395,0.42172560366166856,0.5500642728403022,0.9972354901164875,0.18517443087233879,1.96837705058743,9.712930904338856,-0.005733098087865728,0.003379219764210597,0.005453418661727597,0.399249749870418,0.05507933962461796,-0.5758261368294466,-0.6154295701151976,2.0291079432574546,9.583515582818412,-0.009016321079736626,0.0030315144438554736,-0.006542192320911441,0.3173806822330826,-0.07539265039022151,-0.679769865053167
0.3247712800161271,0.1919824415345479,9.751197989132214,-0.004588614426440309,0.0005208237379107493,0.011622198857337304,-0.41281216561636924,0.09175171622992166,-0.5596702085558846,0.04678743763056933,2.3383222517006033,9.522959044462112,-0.00920251984131944,-0.0011815012832502461,-0.009310290827240579,-0.9808968553612103,0.34921184513047393,0.009115860522124652,-0.08714787440840556,1.9711925706394224,9.515637727181456,-0.005320770042410511,0.0016422824895463036,0.0022590609509963323,0.4269224026754278,0.5573549698309272,0.9993820176382034,0.1810570571874728,1.9609843160613136,9.683126349130541,-0.0022009862144068276,0.004978632074438413,0.0068870040185384064,0.40634815070296393,0.05795587346307417,-0.5770672652259989,-0.6187400282765628,2.0546607195468924,9.581957311768894,-0.006110767184478622,0.002660859664042819,-0.005646858530667219,0.32300210902407533,-0.07296332738213261,-0.6799913950869724
0.3189697717594578,0.1952636248334731,9.757722778485645,-0.004264087040082276,0.0001665884022257578,0.010559573193024717,-0.41374476533167703,0.09276544102235998,-0.5633348022327065,0.04078249911912989,2.326664083518432,9.536202706422088,-0.010108445207619176,-0.0041815085371540335,-0.008575040048785128,-0.9782278453542681,0.3508599739334407,0.005654927406377681,-0.10855297563147122,1.957034599381441,9.531720855406041,-0.00511570936214062,0.002846742757731186,0.002698092361912738,0.4290881767324131,0.5497780239700051,1.003290050411191,0.1829158485521506,1.9745830150715196,9.702173949764017,-0.0048926018941270666,0.0040495245316177295,0.006381239046878782,0.4080323622360199,0.052832276866890675,-0.5707098991494309,-0.6111868372608481,2.0268076641854225,9.599778787395534,-0.009908665688701471,0.00459890043228113,-0.006034396828475456,0.32589783805252515,-0.08175103894835246,-0.677020742158285
0.3186762580729757,0.19433021991193378,9.757751079868894,-0.002669745886277664,0.002685415344981041,0.011589431492857787,-0.4143131743169717,0.08737795518574497,-0.5604499118386518,0.03185686230314819,2.3342146048880332,9.53954185294124,-0.009090646909681931,-0.0035515991511421365,-0.010528555799970708,-0.9796777630337017,0.3445386266257358,0.007243930848236399,-0.087816485787512,1.963191004564182,9.524041734806826,-0.004053404531523207,0.003718621485370111,0.0026451024464793278,0.428384027853898,0.5510108845642229,1.0062221587161673,0.18413185206343374,1.9962842279108637,9.71005299550332,-0.002073983665339975,0.0037500240015989283,0.006203751827993679,0.409268854852259,0.05381082660441637,-0.5660765431927647,-0.5966910956481069,2.0321542701735646,9.586811160607867,-0.006109764097713536,0.0026598546502490795,-0.0056478503795549554,0.326362941577376,-0.078072163457033,-0.6711698321580766
0.3257889014478067,0.18826850671529416,9.76807733298143,-0.0017818839474550742,0.00029442653951968173,0.010803071073108256,-0.4152760428762503,0.09490798031262415,-0.554054768155659,0.043436758319813154,2.3350366043176662,9.532753760559658,-0.009738626374670357,-0.00365278387091952,-0.00915563909986218,-0.9811321290949943,0.350477077378774,0.011534589657032674,-0.08799405275728879,1.9563192498951794,9.532215007574836,-0.0059937498366336205,0.0023200245086715614,0.0034471202727809984,0.4205983129683086,0.5656901045057915,0.9935470879618336,0.19393689254768448,1.9699240161026086,9.708133912251833,-0.004893596600652281,0.004050529193834927,0.006380238440683501,0.40054629451649826,0.06726246465855744,-0.5819621732038595,-0.62222877758123,2.0488590907145308,9.582973795994391,-0.008055564244392457,0.004560486733325514,-0.005492552362939088,0.31766436320024366,-0.0646604122167497,-0.6829724605469416
0.32422752833107205,0.19673570478875407,9.746058690975731,-0.003569617790293183,0.00302889776394163,0.010439362632211402,-0.41993579699766626,0.09081858554318194,-0.556082400999052,0.03250751519596271,2.3296963687410583,9.540643993555335,-0.00945545894726151,-0.0040883346086659274,-0.009948828082957141,-0.9830783026219376,0.3463298288324816,0.011864715539540462,-0.07080112930780254,1.9548530207876045,9.519488957148084,-0.005137504759203385,0.0019884483455792587,0.0029541034217044062,0.4278494547427804,0.5536788158824598,0.996209705766463,0.1932261944989015,1.9689305727082764,9.708349642420597,-0.003044459411336974,0.004312341265375771,0.0059561793713469565,0.4080397262935138,0.05550177302010807,-0.5770644302146327,-0.6096459461190367,2.020981342756652,9.59249358581303,-0.007071098067766355,0.00424601884457849,-0.006657498410628068,0.32544540714413744,-0.07785855031208463,-0.6824054658735429
0.32543869082501,0.19475829913923376,9.762898737243797,-0.003928106890396253,0.0010023036362728267,0.010166924002781555,-0.42258810505992817,0.09401969163104015,-0.5563288391396434,0.0534885345267028,2.320626645890935,9.531079725247459,-0.0100411721187971,-0.003941640616791212,-0.0096030146167104,-0.9865086268291853,0.35069211059984606,0.010332283611104998,-0.08521893342156117,1.9662184704390995,9.493367058963676,-0.005114737900154878,0.0028447309133047874,0.0026960901772024215,0.42395889869356623,0.5524953716228159,0.9999003634737339,0.1749602819689801,1.983751371848393,9.704008393372503,-0.0036484405603923313,0.004277681100046614,0.005564379110339992,0.4004891308706597,0.05702952223393391,-0.5733921578799563,-0.6131562738258609,2.0542266219667957,9.602403233013122,-0.008348623769796266,0.003001508210681735,-0.00535258064970561,0.31957771514520567,-0.07955224231370166,-0.6814553416662253
0.32557285769887134,0.2018635894330033,9.757693293545971,-0.004557277073459782,0.002041087722978966,0.011694768727205441,-0.4132683067736227,0.09299374404238035,-0.5618634865040112,0.037392702122622364,2.321739570887578,9.533592023432705,-0.00797148438326682,-0.004100888842252031,-0.010194972115254953,-0.9787249306165691,0.34910027629735746,0.0030035520139509338,-0.0895328733830388,1.9526713951212509,9.532948211932498,-0.004286882137437068,0.004658216722328331,0.0034576478287332416,0.42422955378277355,0.5512841949343721,1.0052723104999113,0.18070097236780674,1.9564133527184036,9.69320716391502,-0.004252421709447688,0.004243020934717457,0.005172578849333027,0.4012105854735765,0.05435066014011053,-0.5687479603025264,-0.6066588175638286,2.016919132181424,9.584930868031892,-0.0076169577042643636,0.003317113779149613,-0.006681677671634835,0.318577735891504,-0.07758164934060068,-0.6760951895390436
0.3198496723538375,0.16983697352927823,9.74507475364384,-0.003550704338877187,0.0033602358040955966,0.009839954270155566,-0.41596368467424105,0.09591827766814477,-0.5577160646488544,0.04278187072345485,2.3424664677085123,9.538540320611146,-0.010870163321542392,-0.0038369284094483622,-0.010731648277117664,-0.9799409260141506,0.35304975520946724,0.005376130677738615,-0.09150388154813126,1.9686905159940955,9.509363105969744,-0.004491949501397393,0.0034537542881416337,0.003017616442498781,0.42229351080602867,0.5593414617613528,0.9986766355631795,0.19660417921052548,1.992175352160053,9.693272830140597,-0.0033231237981425944,0.003525893202910037,0.0070166111723460305,0.40295314174897323,0.061637955477398476,-0.5787789413758918,-0.6189910438413074,2.068264286997688,9.565963380113482,-0.008053565462533488,0.004557479603152615,-0.005493533198910848,0.31984952608436984,-0.0707687591733049,-0.6831883392818372
0.32410355124699547,0.19191642424776684,9.76299902387535,-0.0009165779929663714,0.00046921679291799813,0.013832789537329537,-0.41525225416445954,0.08983927774477508,-0.5619056780631713,0.013438336216274716,2.32737774703777,9.552983138762263,-0.008924010961477043,-0.004489933102511332,-0.009269441088566806,-0.9835902636675689,0.34622391249503415,0.006252848950141014,-0.09424242243253818,1.9373397770146834,9.536220978191297,-0.0058322799504892595,0.0018078959525525881,0.0043981738032807405,0.42462235186242003,0.5432126435232999,1.0001600419734111,0.1789366156534774,1.9599536499703902,9.714750924212428,-0.004896580720227921,0.0040535431804865135,0.006377236622097654,0.40309718890779916,0.04650853927888977,-0.5750804208732672,-0.6131353199240938,1.9992833276063742,9.594800045868373,-0.008346622843517346,0.0029995010740630685,-0.005353564365426916,0.31882512631745197,-0.08736151424662857,-0.6807037008384756
0.3062289044256862,0.1781533939909256,9.741316986121422,-0.006113723325593247,0.000189951302361327,0.009464131370645078,-0.4130545384353057,0.08957539300144733,-0.5621308145019562,0.033424222635313236,2.321363439599373,9.529881327835808,-0.008860741899612607,-0.00424405272859228,-0.010296511128793965,-0.9774842008233098,0.3462456257454795,0.006958510396384511,-0.07882739990671452,1.959247400601429,9.528316301897494,-0.005274257302467506,0.003353835749538263,0.0017410300607649757,0.4226782815459103,0.5495625488984912,0.9943001369971696,0.18359063029389566,1.9849814640758918,9.699291416172802,-0.0030375941780915075,0.005939707517856908,0.0061072123109925285,0.402153337297591,0.05236405854147311,-0.5797309274374407,-0.6137626165525505,2.0524863419248045,9.58310673618408,-0.004233526157991342,0.003895137243984316,-0.007280605752279774,0.3195993811288775,-0.08200904857023321,-0.6865752173095412
0.34023112029404234,0.20371507479301154,9.767939726957293,-0.0017670279882627481,0.0006227820856421635,0.010206602351541834,-0.4205545927365107,0.10012021768349708,-0.5584615002739551,0.03771065084660144,2.3450246069776988,9.521346823193808,-0.009118514299358779,-0.003093066314208151,-0.008261614899539938,-0.9874875758008349,0.35436592812920237,0.011000703891991814,-0.0973840722629192,1.9636956529885705,9.533652825744038,-0.00640953463114973,0.0029114377131667984,0.0035606210489804117,0.4200559588615171,0.5576401648732112,0.9945441736826521,0.1873612964475759,1.976750960913085,9.719575538250046,-0.00489856828333601,0.004055554935267822,0.006376235405042642,0.4005001168318655,0.05970476725671933,-0.5777927005029425,-0.5981820422534667,2.0444300821947388,9.571023564925158,-0.009260111296118761,0.0036515514562789246,-0.006712267109229264,0.316679717984033,-0.07540873321745861,-0.6858766062843166
0.320462249550932,0.19115481420207053,9.729454428511914,-0.0036415584569580474,0.0020269360728118963,0.012250385633166461,-0.42131286905805937,0.09041647528642159,-0.5658651450865713,0.03190956705280669,2.333380159624481,9.534560352232468,-0.009688733112431729,-0.004139339212264932,-0.011425149082697999,-0.9865537965295959,0.3500017915500774,-0.0003985646455656349,-0.0803565966024558,1.9623096614664337,9.520919707149881,-0.004074235150290663,0.0028583130627899698,0.0028981113462426245,0.42082614497843407,0.5547242767680673,1.0035785648023452,0.18274596807294427,1.9750334587940588,9.710859209810533,-0.0019401319657383013,0.004146779807507858,0.005670537468667808,0.40172438551798173,0.05921698641724457,-0.5741317627765075,-0.6025766267536576,2.0149963786449803,9.581462784695601,-0.007230783060525367,0.006126008291538631,-0.007478786047455785,0.3193064588124724,-0.07611468753688097,-0.6748745847828334
0.3276953030075476,0.18452984735649836,9.739784648886564,-0.005218927781958173,-0.00015651855577254585,0.01061913031977685,-0.41645617762841536,0.08913747628494224,-0.5643634713831868,0.04156267216915956,2.3213448969149786,9.53229038436356,-0.009138898263448887,-0.0038164940327935636,-0.00950319366465727,-0.9826315754096026,0.34811375983404663,0.0027946842838382805,-0.0859664478197899,1.9715617638042624,9.52877235540698,-0.00476999604711296,0.002678770379220583,0.004343186153728291,0.4186135029628478,0.5535178417917287,1.0026199428963103,0.18529414725370022,1.9833144162784124,9.708754360408536,-0.0034247747874312233,0.0032889947989086696,0.005946369974036861,0.40046634129583336,0.054581472845439086,-0.5763151797455552,-0.6168670649629892,2.048573272127429,9.607865203237349,-0.006950263481089091,0.0032881125597696136,-0.005491074151541269,0.3168922192658239,-0.07441320391988848,-0.679286251011426
0.3256876822064919,0.19413634948775949,9.774686341746957,-0.003037368512054062,0.0006538437962980963,0.011325870024506945,-0.40844243483614423,0.08950967156259892,-0.5594013784644061,0.023060084841654973,2.3387967148149813,9.53844928582187,-0.008929709982652254,-0.0023564450741358585,-0.011343801798264178,-0.9748058612163137,0.34646105595261506,0.005233720619209001,-0.08571488662863234,1.9589061776741983,9.544882483701679,-0.0059690391774438155,0.0031732811905097785,0.0031841004670232556,0.41938133879712614,0.562778904253707,0.9974676242719496,0.18146760116181684,1.9731994738505947,9.71125603378622,-0.005869031646507039,0.004619869712083554,0.006127658066151529,0.40078695526690455,0.06628950126123728,-0.5800072446551169,-0.6127785808563623,2.0233615938130933,9.565587784012846,-0.0088482150074853,0.004253627946209449,-0.005685827949959256,0.3164495003247854,-0.0653940429282372,-0.6844417407016418
0.31947486616731163,0.17968275922611132,9.73476642641123,-0.004245324984892543,0.0025414553192929725,0.01190945026576309,-0.41702454916928716,0.08689924150715334,-0.5582820083296919,0.040877539767969644,2.3197513654309954,9.519896894822576,-0.010417360076625328,-0.005213827391028372,-0.01026667901370716,-0.9818753914570397,0.3457611286965409,0.007475432467700008,-0.09495095196395625,1.9542266236398362,9.519061713318882,-0.005067225211124774,0.004556276598808578,0.002178052619862716,0.4197921461775838,0.5517901267985837,0.9982206988618405,0.1967295531830438,1.9725939816576603,9.693713189783436,-0.0031882721255738914,0.003922641887947757,0.006483394980425471,0.39730233021940614,0.05631005866024422,-0.5775345332583236,-0.6129259509569025,2.0231384667477914,9.589742089247446,-0.006403408149497199,0.004215015508819332,-0.005466883877618525,0.3149628243657432,-0.07491215677367566,-0.6841780203609804
0.32341588084505934,0.1932122348557715,9.757939741981001,-0.0027138315520591335,0.000299625750132695,0.010262235025417501,-0.40893150547845636,0.09314726323285702,-0.5554727704733619,0.03904726357991907,2.3337602251872647,9.524107828496316,-0.009576681021783042,-0.0024606092056634757,-0.009969833345850103,-0.9762579294886047,0.34848045339889955,0.00886472732349162,-0.08245933566056518,1.9515860374392688,9.529858209215524,-0.006774134764803551,0.002216075783209949,0.0021635295956723964,0.4184488515663591,0.5584162860476876,1.008957589761583,0.16637937135816697,1.9901133088603673,9.683828711721274,-0.005742029097440186,0.003391261639244068,0.005444405875606803,0.39735076152644405,0.06072648060720527,-0.5682683130691148,-0.6229336017077944,2.054969834192164,9.58408245153205,-0.007406004620624712,0.0036131327370838026,-0.006171417372330178,0.31271128887097405,-0.0692548141163275,-0.6715109626136919
0.32428889985548354,0.18303831377216484,9.780004211827158,-0.004247353567538984,0.002540460328372544,0.011911423802059899,-0.41576414753484126,0.09442846222245918,-0.5545519856568258,0.024041174492237992,2.3319801178582096,9.540116213242742,-0.008407947090627007,-0.005617970989437556,-0.009832597911185775,-0.9801616312767178,0.3536426459186839,0.010982993061817593,-0.0962664100002494,1.9514387204909904,9.519620557829821,-0.0049067419066866486,0.004044159949181401,0.0031311127681069163,0.42402023605844413,0.561039049439518,0.9993934353801528,0.1917163718035944,1.967015734186459,9.717546132123962,-0.00230860515946154,0.004746771393434985,0.005814761607854172,0.4041927338870634,0.06286327972397529,-0.5734131874845979,-0.5985839457116253,2.0208928438443827,9.589445832061665,-0.007657801644953826,0.004242201180504964,-0.00633656019545816,0.3215398011843186,-0.0705178100509343,-0.6795171295868628
0.32064426772169347,0.18403312560198648,9.74642560024132,-0.0033165694043081812,0.000815149865499994,0.00991931671453141,-0.41408500998532066,0.08857373607766483,-0.5575086731376482,0.03700609926318035,2.3301990710663656,9.546745495482101,-0.008849731097433379,-0.004258073355468787,-0.010298295577549101,-0.9779615104063396,0.34383646076704916,0.008715042681499776,-0.09334271507456463,1.963424258759289,9.517034992243595,-0.004280323390579203,0.001652853902120512,0.0024560888929974754,0.42231669620792694,0.5578876101495563,1.0038057562410359,0.1850270756570049,1.9871066662154397,9.707625632727757,-0.0037932427147126463,0.003889983926181783,0.006089591674433253,0.4012591620797218,0.06142808527692546,-0.5697422554026428,-0.6203328555934782,2.058745428374654,9.58795325264009,-0.0076568038054399944,0.004241199057680037,-0.00633655206229173,0.31711856962697155,-0.07367114145245242,-0.6756251428720191
0.3236968017029237,0.20660535902157534,9.747564917907747,-0.005225974860605364,-0.0001574789799715984,0.010623056675325978,-0.4154376517030082,0.0990926478545706,-0.5584206015412219,0.03214663580898111,2.3237160416678053,9.511366247754728,-0.00913088733057299,-0.003827500367205662,-0.00950402164851397,-0.9806792931012219,0.3584280154118387,0.005767515705962737,-0.07954778966362877,1.9437299567508706,9.551592302068117,-0.007167117529479362,0.00366577799137076,0.0020220126202898474,0.41914122698500095,0.5579111230705611,1.0035829236653309,0.17924583723468734,1.9546060221074564,9.702360290965766,-0.004062068564965989,0.004726883297158863,0.007302060686447059,0.3961281934136334,0.06194130109988314,-0.5743720322943177,-0.6115105446335712,2.0017628082298704,9.583670203637103,-0.008135674048717591,0.0032935200448887944,-0.0048432983066231654,0.3146932636361659,-0.0736751177084217,-0.6788119147559718
0.3294289457431965,0.17525751380245508,9.773580809605317,-0.0036267309395593894,0.0023552693842729885,0.011656916694372872,-0.4069600120337333,0.09362679227925215,-0.556915629957538,0.04594443975212197,2.318942624879386,9.531493575781834,-0.009372171039376391,-0.0038684984597513418,-0.010979495920832428,-0.9743076868697548,0.3496992193273436,0.008589501344911637,-0.09623278470477278,1.9840227330632603,9.522442825717473,-0.004746265285938957,0.003532041133552412,0.004083172941033062,0.4205971355936779,0.5569225282598983,1.0033313279111724,0.18794569122170401,1.980675820765836,9.695800807486393,-0.0023095998659867535,0.004747776055652181,0.005813761001658891,0.40268100242794136,0.05579865868207308,-0.5714402121857629,-0.6163448073777078,2.0565516453278976,9.60419881262959,-0.0061964621656666365,0.004515051630959667,-0.004953656164817092,0.3185908914960585,-0.07563360259488444,-0.6778097830204767
0.3257880284331234,0.17642332248285683,9.739999500395252,-0.002671966445130034,0.0009642769891738927,0.009061471083894098,-0.41926373025725133,0.08470782033625929,-0.5561213224878675,0.03684797131964486,2.3264996900757957,9.534874336446855,-0.009348778770051488,-0.0031510657543650715,-0.009737817574811219,-0.9855190112150926,0.34387234026450864,0.011189084351997577,-0.07722808002857492,1.9535277439094385,9.512801618392723,-0.006151367293287178,0.0028240948570758665,0.0024830581268497176,0.41645224602729386,0.5569555500651283,1.004091978318955,0.18388009884980389,1.9708524331470658,9.698239214211478,-0.0046248542300616575,0.004850028654245161,0.005311793238039455,0.395361889078699,0.05682381929184719,-0.5726491693831485,-0.6175460232981174,2.031551919265445,9.570119171388596,-0.009047159430620141,0.003944563284040216,-0.006202987645896366,0.3117342664617153,-0.07511904963440737,-0.6736961751892315
0.32164631656691883,0.178866059467222,9.763328028163684,-0.00495587872530012,-0.0003227477233356209,0.012036494795711887,-0.42040566768860393,0.0925341013783551,-0.556319158159594,0.04832276667791817,2.3273854845089925,9.528082495848912,-0.009652325893347117,-0.0034389239858624897,-0.010185207541728367,-0.984302003512812,0.3482808855820922,0.011833351715287897,-0.07734251153034362,1.9465345255561641,9.520982732466909,-0.004769060632088825,0.0026737542958886525,0.004339190667933079,0.42228625826882144,0.5566597753167254,1.0006355409241925,0.17793601532836642,1.982758134800437,9.69949328128747,-0.002181611576721179,0.0035171609185556804,0.005130511865428311,0.4012363015089651,0.059221654532561396,-0.5736428689139548,-0.6123930097845157,2.0309938462288004,9.586086110457009,-0.007995710066436238,0.0036133272169769142,-0.005848506472300775,0.31908557468837034,-0.07490546798284613,-0.6787853098145711
0.3277919666280867,0.1814928423324601,9.75162091344209,-0.003623250264258009,0.001498696214046917,0.010387509238530462,-0.41205907595538305,0.09273046056444781,-0.5608769021748901,0.03631564604615569,2.325013152472414,9.522468186288288,-0.008011737508292665,-0.004373828086922409,-0.009172493824705752,-0.9770152698822976,0.3486145995527864,0.003005361288033642,-0.09287080990872665,1.9698346738224812,9.515583917389547,-0.006361064723684563,0.0046199694192750745,0.0030395835481294067,0.41492649203603177,0.5508590752108694,1.001917327287286,0.1887455636155041,1.9872751260068788,9.694086281170124,-0.0029145704551255085,0.004715118093886207,0.005419957695666673,0.3963146080124371,0.053157337879855646,-0.5716660164505803,-0.6096186306892158,2.04274558589796,9.5772705362055,-0.0070590925100928485,0.004233976024866489,-0.006663400704955901,0.3115070398599677,-0.07879462095939156,-0.678569829004021
0.3105011929221924,0.20240652137882859,9.765945026622218,-0.0017193926421617762,0.0033248885682277125,0.010957135116030494,-0.42134128430162004,0.09548156101601804,-0.5575262705146777,0.03432783743329866,2.3393041380003776,9.526641495713454,-0.009505393980353962,-0.002227716063532483,-0.010996694067697347,-0.9852996819204025,0.3540790624854371,0.008554291729171902,-0.08424429756679234,1.9598357184805646,9.521255058181733,-0.005221142208844784,0.002064030397195236,0.00022343131936567918,0.42548898412910235,0.5598112209068193,1.0013393262299255,0.1843202632929606,1.9830160278541265,9.717630928629378,-0.0033330866627201763,0.0035329472010440367,0.0070096124267631215,0.40296116317305697,0.06043894336406211,-0.5697430000519994,-0.6160009928191298,2.0331579029922295,9.574385712269486,-0.008726376375631591,0.0032927137695295578,-0.004521389762315266,0.3176169228802265,-0.07123402074720034,-0.6766065911401423
0.3195700711276638,0.18519458669590777,9.741383659364566,-0.006175758530227382,-0.00047860583409483845,0.01067867613667041,-0.41010801220173293,0.09440556381190826,-0.5588928461425311,0.032643648190957414,2.3239901840286827,9.531714748747632,-0.010683502869870782,-0.00480228765983921,-0.00947511280469097,-0.9755486896706067,0.3535388458470947,0.0051041633072025526,-0.0852257739379361,1.9642802904936216,9.51359180197085,-0.005419295370674354,0.0042057767788030226,0.005268241202931848,0.4234270784371605,0.5527282536126619,0.993067244918222,0.19253688072242284,1.9728820129420235,9.69338024441678,-0.003420886557377244,0.004920375009734298,0.006094398651642168,0.40387219421916914,0.0540578731421617,-0.5809592295100746,-0.6171497293244077,2.046604521014024,9.597675228756897,-0.006739317789120643,0.0035831344151183823,-0.004979810990432899,0.32032880411621883,-0.07589747273561277,-0.6834150015062735
0.323389502680912,0.1899862913230778,9.769793440961333,-0.004616927950386354,0.0005109306177714231,0.011644858745590904,-0.4201514094557955,0.09568815860051316,-0.5540952101407766,0.04028438027460091,2.3281340708766503,9.533130703202135,-0.010012133914042884,-0.003981670587958009,-0.009606388645909682,-0.9869875793774749,0.3509766397677593,0.012527399008776283,-0.08963793574657883,1.9553177124105954,9.508784585803461,-0.008068001012125074,0.00227975993966919,0.003021060622666869,0.4207753490238021,0.5544644205427587,0.9962552864030787,0.1829195167888928,1.9836711829309317,9.685777779098181,-0.005661190298517275,0.0020108688964210948,0.006353615402696335,0.3992500611144301,0.05556317234787402,-0.5775363212636623,-0.6140361618783363,2.043136331626295,9.565905022712087,-0.007284161699931106,0.0026542185475123747,-0.00500698494418528,0.3161903878168979,-0.07662939165946651,-0.6861196493987763
0.3176190130623885,0.18353624336464303,9.724640658921945,-0.005151291463583705,0.002883930378319734,0.010768316805806479,-0.4145819780055596,0.08929883428419676,-0.5557988867832332,0.03453458364075774,2.3162857450657945,9.546348836774968,-0.009928471062914163,-0.003016343039547054,-0.009390805131651499,-0.9823463576386267,0.3448568961098376,0.011401122252304125,-0.07687390393744122,1.9525731265201478,9.519609486923809,-0.0044388562111855965,0.0021619468318621908,0.0014990221588155714,0.4187796526097183,0.5503256406067524,0.9945685479929733,0.1807196511001556,1.9575305484227374,9.710517494930434,-0.00194610362138906,0.004151812669811964,0.00566653626562164,0.39775416877494796,0.05190398704280106,-0.5806986756100024,-0.6053055393691098,2.009427861894117,9.595931823472679,-0.006715191804276193,0.004856834360476163,-0.00715240561116887,0.31397072428807365,-0.08003422397246436,-0.6831924007350695
0.3215952176171938,0.19680317832171906,9.747837363972081,-0.0036696918159533744,-2.5471177388662123e-05,0.010321767735957211,-0.4182077221267127,0.09299672814701272,-0.5558058543705139,0.03550002154656206,2.3299051910285664,9.528940141668294,-0.008448511840769186,-0.0030209226715425547,-0.009638081753593037,-0.9835825350475736,0.3489597800188618,0.008887007290199249,-0.09142485396876779,1.9644746521511292,9.53005522006423,-0.006589947433953157,0.002557221223907345,0.0028525766299491487,0.41833942555434794,0.5508316000969807,1.001162557178133,0.1805024167770598,1.9954610657501495,9.696151645476824,-0.004908511648703468,0.004065606418133614,0.006368229333760926,0.3989845232209497,0.05190894597786231,-0.5750859375663944,-0.5987147680188681,2.0502764152729336,9.600940404895276,-0.007788763124194318,0.003911360461039974,-0.005336272982054415,0.31688786342648256,-0.0800334029897646,-0.6807350520473269
0.33660865392154393,0.19324712224453924,9.763233459240404,-0.0020674867502775444,0.002485232882362104,0.01135764082271723,-0.4180549598488448,0.1001413284038477,-0.5645410860134924,0.02957393321925491,2.3181720331164675,9.542125862374673,-0.010451906726580024,-0.002626750703472521,-0.010071001366332837,-0.9836323536260806,0.35463465775731934,-0.000986005763716664,-0.09571821858677235,1.9556421155651649,9.525218927505414,-0.005807662312463781,0.0026541398556088128,0.004129169661234166,0.4192784816141906,0.5515424349010761,0.9948065842708779,0.17477502716995472,1.9602527989443796,9.723150935056776,-0.003617186591857761,0.004445540535674777,0.003958905846993189,0.39874282667314837,0.053364963056188444,-0.5794830495784318,-0.6143229943906022,2.019547208941682,9.603899394888506,-0.00680229364927212,0.0036008911789372987,-0.006500220059853646,0.3142265925403328,-0.07808498848788481,-0.684660719659262
0.31708628215605184,0.18920346163464347,9.719502239139405,-0.0023895333682951926,0.001982904925786817,0.01115084962400149,-0.42201459058926216,0.10086482466517671,-0.5582258061654267,0.04102999980655492,2.318952365133835,9.535365084809186,-0.009702580005451843,-0.0037018218387653685,-0.009159874306552787,-0.9870255512121903,0.3579317934881354,0.0058039133900137825,-0.07987123321503697,1.9718110514295355,9.52532499183435,-0.005550402778693817,0.002572819549822555,0.003058599934335778,0.41786729379756904,0.5588767757383134,0.994556123835977,0.1931929606454153,1.9714707859961755,9.671068356405184,-0.0035735663007360244,0.002903321191220649,0.006469584990928935,0.39831495588387794,0.06118714935481259,-0.5770602573675094,-0.6190791053959747,2.051228866541073,9.590097600010322,-0.0075999398155967325,0.0033010487749919595,-0.006691542108096727,0.3129979144026341,-0.07270083654079723,-0.6810206669337353
0.33014711251679674,0.19626248258858686,9.769795023586674,-0.0036487589355580392,0.0003078469543225641,0.00972239319729971,-0.413942776358563,0.09885952793191922,-0.561826403620943,0.032857237955078285,2.342211433785588,9.520870195566005,-0.009720975304581677,-0.004423284791347406,-0.010403498776005497,-0.9794604647113829,0.35621010881660947,0.004582678716769195,-0.07456804021681789,1.9486419970858917,9.533786940005127,-0.00674845176745819,0.003068318423587254,0.0018975054133692118,0.4263881382027964,0.5522297166765168,0.998419666051469,0.19282353333652952,1.9678247061950243,9.703561052623675,-0.00440318498653513,0.0038623517058487046,0.005691785332800178,0.4045858553725107,0.0501582316489063,-0.5758240483075958,-0.6111597866032632,2.0002084109661595,9.57337935318873,-0.009129257522301733,0.0026805979438387713,-0.005554752717717016,0.31859829772009646,-0.08174885537409482,-0.6816981349328177
0.3394123689034422,0.17897172640294473,9.745218932855675,-0.004895099513093452,0.0006752265802407979,0.010238337356341047,-0.422104229154697,0.08868227237719363,-0.5614901840047929,0.04366372026781279,2.3272866466974946,9.532011961287811,-0.009597437050156138,-0.003928509751044897,-0.012456682391561382,-0.9879959770526278,0.3464163492648833,0.003826596766561759,-0.09751480483849517,1.9573400066188293,9.51811608238462,-0.0034971086615863114,0.0017457520874537222,0.0037266842713341002,0.4183184458547649,0.5566692651026803,0.9913838116484939,0.1797420529258025,1.9700495690540036,9.698120820043858,-0.001571758051003231,0.005180194428930087,0.005673344455221118,0.402907934022994,0.05698306594714741,-0.5853595754428091,-0.6055655548870875,2.0470867081130373,9.566084052912887,-0.005661739369393427,0.004524591150348426,-0.006798911033044131,0.3140052428559078,-0.0758973644385852,-0.6880862669638734
0.32441129871033336,0.18888191527471337,9.724656674745551,-0.0036073937442431163,0.0018290269065848596,0.009793064788358353,-0.41893866007461444,0.092036092704823,-0.5570409933357829,0.030538617393680294,2.337976677524646,9.543662705017635,-0.011236798856377085,-0.003956146002175651,-0.007887322249711384,-0.983824520475687,0.3467572740447118,0.008685298375139563,-0.08517636446164549,1.9606151495746826,9.520966592459263,-0.006307928702820729,0.003331168367902977,0.0015239825408491481,0.4281394792595221,0.5522305216557529,1.004756115282311,0.18600170165339985,1.978875117996804,9.70501482306571,-0.00611743862124564,0.004002283317116261,0.005580616002272965,0.4089968626802768,0.05063253542929178,-0.5689973292966254,-0.6099451068116929,2.033120798774733,9.599347044244,-0.009479781533279654,0.0051709120082947535,-0.0050177817891736915,0.32613472782589026,-0.08028092187136325,-0.6750707142058648
0.3265106183892456,0.21284412835789981,9.782758381872293,-0.004626022899806551,0.0005079678673537221,0.01165175106051453,-0.41408220828523645,0.09002958226761389,-0.556277767364777,0.020614721350323044,2.3189602698427194,9.534418898215488,-0.008663387827848958,-0.0023494457498591595,-0.009869797212341661,-0.9789429331472832,0.346271175868612,0.008429529498301096,-0.09835928778678542,1.9490777991251247,9.526536830444085,-0.005417367566423364,0.004199753152015621,0.005264241266545356,0.4230263219958349,0.5603097707643266,0.9976926160334676,0.18239499846988458,1.9687435510736009,9.70749213003633,-0.0033509199999520703,0.0019116445262221222,0.006852585012919301,0.4029613084721643,0.06309994655391597,-0.5800035153413247,-0.6008750959158778,2.0308739323966227,9.58323384332585,-0.007645801334531576,0.004230161251761774,-0.006341462507731827,0.31889356982366107,-0.06980056862757347,-0.6866142159134118
0.32155748652445626,0.18931850296445585,9.764823763153812,-0.0018188813510941464,0.0011271051661368916,0.012101985811225752,-0.4240319705344701,0.09453579190738906,-0.5580478272129523,0.04110817399808072,2.3395266526487437,9.523976891183782,-0.009714968519286266,-0.004431294273652185,-0.01040437440356575,-0.9904458232860064,0.35128612306657486,0.0032566427744198144,-0.07359852312121978,1.9625136206163551,9.524097174929006,-0.004278408077539265,0.0016478237462949701,0.0024490868141397496,0.4284019410040544,0.5602706737017004,0.9983887889273404,0.18821796367487129,1.9858271399013394,9.703212818878413,-0.0031883608716784272,0.005558043177989085,0.006628421228585203,0.4063797384553321,0.06283458177663845,-0.578788188642383,-0.6076221962373991,2.0366571635522566,9.603279080182816,-0.007695660644781588,0.0051602822391686055,-0.005991406800784009,0.32399125274147095,-0.07028395196843927,-0.6812139727322908
0.314363084774638,0.20233726120019146,9.749338923908224,-0.0035844610499257924,0.002162325282364498,0.00919370906407268,-0.41964137836152227,0.08940195241569938,-0.5629266047693099,0.04171192693990134,2.318428413581358,9.55591579767165,-0.010139340244550866,-0.0023528782181374357,-0.009623387630966844,-0.9850697380748719,0.34910571013113467,0.0037636716035662566,-0.0905415628637561,1.9495806116292658,9.51656524397986,-0.005390968837685269,0.002057701903774388,0.004007673497967321,0.42417962052974006,0.551999194372346,0.9969708906530456,0.18803115551220526,1.9769018865493933,9.714536908745327,-0.0031560305668982616,0.0040884966896658215,0.004878924766728368,0.40482807470436216,0.05039554519305071,-0.5782670845490469,-0.6181588879140135,2.005854175511069,9.597936746119277,-0.006986114162966731,0.004205183584400008,-0.005147907334392135,0.31834742014542516,-0.08149980540906862,-0.6804791494704566
0.3408706528446546,0.18943439890738945,9.751724774001255,-0.004950088292941967,5.644843602430467e-06,0.011446940902608851,-0.4184507054776492,0.09203127225751564,-0.5570364026290567,0.04259351270243886,2.3320624783407773,9.538546193597888,-0.008456899106131394,-0.0037544079132680523,-0.010883523865435509,-0.9833315302104801,0.3507100085840325,0.011051520524489128,-0.07051497735574351,1.9676788586013796,9.529686515504626,-0.0034485550451566933,0.003458300997445716,0.0032136377069592473,0.4235028579762081,0.5554311502709247,1.0013620886850578,0.19110794199590786,1.97959741246531,9.691350557653136,-0.0032012154098424385,0.003932714733427178,0.006475394406927821,0.4048739759142958,0.05577648152568315,-0.5741292277048481,-0.6010939630736885,2.046632050704427,9.586549198143132,-0.007440860565819828,0.004530204523412314,-0.005827245319709995,0.31834508066329925,-0.07661078002243876,-0.6780522522135229
0.32297236794965734,0.19362437585949588,9.776493935310398,-0.002691724165384756,0.0018098756376956713,0.0103486441717531,-0.4052444610724765,0.09288882458110416,-0.5583699403012476,0.03996712709666033,2.31983692833046,9.530077058660067,-0.010055384129886633,-0.004253595186881526,-0.00858291640333065,-0.9735774381517968,0.3494470709257623,0.008103022163958728,-0.08749112166819098,1.9491124014493444,9.530039202482833,-0.005525664508572467,0.0034270826986335158,0.002798577838015128,0.4235477197743776,0.560073179502892,1.002816770103316,0.19051698323016703,1.9785651326545306,9.69157316072915,-0.005054315625933151,0.0036779139347930755,0.006892443735113323,0.40295355690828627,0.06018723878022727,-0.5729153890488302,-0.6150772707764326,2.0414151863707835,9.55570735252367,-0.009628856151661973,0.003931720576781065,-0.00588699715616695,0.3186115529022237,-0.07197868305415572,-0.6802612848575339
0.3191609207719834,0.19494781236171382,9.742920178189152,-0.002944415498585492,0.0031649986252280096,0.00961023860650683,-0.41406225581675465,0.09440614810998493,-0.5538029618519352,0.030926904207052616,2.337785495969194,9.56416642328929,-0.009264483825551445,-0.0029332091938419464,-0.01076745240394666,-0.9794192444823929,0.3529529257001823,0.013190164298446591,-0.07897782194007724,1.9448779040518,9.527780418400747,-0.00549925153628369,0.0012860335853613967,0.0015430078282380757,0.41565626293020136,0.5520707910975041,1.0002007827780757,0.187285105929954,1.9604948024278988,9.705153120030152,-0.0028238770369396747,0.00496007515823877,0.006482199542197652,0.3987779201403543,0.05703872677959283,-0.5746090202850075,-0.6180860964606764,2.0212039269776882,9.60134281354629,-0.006592348899648809,0.003897918041634039,-0.005987967929607088,0.3132123370576403,-0.07512993202893357,-0.6763744359844028
0.31833522953750104,0.18570486651530793,9.748162225123863,-0.00462651275669391,-0.0003465585319665311,0.010381321057364024,-0.41205899618427133,0.09297263353896085,-0.5606310887414654,0.03501349518344063,2.3508831021888517,9.525199204559868,-0.009829498729870345,-0.004938092912082654,-0.00835300413690286,-0.9770127715970588,0.35059014751854933,0.004189529347702826,-0.09048953438311,1.9755374314358165,9.527576945509026,-0.005832167531572867,0.004789158844088089,0.005377739808670562,0.4264048873457031,0.5527219339001046,1.000372536162617,0.19677189715532348,1.9784751319354468,9.709790893207687,-0.0030613672889380663,0.004328432703109781,0.005944171486159341,0.40731952759216694,0.05697372547222615,-0.5763336718350831,-0.6074878488705052,2.0680919690396213,9.585878595828737,-0.007894598634656582,0.004854217557662066,-0.006508575135969756,0.322031603617637,-0.07638628403716786,-0.6824276356321205
0.32048795605816816,0.1919551060036897,9.759771798882838,-0.0024171000448276903,0.0007880609039087649,0.010487684605527783,-0.4130978006619769,0.09172156008619428,-0.5552788220746332,0.03063010629829878,2.3257110656625475,9.521171128095848,-0.008754442222617035,-0.0040482759803527,-0.011331826947044307,-0.9803953818464808,0.34852995668407455,0.01181200359338256,-0.08059972815373548,1.9479619098465526,9.520403396678395,-0.0051089358630021595,0.0028326511827391353,0.0026800771676683045,0.4193343980592048,0.5520483426982604,1.0026183075539905,0.18839230751465688,1.9757946541575933,9.692178827305684,-0.0052938005574237855,0.003047283262752492,0.006353416905474419,0.39877110757495426,0.0555785147170183,-0.5726524497339501,-0.6230237618167426,2.0296242348610303,9.577266129451894,-0.007135186636929099,0.002966992146440552,-0.0060171255811349396,0.31466695242705695,-0.07757121119985413,-0.6753827277931054
0.33151264858579876,0.18208270123303733,9.74678320920899,-0.004218754996359211,0.003198084872128372,0.010731483514936685,-0.4135464447009418,0.08764003859929913,-0.56385894718318,0.04302919147934498,2.3238333886897413,9.527809638912208,-0.009706243813330961,-0.001578235679300697,-0.011229057092060611,-0.9789558501168338,0.34424986076003505,0.004804812766784567,-0.07770371267463556,1.9596239041963466,9.517933719750094,-0.006819524948373372,0.0034897712181290834,0.0036581110321627793,0.4185864078800242,0.5542402424579017,0.997735438711237,0.183268196446777,1.9793336549920948,9.704634763715983,-0.0035244913777955304,0.004690485788631837,0.005022144023670342,0.40195176334177585,0.05725774377850427,-0.5755924285862629,-0.6063241653197667,2.0385706432641486,9.612047516823921,-0.0065903479733698915,0.003895910905015372,-0.005988951645328394,0.3183684862939752,-0.0746673793452573,-0.6817198135264916
0.3322509075220865,0.19751660477796468,9.736393845267495,-0.0036848437445884466,-3.0404153715633235e-05,0.010332588309102624,-0.41753652231078064,0.09124625301032441,-0.5511741293567712,0.033762566789855536,2.331130376256061,9.531308023871174,-0.010635077912467204,-0.004120890868122643,-0.008236866288144757,-0.9794155851350573,0.34805706372124834,0.012549824472724555,-0.09111623877461017,1.95378891827887,9.515586945589602,-0.0051089501065528405,0.00283164904777002,0.0026790794088673207,0.41786748703458665,0.5535191636900133,1.0006718780905697,0.17432266701723803,1.9821819686519473,9.708143406405167,-0.004229688122027898,0.002720911676866124,0.007667247683300031,0.3972956577959244,0.054366606879061294,-0.5736237794111758,-0.6021351752720305,2.0291116515014025,9.592619494505314,-0.007525955278874221,0.003270248436208695,-0.005178037688725315,0.3154225293677902,-0.07660807037052149,-0.6792876175776582
0.3184813782631988,0.17236342267105476,9.770281331495971,-0.00518387532839381,0.0016930909719255665,0.01011113433500189,-0.4195308325554926,0.09481778297137129,-0.5689898560437516,0.036319276889544574,2.3125008227317085,9.528116813137073,-0.008670772324799564,-0.0030849293293177048,-0.011115206130549506,-0.9838785336047854,0.35167738813846916,-0.0023947686321621068,-0.10025407943768486,1.9497595266332999,9.526258011140094,-0.005291227931883915,0.002486469088210755,0.001981028128579663,0.4173776672741809,0.5532788676122182,1.0006756724696095,0.18606963421044936,1.978396407045198,9.713930902416664,-0.0019540681065897242,0.0041578597455513904,0.00566253628431043,0.3970447116846509,0.0533913720276703,-0.573620945003105,-0.6329765361883133,2.030355357523841,9.574062733603654,-0.0072978935289058295,0.004849002423165303,-0.006833434827441572,0.3134767247297401,-0.07685214560139456,-0.680762148551296
0.3334451839497579,0.19425609930649057,9.753256223299218,-0.0026912239228397946,0.0009543394366652005,0.009078216071275255,-0.41920059425606143,0.09372023149769447,-0.5533687286379522,0.046563826790904816,2.3270558897213736,9.5384811056959,-0.009014186415460554,-0.0029052157734414117,-0.009292772921850273,-0.9840607191618449,0.3502338599939954,0.011795697918269243,-0.07492671065463846,1.9515398965034114,9.539696206244093,-0.005939471208325302,0.004016478650215999,0.0029110697377139304,0.41694850873038164,0.5552497794735408,1.007265434481942,0.20061762430005867,1.9862889614569958,9.685225673934566,-0.003937138908612284,0.005136683380141085,0.006760831092881528,0.39536456116766394,0.05537606761791431,-0.5655656227467125,-0.6135214149447463,2.05904634889651,9.587441114838002,-0.006677441468283254,0.002638961947984653,-0.005338763178371955,0.31146767047945695,-0.07681763561587159,-0.6702746021232548
0.33936837071003767,0.19725698246317053,9.741563773218811,-0.0027293764688987015,0.002324141191205282,0.012233235173671964,-0.41724506491694435,0.0878894277438667,-0.5597408657667496,0.03732701006629625,2.3344476372855296,9.541963583799749,-0.010447270606251058,-0.003380234144916581,-0.011317124237424573,-0.982117329242506,0.345032513621689,0.0077341740002419964,-0.09741596771055118,1.9487611369629867,9.539836539738232,-0.0049257075029264545,0.003174814996901072,0.0033741285291266072,0.41957091931381585,0.5491213441549412,1.004820120948337,0.1856112862026633,1.963280643377585,9.704273441836957,-0.002320541354378903,0.0047578370897361,0.005806756758307416,0.3994549607166627,0.04849646767677868,-0.5714164972266067,-0.6044824992994322,2.0098726707777907,9.59439382864151,-0.00823250299489633,0.004222337831533697,-0.006022512737672065,0.3166052617949612,-0.08441132560225285,-0.6753527819020326
0.3128176204318149,0.1907670750789215,9.766456758411579,-0.0030208659189006138,0.0013045651747710962,0.010148764102332817,-0.41821577937379395,0.0895988962220698,-0.5585173103060969,0.031073051723647136,2.341354289041872,9.52383042906691,-0.00931473654841346,-0.0031971068701035993,-0.009742100425205383,-0.9816320487387956,0.3469868072491689,0.007695453846446092,-0.09017387827889284,1.9618261984806702,9.51385219556327,-0.005158201155643523,0.0041114049184710335,0.004187673869141438,0.4166738171976854,0.5574342241459372,1.0001823641000311,0.18596832154978882,1.9933181296992726,9.701071764895833,-0.0026870074857839295,0.005358814405613709,0.005950974788849983,0.39636207967519954,0.06095943777215421,-0.576079086664369,-0.6212609831523895,2.0476532994041388,9.58481139313721,-0.006891021251777595,0.005452104007847595,-0.0058020249047347015,0.31668046454340704,-0.07027612020282194,-0.6839384058084548
0.33310971207501944,0.20005831916730496,9.74812767493657,-0.0036639301523196757,0.00030190664269737303,0.009734206193522815,-0.41381173790310677,0.09319730575895428,-0.5557626880943722,0.031394380495164145,2.3390997024362443,9.52438343183211,-0.00969495671995433,-0.004455357601280689,-0.010409009503450497,-0.9782139345857536,0.35141197298206694,0.009063148575966752,-0.08233118998338201,1.9637224552141457,9.540239321452615,-0.006096313330873963,0.0015332570587746873,0.0009574484652063572,0.42711876803993903,0.5551451417832703,0.9947463772678329,0.1873650973762161,1.9706068298858725,9.702415383545809,-0.0052149759372032405,0.0016649048182861318,0.007262634984662165,0.4060988079638898,0.05770887139505279,-0.5790192127603514,-0.6098757990277454,2.033495380325013,9.593349217379773,-0.008433436663798985,0.003918277395677014,-0.006539697339190673,0.3254544879084016,-0.0754196851263431,-0.6831454821878888
0.3402085492315629,0.19370378885204964,9.758444626254539,-0.0021087541678498915,0.0021379577349151,0.011977720633880739,-0.41378874582528496,0.09273105882429883,-0.5586961381383105,0.04343328566362518,2.310751502985355,9.51825242382058,-0.009916832435566935,-0.0037778534036529776,-0.01063880773890548,-0.9772265319345341,0.3499897016338023,0.011283011233040423,-0.09085748506185198,1.9532308944423569,9.522331591311508,-0.006818581097319175,0.0034867529067299403,0.0036531111380153705,0.417089701148774,0.5552146181905254,0.9918841873158255,0.19255207977740793,1.9955961533511326,9.687079983671062,-0.003244791436102111,0.005481926588690875,0.003961698172804488,0.3970577123682316,0.05848737364307661,-0.5863284133787494,-0.6081383004645334,2.043899811255004,9.560738670362499,-0.005536895538487124,0.0035636676948876365,-0.005635457067203654,0.31280010247926376,-0.0768816396329485,-0.6915078065317205
0.30981636887820996,0.1810122299767513,9.754935171926,-0.004539281849813553,0.001842210684045669,0.009254288631955522,-0.4125489544432723,0.09394433005364033,-0.5594074434547108,0.03308216354824035,2.331413431913071,9.538988040858385,-0.010423857196859907,-0.0026687441316581924,-0.010072333984693512,-0.9813813149865357,0.35119131040180657,0.010545078878785932,-0.07867125641433093,1.9562903243381342,9.525246587548754,-0.004593423530065563,0.0026700008306766365,0.0005379310714451235,0.418776257522533,0.5520293003614415,0.9921238202139281,0.18614243062987826,1.968728466861908,9.702820212370874,-0.0033618828374966823,0.0019187056452273313,0.0068455880999310804,0.39970496627245244,0.053096806015778486,-0.586564210796278,-0.6132522852858806,2.036206764583835,9.581586450488023,-0.0072691459235509825,0.0026371578083418806,-0.005016857007731392,0.3157215608048369,-0.07786034512306694,-0.6902696252786112
0.3313747514307761,0.18893168641548722,9.753431144854376,-0.004546887035385399,0.002693764454982427,0.010531620357215566,-0.42287756967640594,0.0893844555280572,-0.5563659404254804,0.02693910673993121,2.33838719838239,9.5208521539134,-0.008860968547013971,-0.004564100055819306,-0.009282321966474731,-0.9862590111260842,0.3421214716059173,0.009026670637627576,-0.1015574751606525,1.9594611281401855,9.51743649121488,-0.00453442211999881,0.004717425143921438,0.004511200067516771,0.42646849020365996,0.561996529825984,0.9993749976480114,0.19214200646602253,1.9857449089596693,9.698586737897124,-0.0036693077648841535,0.0043007886713812,0.005547361474672441,0.4046588959216121,0.060170320313454914,-0.5748725118388234,-0.6186224797873562,2.0358186208681914,9.613999975527307,-0.00808953691639369,0.0045431386093639625,-0.007027708022848568,0.32252330559327286,-0.0680796143698823,-0.6797640220704804
