# sampling frequency: 40
# units are seconds/meters/radians/a.u.
seg1_acc_x,seg1_acc_y,seg1_acc_z,seg1_gyr_x,seg1_gyr_y,seg1_gyr_z,seg1_mag_x,seg1_mag_y,seg1_mag_z,seg2_acc_x,seg2_acc_y,seg2_acc_z,seg2_gyr_x,seg2_gyr_y,seg2_gyr_z,seg2_mag_x,seg2_mag_y,seg2_mag_z,seg3_acc_x,seg3_acc_y,seg3_acc_z,seg3_gyr_x,seg3_gyr_y,seg3_gyr_z,seg3_mag_x,seg3_mag_y,seg3_mag_z,seg4_acc_x,seg4_acc_y,seg4_acc_z,seg4_gyr_x,seg4_gyr_y,seg4_gyr_z,seg4_mag_x,seg4_mag_y,seg4_mag_z,seg5_acc_x,seg5_acc_y,seg5_acc_z,seg5_gyr_x,seg5_gyr_y,seg5_gyr_z,seg5_mag_x,seg5_mag_y,seg5_mag_z
-1.095492129440082,1.548846566675586,9.842912225886508,-0.07919759644982989,-0.05610403634387428,-0.06734476457375976,0.21341961480310415,-0.37350838431412675,-0.8782647161023522,-4.4363644615214195,8.558684417768365,-1.6542536826858671,-0.0477153477851667,-0.1845053926615131,-0.11616618365755778,0.5144045618146754,-0.7789550509617335,0.3074217308315323,4.2491902465092695,4.508242704545068,7.418447034198981,0.08449570885314527,-0.4599123698282523,0.00965012981080215,-0.4572680522893943,-0.6178983639985671,-0.6534179364544241,-5.301296749823585,4.612313195982484,7.486513747280821,0.02996892363812986,0.14805501530370752,0.0941088764643956,0.37680637538495737,-0.4799984604212902,-0.8460443952910756,-1.5883729911111164,1.2623880687792348,9.730490640271052,-0.08679335792597387,-0.007114631448363886,-0.08473668520946366,0.2624790552916476,-0.3200760745206502,-0.9370638384905563
-1.2338838376923424,1.4770512455731961,9.919244940064807,-0.10310822975961988,-0.03376214835178385,-0.03448285296360465,0.2322091575401789,-0.3755187210946076,-0.8767677943406399,-4.628061997797894,8.55039079710535,-1.6384485648176683,-0.10023127514861631,-0.211711288120223,-0.15170127154891716,0.5368674140921992,-0.7816260709537538,0.3010739642352899,4.43934967787948,4.5728175473061565,7.184096836788482,0.07364613539418711,-0.4524767157775611,0.05651868036015358,-0.4489451377390842,-0.6224750556375771,-0.645105858974657,-4.972227649759777,4.639914453776195,7.602401491595739,-0.020509345711119085,0.08240659789701181,0.09260180762027279,0.39241620587220055,-0.4866263015067075,-0.8460424701968393,-1.8216199650692368,1.345617589184244,9.742435573779954,-0.09574116327840286,-0.07233480242656813,-0.05549027199435556,0.2802902895888634,-0.32306439578703794,-0.9380563957022772
-1.461440077826706,1.3229874350207038,9.953918998205692,-0.049315015442718796,-0.026606272334097934,-0.017111823262534635,0.22905174240734172,-0.36843201854539964,-0.8740784705115,-4.862332837755095,8.568215755082507,-1.7670271529918278,-0.061123321820628,-0.21610459004968124,-0.18211305391451527,0.5380437647459537,-0.7735678443088004,0.3006908082905701,4.542468126613175,4.44543608244855,7.263352506872628,0.12468654453889913,-0.42964478527626454,0.04497746677906237,-0.45647004245386297,-0.6201700669301388,-0.637770653108965,-5.092775049414495,4.38523179274034,7.252631981063187,0.005204446262042874,0.025698363565951215,0.13513205486167115,0.39069829418952,-0.4822702238811217,-0.83942699310366,-1.9015135285495783,1.2791588609174946,9.720279554246225,-0.04262553264154494,-0.1305713774674457,-0.03556590737319097,0.2756699739326268,-0.31793528587823117,-0.9353433550132872
-1.401125062559088,1.2962618937591432,9.846917112247809,-0.016797500939337448,-0.04499610229184475,-0.0027077277807787156,0.22368651112535667,-0.3642708746611254,-0.8706649620721993,-4.848596784195924,8.5762279962378,-1.5720997121496285,-0.05682107026777682,-0.20500330672226644,-0.21919537161528005,0.5404426390373385,-0.7652341396119624,0.30176578464381437,4.589019179273675,4.485449967235466,7.3055367251119,0.16447917204260876,-0.43507340320632404,0.016901645264448657,-0.4678739843104416,-0.6158523194334568,-0.6262877106425642,-5.221090977558757,4.366765601448761,7.268185407555752,0.04915384959397884,0.027723760113190613,0.16781846671114226,0.3848432189181967,-0.4793341254679678,-0.8384487714133402,-1.7821954372689663,1.2942820505086827,9.760489697453387,-0.013977088584001903,-0.14001857028866638,-0.019775551522846626,0.26837524293652504,-0.3098435639162939,-0.9370082058730386
-1.3865793626825553,1.4886532438226443,9.784595125502799,-0.0006677604452578199,-0.05688118989224294,0.0076166307137965905,0.21930428170032232,-0.3644927184527636,-0.8779983130523771,-4.9041152949075215,8.37431835920521,-1.6478692174385943,-0.04309820485416453,-0.203437969184031,-0.2506805300908424,0.542856537876792,-0.764687890814246,0.29003105112984484,4.5457782015953985,4.372546394373821,7.314938823149145,0.21817371572586344,-0.4544231428218482,-0.00728837857717807,-0.47642558685979824,-0.622857726735767,-0.62226345625615,-5.426547231410221,4.3706976735198655,7.028145724162463,0.0936784865193536,0.026455764605804667,0.2117484558422222,0.3762974267373868,-0.4873306646076871,-0.8446283804454187,-1.694128309284885,1.5071189141865486,9.81465916876708,0.007453123305113424,-0.11173994925573198,-0.007988710179072583,0.26128014207620714,-0.313938524944941,-0.9424014775105309
-1.4845785774026918,1.4175840832969295,9.736976636011775,0.015355566937643252,-0.07950958728868186,0.01373196487058714,0.21731358704930243,-0.3696300492184011,-0.8655575451335212,-5.0430165784073715,8.310137509290245,-1.672836220207989,0.002786491864613578,-0.1953127441070745,-0.29332992658686036,0.5511893306200547,-0.7661566318291045,0.30151627084603233,4.643445547592664,4.645899768627978,7.039725852118131,0.2721920799980783,-0.488268558947524,-0.04986988913791482,-0.4843995207517388,-0.6342593176555505,-0.5959750283498473,-5.156786944056763,4.235004207892625,7.008553288809786,0.1481714666856044,0.05320122871902942,0.24773462057214035,0.37671124984863774,-0.496242510387881,-0.8258855199053988,-1.7555422908489677,1.5596028525398684,9.725619579064679,0.020042741589939166,-0.06179986912542731,-0.0011418509705646274,0.26248895810794387,-0.31744464141184303,-0.9270393605625991
-1.3830702770830228,1.3998187773337754,9.700867097490113,0.0030546060172947594,-0.08515526641448307,0.012385111261410656,0.22197728466381628,-0.36913916328608354,-0.8782433815490609,-4.969500268325964,8.44794417726909,-1.4327399866690547,-0.01185278391729638,-0.18574150377587623,-0.30930893685357047,0.5606388261013493,-0.7590513224171188,0.28550573708513166,4.982655471324569,4.881238192208521,6.927325283478913,0.25052970224069326,-0.4725185968104708,-0.05586079671337749,-0.48662220138938894,-0.6362471207222655,-0.5998488099326128,-4.949354241948764,4.556244148797562,7.388934246956441,0.1412582966755301,0.028884413365437,0.2201703178515725,0.3799069206840841,-0.4996012346435427,-0.8361523682672822,-1.786673111268423,1.6436119599575534,9.85191139368026,0.00862188705786785,-0.024809603552120536,-0.0029802751799085565,0.2627433682455196,-0.3144368243729898,-0.9416712023175758
-1.423671348531309,1.331308612524837,9.81728271349202,-0.011806916313467999,-0.05444628097991593,0.0016932925390517747,0.22442238321883615,-0.3606157240060892,-0.8669969001928103,-5.092788678946127,8.500415906728469,-1.5194568612339046,-0.05609004379201196,-0.1670268858267214,-0.29114995607837135,0.5747610538236805,-0.7475377896760046,0.29749127244980833,5.132442766136733,4.9254724409424435,7.20416976628072,0.20909530849166355,-0.46944825178851873,-0.04276926318607281,-0.49065097863770746,-0.6335297495944202,-0.5761756999333545,-5.3158355243374835,4.439192676338038,7.3002453728189405,0.11401185056576507,0.023393231148643966,0.19033855707132952,0.3791428391320444,-0.4965152995582601,-0.8224622067988681,-1.8618074845373072,1.62599834056519,9.93969391776332,-0.003198869051558053,-0.031481457459334186,-0.01608762210605147,0.27032035014146816,-0.3120821747733274,-0.9306723317114054
-1.5542543201099162,1.2954483600042426,9.906396019893812,-0.04256835569674817,-0.043112146220978274,-0.009167644544599023,0.21636005196057034,-0.3605961483254074,-0.8640826727695099,-5.366273764814011,8.562946986834783,-1.4737877556418932,-0.04764179840022986,-0.13702769821652286,-0.27587457017397127,0.5769538384309936,-0.7473150111686723,0.29552989171099153,5.29456795169549,4.753854635013929,7.086268182742494,0.1891028899303144,-0.4774345157812332,-0.0722448641893856,-0.4991719016852253,-0.6397387838752668,-0.5663009281528244,-5.112702166929861,4.320141302603174,7.4472373703057055,0.13613803191088136,0.038376867250019986,0.17234194943920703,0.37056261163118176,-0.503374783071974,-0.8156962141179283,-1.9299124069216849,1.5552120095370332,9.954029694916654,-0.04310497151633808,-0.019442326360250367,-0.031696690478300676,0.26251024718136756,-0.31159241583510777,-0.9257864740656014
-1.571279706317769,1.280279541074441,9.894030214066923,0.03855083129162342,-0.029549158152072024,-0.015942255086048025,0.21267623673074987,-0.37400153883538123,-0.8733837032300368,-5.4753305045264185,8.589995092904182,-1.1822608316668362,0.0545101572346899,-0.1424737901409138,-0.24209510279047827,0.574777007617597,-0.7543028012108877,0.287350594740239,5.391689993943465,4.6830557665269605,6.9136542971609805,0.231086504952731,-0.4109903759038453,-0.10542281201024441,-0.5099570263862777,-0.6552940182031567,-0.5633920529084754,-4.839384936921998,4.759556403605903,7.702256217612311,0.17426668721135338,-0.010655461879424956,0.19806927973443142,0.36150621657151993,-0.5206511433212873,-0.8214494701577095,-2.0407768397288755,1.401843754985876,10.041893510399884,0.03515139297566966,-0.00405110066098695,-0.03243107319076247,0.25734415002722116,-0.3222677129288671,-0.9346336592763843
-1.5299720687462819,1.4461317960553255,9.849895281371627,0.13574971611884867,0.006796197706853098,-0.009401001243557234,0.21805123643532026,-0.367679179808611,-0.8655536812944044,-5.471197783117201,8.443548088154731,-1.5079776186147433,0.12930111080273834,-0.1726309226956093,-0.1947683803763859,0.5876600858058634,-0.7416838614157661,0.29297087381178977,5.431018558250697,5.106809479900609,6.840799438842714,0.2577842454802259,-0.3392588980241887,-0.1038202197580212,-0.5040164707420616,-0.6512566435627376,-0.5495478881936623,-4.941484796344408,4.928924836103409,7.369089584497196,0.1810344866209943,-0.05686087757292731,0.2231526968210548,0.36589109613180326,-0.5148530799741395,-0.8135860498672589,-2.011045540034968,1.3865640500704741,9.94372639932795,0.130417134373552,-0.022645527170906052,-0.014769509197757135,0.26469303013280304,-0.3154983302564452,-0.9272727987677144
-1.374720828550614,1.6362066802013386,9.549973099411726,0.19346087682296598,0.03092806232897585,0.016297079016319903,0.2126757201603799,-0.3744889087041137,-0.8738723322756394,-5.218667290078201,8.121051451367705,-1.7701332716065026,0.1654756610670801,-0.17872031166927516,-0.1739971291839322,0.586420588051763,-0.7413393363551382,0.28491028643864014,5.3704750607699525,5.169058584248326,6.394337708364382,0.26122445998408067,-0.32184134178962376,-0.10347917726325426,-0.5138097952347411,-0.6585472116395191,-0.5496648518585192,-4.775462229562521,5.0041234664017304,7.459155272089145,0.18038517753685634,-0.06718442984978615,0.22543092773565027,0.35369270943763986,-0.5208781377475652,-0.8214734242647718,-1.7666541513922853,1.4932694400204942,9.582991414522047,0.18989761235559136,-0.03415778831076692,0.010403273732935737,0.25783388888927516,-0.32177085991087256,-0.936583989998468
-1.2716414485345156,1.6711009021556777,9.277857584946457,0.1715475249619072,0.028876624720460847,0.03554824869381749,0.22241299193913294,-0.37916685551537427,-0.8655604474750833,-5.052655107257871,8.016355345296638,-1.8525526264619294,0.14010444541564765,-0.15733831313392044,-0.17513935026699798,0.5959214626789757,-0.7350767166213596,0.2911332025065359,5.398416180079996,5.412444664702347,6.218831198644855,0.23861908533039775,-0.3390596083425396,-0.09824726416388362,-0.5103372364550858,-0.6620657386131804,-0.5354817678688696,-4.804358983110931,4.901032364758346,7.699537535281161,0.16884181940830792,-0.13138328250696216,0.2084438955752557,0.354144117403273,-0.5255757398952998,-0.8124693672952629,-1.589922033930184,1.7372621260399954,9.158767109320953,0.16753905713150433,-0.029739993853284363,0.02628290469284431,0.2622121477112401,-0.32646991322545915,-0.9283095222431039
-1.4574071728294153,1.3726434858268313,8.94932374816933,0.10667611332553509,-0.015939300376247145,0.031285469315216655,0.22071168626482365,-0.3723344172992732,-0.8589627669716241,-5.148636125208634,7.8494194218994995,-1.6497945512252572,0.09334452444366217,-0.10531592509884252,-0.16875251788924975,0.6002635538444638,-0.723484299861581,0.29654367420299566,5.4980555518339225,5.471702461842035,6.373747788016795,0.16016951632029777,-0.37835992858492185,-0.0851466504387267,-0.51467400844722,-0.6607053104339017,-0.524245157621234,-4.837008689663428,4.852843089239744,7.253910822661701,0.1388507885657211,-0.170676419879649,0.14741121417905484,0.35095640522771016,-0.52681632419368,-0.8083354813891958,-1.6606201173935418,1.738417392715678,8.619857480144118,0.10302981672810757,0.0006744302235250863,0.019749405809951947,0.26392915681937307,-0.3242951197095837,-0.9253676617967377
-1.5946403476173123,1.0062032303836759,8.685055753099192,0.20750730591317962,-0.09044021519411685,-0.0077012947804845485,0.217033746263407,-0.38061911422158395,-0.8633741879730062,-5.084873126040352,7.946919323086471,-1.4668152777771528,0.27806467189885303,-0.03305889535482063,-0.1267592360134056,0.6029510526547144,-0.7232008443150956,0.2979987893524146,5.766098986897639,4.979705839632996,6.118502981979258,0.16698711088882634,-0.3912816549871786,-0.08881047086068908,-0.5207558846670787,-0.6654771308499152,-0.5161059894472968,-4.384211815710167,5.085162708356232,7.057709500082762,0.13980676075943962,-0.13525108888960913,0.14484266762293443,0.3428944777938567,-0.5314239853071211,-0.8103416130187164,-1.8275936879247257,1.5519456336502433,8.17506898254991,0.2022357538107765,0.03048299500860826,-0.0068941686875329975,0.26122275279994084,-0.3298869560889933,-0.9278391077681301
-1.4049340321905348,1.141386705484631,8.227484842838471,0.33980262856515914,-0.11775065841621639,-0.05390360084220747,0.21601943829323764,-0.3989152008056785,-0.8719446050602293,-4.673906838948854,7.81363789841671,-1.5049057035194064,0.33295919549576225,0.0506874707084183,-0.019633133142675004,0.6025018886721649,-0.7312965202958479,0.2959397941772259,6.023728484674831,5.271831671044604,6.101292393431831,0.1886511524067305,-0.36977616081880466,-0.06475291130689066,-0.5217869973053872,-0.680850852039629,-0.5156879828587619,-4.35470973368148,5.371474149940588,7.015341324468738,0.11840532302220441,-0.07695782301453341,0.1628666328192217,0.3402054781689024,-0.5440539022865789,-0.8194654967920334,-1.8081068013288637,1.687652390577918,7.719712925991998,0.34116354420232137,-0.023621812941059268,-0.027226200426947993,0.26261052606012947,-0.3510955941616773,-0.9347907232983652
-1.6703625808585882,1.049408371896947,7.276104732931078,0.36698795669889267,-0.15055494468642475,-0.10312899719981393,0.21624652435884473,-0.39965826590994047,-0.863889123561918,-4.520544167657406,7.351081280821183,-1.8116463418735993,0.3716203527423165,0.16469891973012535,0.12134309776994343,0.6022224554621467,-0.7206108907832275,0.3069905714802103,5.996891611951424,5.412326524024538,6.054976735101475,0.1776501610413172,-0.4130620525820838,-0.016493831412680193,-0.5268294449695409,-0.6770066413458691,-0.500812042965893,-4.540420043722242,5.55976757314972,6.5708970708364625,0.06457772099263509,0.06909668848756181,0.1739493424892725,0.3414137834699156,-0.5416569460003559,-0.813098313359661,-1.95755003737839,1.705797452660973,6.799462352494732,0.35980370864462596,-0.10032594983649068,-0.07023081192026065,0.2638485147203218,-0.34651696414695016,-0.9245116567422291
-2.031644100678038,0.6859322488964941,6.134182918542936,0.4102281700220038,-0.2250402814466295,-0.14665250855276818,0.20082841153020925,-0.41230995483654836,-0.8636887087226139,-4.306306388929937,6.586814089304656,-1.696852696808386,0.4432812402933528,0.3159759681397351,0.3157776568839917,0.5817879331122053,-0.7292946567552784,0.31987604802833974,5.773565557696584,5.498895167162661,5.730616642827181,0.1743769692272074,-0.48522847333423,0.018706868895299975,-0.5417089277241751,-0.6812816029622026,-0.4948343781096621,-4.575606849541152,5.399547335768172,6.912034234739287,0.02664035523269833,0.18856834412934975,0.1897934762745832,0.3287071141804469,-0.5443253024584828,-0.8111991323834388,-2.143189490076073,1.5896791865938558,5.547897284777249,0.38986405119053896,-0.07883346125742666,-0.12406702802708951,0.2523168910065019,-0.36210927843352875,-0.9228873659088428
-2.339467744492726,-0.6734508446457549,4.908805096741776,0.3943864907538658,-0.31702158880097386,-0.2568271849278367,0.20298788770550377,-0.421601440047057,-0.8573496782580055,-3.9021729570153867,6.057881746047934,-1.2407484488223344,0.4966557372957681,0.5987428431409008,0.5587352598393516,0.572345949994799,-0.7355686274394129,0.3417323088170757,5.550358742224157,6.140765604266146,5.597032924357306,0.041453029021905535,-0.5874656141262112,0.09187959485229798,-0.5467990406728811,-0.6855367997009527,-0.4837754281647557,-4.817734625756942,4.821529007468148,7.195889715783853,-0.07145877711149771,0.19915661058818035,0.08877935518890176,0.3384556806665106,-0.5487569513399416,-0.8090017717716457,-2.451070276582874,0.8005776519653153,3.7974969468442836,0.35595272097025027,-0.11751910724331448,-0.22912273468953168,0.2596125817248109,-0.36998359050905355,-0.9163392587563884
-2.25893722369172,-1.0927707859257128,3.33294267539831,0.44301414114405296,-0.4449310671625623,-0.3566576603438941,0.19734428721699,-0.4315941773490667,-0.8581048965966809,-3.341963590088778,5.6892373750403324,-1.1837142872514101,0.5685633178224727,0.9712640883563398,0.8927431491397905,0.5463019402034224,-0.7427021626936267,0.3614394993262163,5.628325094062908,6.239133806484554,5.489421351595476,-0.2763682559660289,-0.6881628715617838,0.22916312701683772,-0.5579795424070519,-0.6766644741945291,-0.4799131828229543,-4.745062508995891,4.73197753531192,6.9499587909998395,-0.2770410276134441,0.19748345222219332,-0.20957551406185684,0.3455672887774139,-0.5428722282958646,-0.8152913002731663,-2.3005889442274947,-0.5579445949697687,2.168937701497035,0.4229403892340092,-0.17652351112663972,-0.3314205734397126,0.25763478449337174,-0.3768150170212066,-0.9158874225909872
-2.029976223563899,-0.8580980641961843,1.7593530106570463,0.6062365511115381,-0.5757092075065563,-0.37758219370960905,0.18537254630103572,-0.4327849107865433,-0.8547104036563228,-2.9259027794896073,4.972663659814159,-1.5907393633542433,0.6709968585149055,1.284400728716852,1.3292380038562497,0.5075415672065727,-0.7416553560497089,0.3925074998089533,5.663133351468676,5.5545127453787275,5.356485853824169,-0.4947009970428975,-0.7641512047628292,0.35899617392011257,-0.5725439041003809,-0.6553563598653862,-0.4786126593890767,-4.664364266783007,5.080723638936319,6.697630582100099,-0.440997499515129,0.2027746138009298,-0.4029298029636025,0.35540180359207746,-0.5186952115663801,-0.8197453049231856,-1.8477893432150467,-0.24907064302937568,0.6883878656337865,0.6147120456169068,-0.24058464323789447,-0.36143676576625794,0.2532497381093847,-0.3743807166504527,-0.9117240385208791
-2.3402500199419913,-0.15429571013607032,0.04542018943283955,1.0214198221637723,-0.7279147730954056,-0.4047606207271059,0.17232937789411984,-0.4608386666224663,-0.8428074088059816,-2.9898940668129215,4.8386616938453635,-1.826184235256783,1.0147009463734455,1.5495754405073352,1.903770628501851,0.4535602944545454,-0.7656353703815788,0.43575203848974564,5.72089839147237,5.1481151226607045,5.7553285169389765,-0.5775690604209273,-0.7852337833510036,0.4447978558736051,-0.5920304096684905,-0.6500994045191164,-0.47320578855361606,-4.799842635730799,4.992393927481684,6.445374526411466,-0.5335787808812232,0.23416274537771972,-0.4794515241330209,0.36665609557951123,-0.5130824671980169,-0.8233386101588971,-1.8840782515449543,-0.6602148660969531,-1.0047545713600365,1.020343562393509,-0.23300077640327282,-0.32384805081950935,0.25509829188740407,-0.40325202766359736,-0.9016271352673044
-1.895703610681156,0.6576910665453328,-1.6746974004454929,1.4828580501161723,-0.8479942696652065,-0.3040374655904045,0.1614954522389264,-0.483774328349847,-0.8289407690895648,-2.5040787729631373,4.453494981941101,-2.2832503606954404,1.4310626085528522,1.6956958656167946,2.6774043397283154,0.38313904982263935,-0.7730470680237501,0.48216613087077004,5.999010652760625,4.600504715949984,6.008692581121828,-0.5896932388493045,-0.6883950926982307,0.50078814049597,-0.6029282755663762,-0.6266121686336268,-0.47243581561183423,-4.708124816559447,4.967468414027823,6.62193519786044,-0.5751927628127784,0.24480806878385925,-0.4839143240813606,0.38406350620908664,-0.49182431475008515,-0.8321838680790393,-1.613814872997093,-1.088482118927201,-2.0267339408294633,1.4165614304614154,-0.2325822772474393,-0.15947533250476076,0.2562308360436936,-0.4275312948775377,-0.8822280773188335
-0.11864448566220273,1.3116939343700034,-2.663394425887554,1.8392853100240847,-0.7170204986808519,-0.06705289066900703,0.13958770666439793,-0.5315913948656809,-0.8070704475861656,-1.5391049201741576,4.957187857413014,-1.597010115153525,1.961260295181563,1.7447699048592271,3.7014110562902705,0.28006551220923065,-0.7890406685527714,0.5370913617121176,5.484050498867472,4.883668046904987,6.581480453168546,-0.6591028258495689,-0.446945502013896,0.5989336322203482,-0.6234161713719132,-0.6197152386113527,-0.47363365814293606,-4.9255927030144235,4.164416630414339,7.066093106602372,-0.6698258370428974,0.18209348296765995,-0.498953748194648,0.38825530794313345,-0.48008348453863625,-0.8369787773762389,-0.5683666108092165,-1.6761873246679204,-1.943505875835688,1.7536409566238973,-0.4071662410202813,0.07236930704819391,0.24093837626989617,-0.4708040837740895,-0.8612231759817347
1.5768758354269155,1.7448915662426356,-1.5258168453864274,1.8428342830946656,-0.4017911910948404,0.24962487918386425,0.12212623870556034,-0.5652530450023636,-0.790787768205976,-2.047375261154513,5.833019655428746,-1.2063704410621157,1.5770138997277414,1.7661961726112188,4.753027633714744,0.15075059885392167,-0.7901036236799828,0.5737460919840276,3.0084184088620054,7.952396591790684,6.965597301051943,-1.2927120057772312,-0.08219771896081762,0.8986187986471493,-0.646119543992811,-0.5835531481430828,-0.5007805435186349,-6.037583601627557,2.681776004137509,7.752822585543684,-1.0345993063113799,-0.2167187593941168,-1.0746324590396878,0.3945181474258638,-0.44622048859720964,-0.8655508427283356,0.9628614686740582,-0.9090025091989082,-0.5427595879456434,1.7205592020365121,-0.7602073623891094,0.3617256157681877,0.21397635566234877,-0.5000614625349455,-0.850638931710083
2.4958962750712295,3.329829737017712,1.9369800723536426,1.0057198011462454,-0.16691033761935042,0.49248738373500595,0.11151506678046912,-0.5862552641415888,-0.762270195770649,-3.218099421750671,7.316165365880639,-1.0747916901044712,0.34263955841687105,1.771499738595996,5.529656756800661,0.01241872024432851,-0.7992513259679764,0.5973698905183661,-0.46160371444461357,9.695080017480768,6.614089941869102,-2.5257493915168827,0.25127051040491793,1.2866987940411496,-0.6597047229799998,-0.5310117276822441,-0.5230228237264603,-7.758523461875747,1.7984326181885686,8.570398297158945,-1.5921677661618467,-1.1084949175530725,-2.236549990340525,0.4044638843041065,-0.39386204595638963,-0.8861791507097654,2.4944442869503654,1.1659416635323805,3.528196677601467,0.8609036840068759,-0.8533851488973684,0.5453109520143582,0.18997033649495557,-0.5225667446498354,-0.8265907640737749
2.219341376933459,2.381957676088999,8.108591557822715,-0.8950066046588719,-0.35566112517974907,0.7829939812788298,0.10113547925466883,-0.5590970379259174,-0.7839823789776106,-3.4919729998039246,9.479259978970862,0.657170867999879,-1.8795478041170337,1.4840071968748239,5.622781033969984,-0.11970142432364135,-0.8126077050363715,0.5436496196746697,-3.917438121957567,9.853364853149554,4.353668514855789,-4.304166479356559,0.42914503935405307,1.8379521443003266,-0.6691526868229649,-0.4230687745448682,-0.5903323130218358,-9.98096703998147,0.8241396942496815,9.490617757383108,-2.5892517976598617,-2.665873884333142,-3.8567737227493266,0.40125238012645065,-0.2869430049610963,-0.957517713314879,3.726513815539292,-0.04338399090731673,9.360795134340336,-0.9068311074606692,-0.18317844070282346,0.6261595146065726,0.18666106625522857,-0.4924143033423831,-0.8469348207656222
2.105866071039987,2.204280191525778,11.969164348746059,-2.6460898248302027,-0.9630639304820177,0.9571405981461633,0.07207634831951118,-0.500858776030653,-0.8218029284013295,-0.5329759934821889,11.25988304439495,-5.949792193966847,-3.8531793264631986,1.3062791295415004,5.169331422347566,-0.2479113420243057,-0.841499674359715,0.4508726680928903,3.118699289392816,6.155536580549196,3.2013959098508042,-5.892232750077081,0.44332157473324163,1.9829779759664825,-0.6817054278359124,-0.2977689740171624,-0.6565957098769547,-7.954955238256482,1.9430302566022666,5.93394260556823,-3.5060165805960395,-3.672903385277677,-5.20791603593524,0.36782429380485765,-0.15675326545277396,-1.0302573181229289,2.2158086905533922,2.1416503820520094,10.92356475915571,-2.595842498086148,0.7834332036217521,0.5881211932644691,0.19979363001122177,-0.4388305637636094,-0.8769176743314344
1.207202461222553,1.1321358131851822,16.69801797036606,-3.249026314084117,-1.219223892506897,0.8937277697706975,0.03428618835081858,-0.42355089352788,-0.8605909853967253,1.894386837907424,10.119670629294102,-7.9431065329264845,-3.853868559952862,1.6234638103031527,4.770189366771703,-0.36871243373837304,-0.8446340145420802,0.3483654949033485,6.046062233613798,0.7415939290425194,0.18153063431337974,-5.563588064258269,0.6287926598630306,1.0665064754980647,-0.6768764303768309,-0.18016670552308764,-0.7067435189276775,-1.03467539384436,7.432573820727149,1.276490572970855,-2.9889210611741306,-3.0625366067368627,-4.726439295616984,0.3216040548962243,-0.04108419744792402,-1.0804233411974986,-1.162428468639953,3.834760431001567,13.892787737573515,-3.3409011995468956,0.4413005545325066,0.33730267241961576,0.20617003544477527,-0.3634639055898192,-0.9123958884136288
0.6482887609725164,-0.07137469340126808,20.910384219144625,-2.3345098071236436,-1.4297968482295744,0.6687937112445828,-0.0028476889050725648,-0.36432673784252284,-0.8871950664239097,5.334815196537795,8.073560112593398,-5.57737847320265,-2.4808667031520173,2.065407328657499,3.69960376414293,-0.46320691654546053,-0.8287029030040062,0.2672140692893613,6.513570701728024,-2.2305736707333947,-0.35506475728980186,-3.6786490882195193,0.8665345614561903,0.22517945624463712,-0.658709765726213,-0.10761264726061257,-0.7415667513180999,0.8298564645684869,7.396805258598624,3.865747439137824,-1.7725045494959213,-2.449290304346554,-3.0901847045819486,0.27107947453255193,0.028103019983529983,-1.1147888308661693,-2.722027970243487,0.6036996696787016,20.923593878281405,-2.5412966753731103,0.25767633154734054,0.16144703690028436,0.21249506779552657,-0.30206378685307744,-0.9384300163590001
2.3353965615291252,0.9619938966571012,20.866745339749976,-0.9785067392728324,-1.3149429549856921,0.5272781494857774,-0.0442868167331432,-0.34296339944615295,-0.8889526885138396,8.15032190209924,3.020045995640198,-3.8348854098485177,-0.8333081975611946,2.4110923008123897,2.140464795523517,-0.5305437454516452,-0.8098317837266388,0.22112144364188288,6.152240973541706,-4.117250708106381,6.077202321291692,-1.2958426386243846,0.10097943805159015,-0.36668531226485895,-0.6640458278367898,-0.09371287780649554,-0.7448672779843247,-6.338258912573824,8.243002684665028,4.833655926326326,-0.261798481093217,-1.7332327177363889,-1.2246457734493739,0.22597973183570272,0.041471518941819295,-1.1272831998890618,-3.032906215527946,1.580789654347641,23.120779896596076,-1.2326458548887667,0.32639547332314345,0.2395655949019019,0.21332707844120644,-0.2744308459072613,-0.9473126857196437
3.821696423058954,5.420671935804083,18.90762262745199,-0.2505819431875251,-0.7782536748914094,0.3539707271518093,-0.05816426683560232,-0.32437985168806055,-0.8806532485100528,7.618849602378368,9.531255904188521,4.223323359371198,-0.43301439771038863,2.174340117931002,0.9342461851473125,-0.5565967281397283,-0.7902589703025078,0.18860869331653202,5.697179821661306,7.321746573098545,8.238040611903594,-0.9558716450611213,-0.9762417459559739,0.23856022087929327,-0.6784308418950993,-0.056737569710824,-0.7176160142930313,-6.950357625465356,7.164751349800819,14.723997250338913,-0.7244891803999357,-1.3936454084582404,-0.8662234640805418,0.19848035628130645,0.07962333978676743,-1.1276028783732537,-3.4994639025815935,6.635442275451397,24.369802544594133,-0.36597406991496423,0.3421733343455352,0.31965158126581433,0.22609939256743608,-0.25354154389349415,-0.9359679583435213
4.955733485364217,6.835401891219882,19.86714216811662,-2.8822352188268274,0.13747025513795202,0.4406681981963025,-0.0625642701267929,-0.2603640501419973,-0.9098760628586495,10.039089363594883,2.3954703790226746,2.178939917043855,-3.1043285490469783,1.2533582665668639,0.08355630813644523,-0.5667068709621915,-0.8077962075566936,0.09369740943732305,4.427151789437567,1.519002271784654,4.418448319757605,-3.139835506578358,-2.1627866049541624,2.261493164155637,-0.7250983101739285,0.03138682539802526,-0.6900385923296952,-7.126949020060522,10.297047429343401,7.178223175463952,-3.5386388485255127,-1.180283033349431,-1.634399884686272,0.1631027526001369,0.1689552799935979,-1.1488547986314648,-3.994895744434026,8.003532287419533,23.993872392431886,-2.7566915523507802,0.09028611800819476,-0.2907509291865764,0.2238626324200125,-0.19674897636910044,-0.9622710510519858
5.0484389959037905,2.714093844852013,22.472533010312862,-3.404935548201868,0.9999896878289497,0.3632815517666766,-0.03909174801398636,-0.17081819601415796,-0.9202158091891705,12.072112421127121,1.320603133189227,-3.006558167266532,-3.0525520241381177,1.267518446541061,-1.5723146740374259,-0.5369677698884464,-0.8289894129974047,0.015130196272584976,4.812681621906163,-8.12803574793106,-1.9527152193434119,-2.3342014729213933,-3.8120524372481817,2.025063851399949,-0.7822396729483156,0.11701818849714322,-0.6040304167643871,-0.1566703378939964,-10.401721839169031,1.2662918683538902,-2.9956803607481306,-0.4692657026801215,-1.0805740932541756,0.14886990349475118,0.25729569199122815,-1.1375794928514749,-3.8157849490561078,3.68723365980516,24.56608779917166,-3.147947770001802,-0.7638779620979599,-0.3705965333725472,0.2056134221868197,-0.11261699588997703,-0.9769488524719917
2.646265016790021,-0.39120179520245046,24.176719996051357,-3.171043413022661,1.497802504832826,0.30954422022726424,0.0019174841893336231,-0.09134106747825473,-0.9244322876702851,9.987149770069983,6.170486812043267,0.4681833200801159,-2.21969192825625,1.748986535589507,-3.278194616305546,-0.45779544049717724,-0.8670536873923929,-0.05201619168345804,2.9490221272643007,-11.218674126097207,-5.10492346133295,-1.3331451605307703,-4.439607915294042,0.7680275041213522,-0.8385017234569593,0.15254864383499175,-0.4998962668132399,4.837711311512257,-13.379742025643264,-1.0960329778751485,-1.1999398125134189,-0.053973046903623485,-0.9504934925875088,0.14673738394126637,0.2914514467972949,-1.132969979430098,-2.2367971951456895,1.5267193283717537,25.09932374168566,-3.1337025538804015,-1.3257775481271528,-0.3427131548312716,0.17830373769807234,-0.03579366990093745,-0.9882492658762362
0.2035199393690595,-3.7932666693209427,23.457593676576266,-1.2157647500841324,1.3851774748011536,-0.055771027661027206,0.029842317634051308,-0.05651553048861797,-0.9199422036545657,4.925724147865686,10.049201963262384,-0.21438181945611015,-0.17172938788371614,2.352461640760395,-4.892679097725192,-0.3452970252460708,-0.9115316120177355,-0.07614397340934272,1.4905077751795728,-8.723925130582282,-2.0238486048554036,0.12614466948903874,-4.085692509016688,-0.5304631281949895,-0.8964595067304906,0.14131260856326658,-0.408424692723849,2.314352395614738,-10.007416503714046,3.1865263496638563,0.532592172286804,-0.40158785066182534,-0.26333892697555894,0.13060870580621756,0.28610977616094374,-1.1318300024879,-1.1016962792865508,-1.0671857221262733,21.490518964533873,-1.231754451562515,-1.2608331486985136,-0.20514125169970068,0.14181503887833125,0.0007168241047495784,-0.9882938966158499
0.44232984286529825,-0.0882528859940789,20.02410407449458,-0.5165897208652269,0.6609256366795032,-0.25617017034420747,0.05577038564364683,-0.046079371859513475,-0.9301351935671457,-1.6368925312565317,11.10507895226492,-2.3895844196981733,1.1096834592055969,3.041542030669974,-6.555500126324038,-0.16898875065309266,-0.9617976411807688,-0.0734400859804521,-1.6867126611157255,-0.39433542721750764,0.9129400447905077,0.640208343016536,-3.463068215894581,-1.669995975268127,-0.922418951949979,0.09166620025726802,-0.33572731087133345,-0.4901104979593227,-5.4143820042885755,5.972188674606998,1.7017022234665227,-1.6139175079984556,0.10728406557428867,0.09929952465408724,0.24184383612706964,-1.146856571806961,1.434243555151921,0.8511285061610281,18.113236665242223,-0.48366193672278573,-0.5718162913117639,-0.34084955287784097,0.13670479225228474,0.0054158828277936595,-0.9960813460402997
3.2849818223115568,2.607614554513743,15.093550223744437,-0.5834598192580541,-0.18223071587616915,-0.06361197343753615,0.04165363390489362,-0.03236390366129213,-0.9320964802493997,-7.68528657087002,9.244603018173395,0.14524471013509588,1.734848747812054,3.000598361092107,-8.030751093892981,0.028918271889591497,-0.976499139419721,-0.03963883690856719,-1.0472231807991716,-0.014859774320759453,4.322854441439938,0.4769529606564682,-2.268290507250408,-2.132499787277766,-0.9541084365433993,0.039354141442599196,-0.2851927823806667,-2.0873949708214585,-3.093374338007328,5.760781585337965,2.1667341410431664,-3.2692611216914487,0.06626952967769585,0.0067055769781624985,0.1892053563797324,-1.166751897832872,4.499717783436634,-1.0020783986805444,14.838230081436665,-0.5012868151689467,0.569149351348157,-0.3632945005140406,0.14285823221778893,0.019324050361688487,-0.9986907410736454
3.520009003126468,3.159115676139806,11.477928080056799,-1.380894574688358,-0.3658051613669116,0.18260217541580945,0.03709899243927635,-0.006464998904076505,-0.9371985449781496,-12.426554460685855,8.230159319803514,-2.1891131594101765,2.4781569364149263,2.4404104719774176,-8.729881057375554,0.25330033999887724,-0.9518330932404745,0.03202061516778572,6.086998776754472,-2.2082635171109963,6.255953390029544,0.7386881112291787,-0.46164381109787195,-2.1623327246759922,-0.9484457735917369,-0.02261501640877161,-0.27916708030640536,-2.4616592549053604,-0.8563954792032497,11.62325229364157,2.4284376243933186,-4.811030135728818,0.22359560603706086,-0.11723271820445501,0.1189399426881387,-1.1682962743982097,1.9865697308716057,0.873692852513954,14.922463869033047,-1.2661963658865119,1.213876701082419,0.007733436626395681,0.1773688407550816,0.04313387564712217,-1.0002706307099378
3.030871244549552,0.579215890237582,9.667544972688358,-1.9905170572405064,0.34178296096664995,0.5776438217322714,0.04212592845184642,0.04819752982375839,-0.9293059855451045,-14.524838336976245,8.095412263260348,-1.7288367799665525,2.8246048382663966,1.7901095176298152,-8.754698374863764,0.4519617155093453,-0.8626636090922394,0.11435728375491327,10.292843862974,-1.477193753900473,6.888104504977831,1.8711750728828216,1.5042245189748589,-2.449278261378609,-0.9378392498165041,-0.08816957986263012,-0.30877218433897824,-1.6697995449311873,-3.1423187872670444,9.572225596697988,3.0976769010499083,-5.808014045959726,0.6848853653877904,-0.269101425857143,0.04827138600965598,-1.1354997633660517,-0.4854515958563996,-2.7647951433123152,15.02797149934505,-1.9861576483207648,1.0335945310965213,0.2637414058984514,0.19440720213275864,0.09600139626312906,-0.9909498608125652
2.224622882200582,-1.1576760602200995,10.344419098138514,-2.9366845767014964,1.3558378732844452,0.930104540454494,0.08188585914740526,0.12327159785602107,-0.924498398814576,-16.88634903111235,8.855914443662664,0.2879549556616324,2.1370567536896528,1.345553520746624,-8.564463111736648,0.6278672813556254,-0.7293899763119684,0.16986213345157888,11.899074309587396,0.6552132190133165,5.593110445722435,3.216201039729828,3.4504270716244525,-2.6454494889031386,-0.8943421556091862,-0.16932952687313257,-0.392323031388976,0.7284858698293738,-4.437701535744141,3.611165134705283,4.073496493929874,-6.2191884968522935,0.9027916400582817,-0.42130801858752104,-0.03718044741982221,-1.0818025822207666,-1.5049974437719869,-2.9202146105996967,15.402877156100443,-3.076700050142855,0.4834103752375624,0.49595433403956796,0.2132500614548265,0.17550671445467683,-0.9878321543110637
-0.06469503159388487,-3.986213526570579,7.453717750707348,-3.7144493324899575,2.346575633810992,1.1405101535810427,0.14625817606656957,0.19848687978605425,-0.8944983707371841,-17.77672754826204,10.238122848774632,3.14897525384708,1.3246181589783663,0.8804599073900627,-7.944134794496908,0.7629824969255694,-0.597268156860679,0.21374706406982763,17.098456974002012,6.405453293163235,7.693977117848753,1.4989905926779534,5.274298581717168,-2.00878742247463,-0.8189365264558016,-0.2447236646907848,-0.49611048143817565,1.9750119284816596,-3.944066754284271,8.123773968915474,2.4967116640703324,-6.183776092043631,-0.7183422519480142,-0.5577365665089112,-0.11825737940039402,-0.9931197478971013,-1.9341360835517403,-4.328052615715724,10.906018608218831,-3.8466372636451602,-0.4441557029418042,0.8162986857944486,0.20594564084826314,0.24793893700016842,-0.9683943265074536
-2.8431490394036802,-4.778532030046615,4.025870881953556,-2.903766920143238,2.8125890738707437,1.0747580663641312,0.21402095464330045,0.2692869178969626,-0.8564407754235693,-15.303643924179298,12.871169241401429,0.27965596307935914,1.5428305546806944,0.5647275272429978,-6.54455713334819,0.8386610692349595,-0.4467489817504375,0.2530409329725564,18.35742232828234,-0.7005868979264535,8.969953910812023,-0.04589768195219937,6.393351654065794,-1.7085197030718102,-0.7253533183458177,-0.2623044009534221,-0.6208851415190872,5.063413649184903,-0.5629227148524116,3.8002721524350354,0.666811102947497,-5.771837955528397,-1.5976096060279255,-0.6737904249297946,-0.14642859399787111,-0.9001280377411502,-0.9842280679490445,-4.0797300801488925,5.069757933419563,-2.9180876942419802,-0.9857014644873238,1.0859106446895468,0.17593553949755977,0.3201896433733119,-0.9452940891384934
-4.173368574773664,-4.246146839278698,2.018424887145707,-1.4876990926032647,2.3331945241408176,1.0521527627947986,0.29145589538915406,0.2939444724502167,-0.8406418245679133,-12.188887139581476,11.638541772571894,-0.9071138418574425,1.6444529966011971,0.13180654662992897,-4.926048950453479,0.9034831226750498,-0.33070924546555863,0.26412931566553155,14.66404482761773,2.1947241291606843,15.573632313676299,-1.0251100896824779,5.97613086854994,-1.4334077864640322,-0.5943682419349675,-0.27167801292528443,-0.7420238284867305,10.212659794355709,6.535248919695014,4.325558432777382,-0.8158272129074213,-3.766623202237304,-1.4935101126735997,-0.7191127063536236,-0.15857761881064414,-0.8554141127665086,-1.0414835107866325,-3.4292527312888463,2.391799262941716,-1.3632515168834465,-0.2657839988458984,1.1555574451797996,0.19433133890624996,0.34382227853165315,-0.9485837250739687
-3.8572126934682465,-3.62693701514435,3.413700404777084,-0.26795004194829647,1.5679584659632864,0.9446800829211784,0.3312479146366289,0.3013808673752288,-0.8271311545353852,-10.690821762069648,8.792900772324366,-0.6826073942292975,1.8213406633430465,-0.19092468612406213,-3.696970104187826,0.9305144439180116,-0.22466388983587818,0.2739964984060308,10.431946576901778,0.11445786359579208,14.207114044092359,-2.2039976194029176,4.9195366045977575,-1.1417196297384191,-0.4911098622710187,-0.23487412780788597,-0.8249597777635137,12.933017027489157,5.9512754634944915,3.1659316904288963,-2.2542843495938127,-1.217803632338891,-0.8396888583877978,-0.7390714882990689,-0.12293426125724273,-0.8481601744172708,-1.6488890865398516,-1.0817262284690112,3.172624469677113,-0.0953363469333132,0.9185409738862909,0.9374532494745728,0.21997597299911628,0.3463965461708771,-0.9451520442373171
-4.092191850489594,-4.985337577632059,4.7152249637834105,-0.3464660383920079,1.3035023509856143,0.7085901575296711,0.36391623636630727,0.2958924434321986,-0.8102321816971386,-9.614180614382978,9.11649785146231,0.6764755521662902,0.9690620861965127,-0.3277134255998477,-2.6000957395563487,0.9445746280329298,-0.16005982594768153,0.2777547560853825,12.02288684686555,0.33618783771007854,13.818461044674011,-0.7509163846195586,3.9831059001370264,-0.6330066916174711,-0.399771762613619,-0.22940276058720893,-0.8747767674428534,16.88449034149299,3.5931830522419306,7.243626110149757,-0.8925213437764138,0.6414687616852521,-0.4027655788501965,-0.7233854966637997,-0.11335980789928424,-0.8617252841593457,-3.053066327677278,-2.272628447126461,4.6427564754240285,-0.2209884417134705,1.1892530959352188,0.7075059026033277,0.25145751930619337,0.3428057919659826,-0.9344299152343908
-3.198114039370258,-5.076375235646905,4.827461970208328,-0.20327797575735498,1.2285051525190636,0.5555252494739594,0.4019708809288794,0.28796417296115256,-0.8055344866714647,-8.55209418665992,9.239410499102597,0.11989797552622156,0.25110873748505486,-0.31869808965790714,-1.377019123790248,0.9597801569732267,-0.13387849083794048,0.26165307739907046,13.102357599546883,2.1292485273471353,12.114090467629838,-0.037828092529789664,2.8992705232384965,-0.16726462544702447,-0.3281994396222408,-0.2359429589352085,-0.9131362397044298,16.62774141984028,6.023493229341231,14.666302153108031,-0.11828041844064807,1.0921553037799012,-0.12585780366324825,-0.69452564590179,-0.12472672625617112,-0.8885716491285999,-2.337157533785735,-3.787561624344311,3.087258019826472,-0.12020446557856969,0.9372268105282001,0.5424125222412438,0.2836452572896288,0.3319656417769093,-0.9379074839810934
-2.5668922574781954,-6.012458897670257,4.637496605231021,0.07165407917711568,1.0218787379138927,0.43433904140174817,0.42052076497349905,0.29375399812962144,-0.7935299458035378,-7.953951726126328,7.594754515635057,-0.10854117693726242,0.020822276866441614,-0.21578537545690032,-0.3511123184894285,0.9523372885907384,-0.11321524776057888,0.2586315213815813,11.573182756742636,1.5126049139026865,12.415291738953153,-1.0217675519344513,2.1325826077801144,0.03260004556199398,-0.28545106817969185,-0.1997272319226001,-0.936201747350222,15.636582011653244,5.744650820499323,17.880569714765986,-0.9833671624935958,0.1914629041461852,0.4096727655668637,-0.7007512398107225,-0.0821761026811507,-0.8971027943540653,-1.8535733359507833,-4.3728404729714985,2.850490058205901,0.11421426633055291,0.7303823319815067,0.4017455182784616,0.29684771740793237,0.33727138482058705,-0.9347047439699361
-2.9322271133288527,-5.738723590975439,5.212520262131564,0.5539140915651725,0.8472815606153795,0.3470158373557278,0.4407383803630892,0.2770956272717031,-0.7944902485259477,-8.585026528867992,5.5830325388437,0.63644226529299,-0.012714688642370194,-0.15165447398685172,0.40918405092390747,0.9514130938290999,-0.12477977410858578,0.2537019241983608,7.805047122945097,-0.36480327848326594,16.18526227847854,-2.4058330278733586,1.094715145160425,0.13921819834740837,-0.26411766777421547,-0.14245096871236404,-0.9606174051912749,16.491787149328704,3.0410209222046967,14.116493922145322,-2.1693155894026086,-0.24070974381395074,1.0464854968616795,-0.7130435055761789,-0.024956429088088684,-0.906533274418984,-2.272241650249666,-5.054594784799768,3.2344196011987476,0.5825760755629042,0.4500097307634912,0.24569634818184688,0.30459854084047877,0.3201826406518833,-0.9401699989369148
-2.878790961550342,-5.958403741321107,6.2518644416775935,0.873881239495688,0.6332201220731185,0.31457298835275893,0.4557911830655467,0.25189767885380887,-0.7888800028691136,-9.585803768819053,3.94357798054405,0.4719608909904912,-0.10773094965093709,-0.174321687680717,0.7898212768376488,0.9473813722504041,-0.14627981645663352,0.2543189016242305,4.499893182686133,-1.736490958111157,16.894043725481566,-2.719053340572322,-0.11517246927639382,0.24150719793264014,-0.2692474775435074,-0.07408769570811996,-0.9623206532290156,14.155602110376046,-1.9355736939662997,13.102313627254114,-2.4111272691094183,0.3498287355728961,1.263980438655372,-0.7121249677702661,0.04443957755954026,-0.9158457657430792,-2.0398952467353095,-5.247871673889576,4.4239072328800155,0.9237329582385272,0.2260334708408092,0.1520251343053392,0.3106244313057892,0.29890631336655127,-0.9375999121003437
-3.086794731346221,-4.857969369321108,7.027140837059699,0.787388385745624,0.43836660655964127,0.22934331882853096,0.4623090206188309,0.228437301686728,-0.7854802008443906,-9.710530724947537,4.371156481325676,0.1769790927634486,-0.2507363353385644,-0.13713731472981222,0.9556495559506547,0.9436519198432662,-0.1787783518599843,0.25414586584744087,4.769298420541626,-1.880580385506344,15.212238431349705,-2.3499957409224517,-1.14983932818443,0.2811359134310595,-0.29952215843265995,-0.02063883428982406,-0.9520206761830322,12.403700520168139,-3.730360018006146,11.830588070598301,-2.098189662401149,0.9210461421818794,1.0947094674181033,-0.6982906904576041,0.09772166673434575,-0.9296217222762728,-2.084024019204519,-3.809779620813733,5.508116093955901,0.8173050235239503,0.0030540622635102503,0.07306134216674098,0.31053045397447515,0.2730371739452756,-0.9394498082768359
-3.453787674408992,-3.8688270017292066,6.763889519258984,0.52953472967998,0.32404201198485716,0.14144354664514078,0.46960246907570624,0.21231346793957614,-0.7942765687255736,-8.942423659209998,6.108604401675875,0.05176736698332665,-0.5886363918124109,-0.1523341081951703,1.2853032293009492,0.9372331585786635,-0.21490061366233962,0.24280700082001708,7.097444059899681,-3.17483808954734,13.536112666307714,-1.021611551535533,-2.074486171161532,0.39155858281709,-0.3521201150653216,0.0026217785938463124,-0.9410378532606377,12.424373772301166,-5.528142510059647,10.844021357659866,-0.8856457599287272,1.5123290227319575,0.6665604939364993,-0.6673791261191843,0.12251881180246893,-0.9618427603511422,-2.2662662717749362,-3.1580531776539336,6.45352484074976,0.5422202843811201,-0.16750262159436874,0.022688994483466694,0.30484707654059073,0.25431878472247943,-0.9505378174691085
-3.531591648625614,-3.558278699007553,6.639611769396833,0.2789030454397219,0.26341987774162123,0.06972815067128749,0.48181646662519884,0.2147200890906149,-0.7942510442987953,-8.788767960031722,7.519082568776452,-0.5334768074939884,-0.9837797780468339,-0.1877569736357325,1.8769160706686576,0.9281531108140657,-0.2564573788414182,0.22863520564637932,9.41592074704827,-2.174444091647347,10.452242306278587,0.11722294847690717,-2.773118797175009,0.451273884490351,-0.41420549682556207,0.010985160477809596,-0.911289462108372,10.673328229836866,-2.064992160678178,11.30211161721787,0.16141018307858554,1.831084804738357,0.40750002876175395,-0.6240557566057047,0.13384159262749415,-0.9911864087164519,-2.2483527325105785,-2.7177306030876545,6.508768161371783,0.27213393067552494,-0.2668832852946966,-7.143107271333649e-05,0.3043713850284852,0.25777570847421266,-0.9573550866995273
-3.875290498246086,-3.9155654310218613,6.951565857462849,0.25273127514349225,0.19750726992347656,-0.012312894124429494,0.48960628649949267,0.206397122358255,-0.7947354460928544,-9.847112844320563,7.4012958849691195,-0.7506875869555821,-1.2689944029712446,-0.20784504157726036,2.498828825675021,0.91431036969962,-0.3215361594838086,0.21121058299514012,9.514277733474422,-1.6053139753274237,8.694227216531107,0.29964412056562517,-2.9873786864053056,0.535207522936444,-0.478747366455734,0.00891215850265284,-0.8767752163328538,8.126835000828436,-0.5571908877807108,12.898970529663172,0.30305092586407234,1.340188123920055,0.4554588284209364,-0.593231433236986,0.13221378331926512,-1.0145468661545396,-2.347166869331647,-2.8008876269541587,7.035814640804075,0.2306861502767601,-0.33595056414226004,-0.07953808715945622,0.30045289484360954,0.25441051561444733,-0.9644534577582714
-4.325775260556766,-4.070817933105608,7.719499859786373,0.31339831466490575,0.035244440499236106,-0.07550035544348478,0.4834953095258531,0.20275533878571372,-0.7967053569635326,-11.130675482032943,7.753910484015471,-1.035594239396717,-1.3922338160026908,-0.2541708335515466,2.9816740828761445,0.8836906310764598,-0.3981467040568323,0.19596702435963423,9.865662804593992,-1.5674595975421801,9.033304249076497,0.15616649525344303,-2.8818098116632402,0.5827850166122477,-0.5454290343753705,0.012064092121746021,-0.834007583899948,7.952039883554098,-0.9646367068654075,11.613745570656988,0.1268195538019689,0.7930221466212629,0.5629265753814378,-0.5814805518741695,0.13638735489105094,-1.022298181690124,-2.447048285278093,-3.4370936382719712,7.690311402697221,0.27084474101973316,-0.24122711374355824,-0.15248296089368835,0.2889584715159482,0.24908128806883972,-0.9644823044504935
-4.213161785276975,-3.7031418670671017,8.11807757211592,0.4238129358787622,-0.24569352338284775,-0.09182498946662779,0.4788081366445121,0.18762808357595118,-0.7938034139594173,-11.227324866529457,7.821521509772161,-0.9300234159104284,-1.40160411560358,-0.372163965091817,3.299879879026545,0.8438349286764404,-0.48364095693337517,0.17820706216139692,9.239899804127024,-2.0712339632501915,8.752053841757563,-0.2519882303674629,-2.658560714898142,0.6066399050817181,-0.6023059998895596,0.017933338186497,-0.7852123323837488,6.946784048618692,-2.0051390450347406,10.152671777624796,-0.299260590696914,0.5011826509456018,0.5712839953533383,-0.5726797476500624,0.1412515799832453,-1.0224863153165902,-2.139189606283525,-3.4341260052378426,8.1451496465443,0.3671657518085418,0.011048439314257181,-0.19413927228818878,0.28646528382245284,0.23465455292320417,-0.958701741661051
-3.7779283600636293,-3.398173685618023,8.532625103767842,0.33262040583625746,-0.5292300865103498,-0.11882420944223113,0.46856687314171463,0.18693615867064273,-0.8018801305442481,-10.846606220738527,7.474731278189427,-0.6421915029700572,-1.4851746653244877,-0.4771541400925074,3.4232864454752945,0.8002391229604201,-0.5601241408326078,0.1458943703885473,7.860241991204632,-2.8004677553190183,8.553188371428686,0.1673597167749029,-2.3823199825321537,0.596274304791026,-0.647275685402146,0.025084261834572623,-0.749184093225021,5.107341553247663,-2.0603499049170133,10.220756904012744,0.06370751964717965,0.29212481302911586,0.6207916404995385,-0.5633704692677748,0.1488296903362666,-1.0272925000278246,-1.7320326670506248,-2.93420391259098,8.15662097463124,0.2800746292498137,0.28723031924148346,-0.19887507816721253,0.29694722941045293,0.2302321714458919,-0.9606790116879651
-3.596681794654736,-3.6746739365902568,8.874988149765466,0.17391659081504238,-0.8027140289245661,-0.16218651339727347,0.4485473902857406,0.1818778628229749,-0.8102234199613083,-10.403002476396058,6.988995523336475,-0.2157714702021606,-1.500221526795009,-0.5754824111206156,3.343634506625635,0.7519781530058436,-0.6304673773731666,0.1171501509863361,6.338105574771874,-2.309611714325634,10.37578493378431,0.68875148189179,-2.219447566164398,0.6334141554076533,-0.691781121129913,0.01789379419506787,-0.7071409543934967,2.7979231630277726,-1.3708032377843515,12.353069240532518,0.5014195510290439,0.1316965616679725,0.7634460955500826,-0.561178608088381,0.14444181744069054,-1.0290236967302633,-1.722201411787609,-3.349684514931618,8.228243391789652,0.11904882490929926,0.4636112094976281,-0.20044018325640553,0.3050006371126691,0.2294284014350452,-0.9528713947563048
-3.6456804505574647,-3.886120743853215,9.076754710391917,0.1154777631908732,-1.0136470084044575,-0.16908315153830775,0.4249048951913523,0.18221684905365015,-0.8307744509584929,-9.699272625937493,6.780791051709397,-0.42253652840362455,-1.2784695401778847,-0.6408261481330025,3.1700022084388784,0.6972869658748196,-0.691329396241592,0.073606476205046,5.661295014109019,-1.5242317322494194,11.1547043468093,0.830146990447418,-2.284533969323021,0.6634080856797688,-0.7309347819427067,0.01669068285293262,-0.6739789073207489,1.6209302796254392,-2.507445757864215,10.29367269725588,0.5345502078038828,0.2804770887115386,0.7642604261380577,-0.5584577422885948,0.14087247911484232,-1.0444204063857445,-2.106310141069664,-3.861857645303705,8.346624927208747,0.06847529813991636,0.5070369041687804,-0.19587887583041863,0.3162394689092023,0.23160983893191442,-0.957497754480374
-3.50189310985865,-4.272440655495436,8.807870179608702,0.32707224745649416,-1.1137367587863198,-0.16156631418058956,0.38876154323495893,0.17573553487435217,-0.8354881702824992,-8.84078320803157,7.522802034049966,-0.7860215171645597,-1.0439890988854148,-0.5996659246618935,3.0450201018951937,0.6316246130188821,-0.7467572084189747,0.05172429798506264,6.944302145035906,-1.0836279953251908,9.496059529577426,0.46941919338203747,-2.348683382902351,0.573601828014806,-0.7821664808418621,0.018735713728849364,-0.615890963351085,2.768818209807564,-2.6824416650120546,8.881070852368332,0.23367026514989878,0.7127655061143428,0.7027119859148133,-0.5501498963630338,0.1398979646601366,-1.0475769029649777,-2.458825490637631,-3.7858090054982307,8.286347491889119,0.2809139861961036,0.3978945301120471,-0.2100566356755449,0.3152350853783921,0.22401497135847864,-0.9519240144196057
-3.223882384554565,-3.958007959442424,8.905488375918258,0.5581702915517498,-1.1359675087193992,-0.21836767909165603,0.365815632633376,0.16971349858856044,-0.8467680805497296,-8.176542053875195,8.520859069273227,-0.6977928211787501,-0.746387254169844,-0.4416251740510778,3.0855129935338397,0.5746967019877927,-0.7898233453432103,0.035963998557090114,8.63183768016359,-2.342613197312447,6.643198992993936,0.5339277955924379,-2.119979507662468,0.3200260879584661,-0.8105268976921414,0.019548303325911537,-0.5735240864868983,4.26288723733779,-4.704265812749783,9.267514868415274,0.38671375823651466,0.8017916134448329,0.5607441732725562,-0.5308289779003252,0.14527348939927473,-1.055054635076807,-2.478686937445221,-2.8477222171300687,8.491733181119933,0.5023801209092565,0.20939842737380582,-0.26826130498746514,0.32279064523547724,0.22056292167955543,-0.9507219090747002
-2.9372773875765783,-3.680606018824126,8.721807017140481,0.8313179766662858,-1.1774705026234782,-0.3003956790036881,0.34089665549150744,0.15077006366451465,-0.8680782590914845,-7.374088100100269,7.7852689718648085,-0.5226130403201701,-0.31206331172054264,-0.22526538340835253,3.1091815744869096,0.5090104060177497,-0.8370296739950494,0.023708715494243394,7.563347125905289,-1.4019308181615378,5.46426602451236,0.9099135300404307,-1.6937076370918183,0.027456119995582392,-0.8343959036732657,-0.0039613180582897325,-0.5433641555711195,3.6078327427798325,-2.833104671890278,8.791294431372961,0.7890761982389829,0.5656058862519365,0.4713577177514705,-0.513756018832111,0.12406588152221426,-1.0661303429904319,-2.347191802069719,-2.6796424757661463,8.580335781062685,0.7605361394767267,0.11108830771989478,-0.34818174469487456,0.32833203375012004,0.20007884757413577,-0.9588906599200535
-2.4542943225623692,-3.111934668865371,8.365126476983649,1.0264231763688354,-1.1720344281639552,-0.36222256533559744,0.30420907662614205,0.12378446453775967,-0.8745283553518264,-6.3302683483699385,7.128530587241412,0.035713483284866385,-0.0869172451832641,-0.04417148481377998,3.0423579798169866,0.4345471499786407,-0.8795704577312525,0.03019323468718904,6.584453021478277,-0.08630009589090068,4.8873937276548345,0.926918117311446,-1.2528564486864793,-0.10141889282824894,-0.8564884167433229,-0.021268895594415346,-0.503759243816637,2.814819602040254,-1.7084775461939299,9.108074023096163,0.8263128461254399,0.16258789272689633,0.3868537670318106,-0.5194335911796822,0.1040212839511677,-1.0604165434268409,-2.1906341922549033,-2.6071114724836812,8.989154439625269,0.9406005441941021,0.09016679016092412,-0.3719887513485254,0.32141290487995894,0.1771046378093404,-0.9497385253405533
-2.137962040159095,-2.7902426991424902,8.386732190263904,1.1151152871932717,-1.0572669088817679,-0.36663209142334874,0.2846620529542756,0.10311992904894744,-0.8985168896881112,-5.496075247573781,7.5190085401733,0.4267176321864012,0.03749833974385429,0.043889479405741005,2.997687945812397,0.36975053143205316,-0.9103797659199244,0.019856146612520394,6.899672904005595,-0.4897431560037388,4.32325318574063,0.5977571007397332,-0.8208252802856725,-0.1456617001726112,-0.8628632327502943,-0.03196016842104365,-0.5011689854851457,3.572241587705067,-1.6818546328093744,7.49836145067881,0.5953109645228601,-0.23086294171032012,0.2131778409748991,-0.517466929727154,0.0928757267518094,-1.0741555204792625,-2.3423805705181233,-2.9346390077395688,9.37983698099767,1.0465317632364664,0.05275265672793998,-0.33346852208314476,0.3313445512232735,0.15568745735737857,-0.9688985868331328
-1.9971989491652946,-2.5363364557592667,8.648853917579459,1.2872033888811611,-0.8995678543415228,-0.3088990992302235,0.2618805354416006,0.06975300937909402,-0.9095876693158172,-4.984083550262394,7.891227296280696,0.7607311058877899,0.03769376678123243,0.04335415431663551,2.9887093374390443,0.2981508894347819,-0.9417178145843214,0.0237034850133487,6.700105941906753,-0.0005583494296163977,4.702042987262105,0.1625514141553901,-0.40859732991238606,-0.12408438011914136,-0.8684782071885324,-0.04743478285783781,-0.48925209910108974,3.423623031905221,-1.6603458906128925,5.861623144219865,0.25941799914184044,-0.34248050858235785,0.022267647213247595,-0.5294793748028462,0.08040507909897897,-1.0669467857482275,-2.571818341320176,-3.088513885285499,9.561740226891224,1.2691801126319622,-0.02300545884399827,-0.2788926233873832,0.32708189235989005,0.12494617152521477,-0.969797937042797
-1.821851067824624,-2.324156261237218,8.940181558065088,1.2712622320856188,-0.7642406003883894,-0.2542561733246309,0.24275450722480166,0.041243011151939776,-0.9094154609017623,-4.410366268548047,7.512324021384379,0.690948325317338,-0.06943113813241276,0.0482937244581834,2.8827647116052666,0.2269731027366383,-0.9613526524918721,0.0263741628482397,5.08077473113963,-0.3294426530497624,5.825102915782739,-0.22077117625724368,-0.14751856851256234,-0.08112394531824439,-0.8708724087826525,-0.04538174795210492,-0.4809626156188362,1.4687900892059877,-0.7553561327951589,4.754025500518482,-0.109451894310781,-0.11854092932797271,-0.1795532904483853,-0.530963414172244,0.07696520097525424,-1.063067268942748,-2.4075351416055772,-2.673815176833227,9.952667774461805,1.2801110423620263,-0.022068037567138293,-0.20857364152198574,0.3296535311039671,0.09344342381001983,-0.9702135300681736
-1.4365174710369866,-2.3291836018121717,9.461902001603049,1.1256751193895083,-0.6874475783930872,-0.19709960191207135,0.2309858672593038,0.01931480844803782,-0.9170332958001486,-3.3667227400411868,7.420237947395289,0.7804839138172731,-0.15594470489325746,0.08458206400454457,2.652369238428633,0.16256540903861713,-0.970780782878134,0.023974528725808863,4.561690104063885,-0.3215729700861666,5.74736772096284,-0.31080961058526785,-0.10729600889772364,-0.046059661912065536,-0.8722929341703499,-0.03849522084360086,-0.4768802420437275,0.8502660156966119,-0.4904475373505039,4.872181029990904,-0.2222029089156846,0.30654398251794884,-0.21254244400694053,-0.5194535110163697,0.08551839832393542,-1.06834980956795,-2.2763740847395595,-2.8399706017690827,10.078222852699104,1.1323519890555898,0.036369700336210384,-0.12906800380537387,0.33470690838539624,0.07317155168489907,-0.972033023842356
-1.3657178182724534,-2.286296430499074,9.711284802401705,0.9315618900740757,-0.606418569613109,-0.12406165197596875,0.20601504877623839,-0.0072182578675178445,-0.9215082892280905,-2.6429926128351267,7.527448887188207,0.8293637503658845,-0.2228096865267477,0.13023591087540032,2.3837365603326024,0.09279469300709735,-0.9819510191800407,0.021371984699554657,4.814292760840334,-0.9734147031845632,3.624013058747232,-0.3981380115202061,0.012387422163931247,-0.05709837240998041,-0.8810826538957525,-0.03870714493194349,-0.47683583112559325,2.1934316332130783,-1.6317008955733994,4.144874179669411,-0.2846064203586768,0.5563936474979426,-0.2549205429375109,-0.517229441507494,0.08727454729810206,-1.0763882224461383,-2.4922527289628125,-3.102242684120907,10.247208425787958,0.9222437745098676,0.052424495537701926,-0.046369170872575076,0.32705555560577,0.050485209164784495,-0.9704474227885759
-1.4377069927397321,-2.1981199231491617,10.052996880643153,0.8017743094647166,-0.5255433190707661,-0.045957764125988294,0.1903290151843207,-0.030606160603855022,-0.9252291854573427,-2.1436529381369263,7.445051008933336,0.8946828771618724,-0.23058940217689747,0.17862959835120346,2.064209734732784,0.03423301257617713,-0.9901895949858298,0.015278120917105856,4.268641905047702,-0.8784217811438116,3.1082265831878897,-0.44776526405656897,0.23954720093551582,-0.10448792436119445,-0.883084423638003,-0.040990829395832866,-0.48534675035728614,1.9047984902671398,-2.018092996628811,3.9918577382386475,-0.29416012005978054,0.62268646818901,-0.32152273459696856,-0.5067042419377986,0.08633989201945011,-1.0866182587377733,-2.6352516145312666,-2.520208442902094,10.393638223872301,0.7997920436562355,0.06613049000283779,0.02008130387118663,0.32428190342825913,0.026094777206957975,-0.9730222368612469
-1.5537295506798183,-2.267165378023792,10.293003620213515,0.6097936927664523,-0.5387591567387435,-0.035481275645212515,0.18222825963229536,-0.0440142036185217,-0.9225763002349519,-1.6183593273661199,7.564899853929552,0.9618511409286371,-0.27717836378121863,0.2748738766032179,1.658242365180279,-0.001658981086638802,-0.9886265601092437,0.01825261497205983,4.087291133385802,-0.9496971466697058,2.6573300110110947,-0.5952300237393041,0.4646639375487528,-0.15783908004989225,-0.8716129320444588,-0.03329100610080276,-0.4918347951971863,1.8073499732724214,-2.0507273151923253,4.450111227505696,-0.38796333910901376,0.6106003135147353,-0.463804599784318,-0.48666268204530416,0.0912004054258562,-1.090191159450319,-2.7401688492633047,-1.8939654911465427,9.735349252144324,0.6189151546320426,0.10808176014718612,0.02031749067382308,0.33327773591331555,0.015765658896809975,-0.9652655051502895
-1.488210333287076,-2.223277957792719,10.167673069206572,0.4933794828547801,-0.626075920473477,-0.06464843285214374,0.16196778131696496,-0.05004370514764722,-0.9340952893722113,-1.1186086770907966,7.019326563772313,0.9586087343538848,-0.18894930992488737,0.40938816635987635,1.1727045951531898,-0.035669595750612494,-0.9817900428007851,0.0003788485455384072,3.573763163733929,-1.0227134511322569,2.8438735952397054,-0.5053279557893143,0.625334200472241,-0.21189497649433767,-0.8683068650759352,-0.02702330643529628,-0.5202415804799783,0.8558854982774448,-0.652751556004994,6.213615268366431,-0.2912822758486229,0.4112168307557903,-0.46336961041226093,-0.4783013221935098,0.09957551512185553,-1.1045181418963463,-2.7168603430595217,-1.653564084414884,9.409592173082352,0.5149663707195556,0.13652785269664974,-0.018817613105040938,0.3325180847436363,0.00826329407125743,-0.9770255220773487
-1.1591240496860358,-2.058183008448165,9.908461077710085,0.342532324598773,-0.7148854238072492,-0.09194873553720397,0.14726134375224484,-0.06929005383360855,-0.932682046854671,-0.7061358775173443,7.300347174135045,1.0081724717875777,-0.098838822038181,0.5498399962809449,0.7064601536306738,-0.05049891542889485,-0.9920696451937514,0.0037560014176823957,4.070877683336213,-0.8135329497458903,3.0563290945621246,-0.4038286363433133,0.6889546733375929,-0.24466475698471707,-0.8564227282014817,-0.03765819510277922,-0.5287271465647777,1.2118470244363084,-1.3090037613364776,6.586383403305855,-0.19186663040917348,0.097659247064339,-0.4247143204322831,-0.47492370289413177,0.08466073728215667,-1.1024071073488086,-2.6255983400936445,-1.88098881683471,9.324115084863188,0.35847096863053335,0.1852369951894986,-0.0531505079961881,0.3395228217156931,-0.012557838178949243,-0.9690818916244824
-0.7684340656547214,-2.078171237731798,9.581820982071605,0.18983386013941922,-0.7400214019146286,-0.07189942012892138,0.12332548336059312,-0.07020275362532372,-0.9288211651675999,-0.4104301970721929,7.306439452638566,0.9799343440149105,-0.041529314759763535,0.6722822217695742,0.34874077948119236,-0.068078710364126,-0.9878378228070173,0.014218270642012133,4.69663619305975,-1.121249057167972,3.104935469129455,-0.3738083581483449,0.7698498262521545,-0.2879190542513056,-0.8530451007351616,-0.0353425737012359,-0.5390235173440122,1.9038691853530973,-1.2019925712803772,6.1434044272620305,-0.1420106839000509,-0.12835521928406246,-0.4367000978758535,-0.48348979782803075,0.08949047036446951,-1.0911701455736205,-2.5622172580550044,-2.1112055739059064,9.33600165834897,0.20792701390337626,0.18756766292689955,-0.06528571743012528,0.33660186540725173,-0.010162420533025143,-0.9585706473334494
-0.6440549946481967,-1.6744507357564982,9.184206660239045,0.19693739007475997,-0.7339225678009814,-0.059795500808638,0.10820307256916661,-0.06746820146576056,-0.9325074268704605,-0.3228050856087352,7.464820893449398,1.0814523423634876,0.13615634426373951,0.7544070428169294,0.08500975282842387,-0.06615260279490355,-0.9832013506609121,0.013403660508159821,5.092510807574496,-1.6321885803619256,4.021517270304963,-0.20130362115343853,0.8236493032808989,-0.3364938975217865,-0.8355781492661611,-0.0349341354058002,-0.5627953343031427,1.8009292322160637,-1.3909419917711154,6.932952601534101,0.011905076374366996,-0.2773402067041783,-0.3863762924595712,-0.48299884561811973,0.08925327124528813,-1.0923913021997103,-2.5474676871069,-1.6504629065479925,9.102529943548738,0.2222929260143505,0.19347171891075998,-0.05428262126771686,0.3478220253215665,-0.012883810772985935,-0.9595626511938495
-0.5517256462479493,-1.3877357467538298,9.030258601202288,0.2159876598390843,-0.7173311606147396,-0.06093518080179057,0.09129452759676401,-0.08646826734924411,-0.927924903401942,-0.4029826200592678,7.704550761373766,1.3933002149558762,0.2860750825504243,0.761602633399739,-0.11194200659426597,-0.06119000149418065,-0.9945028881139424,0.02213201536619669,5.2739573968253515,-1.296259732469575,4.710327517154521,-0.05693005654800264,0.78575728017186,-0.338348527356574,-0.8227538822496177,-0.05388912811859675,-0.5726580169375085,1.7519997397155642,-0.5726944935658295,7.523120803780235,0.1193830918196721,-0.3422937005815285,-0.31578056305570584,-0.4894070330456672,0.06994493407542214,-1.0869198355199072,-2.6461075946075923,-1.5827656834265427,9.07339164931418,0.23737090971661295,0.23256336901521085,-0.026470563907904483,0.35362711438068967,-0.02806867907056751,-0.954518353343727
-0.2931357814156454,-1.1834042687449764,9.157210592863418,0.05288702567455161,-0.6904058569028759,0.008739120236333752,0.07814422034636839,-0.08007242636105918,-0.9362408460589139,-0.23791402922732996,8.16246266406586,1.600779916497172,0.23052554066683964,0.68373038726556,-0.2724893332351719,-0.050507082315471706,-0.9849819265758657,0.018530862604700004,5.8549951396124635,-1.30372912272464,5.289938823121783,-0.05747447335396045,0.6944394571760772,-0.24088383498209265,-0.8081993263664361,-0.04858832969948238,-0.596469688280849,2.1139573299611922,-0.4089644192903055,8.451054544803974,0.0681269136993857,-0.4127040760180635,-0.23555969865380813,-0.49574816416815315,0.07434395041315223,-1.0854445113698223,-2.7427806456112314,-1.8602774176734838,9.27480091127823,0.07207214121794117,0.2891844872635881,-0.004397404615999735,0.36658546893328636,-0.022723496161703844,-0.9583954998408285
-0.007087382265443526,-1.5835914533355875,8.997788738583502,-0.06555521455763047,-0.6420433953837168,0.0882230264412375,0.0507867648248005,-0.08438780989816744,-0.9358086327862236,-0.4144092648955575,8.201114458168105,1.7072284834818634,0.20500041979727718,0.5908237180404827,-0.37134949862597155,-0.05386664079534009,-0.9921669001613244,0.027937806816111264,5.992683477885482,-1.8437672679502808,6.259286341427713,-0.008079652104851669,0.5196416146211319,-0.1714663275801041,-0.8104448211781083,-0.054986946125611266,-0.6017599637823733,2.223771766481446,-0.9349338253278667,7.881786754718995,0.08406291165436532,-0.32450125502616484,-0.14671152992056993,-0.5160464504067478,0.06605499558615753,-1.0801855436334578,-2.6704187887075483,-1.8834040719238088,8.912009500830523,-0.06994698766458848,0.2994799700759341,0.036614417241949,0.3599785312210164,-0.026882381610117686,-0.9525589604643525
-0.06981030232213899,-1.8556851795173306,9.223824152171941,-0.13837677046852667,-0.6227723284558444,0.09584110836372138,0.044718611853283095,-0.08069118882023588,-0.9489990543534237,-0.9887787635124289,8.763492432677428,1.9041716774246797,0.19779556830007716,0.541365167747305,-0.4529476964173476,-0.03411612791525701,-0.9902215674862548,0.02102893145488358,6.075305085940889,-1.6051888165730324,6.10696059792133,0.029191689297901963,0.3588225477982138,-0.09957430801433316,-0.7929848995255593,-0.05846813743502204,-0.6240238705589058,2.4949582432469617,-0.9968768091057614,8.43331114304756,0.0787966932271885,-0.14533954231214788,-0.06637862267293376,-0.5082114276133686,0.06390338563753643,-1.089942201383744,-2.8966208025349083,-1.45497907329969,8.716502010753109,-0.15618830258326344,0.27708789957357655,0.023517592714019344,0.3773202857692715,-0.02470747312505232,-0.959871487952825
-0.13325900810789204,-2.147656229836213,9.758270441313144,-0.27897746692304604,-0.6405311392644771,0.07860803425701304,0.0308084625458311,-0.07309421354577074,-0.9402258044468292,-1.3760642673122652,9.174598064681286,2.0516305016917076,0.11671047660295628,0.4917254100420744,-0.560268267541599,-0.01822626767007604,-0.9899527948911647,0.0317376808067335,6.367532043547485,-1.8999913319103834,5.45797147664674,-0.041309869187849346,0.3421686227216874,-0.011428352437088259,-0.7866080668014436,-0.054309354880007314,-0.6211699196012419,3.0453083501316778,-1.1865954305728095,8.868805078667362,-0.024651949727963786,-0.23449827743018217,-0.022170435604364394,-0.5131273786723299,0.06310981282365011,-1.0787312105544304,-3.2701786078595427,-1.8297495290035477,9.036698603805823,-0.28740651737453726,0.2550427053325792,-0.04294245327503951,0.3824748526050438,-0.017203450656028647,-0.9515295792072234
0.028334997063436437,-2.2962289269127236,10.424262756188547,-0.4124170104015274,-0.6400840088425968,0.10428463521275283,0.011046264519537278,-0.06815425743331595,-0.9400107398598581,-1.5577298272756466,9.703970754054614,2.303226567783456,0.0010493462653136812,0.4032117886474998,-0.6637704034115257,-0.006736471481156203,-0.9930845308425048,0.03054706942254155,6.753265363733161,-1.9372815599064577,5.742014368324275,-0.14437397925312503,0.42109255039219756,0.10081429886584928,-0.782751224033103,-0.05443634974820583,-0.6314417250980253,3.386187553025421,-1.0432795897032912,9.135815128638125,-0.16747012304205078,-0.44216139782976244,0.031209091680324173,-0.524365493728097,0.0645759007681471,-1.0750919445388247,-3.7538553719280965,-2.586594908116438,9.952906115158813,-0.42242849396656507,0.2169749748831149,-0.06845008506650205,0.38860275144959666,-0.010636408442453508,-0.9510059034334374
0.020704975397479373,-1.7109769147000478,10.619391003134986,-0.6058849623989215,-0.5853298529076498,0.1694659548817004,-0.00475663904982394,-0.04345417241884857,-0.9370789818453632,-1.5420720187227952,9.507001914706745,2.038583626630142,-0.17217418643464968,0.2610352193917919,-0.7874923637646561,0.0129850627764268,-0.9834656449361489,0.029856902451811912,6.512931744857682,-2.0872746997080442,6.323150903370626,-0.30222155010072743,0.3924302604063073,0.2421182507436219,-0.7775768949904452,-0.03643052897533304,-0.6353267561472566,3.1929342067501274,-0.7788194257350268,8.863768526850343,-0.36182776564938063,-0.5032745469064174,0.09602913465358996,-0.5399762506296607,0.08456016244363529,-1.064019964217044,-4.098863564443794,-1.8723713887989384,10.41849153880605,-0.6240112692796265,0.20578299851814894,-0.09185232639355932,0.3901688906269242,0.01715112306385161,-0.943774503163549
0.09535906589882634,-0.21080730517856475,11.092324841840336,-0.6720658175365849,-0.539676470571545,0.18296317976391316,-0.021326065213274042,-0.03315087153598829,-0.9380721588342357,-0.9532964309187542,9.27062710933817,1.4090371103543589,-0.13597606307597354,0.04350751203486565,-0.9584150370626991,0.03376552529343718,-0.9902621599387185,0.02553576991519936,6.704468347347637,-2.3656084112370044,5.454114894891047,-0.20041476941450692,0.31490845282457536,0.3659221757685125,-0.7732297081538315,-0.03364829169823888,-0.6473420225754937,3.7916027882766783,-0.8826166601283162,8.475739038085258,-0.31309141155171727,-0.5158359959747122,0.23369135243164196,-0.554139255003675,0.08507127107674572,-1.0625923634091103,-4.257254857248944,0.010095404469895874,10.67275166269036,-0.6837764227966407,0.22335104633836897,-0.10722298294668638,0.3923870839182739,0.02302462065549297,-0.9478926137209763
0.20842746404969945,1.5097415279618143,11.403962274429679,-0.6793425483102449,-0.49630410895716276,0.1689655688878051,-0.03320424733993651,-0.010641508065124981,-0.9488070458621648,-0.37413226850671905,9.387184599537687,0.8904847677408525,0.023057239495364062,-0.2994686219308179,-1.1876133545286152,0.06961525980858888,-0.9850317164830639,0.020004668085514904,7.171597058354258,-2.494849542100472,5.06773996460904,0.03136899557225455,0.21900658769370973,0.4403714313321713,-0.7690872045379148,-0.02278823458047375,-0.6574919940134336,4.533196049849413,-0.9052757532070681,8.411645189856563,-0.13557258995727353,-0.6007684616993092,0.4191019123754062,-0.5672986183879098,0.09584339022481,-1.0625603574476996,-4.5407260292269,1.7810350685590894,11.122375256612099,-0.6740388104281826,0.2670265760672533,-0.13604472297505718,0.4017339760305731,0.042301462453213104,-0.9521828469485188
0.6001888741860106,2.1648986080978956,11.62006990140886,-0.749276361368105,-0.4348488030894353,0.16157317449273118,-0.04878335799802612,0.01063266502359886,-0.9402642692939747,-0.30025453617435854,9.646733875584946,0.6539341423373859,0.09419812898046737,-0.7354196151407624,-1.397975831307463,0.09644757638622811,-0.9794531725432017,0.02351971354587179,7.262275419790385,-2.310560711903924,5.4520671803146765,0.22767655238898651,0.08054120090794996,0.517071681611525,-0.7729469197775592,-0.013467075617198248,-0.6548898199511917,4.796415979573335,-1.2946761570074683,7.30756010100416,0.03173826279896217,-0.540137604480102,0.5640742027375485,-0.5861070638879493,0.10655026880373285,-1.0503377214403466,-4.551730452173078,2.652996113030078,10.812679087540403,-0.7317450903570356,0.25294129067101384,-0.18664130093324846,0.40108715918326276,0.06570970728058656,-0.9461952789891733
0.3861565717272184,3.46598998528567,12.494030565187733,-0.9269117990204486,-0.3968386025760158,0.14548582704232904,-0.055799106246720985,0.035307028280049016,-0.9363384057711714,-0.8286268220817147,9.587101342923061,0.001318292313526953,0.09246081319649845,-1.2198112915260801,-1.6834776754197007,0.14351405441932757,-0.9686588186972774,0.02568522863673291,6.222542942991575,-2.1564237516220723,5.907046432633819,0.3799402903329525,-0.131888841150268,0.5808741200404363,-0.7731138697833827,-0.005297986528735926,-0.6447251123233095,3.9313521238568163,-1.2294789839326319,6.360508143052054,0.15888272198031997,-0.23983114238204994,0.679452708580844,-0.5890174726609637,0.12093059588549576,-1.0456147061116106,-5.2293947281085815,4.054799452461988,10.991891510604084,-0.8939424156715833,0.12408054360140132,-0.2856550237976482,0.4036213048935031,0.0912984001095542,-0.9394638745425508
0.17234312525140494,4.6359273470969145,13.415007055000737,-1.2834614806995113,-0.35627221028831935,0.1679223191326684,-0.059877873507899526,0.059489503768543436,-0.9375357945457573,-1.8716838009932077,9.175565806500853,-0.751914510062813,-0.03362624242470437,-1.8362378459411441,-2.1280549189722113,0.20526258147998827,-0.9700058769901744,0.01264574452905486,4.842647859571681,-1.9848873633604844,5.238438975967523,0.42196676273159744,-0.3370627611931096,0.6590515282219537,-0.7694439103529257,-0.003357479135830317,-0.6447640203800543,2.7103193945932436,-1.2451821967842402,5.527730141588704,0.16948619934788361,0.12157010830556425,0.7728026039805914,-0.582187058215972,0.11604462971393983,-1.0475797931529547,-6.328823180457477,4.817563347526255,11.041992520145843,-1.2296721031402635,-0.10769581888095954,-0.43068822821521424,0.4076212893377559,0.11693861444337753,-0.9429873637736025
0.5218652070092766,6.467735412232951,15.031925079236725,-1.7106894746620545,-0.2851202098190059,0.2926786199352965,-0.07071551191021826,0.11152150106806984,-0.9362677677784279,-2.928932407713593,9.619105875106673,-1.759661256717421,-0.33303155554369007,-2.6076172957476116,-2.7300009746278593,0.2702328580082431,-0.9415929040119958,-0.017509744314328432,4.06553708978858,-1.6351493980255596,3.4973193871036505,0.21174569154274206,-0.2807994788776909,0.7840632352789557,-0.7796155271876697,0.015995163706366337,-0.6422419365215095,2.347276775572865,-0.767612887187315,4.289022902593574,-0.09408760466443945,0.19993612214542122,0.7897699491566891,-0.5789441712310868,0.1373227348986174,-1.0545126280531276,-6.945287841778559,4.814515862253371,11.513664250276868,-1.6613329140148005,-0.6435479547800962,-0.4786613833175242,0.3870483452314297,0.16637376263477938,-0.9507739691374381
0.39275963762146426,7.9998482612117465,14.871336242603752,-2.32130668754869,-0.1740864812298261,0.6213469675855414,-0.07229131325379463,0.17082614872515492,-0.915198329190877,-5.498772842150424,9.47128923912374,-2.5757879488622155,-0.834895295961069,-3.6274948822837727,-3.4650700827377383,0.35226539613398505,-0.9110135471242021,-0.05506064463612664,3.6301476374131987,-1.5641127200757916,1.8117703665560052,0.0516289186815872,0.2765186328127618,0.9294462451917975,-0.7748869472361719,0.03410208979143968,-0.63709229571928,2.2776061589703587,-0.09536849335723821,2.47752299830921,-0.2948884709803482,-0.06127862484410065,0.8626888048798873,-0.5823597678034687,0.15458027033590865,-1.041470195354993,-7.118686785451627,5.423858006479338,13.264576003000336,-2.3708921571725794,-1.2246534638540647,-0.42117119487423954,0.3547957719662923,0.22648453941925503,-0.938726969588011
0.5184244773625067,5.96606439580953,12.519776183778658,-2.8767289640183797,0.2255373228387973,0.8056855012239249,-0.05750641998135487,0.22764732397577547,-0.8994730547557255,-8.738420832070418,8.19903582545519,-1.996518492065902,-1.4485545300460676,-4.460759935046912,-3.9852416354161364,0.44180555263751375,-0.8839897349111201,-0.1318786899822279,2.717385365743036,-0.03648340070227874,3.412218047382199,0.09389540930716976,1.4560546081877974,1.0628180121526543,-0.742272441006951,0.037142826720252875,-0.6607205588876525,0.7342887371845832,1.5390408217390585,2.0339670856849263,-0.27039100513804926,-0.6600226045385275,1.0231518948756404,-0.5892182783599085,0.1594029010322095,-1.029740354132099,-6.4872338693509475,5.4845601585656585,13.075189189377957,-2.9722295157484293,-1.6977207154552962,-0.3647523391478334,0.3191144916530053,0.2837133551966964,-0.9330437061842694
0.8809998280089808,4.881355106821084,11.103816248277385,-3.1410632296839087,0.7831380541065295,0.7408671359656418,-0.03896157861521391,0.31400916435135967,-0.8910268980766917,-10.553300410199608,8.117730848670606,-1.8773424800053056,-1.9810212397689122,-4.92888184654871,-4.371644556930495,0.5119778267416271,-0.8136045867677925,-0.2516369605688517,2.707697034354526,0.7560727420723489,5.555940098306038,0.4126751480209952,2.884381669958331,1.0868176477644438,-0.6929728381560732,0.060574444823221295,-0.7339734705350565,-0.8593809525789371,1.2015116710913027,3.1101246252645414,0.09132450931940171,-1.1637438794474744,1.1714372450383812,-0.6170081838291953,0.18239172580856794,-1.026009113264775,-4.2832403639346595,4.805681438410715,13.490544156709047,-3.1202045849950673,-2.083165272858383,-0.27375568491378477,0.26106447595525,0.3662339841463623,-0.938941549539423
0.4917217687015073,4.263618431896752,8.450770188110273,-2.923199104752626,1.329857200738885,0.685825273183617,0.005858581455723688,0.38146901428921043,-0.8618057513747195,-11.008800431688169,10.039555372357187,-2.076528180811752,-2.3771247672494646,-5.258801217423823,-4.434453379056306,0.5716192712681936,-0.7371611542312273,-0.37074526221828374,5.546851282783962,4.6631641606025624,9.13114969753594,0.9657600763344094,4.192400369831474,0.9635408837384531,-0.6027263079218804,0.05610148528439597,-0.800279078424985,1.0036873548613716,2.731367956729706,5.786186057931993,0.7491907505206187,-1.4629126853079832,1.2084586075846113,-0.6424793600651415,0.18154088721878406,-0.9987432317303097,-2.406376647709831,4.163768371278593,11.36113764116023,-2.957722193062285,-2.2820812207639705,-0.06058317884739922,0.2151577681435709,0.4312600055109962,-0.9236935299178689
-0.058956678459344714,2.2857954248666497,6.36737879400572,-2.9538491085714806,1.726610834339798,0.5790440371663428,0.045312353292704326,0.45674545530651445,-0.8233063818785338,-11.456194539159139,9.862513616695109,-1.8354908180412877,-2.897106937264443,-5.214558219648909,-4.123423284060012,0.5850033874088753,-0.6415271107397883,-0.49521612442952695,4.647725134466843,9.868954995907382,13.092758976915443,0.45623364178169273,4.943654064219797,0.814477986980433,-0.49998129384033185,0.06839844423827307,-0.8695151211402431,2.298465544832866,5.587671512117924,5.2813426115055195,0.36553277565812264,-0.9627407965111601,0.7999435519295881,-0.6669251345293808,0.1926970176662311,-0.9787207054091108,0.04692863496415528,2.68382696105695,7.915147402881529,-3.0231511411780008,-2.3592734330961513,0.13170631313210127,0.1568446990403498,0.5084515569690525,-0.8925108389457734
-1.747669184598811,-0.8031552999991017,2.505181962196974,-2.923425685428753,1.2120692675998428,0.3962466271407333,0.07325619729913857,0.518384719928415,-0.7867986939071573,-10.64040484269654,11.399977918638557,-3.7743414737394017,-3.5279328758722555,-4.473224095457577,-4.0022258480679795,0.5875862796564905,-0.5364869407576369,-0.6229988931691263,5.421211750342685,10.866405655855502,12.03412368405959,-4.101736860952604,5.127922597671306,0.25732240983371935,-0.383463938494351,0.16036431327060777,-0.927484276441195,4.9034472429034155,8.45090632065372,5.214359894955263,-3.7876506038382387,0.10318909108090009,0.992813347001702,-0.661591223615506,0.2856883354623606,-0.976149155117538,1.8500042767219391,0.9969585904266085,0.5113455064074824,-2.992086462011838,-1.6291632677099481,0.1882114891607965,0.12191707578633566,0.5711952077898648,-0.868730287638
-1.5190734442372813,-5.299224124504698,-3.078473265683902,-4.007644295571065,-0.20836463135775463,0.17901609844324695,0.07996099453270604,0.6003089115902248,-0.7188098376098508,-3.9091369714376016,8.346787910807409,-3.1329246456071873,-3.2583951063797896,-3.187325480320231,-3.6456227065915154,0.5902464327065113,-0.43077028324911865,-0.7109934873665947,6.878786433630193,4.448817020076079,9.828423528075529,-3.120444918146719,4.766070858368951,-0.0048743065723231005,-0.2656000490152222,0.235667378164162,-0.9462118414321083,9.601409092794016,-1.3645696485938141,6.462201544401872,-2.9954070110932194,1.1119299114776102,0.7352319870727738,-0.6248091895399266,0.3619880750968344,-0.9709103153629323,2.4858702691200865,-2.3766319641272267,-5.766274054387251,-4.160807656570979,0.16170983936547653,0.020397876279505598,0.133698828483837,0.6550035066273132,-0.7991810574312762
0.6192595950161142,-9.49898151633193,-7.272618974311925,-4.73539337619028,-1.4686433966052863,0.0002952573696711879,0.046169469910772754,0.6979660779515443,-0.6428180895051858,2.8667580548951657,4.798425964175287,-0.992593305298879,-2.702770058552127,-1.5060399176940813,-3.053783483139421,0.5905552230330514,-0.3296709205540289,-0.7681385750048242,5.873967612718532,2.833170228720491,9.344896664258126,-2.05221151673786,3.439745701003369,-0.265175300313458,-0.18879563204602784,0.29334488358277466,-0.9603987225096403,11.448841495140645,-2.3046881338127387,8.685281409190235,-2.1244351573653817,1.9631550464542364,0.3712278254551922,-0.586287825850918,0.42159345332396087,-0.9897003551431013,4.49369828766126,-8.440029521562552,-8.098250201926144,-4.868221144235323,1.7763329283381146,-0.3908310966784119,0.15506292767472357,0.7555324802192491,-0.7129396724973954
1.3117650019412466,-15.076781468324624,-12.5452248837233,-4.611128380294956,-1.9998550626315705,0.021406242110200344,0.014240402947999609,0.7758180789457263,-0.5492703511621954,10.513437732128535,0.7718844198811188,0.23295679406234843,-1.6829940391174787,0.23712094089840502,-2.148739729874349,0.6160834935544928,-0.26864146394282395,-0.7772830785411116,5.633834566935475,-0.286590761945774,6.893634010664064,-1.1386999311292656,1.4264367511291265,-0.4172331642407976,-0.15597357305997844,0.3176835531175784,-0.9566721917916785,11.772454680106875,-4.09224032135693,10.889703004404723,-1.2967142222628525,2.5425940248945365,-0.06492739136796669,-0.5290284859837225,0.4511446481294438,-1.011316483139146,5.422810152803021,-14.498155389086909,-11.953785903112564,-4.604666542550231,2.741892839908118,-0.8029302484083551,0.18391106877768787,0.8327364493971583,-0.6075381328735364
3.712131496618394,-20.159758094024827,-14.388502526498726,-2.8633592437756614,-1.8099897187806528,-0.037407219180302945,-0.007722539979865408,0.8202316697214863,-0.48406739242295804,13.66815688317816,0.8827548298244975,2.9488857092537426,-0.31138887370251395,2.274987285037747,-1.0878467440595023,0.673140033427822,-0.24133763139382874,-0.7407434368376187,5.687453930086277,-1.9500749305277625,6.101659076871086,-0.2910245878679394,-0.93282187315416,-0.5514167155976143,-0.17665795177158267,0.32808234977245304,-0.9503400567295135,11.16939135860519,-6.281491500989639,10.121660108109769,-0.5987258754353382,2.9773022832101232,-0.5464027378097362,-0.45787993533922927,0.4640885168522125,-1.0369074633797644,5.682560805589245,-20.517478277422285,-13.020929827306018,-2.737064238312553,2.395484982712462,-0.8443834948461499,0.20873477965778064,0.8776903566796618,-0.5401537134341909
4.760853528913849,-21.593833986338144,-13.038355885406043,-0.5966366797493328,-0.8802538194259146,-0.18614629556556245,-0.021858151345579536,0.8305228757253655,-0.48115110586241305,8.908749268217159,3.219577256936438,6.255024219673244,0.7997846135539184,4.748814507660953,-0.07419276876677952,0.7529786240340273,-0.2548530396141383,-0.6564307305849243,5.334910285615586,-0.27709289492744227,6.844011998718862,-0.9714715173602964,-3.072901602306923,-1.0920191358686109,-0.2607198611269699,0.3454723763321006,-0.9283982741724507,5.32960260804473,-7.316956884223209,13.939101819310935,-1.1652494730326703,3.330568315056635,-0.9570338191014415,-0.38865976430767196,0.48413472113998823,-1.0653879992247006,3.030042903054936,-23.957632247791537,-10.061913129807055,-0.5255662810339422,0.9964514464900713,-0.40714791339879913,0.21487069887292343,0.8864383965522797,-0.5366881175586847
1.5515317182102222,-15.910805530432569,-9.720090238718827,2.3850205579739603,0.15413206027591886,-0.3241228870068876,-0.02431684556723865,0.7898291245644538,-0.5363841011023797,-1.620546832601092,3.1645985008198965,7.54464564299113,1.5043019744411872,6.551923273968714,0.7813842071071258,0.8426291586619247,-0.2977595304218039,-0.5086401473209562,5.810560150552105,-1.3739338328944575,7.226183705477107,-1.5251941897662162,-3.6857576796306297,-1.4577530860633456,-0.35123615110733597,0.36465836715092653,-0.8786123387439565,1.0464291522144633,-6.060339479122888,14.589118904614809,-1.495431960663513,2.58125259919964,-1.514980911742516,-0.33831303010511066,0.5018715146907772,-1.0697662102375842,1.295640465861479,-19.802842799960757,-6.109746407479994,2.35175438614574,-0.2668670427579341,0.649995815555692,0.22936186053434154,0.8436880190187804,-0.5864818720108842
-0.5713145032475777,-7.64126392898802,-3.3228358822413333,3.1833721532317347,0.5826942305786521,-0.11363309426439477,-0.025590568190510057,0.7320523420716933,-0.5989609114834084,-10.504336758028604,4.592122160251242,5.856870856313003,1.4162951326089734,7.118162527120109,1.4602146489239836,0.8916059118908106,-0.35079328742004434,-0.34008662793969735,7.835704748940461,-5.370689901008893,7.76338170060638,-1.8225117870459562,-2.9693786002991054,-1.5408316482495032,-0.44373888896925784,0.382319471543325,-0.8349035641822121,2.7727299353536856,-7.598442567653809,10.591109131396822,-1.5388678677608818,1.5494884954718022,-1.8774079989122259,-0.33290005629933445,0.5269697090661318,-1.0642167101092037,0.3846576161267002,-10.178928448125715,-2.7957565403950615,3.1051145554355704,-0.500711502554411,1.1119348627297667,0.23355819429744748,0.7895828710337844,-0.6517195319127407
-2.783172924204563,-7.835321256638595,-2.994234354617391,3.133680389435666,0.3603341660125391,0.0387420325148461,-0.007031091338724751,0.6944812191916125,-0.6607423105248507,-14.336135682895598,3.741777331578154,5.708073845798457,1.1032818873019574,6.9853816043520345,1.9239299113558217,0.9221979405961632,-0.3892252220850974,-0.16857137954588264,8.906425500462603,-10.514531660140053,7.639878819760164,-2.5562561868541365,-1.4940962888828992,-1.635964302115513,-0.47751862628655134,0.43105670903424725,-0.7879103630832439,4.656327225039132,-15.233323120323812,7.761605848953768,-2.050232390351442,0.8617993506793387,-2.2890450021278483,-0.3255114659107752,0.5683877630303392,-1.0534285437270936,0.23670183922984903,-8.254976368696378,-4.150245519499129,3.1142186209699436,-0.18658399880056695,1.158794998262269,0.26586503379413295,0.744853721146228,-0.7088494402101633
-3.1561382010757795,-7.917208059063889,-3.3735655194508882,4.103747943089967,-0.0007078424419920138,-0.020124136302876378,-0.021800498027782146,0.6115992900959295,-0.7255732000176797,-14.61459110927462,5.644455758736967,5.109437610306865,0.43942077677226854,6.879117191930296,2.623370524850599,0.8945783535395107,-0.4554315667573507,-0.00330609036222261,9.981954915637969,-27.964776954833045,4.778493062512738,-1.9765156560695263,-0.1872184911758164,-1.7023060310563731,-0.5127776682584397,0.4470030661342335,-0.7703376466323267,7.230562844875743,-19.370861293179523,4.136455309826013,-1.8483592291905908,0.4254535757435496,-2.523141185062579,-0.3577398914045128,0.5912885415012477,-1.0345742638516653,0.35275965847389607,-8.53851436382044,-2.4492530595172086,3.951471904312612,0.5703026326088965,1.3323365168869399,0.28508658937472026,0.6601373906309961,-0.7669289143477309
-0.5386329743415668,-9.751655882492587,-0.7563348640771984,5.287583812475808,-0.1989423395817828,-0.17850359896520085,-0.022481741840587027,0.4957347760799771,-0.8038486759581981,-18.77100993854066,5.458847489148798,9.916897013665686,0.9850454679771489,6.695601404521461,3.2886476733558623,0.8406489763598187,-0.5340653184615226,0.1575812573937062,6.476848344060025,-15.578597148009278,8.952951451597627,5.246639220887275,0.8035757047818476,-2.239178013519409,-0.5081773470847556,0.3074540049521312,-0.8254702336049403,3.0804896401555877,-10.785278775234184,12.080265395839534,5.624904723048285,-0.017697680438723697,-0.47497062135797286,-0.35840484978165443,0.4526936532391613,-1.0843043509416401,1.3065294312533486,-11.42190646105073,0.3295632177661857,5.083176019127546,1.6354894350274911,1.8117239588701404,0.35057959133916966,0.5435246485199318,-0.8268918084742074
-1.813506584140892,-7.804505060385265,2.856835612068788,3.968506433084548,-0.33236111505349947,0.1549483741507381,-0.020715367301776498,0.4071555503291489,-0.8420454614299161,-17.927447228671586,4.76476492090638,10.860755601826721,-0.767516895793455,5.634806424981063,3.577018422107679,0.7646317330833616,-0.6115203367687179,0.2655073053556324,4.177499592180542,-17.290425957152234,5.311638154213223,2.725695179859876,1.048457697544665,-1.1421526184118205,-0.487565704734252,0.23604190362985292,-0.8516405803804722,1.8545882816603172,-9.860850502389068,8.76262649629576,2.8194135336517907,-0.7953981562340678,-0.4436790059260952,-0.37269944120626486,0.3824745286701788,-1.093834158587609,-1.3172697705390033,-8.214231086440167,6.785066018760916,3.290146221227098,2.544373718837801,1.4254566951165328,0.4296209541669229,0.45953561935629383,-0.8341864746407305
0.49202346991443535,-5.950124720264181,6.834842474399351,3.2308393089001806,-0.22184797343133839,0.03870462880344688,-0.030391986627541334,0.3330059591022679,-0.8743856854599176,-14.906893388275336,8.922261094657008,9.34913364862071,-2.508234314095115,4.388174604874124,3.9667692110601336,0.6574974827092278,-0.6987990547151708,0.29381468304053876,5.15988644403202,-15.495760556080846,5.8011534493364865,0.37163975304109187,1.4109156708091881,-0.29437686126904544,-0.4659887920777995,0.22471966964942802,-0.8750590632286058,3.2628596913742065,-13.591979973333352,9.004119505065137,0.5511196764036368,-1.5540009650204778,-0.15375537488222699,-0.4191374942357838,0.3708072511187778,-1.085498235101506,-1.5736417008298125,-6.199453126815235,7.861006308099761,2.805235158653189,3.3630852689697663,1.568221438764811,0.5067556068404194,0.3883833879135867,-0.8213909113994156
3.6178165992711855,-5.096037528838188,7.157189815255751,1.211262907254984,0.21953590744674994,0.4426827611334508,-0.01946018579851491,0.3034552601127244,-0.8914936630395115,-10.906755632436411,9.74858141273847,8.207879014819092,-6.009916239211302,2.99343375511826,4.467627776576275,0.548300016048713,-0.8092821002393998,0.20726923591813415,3.38578566981441,-13.699979371583582,9.486121927143602,-2.9642310281616795,1.0784406883236843,-0.06608449682407096,-0.4420914086536696,0.2859001279769437,-0.8765782769447241,3.500909760429747,-14.21762530930043,6.526130133950868,-2.450923280873194,-1.4646121569280188,-0.2510086060644838,-0.4537476640297664,0.42177789715363373,-1.0647587003280081,-3.4162649448696363,-6.804471967000297,10.791253022602703,0.8278241856317982,3.747818661118908,0.9772026711905407,0.5920751291006351,0.3522544613515258,-0.7893624677943667
6.080125921154936,-3.020364318498407,11.620187427723423,-0.8082810386979138,0.7361292456037467,1.2266926447151627,0.008415310498013988,0.3221659924464185,-0.8855583933102528,-5.308279584217707,8.853802347731632,3.052590908620469,-9.667496109457453,1.4369196246568907,4.3483214667463255,0.4467555662466295,-0.8909948328039184,0.0005738243381196682,0.9887646270577789,-11.373255890325707,5.1353656210446115,-5.1432965694432715,-0.18668742006777028,-0.348708740649723,-0.45516336489593545,0.39603409426770453,-0.8347556610764425,2.9452198859146534,-18.32240796500301,2.42578358087384,-4.863055973487458,0.006569705538647127,-0.5952194836781498,-0.4614200341889236,0.5275191988786153,-1.028450026782321,-4.311126723747917,-6.499980828973553,9.551693293563808,-1.22048936366779,2.9620152751418156,0.4223823659036305,0.6441431975940061,0.3698348184632793,-0.7348227136402377
5.7953685770650365,-4.210963815940706,11.081181782475607,-2.12744798821995,0.9115254749863764,2.0655919302930457,0.05050673332076223,0.3749837522613823,-0.8556280887530748,-5.819472767840655,3.608478537131491,1.6108008428540739,-9.611528965511578,0.03770532131003883,3.7393977893891988,0.35945786968114307,-0.9032194804387982,-0.21685171706528422,4.206695568197406,-12.388042912986672,-0.828915921634366,-1.7170642078055807,-0.7698728402100792,-0.756892546808237,-0.473686348591866,0.42699980835256485,-0.8003369949893471,3.507186442223079,-14.095718432946116,2.8201405850204893,-1.5001073917129957,0.519389002957405,-0.9667467439122545,-0.4574957252503727,0.5569396551899635,-1.0111574802148873,-4.8146835731103454,-5.785058502190934,9.010337992774287,-2.883826156000631,1.7969869718508942,0.036910677991310925,0.674596966845496,0.41870483633707156,-0.6730331372345667
2.8687322680703384,-7.108971184979042,11.164067229011104,-1.8965515262043424,0.9717922840405994,1.9998392834178285,0.09135001682928955,0.4187730978792925,-0.8257116888259902,-6.9295300092464,4.2713318093820085,5.163173022558707,-6.334959348835399,-0.6002141933194465,3.0665937626574977,0.28183650390501797,-0.8737348742910185,-0.36810063098323376,5.134026151022315,-11.653785566540728,-2.3414414050629175,-0.5483743146974981,-0.2868343764199063,-0.9717578771601766,-0.49266997607337004,0.42962553736732645,-0.7897762294496466,3.6117207040146346,-11.258185925240033,3.014952402177235,-0.3378954595282666,-0.4093487359398229,-1.0574888449045932,-0.4800019434217926,0.5564036522509327,-0.9958443267032882,-6.246249165354832,-4.973642776053889,7.754934606570003,-2.72898003907194,0.6110286943793132,0.19313852502808868,0.6840429231614696,0.4648364753958541,-0.6322544661671212
-0.8840915761069732,-6.606268974404024,11.003224001443963,-0.637947349674488,1.0245320922181778,1.4547209581553227,0.13604102559238343,0.42693707737795555,-0.8197601058027537,-6.44619852977599,2.2392089360085405,7.032371119802365,-2.550443344444721,-1.0191522915742863,2.384670228299399,0.21601088488665318,-0.8695310251205779,-0.43006357295665265,6.6972021034675215,-11.684986812930376,-0.9065662783268814,0.9269792785937099,0.22492802017721214,-1.0445568620424859,-0.49410898492838556,0.39063205751608526,-0.8059427537392406,5.586099003814902,-10.568645352927337,2.6668477096069,1.1252228796401356,-1.3419021708016856,-0.9264423354759244,-0.5181793099684165,0.5154811149731137,-0.9969516217453739,-7.475699926849746,-4.966565020358788,9.263145121373853,-1.4495138766403384,0.21415375430521652,0.6657299851569543,0.6933343011192391,0.468615650220553,-0.6151437736536594
-3.2573478866611727,-5.402086525737243,12.35113116717777,1.1421234853622626,0.951342836107576,0.687272684088893,0.1574620711944986,0.39929890407292096,-0.8290333420594752,-5.187359050685438,3.2678325008937046,7.442376493723202,0.7730829049655737,-1.410477892736887,1.3538336999364067,0.16532438965348611,-0.8833157412422783,-0.42020645210813545,4.887894070944115,-7.032434661005836,3.2152337688994073,1.6002625555753904,-0.06598405216862101,-0.9284129054099415,-0.5109329565264633,0.34757080477793256,-0.8195497172979487,5.180174747739196,-5.293776392559494,3.8165663462098953,1.7244968838370047,-1.429686132689586,-0.7951501476309715,-0.5597937830009923,0.467723701189375,-0.9968931075607607,-8.55911515886704,-1.1557749811344566,9.94166620556102,0.47194579895900335,0.7967737302542682,1.2942988706920233,0.7156951080661049,0.4409091473076319,-0.6082148849244842
-4.120801545951253,-3.533420877253311,14.72839108904069,0.8916002064049368,0.8537195426240317,0.20105985350757682,0.1864558106429097,0.3743209622424246,-0.8360922451406907,-4.06678912733817,5.516938066620984,7.455577499824099,1.4616491167486887,-1.740079285760889,0.06260679894909829,0.15592843665214703,-0.8976205690294462,-0.396748726234213,4.798333903319485,-3.041885913436559,3.9626425082230186,0.9292740384947005,-0.9871999017228758,-0.566138593379832,-0.528601088818665,0.3137746828326022,-0.8125010283587472,5.229528627611289,1.3451148786531948,6.886885273703838,1.049695219221864,-0.9758444858974038,-0.5297444210318728,-0.577953037267637,0.4308806088534875,-0.9940102463763446,-11.081198080846292,1.7051354068751265,10.709485830367171,0.5974330452315048,1.525592071402937,0.7387285075891598,0.7510066591600395,0.41601181254904424,-0.5880866992322944
-5.797533897576624,-1.392735575459822,16.74333353378202,-0.4188564770881752,0.595037482640754,0.14404755851744783,0.20206332151843429,0.3764570393518467,-0.8231218045601635,-3.1632993906151916,7.571114558687066,6.731229634245463,0.9918980834318293,-2.3660979128519743,-1.4280494523180192,0.1684708097406849,-0.9067407162603973,-0.37708471093230433,5.680593332303813,-2.5859614831682127,2.4776961556827204,-0.5286862122594189,-1.8385505127074917,-0.037764198373689974,-0.5650490372539243,0.31672491336880015,-0.7781775180830781,4.785054742053711,2.1938862281824094,10.396362871074523,-0.38290287281462176,-1.1892919831284645,-0.1053790603045667,-0.602675805919746,0.4324911927768405,-0.9701443323858828,-11.877810684514465,1.0759634837820398,9.15431668059138,-0.33646704311882225,2.1811865989966632,-0.1758128810731631,0.7766448132443835,0.416616542774667,-0.5368130340473123
-4.694945211045374,-3.1744795175185216,18.620266235109487,-1.527191002558585,0.031233520597468853,0.343512614115103,0.19406191119423263,0.4128223428406459,-0.7959896554932118,-4.830230373801102,11.687015524425544,7.836819181025336,1.0045475133989903,-3.2857745172535613,-3.0074626715497295,0.20016027725933264,-0.8913871587069594,-0.360315211481282,5.890482830507038,-4.085384439021922,2.4381293211881365,-1.5003965108861426,-2.362904486440209,0.5142986943065483,-0.6156349373377888,0.3588340074088001,-0.7178470254128229,2.5705831963333523,3.43209421944819,14.878090133593117,-1.3595260089710575,-2.3492338127743286,0.34084486192257374,-0.6579298898373614,0.4698438810730177,-0.912930602272616,-12.33903899091503,-0.7084094539125033,8.165991221519716,-1.3321022141452048,2.718100618162239,-0.9709708387946047,0.7894809994015923,0.45449813582453874,-0.4628758482140565
-1.5502994692412253,-6.912264323914973,18.37224956589774,-1.994669080823861,-0.5003332504599426,0.24161119893846306,0.2000075561665858,0.453066494834708,-0.7790809316755618,-7.523027838430607,15.600159287271829,9.419620820183297,0.07003609763894102,-3.885470895463844,-4.198612919734911,0.27395638316866366,-0.8697653817377763,-0.390616801329237,7.434784343196461,-8.352715720492935,2.7468818340736805,-3.1429314403492454,-2.2067603464183656,1.2424932175978727,-0.6258216875689048,0.426487501461155,-0.6526194478766545,1.25620992824727,2.8969674113566417,11.278078944887802,-3.183062694586183,-4.1442227438978385,1.0238670884956802,-0.711987842833374,0.5406553550470693,-0.8200955213037111,-12.31476825819089,-4.220634945865833,6.0438625965310635,-1.4733002320593234,2.4598108054690693,-1.4414801925061453,0.8133001382735321,0.49192497734442175,-0.402368504104066
0.05072195975690713,-8.522895674777413,14.152875321286128,-1.336939602989383,-0.7409778609710397,-0.21338166185118435,0.17396089573973816,0.4848690290939243,-0.7705428350902649,-9.688686192133883,14.708877484868063,8.220279367146206,0.4229075751197882,-4.147894086744978,-4.653822842517036,0.33716131769035085,-0.8290562052954048,-0.41511771742421427,8.241445549196483,-12.031802638109106,4.364843681410052,-2.3427216899471386,-1.345575635821192,1.9576558530739303,-0.6260756008699071,0.49949460764938514,-0.6080077678135137,-0.4342593872515379,0.6087454941364636,5.153796579961754,-2.2485175118783625,-5.624993489990498,1.955865216400879,-0.7819992306573733,0.6093699171981671,-0.699487243327693,-12.280323036883138,-6.508126875025903,4.302739742491865,-0.656524821958443,1.4623009788611396,-1.290668251363683,0.8075727869906265,0.5279229282884672,-0.3736079644514048
1.484342169168139,-7.7318415811910395,11.708301249763455,0.39179778411147353,-0.5757458612283941,-1.1058388509211974,0.14686430141412563,0.482513779956728,-0.7762116369438242,-8.908809891502306,15.406039059493382,8.095685182770877,1.3935012008791643,-4.229498330198655,-4.334417942400238,0.3840862654890457,-0.7951885648938134,-0.42017964252423745,8.990562541992334,-8.55147053932446,10.629149331111364,0.6952483777981986,-0.4989740797733485,3.0958838096734693,-0.5931920958596811,0.5418910051644963,-0.6052131504903132,2.6445952142896694,-1.1145302289857781,2.5622277908859084,0.9932199671694751,-5.8519370565448465,2.9482594609136945,-0.8222194863636354,0.6520423252522792,-0.601911737918875,-11.17941406477877,-6.151633206180665,4.719460539268764,1.2016380567898575,0.42331778582602725,-0.21837925444429312,0.8060891280833847,0.5228212978345562,-0.377297777584707
2.523584306495726,-5.165614798140822,9.917909892636606,0.35770640941597176,-0.2676986317239432,-1.1693223943005888,0.1253471921891107,0.46939554397245714,-0.7789530293381669,-6.2988286861812695,16.155470163773586,4.54573215578442,0.8343701713373581,-4.463056743771355,-3.5217739974206896,0.4105578695751505,-0.7788680124233249,-0.44541542858622796,9.518297090010556,-5.504637623191991,15.989314253992909,4.056861073186759,-0.20156869013861625,4.1465087876573685,-0.5363724488181449,0.5252375318432335,-0.6577958229063596,8.18702874700617,-6.379118334762419,7.058275856640522,4.895868148843707,-4.598198818209497,3.0368421972880775,-0.8347579295256485,0.6426469683131053,-0.5793031827005846,-10.222799519505147,-5.240572238390846,5.431003782953797,1.1984731828077158,-0.6587589808565806,-0.2932897567279542,0.7974923712906774,0.5088365317937068,-0.403985197063363
1.607899907441992,-3.7877935488056136,7.25168688825232,-0.48567850590860445,0.1663018440309978,-0.7402248229506191,0.1160859295407631,0.47966726652808955,-0.7718768064828271,-4.867583084910035,14.074942510559364,-0.23261107804795753,-0.979353328190162,-4.442508623600304,-2.6399378293457567,0.40531815693325585,-0.7390247707469819,-0.5132293540967814,5.3084128731855085,2.243134052490808,18.33545225665935,4.577805384530427,-0.014648788926740909,4.899392837702669,-0.4756795966213457,0.5094625208514638,-0.7179762422753455,8.595793723421489,-1.755226445352831,7.26105148415385,5.828098244678183,-3.0787057094379735,2.843936961158264,-0.8347430807201376,0.6283509830655433,-0.5959972835243623,-8.742076000621482,-5.232813374381323,5.218836473501912,0.3703190200648425,-1.3622910339357999,-0.7140985374143711,0.7706690050188911,0.5178873627295486,-0.43396594932577975
0.016991254413874946,-3.382489262604221,6.934413975628121,-1.3463519594499453,0.7507198650206136,-0.2427913559534711,0.12859358986434213,0.5132934476156391,-0.749593531371271,-4.376475179546046,9.818097636559708,-3.5978144849828007,-2.8825416021604595,-3.6746703312644535,-2.0605909339827755,0.39767296540941555,-0.6690377608284146,-0.6025503717982282,3.887776152859329,3.603386741559412,16.59381424318683,1.4482868171959253,-0.16133891473320533,4.064935162632512,-0.42483448853340844,0.5399325359305559,-0.7280764012149797,10.516022884567175,0.34918918536983407,4.829821386909481,2.880815404518321,-0.967868300429288,3.1758131403316323,-0.8009258477257286,0.6620728271980336,-0.6125276810363968,-8.545765387013967,-6.047991943952697,5.638350674225333,-0.5997925195238532,-1.7866931181064714,-0.9848039438610121,0.738066448970786,0.5491301115551286,-0.45576764694206406
-1.4489145041664624,-3.415801883136063,6.146258264276419,-2.4863034720149004,1.216378170399823,0.5129331621258578,0.17260683283064035,0.5612116413127568,-0.7103889763757719,-4.450923359164725,7.128313840025826,-4.300337238102038,-3.2442905027129902,-2.8716179959821586,-1.6944015932262648,0.3883419895697768,-0.600904991026788,-0.6854876665397294,4.508519806775084,-0.7251613035537139,10.324690033125936,-1.263571605904154,-0.5556407553863029,2.844965965636239,-0.38645555242929425,0.594699751406088,-0.7085969137070144,7.327295064468547,-9.993535321715632,4.950173148341574,-0.04159640110095679,0.25226095219787686,3.173032350237493,-0.7441369005721583,0.721783421125687,-0.6163711021681344,-6.903619799448651,-6.2933782641080755,6.113503612208844,-2.038220345086182,-1.6000862289377908,-1.379596857010193,0.7113906115980464,0.5985634878379641,-0.459160104420461
-4.4002674747652595,-7.474994281659654,5.306019453730304,-2.6475328797932938,1.3208689356072443,0.9670406324220379,0.2063302067648782,0.5998759398225575,-0.6668202086030132,-5.065818788165992,6.011742185803594,-1.4254345666690083,-2.6897954010552523,-1.8120583155132943,-1.424713546269613,0.3711041783148109,-0.5524838123458519,-0.7475647650164384,5.286763801248946,0.4189893499749537,8.905675023552643,-2.8192232897744978,-0.7420545793401863,1.4138668589999257,-0.3823767461647137,0.6406758614931831,-0.6561401937493645,7.198893136818089,-9.534195206330166,5.744034956382691,-1.945102758175486,0.48003839599420606,2.470203196886933,-0.7059749201914927,0.7755443086347982,-0.599555186830027,-5.552461000002016,-8.207476516876884,1.8908563450151559,-2.7568982252747323,-1.253441014175431,-1.424348988077324,0.6705249018641846,0.6398890806798312,-0.44379821989362056
-6.080407575229045,-9.820261985886757,4.562499747883255,-0.8330709450816717,0.9565937919789801,0.18090706177760513,0.22416937992915115,0.6190842027001575,-0.6457666909149854,-5.1659355926041,3.791958623198952,0.2867916208089621,-1.1645797156421778,-0.17261059642982507,-1.2391004282716251,0.3862321806629055,-0.5095870760776849,-0.757113074054974,4.229737506867827,-0.8484755383092706,6.562640960793934,-3.7767266584514245,-0.8135250115573005,0.12144046023478211,-0.3924964698645988,0.7060613190074791,-0.5752618736203944,5.639100970402263,-14.728555904465221,5.321564990799691,-3.340720232959659,0.39298581637876195,1.4788801148474071,-0.6769463899295103,0.8409995257310026,-0.5382545816150871,-3.6552709239680707,-8.369427919440886,-0.587134019630127,-0.6158321535262937,-0.8164580562519302,-0.20415471996132567,0.6588671740619021,0.6567616365463306,-0.44102012287952214
-4.4656589337828585,-8.314277209598743,4.260765237087032,0.49394444348867345,0.35537543188554743,-0.2520654958216721,0.22954681471370886,0.6188296668708276,-0.6496631533682135,-4.887555204758192,4.557079400320581,-0.24535532814457273,0.3897204581401989,1.2218492518387094,-1.1802464146364435,0.42916957737406136,-0.49683720836328227,-0.7391003183542475,5.158136228454619,-2.4267213347209164,4.330842574737081,-1.1260660394813022,-0.6727650617709044,-0.6822481045706799,-0.41234685767198676,0.7232278662814338,-0.5526489744567005,5.721031051491661,-16.226914950959085,2.9153198402542007,-1.2730872217234552,0.1622788031827824,-0.2925967901721022,-0.6747595016610006,0.8567585799285274,-0.5220326683647788,-3.1086744226261906,-6.872309663071238,1.4453033852971504,0.5603322079283063,-0.07562598942291211,0.17356527073408123,0.6637455279947123,0.655590409143322,-0.45323375572469465
-2.439266981110529,-6.325146436626353,3.4602278206641093,1.1889062320966355,0.0668795026045809,-0.4428038694886766,0.2212202670737699,0.5891106287113332,-0.6821877508488023,-3.466085368732232,4.931646963775079,5.158870393705273e-05,1.3727555893784582,2.2063696815268394,-0.9100003601600134,0.47795749224003836,-0.5193397040828764,-0.6995015174706372,6.62812256806782,-2.2565177439839053,5.200213616636228,2.677824655849572,-0.6150351027369029,-1.0721676280612684,-0.4413547422023615,0.6651739924226518,-0.6014352916989466,7.842470342131358,-11.047038952300756,0.07202963387277551,2.229267076193755,0.3639172636489001,-1.8319396554531602,-0.7057543038341155,0.795891912315662,-0.5750079602276316,-3.6049352659310228,-5.728964000969143,1.6964246995432664,1.190259153500386,0.4198831220415225,0.3156311320975945,0.6756177342326053,0.6307548609065388,-0.4736334796645755
-0.8689818521891037,-5.3431918020894065,4.226384321722239,1.5813633754952074,0.1443576253910706,-0.6137989648800776,0.20849711740418445,0.567688013627687,-0.7012817170806587,-3.420097527663153,5.541850726562308,-0.06362521257496309,1.9120016732398248,2.96107865067928,-0.5406710083789236,0.5277561688947303,-0.536439773774791,-0.6297190020604492,6.348413697530553,-2.052832777106787,5.734659450684015,5.454315454026216,-0.9056649745041843,-1.3525036132325599,-0.48572511688081643,0.5679189836419962,-0.6675412793851473,6.960014253830315,-7.509313738157738,0.9462891881260632,4.845756872496456,0.7222862207879841,-2.769116645546225,-0.7467453816126436,0.7008319772105575,-0.6599735953713057,-4.7533704319675705,-5.425410579320052,2.9975913737778686,1.6124804552153356,0.37901465026608333,0.5414655402352242,0.6796921652838566,0.6100613617457875,-0.48717442837921837
-0.12559351552261708,-5.631219087634722,4.758170293714386,1.573066164703504,0.3895718404263045,-0.5092445370172075,0.2042981792004475,0.5367227677942896,-0.7235453120383123,-4.1177871723594475,5.885156808805023,0.2144120568831348,2.172160090664618,3.539702822385691,-0.24358630476209708,0.577433135392588,-0.5719077442728745,-0.5486368068489368,6.215036632107045,-0.8975336095367972,6.64552945023505,5.2562377147474555,-1.1974828734835095,-1.8695849137255365,-0.5354904573443195,0.44883921342019584,-0.7219056239914685,5.850422039376747,-3.2307470601574324,2.950171730752116,4.655948460019153,0.8475959358424596,-3.014782196706359,-0.7822248406500624,0.5756548042261721,-0.7333984212549902,-5.174063274025392,-6.544386251484411,3.4021523682516723,1.4308523836912743,0.04506704364948372,0.5542909710465203,0.6837195702914145,0.5762449654530067,-0.511773000953144
0.2621832740039835,-5.63234558656981,5.671752225970924,1.2073860359831454,0.6726104534881471,-0.24567833074240727,0.22282991390325493,0.5186235127617366,-0.7394046013405278,-5.287024902241177,7.721675441566058,1.1809843902403259,2.2773770484266684,3.9657606586862446,0.05319886687588969,0.6344181280460898,-0.5980214481190881,-0.4511233720580703,7.724364061124416,0.30866253606396177,8.776761733204856,2.1267466307117004,-1.3605783537954295,-2.4773180327938817,-0.5738396745841505,0.3771925304692159,-0.7221552741747345,6.913820259002198,-0.9971940786960641,6.5946318638828725,1.6534195659312079,0.8770303494773819,-2.8106001001503995,-0.7866958571709683,0.5031137545362238,-0.764888577004847,-5.590020415108561,-7.336265027927055,4.128070259033142,1.0146797272250871,-0.4359936465184961,0.4818015843269164,0.6936626216998264,0.5582470441300142,-0.5311584464146507
-0.645064286103886,-6.832502673904284,5.782026823449897,1.2408245485667615,0.9422079307878116,-0.046631662501383356,0.24720069987912052,0.4944017417104466,-0.7540390401086338,-7.51957024116407,7.993351590159641,2.6492520842934315,2.3768238103418655,4.2533112234283195,0.3396300014599217,0.6775135272730015,-0.6257746091955482,-0.34500853410061416,8.456640603693424,-0.6293175778016723,8.287192506547592,-1.0762180546285,-1.1706588068582118,-2.8484889599429652,-0.6162835138079866,0.35297737592784584,-0.6955609218893578,6.277107963106065,-2.422909924768559,7.606882233519489,-1.39732934865295,0.6855434962096081,-2.700490999844441,-0.7928521971555043,0.47653645131878286,-0.7680087482634496,-5.409351528194964,-7.872533068402063,3.9990903688893797,0.9474274240923701,-0.9208341429748188,0.5174769366633909,0.6945699971757855,0.5393750628807386,-0.5632437030829808
-1.4974071254611796,-6.476574421862874,6.072347177626266,2.717886635651883,1.095671006606196,-0.38592575710679383,0.2629476736831728,0.4401805314052544,-0.7731229123324411,-9.487546902158076,8.11062984379146,2.505194868934562,2.771333439288438,4.523729191273514,0.4840708993521512,0.6960030597467929,-0.6534625779928367,-0.21271958646786218,8.747439139724852,-3.836333272549145,7.020470797119526,-1.9824851023759071,-0.5093076429982805,-2.9216276323421377,-0.6511213454819145,0.33584197667114635,-0.6666396580758144,6.268599057254939,-2.997330226590446,3.1571900659402443,-2.198856036641968,0.6919050299546329,-2.7403419157155655,-0.8078259804057577,0.4581699348758981,-0.7542546096162034,-4.612659073119273,-6.91256411231848,3.4906392726704203,2.490731074381988,-1.2698847028028566,1.2230732849295043,0.6899784376274576,0.4856924308674645,-0.610411661232996
-2.8551866064836937,-4.538778228456669,7.265605297431307,2.394315453452968,0.9782119422145301,-0.19222553209755305,0.2704042833869616,0.38794081477568404,-0.7949044665053545,-10.270055153161353,9.620834206772923,1.83059005307305,2.469753729748688,4.393614529538061,0.5097454544873221,0.6897999227621462,-0.6792870953865121,-0.0921344142038833,9.868794021042714,-5.561451114147265,6.284360179692737,-1.2917514532693415,0.22666879196481868,-2.6706085802525896,-0.6807282513542272,0.3123132812456778,-0.6623319084030107,7.436986753879235,-3.156326027570512,3.3632777276370938,-1.4513479822192563,0.9386530132007557,-2.5752826115665894,-0.8225113549449985,0.4297052847415663,-0.7644917412639015,-4.61240457261692,-5.081985449739564,5.295211425030721,2.1318336027645137,-1.2116874627616243,1.0116934961980182,0.6724462064808736,0.4315634666583734,-0.6566058395531443
-3.930095628464704,-5.072264764160955,7.693451302308143,2.136267959699027,0.6708674128333224,-0.09699046768977308,0.2944868476577048,0.3393244014312338,-0.8239758479081548,-11.797456145045505,10.60924583383664,1.948667325947908,2.1918592491751534,4.152567949472882,0.6129927940929812,0.6940539026826134,-0.7028583338152814,0.013985830202028107,10.575723229602238,-7.248825729670656,5.871398707177813,-0.48900993592161923,0.9716636777684001,-2.361879736069244,-0.6721824015744916,0.2737121915542308,-0.6839229360806148,7.790282734551386,-3.870703531051182,5.612351427418324,-0.6174374245421506,0.7209742010362653,-2.3371631259436887,-0.8186461519429807,0.39001306507052547,-0.7818274990592514,-4.602739084647993,-5.013122698754401,4.534134985809877,1.9335069473020532,-0.7357903101559946,0.8974772986517484,0.6790901497932439,0.37900918488908697,-0.6942456820870401
-4.832459989537971,-4.571890145835645,8.781396596239155,1.7393847560396096,0.16340253028051047,-0.037170840587138355,0.3036327686676024,0.2946188610018686,-0.822551550959092,-12.2206225767774,11.145087030408881,2.2417516291275947,1.6469465812477504,3.7842016523427837,0.6371099671010408,0.6806684295461163,-0.7145227624113369,0.12237998455750818,10.20936808887329,-8.931751970858418,4.895937825046138,0.3406283609930846,1.6401763409052657,-1.8917360889994086,-0.6526477153079481,0.23241205575322646,-0.7030947176432737,7.976587310649159,-3.011360123954631,5.24288284063222,0.0037480335486022734,0.23715786331721123,-1.9814718982282675,-0.8256106273139098,0.3460205195217659,-0.7723676335238419,-5.483564249568743,-4.248497181883422,5.532154878393248,1.5581975543000723,-0.13544727708480253,0.7161044534064748,0.6860131999165556,0.33577938563911963,-0.6959462195896055
-4.482540663992356,-4.87305910482479,8.925003151528585,1.583228274151308,-0.33082270002833974,-0.02261424495380473,0.29016850347828216,0.27051143867198024,-0.8409183295693998,-11.493823602502967,10.914816196119697,2.885962025736804,1.365273651185224,3.1319305327513307,0.7317809188386439,0.6463972283659142,-0.7133964877866082,0.1998325797376298,9.626467952562404,-6.968601856551242,6.939919575397513,2.13240836978423,2.0073748241267344,-1.2997185006320895,-0.6264254513557928,0.18300169337637065,-0.7471141249997032,8.912661880051543,-0.9909280501501877,7.582743498283102,1.9738529967620098,-0.2616061624584271,-1.5796073121834453,-0.8432848200458796,0.29994069559687697,-0.775891447129075,-5.550534081575678,-4.562008626076621,5.496135134281757,1.4075717078661467,0.5294932036215863,0.665344908431956,0.6952069164887791,0.3125588496064035,-0.697293825964984
-4.008762438965829,-3.678029098696825,9.816550485665429,1.1156318783058796,-0.752705103779155,0.053973650335201774,0.2659495934064017,0.2437456971543322,-0.856622269741873,-10.136781625832182,9.536027930845103,3.8725866616163884,0.6709494239483499,2.3382885981459522,0.7317083671333903,0.6101542998590247,-0.7208784712012334,0.24544752709513284,6.72857756155754,-6.511063787621656,7.669513797522979,1.1777839174273952,1.826053623099069,-0.7979448044608982,-0.6011200886094354,0.14583597144763813,-0.7880895590522109,8.744771283436586,-0.9089137724520987,5.128597601816282,1.0416269609342919,-0.3058247278621807,-0.9843343522628957,-0.8563181556133382,0.25725601459360176,-0.7776698432139356,-6.205553419701595,-3.8108975372326834,6.620200884895466,0.9561442541887818,1.0191713003338259,0.5465765187205146,0.7112215627811491,0.28535407489540654,-0.6886530836326276
-2.8129727532187214,-3.794025617375114,10.204673124440022,0.7404620714549716,-0.9368596137453519,0.100935969012651,0.25223646080013123,0.22645767593005994,-0.8615527002780387,-8.599790730797698,9.191792492972596,3.240075683377413,-0.0019207937492720158,1.5274786434300884,0.6637351282359172,0.6007616373570209,-0.7341318502248437,0.27328303764514744,6.719561447279026,-5.756473678141835,8.455340435875577,0.2909990116789015,1.3425690373081887,-0.29964070241752166,-0.5643621418827044,0.13770917166466573,-0.8045343491306,10.040317432172074,0.4697634017515932,4.264207476879418,0.20130883316841935,0.3115006044918676,-0.32764565408161694,-0.8411970007694698,0.2494140808875727,-0.7784102174017604,-7.099663454577346,-3.3346340353903994,6.588373436310802,0.6259048888059497,1.2128006208588662,0.45727760045967736,0.7455862711623179,0.26875578889512547,-0.6675026760542832
