# sampling frequency: 40
# units are seconds/meters/radians/a.u.
seg1_acc_x,seg1_acc_y,seg1_acc_z,seg1_gyr_x,seg1_gyr_y,seg1_gyr_z,seg1_mag_x,seg1_mag_y,seg1_mag_z,seg2_acc_x,seg2_acc_y,seg2_acc_z,seg2_gyr_x,seg2_gyr_y,seg2_gyr_z,seg2_mag_x,seg2_mag_y,seg2_mag_z,seg3_acc_x,seg3_acc_y,seg3_acc_z,seg3_gyr_x,seg3_gyr_y,seg3_gyr_z,seg3_mag_x,seg3_mag_y,seg3_mag_z,seg4_acc_x,seg4_acc_y,seg4_acc_z,seg4_gyr_x,seg4_gyr_y,seg4_gyr_z,seg4_mag_x,seg4_mag_y,seg4_mag_z,seg5_acc_x,seg5_acc_y,seg5_acc_z,seg5_gyr_x,seg5_gyr_y,seg5_gyr_z,seg5_mag_x,seg5_mag_y,seg5_mag_z
0.6032373032192906,0.1919845452397617,9.647689745398056,-0.0066983121877803335,-0.0013354041952378661,0.010214310817200275,-0.39899070673177145,0.12601670722824443,-0.5667575980223225,0.1632140766369472,2.324159253365974,9.534019141212266,-0.008673663091056345,-0.0023405182609732866,-0.010096128161473459,-0.954253092842067,0.3035500364273072,-0.09036524644646232,0.04087046920498422,2.000584328758099,9.52787217041053,-0.0038889702186984797,0.00326794401446772,0.0016655688386797176,0.350842106233535,0.6000511316297292,1.0099431993198917,0.39145390079520914,2.0314433414292927,9.696616762894148,-0.0015840756093906407,0.0036086619242198547,0.006187932092421467,0.40193590315770433,0.06984231011133177,-0.5333484691129365,-0.34747844190030086,2.0133767898282056,9.63048032744627,-0.006019727052193726,0.0036516675291838963,-0.007035677684018151,0.36675523491637163,-0.10819627843412484,-0.6354612407916336
0.6716473265822964,0.2077911943950324,9.780783914665367,-0.00902626297889628,-0.005203672036403055,0.010405776279228925,-0.3980619893730949,0.11623285669417188,-0.5651255077078421,0.16635072459662312,2.354149731839398,9.532583268476897,-0.0101599426769759,-0.004096023659595419,-0.009884201787731688,-0.9553239081569807,0.2967092817529703,-0.09120034167868656,0.03950142876477625,2.0109734600985916,9.515568013053642,-0.004235652110420641,0.0030667623422148405,0.0038689205129935297,0.35290791384870945,0.5895202380847159,1.0080244127135474,0.39950700001141676,2.0395575596810316,9.676062753816185,-0.000596037401788876,0.004116637459477463,0.007778334040326097,0.4007269521813462,0.06277988165112769,-0.5317915465775283,-0.3420161274941184,2.0158410522086005,9.586633211825644,-0.004533646146219035,0.0035619987837247047,-0.008131293518599425,0.3692273317234453,-0.11648390671502579,-0.6360163604670795
0.6709266075316959,0.20215685677178097,9.759482691587868,0.002287718465565537,0.0075067256779933105,0.013496348203038714,-0.3993433878583388,0.11871505657340842,-0.5699716227169532,0.18543692899486436,2.341191470224695,9.536567424547318,-0.011608976043748045,-0.002648050814065458,-0.011135672099240854,-0.957753284454553,0.2946028186832764,-0.08795680809001973,0.05522009568255415,2.0043764846674947,9.525415876146186,-0.007478013963901129,0.002564350594340839,0.002688051745224321,0.3458121566100647,0.5871454658570228,1.008418243993154,0.4143737455951909,2.0493096371833266,9.687213674232748,-0.007120769064378643,0.00443396268446762,0.005518758541967277,0.39650430091090644,0.059840792045884196,-0.534351422461356,-0.32677997440622397,2.042713007245964,9.635270491432466,-0.011105035516594091,0.0036879998263424345,-0.00781354128779531,0.36460326107058594,-0.11797304506952819,-0.6356732401404964
0.6360643874707216,0.1980135074049,9.653953690860845,-0.002077536340701787,0.0029530989424386427,0.009853099785815184,-0.40321981405958396,0.1157950806508495,-0.5667534360352992,0.16994748452008251,2.322611474046955,9.546493472194685,-0.012050515909051124,-0.0019258309819973865,-0.010993046500151118,-0.9523189300393532,0.2963147509417998,-0.08439090763820882,0.0356909525611821,1.997838030505421,9.51560908012937,-0.012237066601308076,0.004662654533778621,0.0022016727036015477,0.35303382943718825,0.5898101476708109,1.0146123497727841,0.40613382717878965,2.0195585884104377,9.682305408204481,-0.008848257621623988,0.002626787898756892,0.0076697489135119255,0.40325296503731306,0.06402152219841156,-0.5284438320134068,-0.3413368449125187,1.9657851876652597,9.605702180885165,-0.012342190508088442,0.0006990736388611316,-0.0049615088944292935,0.37012330380204445,-0.1194193207113502,-0.6292025652907807
0.641486690307435,0.21496552309464356,9.752727851555845,-0.006260051182713119,-0.0033711706754543723,0.00800192248567609,-0.40235977166527387,0.11681150969368315,-0.5743301751149344,0.15347891236502156,2.3421374926437846,9.535877320447003,-0.005311674540941603,-0.002737158480515935,-0.009206376215626455,-0.9601273280428863,0.2937806915202545,-0.08131937651082317,0.022863181885019596,1.9884589436712705,9.532086545912591,0.001792433773862874,0.00200147066727257,0.0027179503921821663,0.3491438942165648,0.5864448987809671,1.0171513314365144,0.38964845936432213,2.033696743796813,9.681880184389975,0.0033028905439986245,0.0043095151797779155,0.005395652135713364,0.39719681895831943,0.06357223645508797,-0.5263414050846565,-0.3370776137665288,1.9927818963647816,9.602826493239021,-0.000384098005960952,0.007307663915324281,-0.009666033872405179,0.36406194367281164,-0.1192095581333185,-0.6271163291956553
0.659882663931313,0.1983896587344161,9.769131354692094,0.0012185982835805245,0.004263979741134739,0.012515074629839295,-0.39925175769352184,0.11304672351841666,-0.561707782187842,0.1708911770442858,2.3536549930220168,9.536260560289236,-0.009433872581767148,-0.002897798019460606,-0.012263090505634875,-0.9591153404280606,0.30196602393323224,-0.08685860320382784,0.05990631494074958,2.0207279215604657,9.505989073460224,-0.003266939220076788,0.0035668515425794963,0.0028510466859597962,0.3457346541330836,0.5945086284020964,1.0137404600448456,0.4130491091516169,2.0529957664637926,9.67216881962328,-0.001973056148931943,0.004675029151014124,0.005408537405836259,0.39470238260336676,0.06868163155272528,-0.5292579547597572,-0.3421957856260651,2.0423052628257885,9.660918205110725,-0.006334259028594999,0.003537324653753497,-0.00906750846994975,0.3635367384530498,-0.11188816614630695,-0.6270939942531225
0.6396005189590437,0.20477634252829569,9.710128499647267,-0.0012303477626482648,0.003094471202700873,0.01211352881527928,-0.4044338346651011,0.12437224476027886,-0.5703418228329139,0.17016471729510207,2.3164905732922376,9.547977026667015,-0.010920175946422611,-0.004653341244863427,-0.012053163632757413,-0.9613680162089386,0.2966371875129849,-0.08599881937489716,0.044339860877069315,2.001651802278624,9.521775380787407,-0.009739798790863143,0.004429773002351019,0.0017123173365772178,0.3459663005339045,0.5910954350225841,1.0147360939630294,0.4079828994966445,2.0538704422199046,9.685371469965297,-0.008251592674157423,0.0034497052085664067,0.007988305096438253,0.39271050929436135,0.06379705371753044,-0.5301443898068958,-0.33261648018098,2.004892460563377,9.603664058116264,-0.012405719514085405,0.0014674697135405852,-0.005403087356103145,0.3613097319410394,-0.11629072463217406,-0.629494852177695
0.6420180402613663,0.19880625580947653,9.702238033037325,-0.00596923779527498,0.0006592149137221711,0.007929717387207881,-0.4051578514415432,0.1219251611517189,-0.5686362685182855,0.15640065260300018,2.3467999929971297,9.529711860412519,-0.009584773611004916,-0.002486279744217861,-0.009083286016595303,-0.9638305171818669,0.2932823389106329,-0.08419664046767843,0.027381529420404033,2.00504652533384,9.512607238631862,-0.005520187868063145,0.0027966065198991715,0.003077758254662949,0.34202387298570697,0.5818715705145454,1.017316891817291,0.39612144689076034,2.052244813956002,9.6670544455938,-0.0037573482791317214,0.0037130890289871796,0.0054337127060713215,0.39320341796369357,0.0579452529030367,-0.529127040667619,-0.3432582642268187,2.0014747014077385,9.576551293803568,-0.006394450208350647,0.002407407560829476,-0.007451510207265735,0.36038153179079363,-0.12166812009511635,-0.6285055284105634
0.6533697744181562,0.2127598494878757,9.756768741056677,-0.004878538066788169,-4.6956716676753705e-05,0.013185262052672966,-0.40034366673065536,0.12289401837463934,-0.5733473409281566,0.1823090887151077,2.368440972946068,9.572875293386213,-0.009850524736582638,-0.0039066568484998525,-0.012453103255094399,-0.9531267168199279,0.29356915330879224,-0.08799227378937317,0.04720650120709666,1.985277453956535,9.548173954920209,-0.004533046498086127,0.0025297983303096596,0.004486368671225266,0.3530224823982192,0.5895627633311092,1.014126189065634,0.4174474187431655,2.013295044724699,9.725627489968996,-0.003030056833587392,0.004680851353256346,0.006342055833398866,0.4036973552734344,0.059371208979479576,-0.5296346763709392,-0.3459821004776933,1.9987132019963287,9.684677770626218,-0.005901107648124732,0.004016168832242185,-0.008213983347692534,0.3696073269377554,-0.12137324737452801,-0.6309036991686519
0.6855468088919994,0.16320238236574108,9.76186275900989,-0.008326545603683635,0.00016634980024732963,0.010856475811870738,-0.4080119458077322,0.11760461309569592,-0.5769193882110394,0.19200915645031552,2.3105277625988294,9.545186390605334,-0.007977611142591294,-0.002729507820400399,-0.011749459286110842,-0.9584395377306147,0.2958833025613722,-0.08528620076601431,0.06053401627092461,2.012926355731994,9.520500560209145,-0.005955022749650408,0.00446402021570944,0.0020140895126293523,0.34838569424869775,0.5891186616587251,1.0144603946326765,0.4225922206741293,2.042027024868533,9.671071440798391,-0.003759768198439597,0.002960654769912848,0.004940270886033939,0.3981212255389526,0.060379829055427305,-0.5280447959582595,-0.31329808470609616,2.001853456802537,9.575891070782928,-0.007819073055696117,0.0017256759921956042,-0.0059182764314998585,0.3671233708929363,-0.11698937394979561,-0.6318195038221298
0.6193385850677785,0.20813333683820415,9.722334006977537,0.0019946568980073803,0.008852031265541085,0.006259546575680598,-0.4052396804144125,0.11402875882439469,-0.5550109025303853,0.1356953278318847,2.3534528873631624,9.5187344652444,-0.00883845262132079,-0.0019129646865226353,-0.006923463610707071,-0.957523608380377,0.2960136514692406,-0.09067290027383822,0.007327560989961318,2.0168948904192256,9.513016225177152,-0.001922635675645855,0.0008635256070158891,0.003256728663054638,0.35051848105896494,0.5881013427902588,1.0114978515120092,0.3853156954786827,2.041621145179168,9.68823467184709,0.0008023046503703637,0.006139952217967674,0.006975736449226556,0.3972986863627771,0.0593740238774964,-0.5316794113777644,-0.34990268701303784,1.9923170560864376,9.561384097655063,-0.003732422598855404,0.00735306500307776,-0.004972254780687182,0.366115151341547,-0.12016505735994056,-0.6339999033760482
0.617263528206472,0.23977577774627862,9.666522872332186,0.002149706960835237,-0.00031740342290196487,0.012339826418943933,-0.40738315975207134,0.11877073441202263,-0.5688640158936467,0.1595911741749754,2.37050818489486,9.529900571936201,-0.009809459356134073,-0.004031466859893367,-0.01351749655438962,-0.9662590957658426,0.2962046038677969,-0.0861765302579412,0.03656869515048755,1.9766133155119963,9.521569690030613,-0.006853057850381328,0.0028612100755425495,0.0038704883416618967,0.3419425210385061,0.5845172694651695,1.011683854543905,0.395694938572151,2.054305090136359,9.712141053236369,-0.002049237165001467,0.0029295419062801632,0.00645414953815955,0.38711527214155683,0.05870294694339887,-0.5285000126063658,-0.3625772912540025,2.0241565277130737,9.750995297687844,-0.004040595040559083,0.002163102141249085,-0.009757459190011147,0.35736569998670104,-0.11923607790866929,-0.6318552921832442
0.6860867370259701,0.1779845092996763,9.77625385774901,-0.009111028117449188,-0.008965642004134933,0.015306062070197602,-0.40200262891607347,0.11750081495199904,-0.567738620190825,0.20739928154588527,2.3057855160284526,9.55454443917373,-0.013298485016096309,-0.0049553934169339195,-0.011561051395096809,-0.957305194496522,0.2995609137027504,-0.09660306781127373,0.0696788938844472,2.015296871811968,9.526986670904181,-0.013389680774559331,0.004825761028881558,0.001889110967498807,0.3479862783049053,0.5912531034882451,1.0051741581517204,0.44084455831453123,2.0479013399063906,9.669748705187331,-0.014128126882158183,0.0014913942547613117,0.0066916922357879135,0.396133592751004,0.06589034987698593,-0.5405011109500795,-0.3245731084051116,2.032261032026522,9.550598017614433,-0.01686734996149213,-0.0012861851842782626,-0.002987889547539305,0.3661421438035367,-0.11477974236486099,-0.6427835154354896
0.6720506532804085,0.20136406331923828,9.815982984947253,-4.047305124621904e-05,0.00901513360729028,0.006378780445730058,-0.4041574795300749,0.12288841804134222,-0.5676693252917525,0.1357188389877787,2.3320287009196163,9.537549085236781,-0.010116069165676362,0.0001159657982075395,-0.007551804325384633,-0.9584218918661657,0.29734793023339434,-0.08531411860645456,0.023381699334419748,1.983642316123501,9.548666698255703,-0.0017956746104867106,0.0012948544166631547,0.0037384364021474706,0.35132979845980267,0.589827392098057,1.0148892740545636,0.395389249874381,2.0123396950574914,9.697421061922014,0.0020653097701458993,0.006516597568672047,0.004601439848712297,0.398079141518215,0.06353422811892769,-0.5302704364241448,-0.33578899693348496,1.929224334149416,9.527590795050612,-0.0032394514973756623,0.006902826668761622,-0.007623243074780175,0.36909987450479737,-0.11649318668380912,-0.6306403406996686
0.6218976633195912,0.22727196746525055,9.650769646306719,-0.0012352381448920136,0.010166132310969071,0.012713525693578252,-0.40120913818111537,0.1257973218974973,-0.5679429996341043,0.1536013005984045,2.357238252261506,9.52104755773521,-0.005656374153015352,-0.005600017928271837,-0.010795528178099202,-0.9570152074899091,0.29699727989595565,-0.0899643717615472,0.051418395196276084,2.010686092534706,9.495310242520986,0.0017247007256142237,0.0031001576272254986,0.0018783980125152758,0.3536963748186405,0.5880741867061834,1.0116824207383524,0.39473406926670374,2.0640708495543847,9.681486613114794,0.003639467079768517,0.0048348101335202245,0.004542679423874347,0.4014629605656133,0.06229049654532902,-0.5315607330672848,-0.3508103449128136,2.0556593365203235,9.720852111524843,0.0006644297050456762,0.007863451494289636,-0.008691708564143592,0.36832381550327153,-0.11820226800501875,-0.6330686410236901
0.6419393020118022,0.18556032647462678,9.694654194013175,-0.012101002886536458,-0.011036441279559984,0.012885315441340998,-0.4062331102688905,0.11633959932040136,-0.5720726681578417,0.1745137018578225,2.321133441823646,9.528197571288432,-0.012489994739854758,-0.0029115837009446167,-0.011192227157755249,-0.9591452360171,0.2964124820796422,-0.0835783928242669,0.04161918498355116,1.999184417622038,9.525054304641184,-0.013134750755307133,0.005691402391986413,0.0028514865260860158,0.34623442002549976,0.5881821247794388,1.017437902128946,0.4221135075474737,2.054430736098385,9.685351724495462,-0.01267980404016545,0.0011696126189719306,0.007028029156495121,0.39840760809718007,0.06234484970192251,-0.5266035680480416,-0.34626126484169817,2.0162064782021223,9.599679888135855,-0.015751004942514333,-0.00262208672488114,-0.004500449256251107,0.364556984908179,-0.11749917301528842,-0.6263923361547308
0.682893538511956,0.17935753660461878,9.855430740102827,-0.0026988428312056814,0.002222480896351126,0.00847138725580433,-0.40446123980418436,0.1177712852865904,-0.568917999815445,0.15361243942012517,2.338556802925655,9.539174278691817,-0.011118815296462728,-0.002488656857662901,-0.008550869397198969,-0.9539890747647183,0.3019031232161921,-0.08691837651420672,0.03379712893661799,2.007709809606459,9.54323438496858,-0.004482759210390386,0.0021940068992087826,0.0029004464463051947,0.3542993650019922,0.5922493946402586,1.0157928327062722,0.4093299142453095,2.039842049800198,9.698432696492143,-0.0019700669063389673,0.004672018765693917,0.005408492584588787,0.40174490187826983,0.06498631869106901,-0.5303709498707505,-0.3325773774633659,1.9707766320063282,9.53797070705359,-0.005472104128052054,0.0054486537162731505,-0.008387185647873692,0.369996924199213,-0.11330984117732833,-0.6335857300172492
0.6446312851589527,0.22417437552813219,9.694963113790681,0.007722143585857723,0.012419189953000166,0.011161524149984904,-0.3993538960734613,0.1148005169939174,-0.5687760816436257,0.177307017865604,2.33459931004934,9.544469736313681,-0.0075700514715129645,-0.00502804788069814,-0.011174688283261031,-0.9635855522730472,0.2932793331225161,-0.08419949680882195,0.057239329665112804,2.003554487151184,9.501056813721558,-0.004422495572784964,0.00372801331493896,0.0025425545485466433,0.34271280363178563,0.5857417424308206,1.0131261515600847,0.4126445125211667,2.049937942663687,9.69086063313011,-0.001967650281661134,0.005423453070099566,0.005901943338046075,0.390063753848076,0.05748137499430897,-0.5275823816350497,-0.33272902321995623,2.022415678787372,9.660012997220194,-0.004045766403086701,0.006290061477227926,-0.0059742858003570725,0.3586561299503502,-0.1204551739728243,-0.628955409720923
0.6117353383157498,0.19338915612334578,9.66657698280232,-0.009036017169839742,-0.005180621747946656,0.010410082084741864,-0.3998656094750431,0.11995576895337196,-0.572641652187437,0.16869021285261832,2.315552037641474,9.541991814767563,-0.008665313616130543,-0.0024272167696194457,-0.011175857134349059,-0.9569771286476338,0.29921318074589026,-0.08903050162869688,0.02069543961818074,1.9905283525527857,9.515672529361312,-0.006869486762736361,0.0036280892825995645,0.0014439666803898537,0.3478206724691682,0.590311710036694,1.009823758787963,0.3958478783918529,2.031845880666788,9.695832910840208,-0.006267624575555252,0.002537779997391061,0.005038994330691163,0.3973618345553751,0.06793159608844516,-0.5302922231568771,-0.3479658291738291,1.966380837679779,9.594847244555389,-0.009618645749467119,0.0007473532388621414,-0.005832697753408827,0.36511015644726336,-0.11235790510960504,-0.6334783211653229
0.6675745266363287,0.2120138854679113,9.817195657808247,-0.006669412443471279,-0.002416359724431342,0.008391708845105181,-0.4032063190668133,0.11701446713833291,-0.5665008880610191,0.16101439787247918,2.3520978116241786,9.534436985424966,-0.009655603662089557,-0.002328374851511475,-0.008033168333322264,-0.9601472290560572,0.2963828845260414,-0.08576446554371202,0.04897526536559285,2.0118771807617377,9.519286614003466,-0.0011282532745845013,0.0012610436458009302,0.0033420633554399367,0.3435649045590581,0.5908889587554584,1.0169810629880065,0.4074897029284329,2.0566183720648734,9.688525959260291,0.00033479159307342867,0.004707424542774823,0.006751520033539751,0.3956823452908868,0.06258413033197008,-0.5282500762978596,-0.3381759611243046,2.022116979517413,9.588958873165273,-0.0021895237290575687,0.00634329523729472,-0.009570305030269828,0.3608513705484799,-0.11605042610308125,-0.6280192057258893
0.6589545512081438,0.2032447973025367,9.747774994556117,0.0053974969870706066,0.01082737752156094,0.012259504283622588,-0.4025799915941481,0.11940517426707098,-0.5591708243285821,0.17815987113183246,2.3418887944995634,9.529141902228064,-0.01157578641580647,-0.004465903637380313,-0.012552038422394336,-0.9597291866991942,0.2948291643776596,-0.09013514046738008,0.06617536854338942,2.0067078153458606,9.507387359074258,-0.009902317893509132,0.004323037262409778,0.0028073315022820906,0.3455841369303824,0.5873967686838816,1.0091529207349186,0.4144032239086777,2.051377353901904,9.699495656670479,-0.008177351281186336,0.0036892780505157247,0.005951747935696123,0.39408453248638353,0.06107678082959429,-0.5335722681132166,-0.32785204957591896,2.019493102982063,9.664615968406025,-0.011918533641703631,0.0030732122032197584,-0.00617343337095007,0.3629497842814731,-0.11944907473713595,-0.6334420662503196
0.62668456890311,0.18413088089200616,9.712371564955527,-0.00826785793848906,-0.0011670406424464743,0.01115711294411962,-0.39989727089933375,0.11947862602832839,-0.5743534223774137,0.1777408521353809,2.304518851143611,9.540765577320457,-0.010155603584956532,-0.004176807012775027,-0.010970996718769513,-0.9535164592924876,0.2968453149005365,-0.08292133777815563,0.02956184217494115,1.9930221672671382,9.52213000285115,-0.006914885205311723,0.003957814746314664,0.0030268387851379265,0.3537555321741201,0.5890698314884235,1.0143599094637985,0.39871271165633476,2.0133164286108824,9.678574847597924,-0.0058749094064517735,0.0029732495231909826,0.006801324631189799,0.40274457195068525,0.06133402667225301,-0.5288970364555153,-0.34669775706178757,1.9589965656214212,9.55973241815276,-0.010052872124362342,0.0002705083851625144,-0.006689197281047655,0.37007911917290565,-0.11697616766833753,-0.6306623008582606
0.6494781775195633,0.2106618588376734,9.750356911847277,-0.009244571278785585,-0.003154555798019674,0.006491725547851905,-0.3988847989450866,0.12264033468039301,-0.5736177764426579,0.15780579852866936,2.3502108916082447,9.517797669059672,-0.007705811289208594,-0.0030161904221548902,-0.008723513495857418,-0.9561054860229347,0.2944848828253023,-0.09310245299247459,0.023999904487354673,2.0235834151414833,9.528352713476131,-9.376850430690432e-05,0.0006604851040955874,0.0031667929984240976,0.3507056555270575,0.5868621888424483,1.0090604834207844,0.4137910948146233,2.0553295366665805,9.684382392848034,0.0012656675544299688,0.005305220160916251,0.00572564316787826,0.3988296763706607,0.05857022136732395,-0.5390362834114757,-0.3379411499678763,2.0084804031624617,9.585581604588986,-0.0005780115586690307,0.006779822136563704,-0.00789319925217942,0.3660702952738195,-0.11967414415155819,-0.6359526583926909
0.6758606641242648,0.21232225221991358,9.758149475954742,0.0038615066951078495,0.0036516410448646755,0.014727440433527372,-0.40483988693361433,0.12360898282305932,-0.5649682181981808,0.1749267491399476,2.3476555880695194,9.535196783490905,-0.009887179222031976,-0.0038595742125612847,-0.01247256280517966,-0.9571886770573894,0.3023791381168845,-0.08957600157863035,0.07529780532849745,2.009910442217303,9.513713060792172,-0.0058803914757701616,0.003358256139003962,0.002851561291035463,0.35297415660338965,0.5953849541584195,1.0087144426203596,0.42494758722988796,2.048577110695085,9.682326812762605,-0.003621428844942746,0.004608313611053214,0.006511889340521561,0.3981668942019458,0.06713252955893163,-0.5373866991521056,-0.3471814565487492,2.0469101272772563,9.65954286739427,-0.006524366221174308,0.003000519962691761,-0.007305772400334403,0.3672689392976702,-0.11014784103935206,-0.6347431264507981
0.6528201231701196,0.18373675822558933,9.720218140417472,-0.0004027764260628548,0.0034851256769800228,0.012262534736597594,-0.40051679523028605,0.11968491062101637,-0.5675049658162477,0.17240286357958562,2.312766723691532,9.537642267919923,-0.012922522908688928,-0.0039024021154180307,-0.011390394391942303,-0.9630873497991804,0.3031053425317149,-0.09367062696236592,0.04688394957684486,1.99370105678827,9.533204313582523,-0.010071733513848479,0.0042193928374925655,0.0039064544165954155,0.34611359337178255,0.5920310277137107,1.0091106818771267,0.41962577730725564,2.0299270212106992,9.706082838574423,-0.009573406112977556,0.0024143534716086867,0.007242824705191688,0.3932784774363315,0.06861026848521094,-0.5377710521037258,-0.3223063749921683,1.9782406701874384,9.584325103471487,-0.012842992738328679,3.2963245720609654e-05,-0.0052427117933058565,0.3608322173861993,-0.1111508259287567,-0.6390000621263772
0.6387626362511907,0.21465284764030884,9.73161805369895,-0.0069989709277144645,0.0008834254952207784,0.006933775475698767,-0.40491903475519414,0.11702914242044328,-0.5667179032836863,0.15640091008358778,2.3528038766198107,9.533194172629853,-0.008378697519111765,-0.002734964581751161,-0.008143687532058009,-0.957836079574803,0.30443859102122384,-0.08447898355676164,0.02043205587668981,1.9985446006056131,9.540943683968102,-0.003638998004694459,0.0022617561405594002,0.0014018343990898478,0.34848797458472425,0.59645578952263,1.0163607310348883,0.4001215556944039,2.045719984136874,9.68212648296074,0.00020280671287717245,0.0038071684546199273,0.005671293220717729,0.39666908662511713,0.0691670764041056,-0.5288211223123599,-0.34084688388855056,1.9721243710350413,9.577299321127752,-0.003738812954751226,0.005298034560007273,-0.006860633461303187,0.36573444952480516,-0.10797240980140288,-0.6261595750257802
0.6550277195119173,0.21425357254768185,9.74895398159226,-0.00207530344839318,0.0015339671905946653,0.012918536962646604,-0.39943085492224845,0.12600188179009586,-0.56382006610304,0.1673924303332227,2.3581440321217855,9.523023951795643,-0.009000810310130109,-0.003680741363837778,-0.013497739357892091,-0.953591667095722,0.2984014953742515,-0.09100889464778944,0.05227110174235916,2.0112949546251246,9.513589657596452,-0.004292553075236553,0.004157314981451218,0.0030242204352987356,0.35143603771762555,0.5902614014791115,1.0073137366427856,0.42699974580612254,2.0496771205182025,9.691026847277884,-0.0021696278410827975,0.0050349894650485675,0.0073446789663026354,0.4001072606072304,0.06346384618669755,-0.5374006105695909,-0.3289572587317072,2.0374804053407987,9.66357056724982,-0.005782406942398911,0.0034360102755791595,-0.008366460203611282,0.36820332038038356,-0.1142893909651104,-0.6377002747738822
0.6706014639792169,0.16866945018229068,9.758078510481157,-0.007532511563095528,0.0016739647173142512,0.01283338835526375,-0.3996216492963857,0.11995389543686329,-0.5726456423209371,0.18374047241012925,2.320425314291768,9.551454067984489,-0.011278956121347007,-0.0031672524484896367,-0.010248554568341102,-0.9550685551328392,0.2952878470605745,-0.0887338779655305,0.05463540187174323,2.0079082856378436,9.527143589390171,-0.007151034944229774,0.004954841090766066,0.003285376537272528,0.35222691188892674,0.5885730732499167,1.0112184369943713,0.4153014218902811,2.022864420065981,9.66225548655199,-0.006985773071310192,0.00382826912998771,0.005605921607063419,0.40022579410229203,0.062288286577397836,-0.5322643688097501,-0.3195759921789314,1.9892359506342407,9.561770003902005,-0.011237794669191475,0.0023717848764513573,-0.0056211117648493954,0.3675318458777427,-0.11698139777783269,-0.6354912163064441
0.6364224812283754,0.19869252185372382,9.738820142649752,-0.0030858666773072195,0.005443557493122626,0.009774314383574607,-0.4048942416684225,0.11457023764737986,-0.56404748522281,0.14814552767021522,2.342681197675688,9.515009239712652,-0.009130644190497882,-0.0016808409863045336,-0.011040407340550715,-0.961270969976948,0.30469213983618104,-0.08615235796904534,0.035200816864317364,2.0023852602212866,9.517085892544609,-0.004604822471165186,0.00175761205657038,0.0024156814499537386,0.3465534647107891,0.6001302134452045,1.0156392988586849,0.40166596260788434,2.0474836000783565,9.690703740570052,-0.0011140028533696928,0.004275747246285182,0.005919703128415213,0.3923075699936705,0.07187701693295727,-0.5277635094324737,-0.34759025046887976,2.004752502378643,9.615900419016128,-0.004485930038696172,0.005818179794071262,-0.006826648194523008,0.36080751002130285,-0.10848216949154346,-0.6282509989873757
0.6722507944427509,0.20929277613059322,9.708799578523168,-0.0014726243718977453,0.0025188785406875256,0.012185841553071198,-0.4051526036374965,0.1184949510456057,-0.5667048016952541,0.18861665279596085,2.331109197260664,9.5143487645421,-0.009732914124931873,-0.00487208430578001,-0.01112891158892341,-0.9555091336041214,0.30111538802311855,-0.09079337230650711,0.05827258216269918,2.0046590014997854,9.519229364404662,-0.005750448978221749,0.0037875578055162197,0.0033332271777875553,0.3522193020521431,0.5902734532939075,1.0099854845231127,0.4091806412779144,2.048751631946837,9.685972346835992,-0.005276231021135998,0.003793168806948295,0.00712085954176858,0.3999074025862708,0.06445678597860678,-0.5356950686202091,-0.332650025529278,2.0317157569680404,9.664658280225389,-0.009129377439370461,0.0023580984449440155,-0.006598080273342108,0.3684749785833075,-0.11453396048778605,-0.6364852436757771
0.8036137415516328,0.2297931153686622,9.656093653182717,-0.015483518246815103,-0.021421123169827083,-0.006513328399800003,-0.401847509681182,0.12096165019678029,-0.5748002926153606,0.2250240493343704,2.296569561174073,9.529181867093516,-0.013673814608405983,-0.006692149155208711,-0.00829892690288223,-0.958941680884317,0.29778176214702023,-0.08849093670753133,0.12309636584361303,1.9949787851240053,9.52359978740572,-0.006242539187233273,0.003921937745645223,0.002627387069911897,0.3478533708127632,0.5888638148535191,1.0122747252008018,0.4771931549074061,1.9920209839180425,9.660114356774288,-0.0037510383193689574,0.004461474032314762,0.005923096064188623,0.3960295201563128,0.06057879369325097,-0.5338584459877272,-0.2646791240552212,1.9820171570938505,9.528423997783891,-0.008939137018083656,0.0009985879998713094,-0.006311169256044356,0.36416668305295447,-0.11993144445944136,-0.6337132374710828
0.5486120894984927,0.13796616478615958,9.944789436175625,-0.0032421015418365447,0.0010064302893007721,0.024441980416185578,-0.3972802683742831,0.126737095298967,-0.5670249604220596,0.10339812879958893,2.3952571864803676,9.564842304534347,-0.004949456395056882,-0.001656134929577625,-0.009043087829301641,-0.9549080447430278,0.293474672879812,-0.09407482599045816,-0.01762016433706287,2.0007655904713695,9.544996356027408,0.0019184449755175073,0.0024258508351560487,0.0032057255967228903,0.3539797958791198,0.5868707573099473,1.0143710246866409,0.3549970573773657,2.049806907566725,9.697469950284463,0.003992763315145248,0.008360844538298533,0.005666386301306497,0.40414838055055674,0.06057431386111633,-0.5313656702597724,-0.39079089083144325,1.9806552149100902,9.617628543699826,0.00033299853077668913,0.01188698382042865,-0.006925091741729346,0.3678610954479466,-0.11918222274911457,-0.6320828393956105
0.8320119799525144,0.3042624525139907,10.12682070561742,0.026156197891405653,0.0745090477861432,0.0024352016072298186,-0.3993757905955362,0.12019600982540583,-0.5726481166041162,0.14317440802950537,2.3141213350464613,9.523327583004281,-0.008949008751835488,-0.007126211244482866,-0.014178359589831888,-0.9640886952835201,0.2951778049766871,-0.0874042210918037,0.014616822330907303,2.0145670362335,9.51744449571918,-0.001079919903877943,0.0009282771687061437,0.0017571569364365723,0.34445308951824716,0.586711641917291,1.0143069606130342,0.3668871084906208,2.09504086267059,9.679456457919414,0.000971258430825926,0.000915998007188133,0.00673386246602772,0.3951097664442586,0.059871866792722384,-0.5313873993539158,-0.39623493358518636,2.091441399175157,9.718325940883082,-0.0026159788284328632,0.001913175159040617,-0.010265843052571033,0.3600270505420237,-0.11970946690498174,-0.633135008589271
0.6177985105854136,0.7769502885679399,10.162290014623164,-0.25272128721893267,0.14524984897363458,-0.09388617458146906,-0.4007298197359023,0.12212402314047066,-0.5667539167649546,0.3011707371784641,2.1986360056762155,9.643028199049898,-0.008865541284192981,0.01716760663065486,0.008157743947524044,-0.95955373967889,0.3032480979770648,-0.08394791286595213,0.13372815652445105,1.981207399811578,9.497927012750543,-0.0168411475297942,0.0026823613903307455,0.002143889747951084,0.3452901889536508,0.5947723575525613,1.0159444080114426,0.5119380646836036,2.009490146910625,9.633119400023396,-0.0175432573903755,0.002324835751631565,0.004134118994776422,0.39445604198021633,0.06795052046880043,-0.529245590280468,-0.23312840429303344,1.981306094971429,9.467905517993453,-0.01985080106312856,-0.001289521904985364,-0.0047746257872902246,0.361964979235383,-0.11164438768996891,-0.6319436947620101
0.40656972374800454,0.8474406682684141,9.428873585206096,-0.8046652558356503,0.11683103507181776,-0.0971076396273501,-0.39256459861537324,0.1433227716186944,-0.5701711963862139,0.04791964531278557,2.416440006408294,9.449354447640621,0.010733670875637653,0.007466942087477992,0.012139187798025773,-0.9583987599037809,0.29690522209798276,-0.082864409150385,-0.036914398090416634,1.957999041217894,9.594371450759681,0.008900627988887414,0.001869895628659142,0.0010530948396775225,0.3503972394553042,0.590582825620701,1.0168549108206004,0.36218359779354353,1.9839983124328915,9.763745246265378,0.013905138752331998,0.010642981749159843,0.005184081477508373,0.39716461858664864,0.06087870960614359,-0.5272941013899292,-0.39154163426424693,1.8684947095195272,9.617677214343296,0.006462787998735703,0.014315723071409155,-0.007214443999791071,0.3674572957101999,-0.116994324228976,-0.6276757729294257
0.6970200721510952,0.7291427915793668,10.54856241576099,-1.3079274354799981,0.14780412003277726,-0.05875800634851264,-0.3969188683562882,0.1557360373815645,-0.5585447388378586,0.14684580446930645,2.568610284421881,9.439497762355682,-0.001394856580910365,-0.012904705610132986,-0.01958523214655607,-0.9526500867146945,0.29546125342915996,-0.09096446841242356,0.06343085717126626,2.104133876493453,9.4832991932538,0.006682487419779254,0.0021904185307298012,0.004924277667305886,0.3521539942931079,0.5875723209786373,1.0078080952349942,0.41660257403581347,2.1951183501028124,9.673383179572577,0.007901176603056876,0.001351712651269561,0.006121153011949988,0.3984800865414134,0.05984259123389815,-0.5334213655248169,-0.3882926529320311,2.2121508252202102,9.747463005009383,0.0064918323964340005,0.005131262733072797,-0.013769348020178306,0.36952076820486196,-0.11892617417098288,-0.6343169715460416
0.6586579101691524,-0.9263480672486119,9.863216314737521,-1.59407310413996,0.24647366146058258,0.03666249447059827,-0.39018014006691765,0.18648148882077878,-0.5640755696833061,0.24304790017442368,2.3703032950527136,9.580874920932589,-0.02199085508730486,-0.006389457957799287,-0.05114846133105739,-0.9566088327619356,0.28872109814005886,-0.08834726906727354,0.13423671111411278,1.94542273790853,9.535651374464345,-0.026984660432598215,0.006137539557541073,0.003975600648579626,0.35124864228743946,0.5812812455542299,1.0147053095821237,0.4973078615265275,1.9832440488697765,9.64083096213576,-0.03010655942205744,0.0006463837111233263,0.009757118266379618,0.39832349667431316,0.05451158684742583,-0.5289749866785044,-0.2468066074246743,1.9686030668908776,9.520316502096732,-0.03143177726642647,-0.006700777868088113,0.00030660045058115385,0.3661845601315845,-0.1265155207714182,-0.6323014976885433
0.4134855576823785,-1.6910398437198302,9.553440151297862,-0.9443512010308586,0.30428428188123147,-0.07249314947357546,-0.3968131132004806,0.18939319554867118,-0.5529612651913383,0.07674804228359786,2.139619952820595,9.522900656718972,-0.017557344701127322,-0.021786837897910763,-0.0350419366396316,-0.9583465458913225,0.2891745247874211,-0.09126591299132786,-0.07416785993114267,1.9662893609973882,9.56284770444305,-0.004424085923695404,-0.0007775077059827541,0.0025089718027306767,0.34796618424391107,0.5793232125293338,1.009897609002232,0.32581390010881117,1.9866868457643136,9.729333649675754,0.001490346593274467,0.008689402401031521,0.006259488552978015,0.39579205392413114,0.055461530403992244,-0.5328301365902314,-0.41896146785719496,1.8571429111343354,9.523548564160917,-0.004081533431434561,0.012022837167332018,-0.012126396138008269,0.36733737423037494,-0.12357564934844512,-0.6347646827546753
0.6835656974447004,-2.2517047311140823,10.520787752710175,0.1929050542031866,0.48581609020566485,-0.044743610171139946,-0.3800371751285054,0.1990850731055123,-0.5619637317549225,0.18770698529105856,2.410758496155197,9.484180612632516,0.00011696201636808321,-0.010155766980440966,-0.015993302033217284,-0.9613210445286493,0.30006354856690737,-0.085576076439517,0.04897269306904614,2.081540591985464,9.478348044706808,0.0016654769785493357,0.0015601773533040033,0.0022413130214585138,0.3464262854639199,0.5920543259416793,1.0127673826918078,0.4139274745330639,2.1512980089982485,9.695640262313358,0.00568735006680058,0.004563636554181327,0.004720184807717112,0.3921850181605469,0.0647605925488826,-0.5318499120110194,-0.38518729642157945,2.162332546659054,9.806886256756037,0.0017104281276676314,0.006524884607089985,-0.005652671712052944,0.3607893988352169,-0.1153144224332037,-0.6307033961261184
0.6539739807742299,-2.0957691099282703,10.924064373326704,0.8206371898375573,0.7939740487840891,0.08113812678339313,-0.3645658131620246,0.17487489366507178,-0.5750664511812018,0.1364503711492076,2.4418787268984428,9.516082393965235,-0.012978900938207007,-0.018588370533330557,-0.039197902499391694,-0.9570240243996543,0.2962654659328702,-0.08995042236960027,0.04664231578036088,1.9728253503971374,9.541821037657229,-0.018823128638881085,0.007274080259071417,0.0033573450267617966,0.35091928986100374,0.5880645819591888,1.0068506517158409,0.4144591231835053,1.9964342105911121,9.670115139343503,-0.016597022639445572,-0.0020162227119924635,0.007408992001708258,0.39872723434892426,0.06081869121165044,-0.5334359186919831,-0.332412619282261,1.942764412718046,9.572019314577057,-0.018213071576259992,-0.00783980340195812,-0.003818700351778894,0.3667897575635317,-0.11600780226597784,-0.6357177239513646
0.00016265743500482044,-0.9580741730960479,10.4356382351986,1.3137455093891468,1.0608728583558822,0.21612870024749606,-0.3501055084908739,0.15705240629597061,-0.593240972077108,0.15566590079481873,2.4657847119166365,9.562699424348438,-0.019987163071304794,-0.024316371255647874,-0.061497808118001825,-0.9617116125851335,0.2904971793840602,-0.08807612428920455,0.011485369209085022,1.9783206102629642,9.545172402721123,-0.011710550121320933,0.004512797114754415,0.002883969669933184,0.34436112333812585,0.5820542373818797,1.011655607898806,0.4143088393661516,1.9931786117084176,9.67079277102018,-0.009739296836089368,0.006126384868231176,0.006494687566376669,0.39264371749128246,0.05767704209966006,-0.5320422345455856,-0.3186838821337203,1.9970601795956444,9.482925728048732,-0.013054210350642213,0.005352694080579876,-0.005698289410069559,0.36147889579753295,-0.12238508833117663,-0.634391784757784
0.31110606337444574,0.7258152992610869,10.63420556134666,1.0108094206994787,1.2475053783705798,0.2998027362644654,-0.3237256596032259,0.14650037105878597,-0.6176667062527285,0.03957405190602965,2.5637640142539424,9.131145860372797,-0.01628399930374584,-0.04172736277187947,-0.1050504048434825,-0.9545479181144553,0.2938967103966209,-0.08456271591194252,0.04241927400984394,2.0202551512912743,9.515879626162343,-0.009902217659244065,0.008365047166293523,0.006834972738397693,0.35157832615701545,0.5898268739583092,1.0151286601762362,0.3647655503689113,2.1383370371423824,9.711048172295882,-0.006935565465452124,0.002227552406499424,0.007231419428488882,0.4008418387712969,0.06404088268023768,-0.5271659524020701,-0.4345585983998506,2.025336791436258,9.86493176260193,-0.008822931508527932,0.0024684078094564603,-0.004571081325248913,0.3705511043022559,-0.11697256876966654,-0.6314057052472716
-0.2198432316804852,0.8813764812692417,10.201007192873394,0.21468172586590273,1.3852898114611445,0.34598864063894336,-0.29480514747137554,0.13922550939925327,-0.6225801057750713,0.24155725007717793,2.429196774134179,9.677458872710142,-0.06455305095199042,-0.09554776409014246,-0.13874599940598004,-0.9604274856937752,0.29345663497011387,-0.085705773521688,0.12950792442767814,1.9666786358775368,9.559489815688666,-0.03238763051289671,0.0063903876399312365,0.0026339970712770944,0.34759932763062457,0.5856990490611287,1.0132787473822924,0.5007389861402748,1.9920046085810155,9.604950735569714,-0.03483323471572381,-0.005255671158058647,0.010276519834926797,0.3967339509289755,0.0608104122401118,-0.5350977377755141,-0.23853798160671258,2.102594510235106,9.438470122325766,-0.0349363469958957,-0.016568238295619563,-0.003768118278655121,0.36441404913732467,-0.11748932153507662,-0.6329827789557683
-1.0091048404020855,0.4797122408353844,9.482687746744526,-0.33720222805690175,1.3288763522261728,0.2654699186565618,-0.2777643462175075,0.1408264141655656,-0.6265104011272512,0.3627276246201386,2.3028747682088775,9.552126131927348,-0.09025939034157639,-0.08141509186143119,-0.14192345701596218,-0.9510747210852281,0.29729500115430546,-0.08344700478337821,0.08143135525074208,2.030864225698735,9.517546682991163,0.004245441952019894,0.0033146370261280932,-0.0025983146493545055,0.35787963747798146,0.5938892650844385,1.010586151620976,0.5023502502235218,1.8692110655648158,9.752076014541695,0.0065458282943853295,0.012115963504650766,0.0029082204686706904,0.407859791313768,0.07057749686068174,-0.5308107576324824,-0.1878307530411051,1.6541080838947,9.385178792659426,0.001797856068698896,0.014829817926212458,-0.007128504670099483,0.376085037612839,-0.1096169494683994,-0.6334681932615022
-1.4559487008038126,-0.3678794136049193,8.915034795202452,-0.45357154621469065,1.1710891070509308,0.03977555547152491,-0.2481097677372275,0.15940748921443762,-0.6285854411714672,0.17190387449093272,1.5652079727546229,9.83944039015321,-0.035418518324050886,-0.029944122218769874,-0.051642439623591024,-0.963711240499685,0.28757340608292375,-0.08897427566113891,-0.1027039009782088,1.9562873354482224,9.485080498274423,0.029389504374494852,-0.001976999864250048,0.001182298252685586,0.3448684499757987,0.5871662472946911,1.0101451611655425,0.2510347501370138,2.137110951456822,9.702570901832821,0.03384593179643449,0.011572153679167155,0.0023662742987326387,0.3940439063847572,0.05935489873376504,-0.5350205251925809,-0.5414904171714692,2.2440488924119832,9.728542026243296,0.02570078184459776,0.02624846003079113,-0.014391448001794498,0.36337413138161107,-0.11944219250988103,-0.6363819516517515
-1.5130298443691763,-0.12345901244561544,9.834769526169698,-1.0084594211427762,1.0471583771649764,-0.01671148534960664,-0.2341426793408703,0.17642074221026505,-0.633589090762347,0.22038997829529244,2.3354902421111716,9.511863519135431,0.011811916513167993,0.008912352345223659,0.008310074907035173,-0.962353959088183,0.29424111722117857,-0.08423233846767211,0.04795989720506008,2.0285124247989375,9.48692827403799,-0.009233815312199845,0.008331220336057703,0.006437581183351575,0.34856558754275196,0.5942022819139025,1.0085614125591398,0.4005839054525849,2.0969104432333796,9.73895374982437,-0.009110760937578037,-0.004857160298320303,0.00929580130890948,0.40031111685699466,0.0669530131238453,-0.5293767630065981,-0.4029706194265018,1.9762783240528112,9.95385652396437,-0.008827131087307954,-0.010570126110354912,-0.002498986350237792,0.36615505342022836,-0.11138202018767406,-0.6300807168718483
-1.355731265624089,-1.2936533756891706,9.957014015255243,-1.3093271904883428,1.0885928635325754,0.16736382039094133,-0.21378293455968758,0.19361221514684276,-0.6360094443968431,0.2620866729860259,2.3870775088596514,9.358655845968293,0.01078611085525943,0.01117792834005142,-0.0230364017077913,-0.9609973253293007,0.2892628942737077,-0.08830532939935067,0.139960287676271,2.0355869049491995,9.517511034357298,-0.03575479646159778,0.0015986333967762884,0.008573786692729575,0.34848027743127225,0.5846809066081421,1.0086293718979755,0.5352854370704025,2.0665800310466507,9.583330755384612,-0.041534891758332707,-0.0007864473401951962,0.012396843477461733,0.3985988455140999,0.0607711462426462,-0.5388051734617827,-0.31656832251226275,0.26216731054508324,9.34331814906034,-0.055772062595345014,-0.01469891065274415,-0.10872433262836595,0.36793261080658707,-0.1152644408725948,-0.6391602069656532
-2.1871179122916353,-1.42967320651773,8.533266299612382,-0.6839881470072893,1.0850488981563922,0.18058454263345455,-0.1971591289449559,0.1971481043668951,-0.6365021494882843,0.1321296632411032,2.283529546728919,9.87853113985879,0.005428942495508275,0.001475072884836666,-0.024868651739989523,-0.9651292489647239,0.28982014408821555,-0.0872904896507874,-0.03595439932514019,1.9502944538798195,9.571325493471676,-0.022909734871867954,0.011514600075074448,0.0052668960699650165,0.34483531612277546,0.5895866711317,1.007198327000371,0.2757018685073845,1.9567455864989018,9.844294931837963,-0.02886439607766527,-0.010671862020707447,0.007222792955820033,0.3921150030986962,0.06473466456262054,-0.534777960274051,-0.5000010731374379,1.3139041913099665,10.203754597091823,-0.03349988841922247,-0.03037844807181552,-0.3698413799937044,0.3615753129699792,-0.10797493416095931,-0.6377911430088992
-2.106515585180169,-1.9459753336576466,9.0426233627145,0.33772161406634393,1.0099654428641562,0.03281553704622585,-0.1772359458654734,0.19433738335212886,-0.6412405283628123,0.21061513389020414,2.2613709019322554,9.631337400709183,0.04889776631179007,-0.004177480802413847,0.013725072125968314,-0.9641158418789076,0.2886706046760753,-0.08288469718877177,0.04232892852313355,2.0006858194094854,9.502869071201332,-0.011257915722492316,0.026423976401893666,0.003275875714587941,0.34593234834515213,0.5847563593218591,1.0160021553791379,0.4494739263746448,1.8972231730055875,9.579872051643171,-0.017500084977507505,-0.02428613694468448,0.007086611043654621,0.39515705293617986,0.06183990660771522,-0.52969640163828,-0.22987639916661348,3.1481500177798756,9.172830101249438,-0.017490545671777654,-0.03955873042248323,-0.2933821720017506,0.3631757229689653,-0.10968515179114914,-0.6319670250934948
-2.1996724846042683,-1.3265000558042004,10.700774653507677,1.250898096777017,1.1894146129908352,-0.05000853760607508,-0.1563092467849453,0.17641972266250194,-0.6521949790110385,0.27964453906976805,2.415261280883068,9.338720068027179,0.08707233569465296,0.0015530581005782185,0.02022643923714435,-0.9657209771600512,0.28200228420454454,-0.08786773620308741,0.07684267280246765,2.0154183674918547,9.54655626600509,0.0008872525726543518,0.008290723130783847,0.0009987751703981786,0.3443469463608554,0.5830216655145994,1.010427886912043,0.49720585000584006,2.1958690135977696,9.686501049568008,0.005518047034455174,0.006762964479303386,0.003004205448570577,0.3935747543034863,0.05619355372167455,-0.5337609165076436,-0.2855454381922738,3.8986082553550183,9.574469592463348,-0.0033621949614435114,0.006964515991156879,-0.053915424806359115,0.35889338585138014,-0.11384580656719262,-0.6389620405792489
-2.892614098766492,-0.5187745622638898,9.382819994420986,1.8724146069197312,1.3915698442128552,-0.1289017150081382,-0.1367060156006996,0.13749225794582154,-0.6595984832400246,0.05722959965466749,2.6825288426325464,9.812187667646695,0.06465845725448513,-0.011269519215534709,0.023884357393922345,-0.9619530305091619,0.28834889910852524,-0.08559100251277087,-0.03492243800226685,2.485185802297422,9.288507333296577,-0.17887364064891334,0.03594045596716168,0.0023149386332972114,0.3447445380064104,0.5828333039544409,1.0187243990590866,0.17840956875520497,2.498091124190194,9.777965983394182,-0.21168210700095647,-0.04780343396480287,0.02589364442886231,0.3943594581800278,0.05986794886479321,-0.5321026616543817,-0.7460758789838327,2.0243374695980116,11.245761153368012,-0.21523837702094975,-0.13436508988246118,0.06180885816180074,0.3605801961865394,-0.10749085923172291,-0.6385010099331894
-3.107110882952294,0.31249335616942053,10.17787009493447,1.4322731493916872,1.465892035166264,-0.17233696968650042,-0.10808192770150975,0.10584637734882378,-0.6712535625696567,0.12936700580992364,2.127350083196095,9.535077154196204,0.0728167481826835,0.0031236655440161363,0.04108542938401382,-0.955877253519414,0.28679555203935564,-0.08636605402948039,-0.11611481530647999,1.8238694333675458,9.693797780329435,-0.26983699916272424,0.06017009210617551,-0.005379825070605667,0.3459301684636137,0.5738068046139203,1.021206535452304,0.38152049661206267,1.9069320076392287,9.682465808327285,-0.29992940458201006,-0.06224849903177353,0.021958706709918962,0.3982381412050862,0.06398893013463908,-0.5339414551079004,-0.34498825995554183,2.307602278516516,9.048294513331903,-0.2757084397221271,-0.17617467906012296,0.06542841596778004,0.36128965425408116,-0.10602102438681262,-0.6392473729675683
-3.08930412994577,0.22034963113407524,9.672052290801425,1.211303769052733,1.583552974845235,-0.3954004882893419,-0.07542766951992329,0.06809279289323178,-0.687408755461256,0.5608275946873623,2.1705150061457092,9.739409960358813,0.07528592232070612,0.04719621709277967,0.12772713407671768,-0.9530626690483884,0.2948683335630472,-0.08386657753905191,0.2706928229720534,1.8664700068984188,9.611732143365941,-0.23061617570567938,0.02636872935787397,-0.005345565633158736,0.34753548109180527,0.577252093443249,1.027013557516002,0.7961196953919513,1.6612668004635878,9.527528518134044,-0.2339482452481081,-0.023826305775154,0.014888070507622368,0.3993780681178547,0.07136204882538998,-0.5281720973961923,0.16828587099830467,1.5870820348496473,8.853210206054742,-0.21337136840260137,-0.0997823256310541,0.10743483598749358,0.36080581319330196,-0.09870155771892444,-0.6372714763291841
-3.86292323711849,0.7380464344800507,8.696641040494848,1.358519534334965,1.5557629432153797,-0.47311581223113874,-0.048484325969394296,0.046395589399267655,-0.6870085244533638,-0.007884858308961865,2.5825284330871137,9.813536520807167,0.20015900388205746,0.04074154708021614,0.17201960573275665,-0.9543354321795235,0.29671577378843805,-0.09023497589543875,-0.15458020244598683,1.764626828655437,9.71098411557383,-0.13707274063446545,0.043396757861723145,-0.021039406123927053,0.3403988884548038,0.5738884771281345,1.0257057043827362,0.2625756358904331,1.6007690319648102,9.84052664053785,-0.13872958784138573,-0.0020061195624136424,-0.00482360515180776,0.3934370308118065,0.07427687877455545,-0.5319641170553702,-0.3564338121186784,1.06804885036986,9.609178721927185,-0.12434097889069876,-0.046602150139092656,0.042850589866608356,0.3544382764253361,-0.09751304005947954,-0.6378647716028809
-4.919491730617084,1.223302206582808,9.837286300181253,0.7203457188751675,1.5174562902951443,-0.45938942623434087,-0.028260450417179093,0.0327863552890838,-0.6832739582693578,-0.11431389202753924,2.9426611762083628,9.18463360965975,0.2134462313850067,0.002291243448110592,0.13882957143202476,-0.9521617768136607,0.2978494784269451,-0.09345706561223475,-0.2157396115303848,1.508918467102805,9.755325877587937,-0.020508361576336735,0.06800349692744954,-0.05474282601485418,0.3383974579949009,0.5755913042399268,1.0223127307692932,0.20399991993755762,1.149410562762716,10.05365959276521,-0.02828864994062905,-0.028117309363559877,-0.029354425027419903,0.3912213691293468,0.07403411866804367,-0.5326412247569704,-0.15234241856257924,3.233347453970682,10.581845084599227,-0.006668949803311836,-0.06217877586377692,0.1675052496210286,0.3531917196029667,-0.09971371844297458,-0.6395504292611917
-4.567362265138125,2.1371755193924686,9.16511394565468,0.18187916225763098,1.5415029163293879,-0.46063176669597433,0.0027728957693310824,0.020292361099805853,-0.6760450311244418,0.3519626876524358,2.912539208567679,10.326916661486836,0.18698651376577338,0.1154966989915971,0.1344729745144602,-0.946776003526004,0.304272325021947,-0.0990149639300377,-0.3714573024349792,2.19898440816583,8.881797617842928,0.15568808196868708,0.025479993780435074,-0.09777480053602955,0.3328888748444241,0.5868743160835855,1.022581575352909,0.07367210568770566,1.1528675860455788,9.814611682416935,0.14215158364363978,-0.06648324119285583,-0.11550901589528781,0.39517793453316635,0.08232968867817797,-0.5318319736140867,-0.15473764569381313,2.1771076485776693,11.109165079174932,0.13002301611892608,-0.17927608259642488,0.490976742969784,0.346911014547082,-0.0970667949787497,-0.6357473892698794
-5.814570113115282,0.45432184579355306,9.690597296960714,0.23282396638554237,1.5178562388827412,-0.33312877531105434,0.021002734971883034,0.018958143110208697,-0.6805023987338427,0.515621848613488,3.4078332734414416,10.493077635955421,0.4571115050961628,0.19290511357922066,0.025764173317005916,-0.9344953042258203,0.30289346380807064,-0.11232221580453577,0.6158586140082034,2.540702388084671,10.646128914838236,-0.33115798260230705,0.15062880473293408,-0.14922182685350607,0.3296003553254949,0.5776138728440392,1.0209985177479046,0.8571357541380689,2.366504774068712,10.1412945380019,-0.3481767057579158,-0.17456503778042876,-0.1714055723898239,0.3980243775306078,0.08228915967434851,-0.5353187894483639,0.13874516361662342,1.9947999935814498,11.219278987765232,-0.30514907443892847,-0.31771336002150885,0.5722529846867629,0.34288235565409664,-0.09878568784308445,-0.6417670257908754
-6.80963737405157,1.074066134820399,10.251382566222814,0.7294093671375664,1.3711792286278344,-0.045500081621371175,0.06021313166735235,-0.0011434484330398002,-0.6773626424674534,0.5801618031632005,3.423189390917903,10.825907924181672,0.8259358529167173,0.2920443508232768,-0.15356973013242364,-0.9145697218387492,0.29133841669713434,-0.12943484403050048,0.2247886260168572,2.088409449788061,9.486977409120167,-0.5723750612151552,0.2698031372198184,-0.13978008470555087,0.329024238110564,0.5642030986035789,1.0228121418065408,0.555283417944788,1.7886117433898092,10.183235273098113,-0.6762595782086112,-0.22629839177786043,-0.1997172992653999,0.4001798511816753,0.0908001268636509,-0.5383766481504905,0.17939549043685046,3.374252629029828,11.454887751458205,-0.602044753572084,-0.4305863105606357,0.6714413850501832,0.3391963833940968,-0.09392254374224367,-0.6416798136760662
-6.87223670788923,0.8018303545642742,9.761943694495793,1.0626440193894315,1.1993627523139945,0.06735586744058271,0.07849304386135111,-0.027473848677972926,-0.6670830154255165,0.8392680739953623,3.687686254462972,10.406659150951182,1.038895102031563,0.5492650389092373,-0.27828272063472087,-0.9059972678475008,0.28777573710839666,-0.14436510885453901,0.049757937874699884,2.8151204365187925,9.101829282558024,-1.210255132115053,0.2648746492994908,-0.2171366515668141,0.306146390921673,0.5413223350991999,1.0380521031732386,0.8636152771584796,1.6933987979597136,10.444860734474398,-1.261991200335598,-0.3377666055630544,-0.2645222440229342,0.3885698670761296,0.10697294440308158,-0.5360445287484745,0.23984181087187056,2.643821513420856,12.209718791055213,-1.146751400187768,-0.6680667055694645,0.9604437426325166,0.31328060820043635,-0.0762358418066506,-0.638893786082316
-7.190189811750134,1.1570138896976228,9.47236785969186,0.8790043789944918,0.9496439347430591,-0.005673055546073669,0.10322752048195451,-0.05380223278913334,-0.6652119006775598,-0.07657190143520318,3.3187215777692387,10.22566311156736,1.0858325489147256,0.8516637893577833,-0.2373909575491266,-0.8853030671476897,0.2686962545216299,-0.17135702843461328,-0.2348478279278752,1.2106975313978752,10.642723490342998,-1.3685083967028602,0.2297244335150047,-0.3032701882793251,0.3037196772761754,0.5115728714249369,1.040258393040066,0.538764775994847,3.010258708230161,10.895970510889459,-1.3768469777573649,-0.4547452285015278,-0.17639557249688587,0.3833302205976762,0.12011597422052044,-0.5426297638239098,-0.7702900856532662,0.9242711924925936,10.852798362391821,-1.218115471016022,-0.7563188941700735,0.7668545252261164,0.29793257895856534,-0.06116822446302452,-0.6448878894328371
-6.509567539351124,1.3310713496505537,7.370535339074878,0.781243059082289,0.7830592229342861,-0.07937631983343105,0.10712622356629135,-0.055147239685197025,-0.6501446871093606,-0.8774257546208671,2.2231912777471123,11.18585158206943,1.5074283859983164,0.7590157153505257,-0.2909905531309222,-0.8529028710257602,0.2511317800671912,-0.20120249099427018,-0.3476769181813778,-0.35771400866523223,10.525797704566557,-1.2447018347990868,0.4562514650193906,-0.10831868230571623,0.2972745829602894,0.4840064419046983,1.0354434989846333,0.4575732140171529,1.7353145193831585,9.880358326179724,-1.2331549032748352,-0.4902838706320242,0.060846282329423684,0.37888214045979685,0.13547279429930326,-0.5470548154795289,-0.4843544400531799,-0.21239262919204469,9.715862085532589,-1.0713397278302312,-0.7392143815985821,0.2534162295936708,0.2878886283726407,-0.039233958256624714,-0.6524511110092749
-7.3684172620838515,0.9546479620305391,7.818388934251459,0.9263613592066462,0.6612994712875542,0.009569408321119386,0.12735355291780642,-0.07806241929570533,-0.6418294641584422,-1.3220178181259892,3.4918777318929797,9.44392661010966,1.7463065497766976,0.6966175554951336,-0.5113885070042054,-0.8426438818346509,0.22796829019821674,-0.21846867284975344,-1.197639130807318,-0.7362540981843582,9.726130923938605,-0.7631930693527353,0.5456253139079021,0.03851288517956264,0.26539997540309634,0.4638036563249702,1.0383812254685776,-0.0017801942262335446,0.34601190550397076,11.201125246657991,-0.738357712775841,-0.5627117317920558,0.17520291057232487,0.35442770445622546,0.1456283321545252,-0.5397217702990882,-0.21060515430427829,1.6285741702383065,11.666636394171118,-0.5871885386896118,-0.7087189106521699,0.10230015075531283,0.25805648490667427,-0.026710703030280614,-0.6400636124013297
-6.523532624470697,1.5889774817280773,8.108130695993841,1.3246976284868026,0.5058236175933787,0.046874926519289394,0.14923721925826927,-0.11272460545073407,-0.6311743499660262,-0.45262819849789243,3.321147468215891,9.60764406375974,1.863322619117955,0.7771765361137026,-0.6975208502028528,-0.8066499186876378,0.18472279513022682,-0.2481150981873203,-0.20182572020900758,-0.7019046340205612,9.682550937371131,-0.23523726104219933,0.5357272529300846,0.11455005067807393,0.2595098597578622,0.4424913977671312,1.0210588267360239,1.2068204556404638,0.02954878408556383,10.467376717334139,-0.19840207815878075,-0.7304821783652733,0.21741661389139963,0.35096665655924997,0.1413880732561699,-0.5510801924135265,0.8920251707409275,0.15831990672901,11.535671647443461,-0.031166405627079556,-0.7309453724520452,0.20375955256436284,0.24675288023617137,-0.030667694597546456,-0.644220409388142
-6.726864522268062,1.7956551867173385,8.7540268281161,0.8485893036932999,0.23122923071566712,-0.029697664318282635,0.14711749164868707,-0.11616480498624124,-0.624812621897563,-0.6788948694859623,2.9950630537996648,11.600717000198042,2.1221738912500374,0.7355221926408388,-0.8133815184619624,-0.7839298030996931,0.15137218043333153,-0.2538598865219464,-0.053421438294536744,-1.8851035859948273,10.529432259214074,0.3301843951620707,0.6556697939235844,0.3123105745402517,0.24491438151185094,0.44507561020541625,1.0227791586354036,1.6782801609970999,-0.22836514682439357,9.873880152911388,0.40722511393444455,-0.8429474850848281,0.30798764168589954,0.3309180417977967,0.1410489615038797,-0.5418059332319911,1.1868716360974423,-1.6249692716062314,9.257869297880799,0.5659791335040443,-0.7203657937278983,-0.030532019042084437,0.22429642959135465,-0.024455234945082352,-0.631026080170504
-7.061607777513757,0.3461219929598768,8.247293911612932,0.31450828222895,-0.0663983813472514,-0.40049006244332724,0.15863969969349792,-0.12836356123593762,-0.6013922264753548,-1.5371294915225497,8.402280688339985,11.376909194380412,1.4616544351715557,0.6972261921066233,-0.38639949141764945,-0.7463695170905051,0.12757287837474474,-0.2743694476199358,-1.5324006627146338,2.5680480632936873,11.030327594773027,0.7653305229961667,0.9393099599760868,0.26833559477105523,0.2258182196942204,0.4552611727808474,0.9891249213857369,0.4055145550247182,-0.5770073976343091,10.19853317831228,0.9023866412011214,-0.8188243428140825,0.23572223536366754,0.31749678758534644,0.14222437378595912,-0.5517527474622824,1.1088797371471684,0.8646529193392419,9.13507104585337,1.0850606136371808,-0.5722160548023448,-0.07299000156695813,0.2100368545457974,-0.02818143264143909,-0.6363387103334069
-6.99832912991145,0.2717798444166186,8.144936287951598,0.044690161189627535,-0.2910626960705115,-0.6566530983906267,0.15412457490644724,-0.133028609107173,-0.5915816789107975,-0.5049280756511617,6.283703734895211,7.696719987952738,0.6143415552165598,0.937782953256363,0.041630601807718735,-0.6967194072950429,0.10885972230157312,-0.2895016033183039,-0.860148755012415,1.8096498366714333,8.745279058906679,0.2373005045669666,1.0054866444420443,-0.031705235450019215,0.20087087730176736,0.44482080573114324,0.9659793523190414,1.7413349201841046,-1.000968013643783,9.314732406264467,0.20715694242145888,-0.7735831818331234,-0.1177162625278815,0.31034199986864175,0.13661285049213134,-0.5539737663842454,2.1311451569191706,1.9489893308062158,11.129668714592428,0.3821368843822687,-0.7050195873960449,0.5887024857774283,0.19250523884454487,-0.03339963073282053,-0.6352331057102707
-7.314470269231745,4.116989175860373,9.227771237871549,0.2546631124930402,-0.5658518326513213,-0.35214581887976226,0.1486975577156647,-0.13516878697134813,-0.5939481222590832,-0.6513677871722305,7.491517958825042,7.992912121717981,0.8636817577827031,1.2455866509418168,-0.22133613513145495,-0.6538456027134552,0.09463252794243446,-0.30415091727381477,-1.1064880236430388,0.9179664963602768,10.192387789207228,0.021263722795934057,0.9211885731328584,-0.20139232512264774,0.17346854454395463,0.44227689362485084,0.9513725596654313,2.0992031617981377,0.2145102984563303,10.421727983787855,-0.0955339865049217,-0.851150299107527,-0.25023613682009377,0.29845048189254475,0.1466773206386141,-0.5523130632516172,1.8031099288956056,1.1126589376816314,10.70585659627866,0.05449502232715217,-0.8409209682529977,0.9323308902294315,0.1668997018687454,-0.023527390254653988,-0.6312441993285397
-7.4267983768805355,3.674828120910211,9.463770064899148,0.25030836758421904,-0.827470703257331,0.1751435379971001,0.1353463011838792,-0.14293091262621108,-0.5854773425818297,-1.3853792159768932,7.422879455321281,8.189317256892451,0.6532210868025329,1.4894456166127907,-0.5869323316358213,-0.6014769033257414,0.06932463441518015,-0.3304244469691646,-1.0338739631147846,-0.2062630923032287,10.632726477096542,-0.4462925627685412,0.95829551662399,-0.3005155586801585,0.15688822041982842,0.4202573762534472,0.9242438047977751,2.7329459116941033,1.525321201563844,9.752043827390406,-0.5097763350659255,-0.8472878228804023,-0.11428306820059271,0.2887897601377193,0.15299791063122575,-0.5589762485500417,1.625976524862351,2.009493333607551,10.252775672250973,-0.366492156631136,-0.8535932722382943,0.8747657102466807,0.15039412220405088,-0.01774299821534569,-0.6364949010595475
-5.117055130448285,4.549895196751484,7.075293198060112,0.49789105135309736,-0.94242701399281,0.5820994232191811,0.12626024703833588,-0.13852524948813416,-0.5757787887010676,-2.7451406557889695,4.8810650758575145,7.677385526821522,1.7754979592073883,1.2816426983338116,-1.0154111711494145,-0.5580156031601194,0.034748292891861154,-0.33614764684130916,-1.8662576197448482,-0.39853677783502145,10.196327647752117,-1.2316846372687744,1.0017807203133922,-0.38194711689508587,0.12877350655618103,0.37992090169056797,0.9160170002417265,2.3421446252056914,0.5850167652294026,10.508489098705372,-1.2395603612111408,-0.8089321332130611,0.2048089039946072,0.2674496282874635,0.1650714550005302,-0.5544215292418806,1.7143913452846795,2.5478580299816365,10.916559921763362,-1.0603998205720648,-0.9714939911881592,0.8228013879558258,0.12263706999850567,0.008222983994714973,-0.6265738901369927
-4.1947394743651545,4.083717392615812,6.24331202465221,0.5427050167046232,-0.6163158363399698,0.9306382173445266,0.11881788146215821,-0.15467782928785057,-0.5603764746397222,-3.4817940454316263,8.145485070477216,6.62789770200549,2.525222063396648,0.6957902710500173,-1.3077064087385668,-0.5114013547035953,-0.014893091939996498,-0.3487051078429944,-2.2224256657254795,-0.37277219158372954,11.131007688439109,-1.2998276407190827,1.0528609078975164,-0.35766195632032366,0.11034999364867533,0.32964301193660384,0.8954690683011342,2.848349147502375,0.557763295897723,11.00119209231894,-1.273710910900451,-0.8323646305594053,0.3430595924921026,0.25942091102629433,0.1726683651234083,-0.5542968186765073,2.1396608520688347,-0.1289299100063842,9.978485760916124,-1.137227407630467,-0.9915728328368049,0.7810703922951386,0.10060773539190362,0.03081129465540945,-0.6236207683504216
-3.508865302996154,3.0633807838639755,5.400392574617576,0.4511910449854942,0.010167439284336593,1.0754805767433913,0.12461885005259207,-0.15910732035364444,-0.5619643768126698,-3.7538392396003286,7.617619875270027,6.926125295922598,1.3708573664903154,0.088068184036062,-1.1267665002696108,-0.4650360093870777,-0.038141340648040846,-0.34759638258893305,-2.7351299023996467,1.2767343789846979,12.662010754323022,-0.9639235646071314,1.0213284641693052,-0.23252990999363862,0.09768531281421577,0.29548353176837433,0.848572433933649,4.160817102177091,1.4744025148562223,12.130296394540007,-0.9309912822762773,-0.7428270758944077,0.3068618307198484,0.24702924167344126,0.19345877502019948,-0.5546727694352125,3.633282143003164,-0.713393532049412,10.183069115678945,-0.8045009655481143,-0.8532185245629065,0.4729617942760798,0.0840696024779322,0.05856189882734157,-0.6251740631751598
-4.3333072092058265,1.72417795238552,5.707400819247014,-0.26987652684586505,0.6095603408514192,0.5734787905212492,0.13657051794938982,-0.15316734231337312,-0.550644858697231,-3.7497283396648204,6.7577351066955975,6.596909594546703,0.18783167328086536,-0.35738878600700835,-0.5737939667859423,-0.43189072864028777,-0.06272477289256241,-0.34801360710342605,-3.3980614288785986,1.0787110565423224,12.418394601217015,-0.3657531899332652,0.8544430444814274,0.0035181109917688416,0.08747246522623746,0.2662311550338391,0.7737579826991078,4.562402760798355,1.5233779933983662,12.196601863336284,-0.2940790334264231,-0.5985601981855195,0.21403378975080625,0.22016416357382443,0.18988896439285954,-0.5542428441086502,4.017173980077372,-0.9888209786041683,9.95195989621093,-0.186332532802257,-0.6381292921501259,0.03834168746254163,0.05988351677160783,0.0638084644396389,-0.6243976068130946
-5.3592296479568,1.5229033757174022,7.148386639840446,-0.42390199289924996,0.82866650509584,0.19008128464499208,0.14966661596032024,-0.14255362397898663,-0.5461524190475071,-3.0001776838769403,5.770904397736397,5.820504459646733,-1.671218972500448,-0.23518863494603406,-0.18348684066376017,-0.39743542975629176,-0.054231847586440694,-0.3546895549431823,-3.543576611925899,1.459904418767889,9.799349040700193,-0.09142391415324527,0.3850674164181176,0.09108239624085471,0.08616033723813471,0.2551889564770227,0.6959629579727495,4.297512882932948,1.2066331028122481,11.128114500902344,-0.003512816715116716,-0.4531086475112854,0.11264656530147618,0.19490029385670637,0.19270395675966595,-0.5490231571552682,3.9662492820674093,-0.6187337810138432,9.822111514521614,0.08469905377622108,-0.444295072758551,-0.3006285453759951,0.04274432210828552,0.07543926524429556,-0.6237644425886297
-5.30365155315252,-0.40162423036638684,7.548509638046406,-0.17250109093699467,0.6368022790602731,0.007000130155139179,0.15872012153503046,-0.14287725657260406,-0.5448368819887209,-1.8534420169331862,3.3933832156297745,7.382458296978167,-1.446130745122579,0.13533888496055235,-0.03191010035785759,-0.3557101435518551,-0.05046196416535417,-0.3611175477208122,-2.1225926300709865,-0.4794376921707361,9.829065771692616,0.1058954636094369,0.07590553839816515,0.20516830974696632,0.09968361848890545,0.2425311465571495,0.6157031988512265,4.450922700527736,0.5057300980778962,9.988259507892755,0.20167405115050155,-0.4247941294372398,0.10271188831971886,0.17672079849739714,0.19183976105943426,-0.5432080534354231,3.9895384668188387,0.5409983710921976,10.289366080829003,0.254446769945569,-0.39164014741907216,-0.5629214916760898,0.036193189765578254,0.07393827955052117,-0.6221592569372425
-6.174339517876001,0.56269490228145,8.380757670983703,-0.057244400716818265,0.3247628478408716,-0.551684494469311,0.17070079894503828,-0.13685458231689154,-0.5467033303825712,-2.3719263482724524,6.576517984047206,8.78568507786135,-1.1802321839863916,0.37797169303520645,0.23345175058630754,-0.33577540052867455,-0.03201193576885798,-0.36707599884239056,-2.145130885004639,-0.1576474566236825,10.499395061412315,-0.36468430615291336,0.010590237641441045,0.05047436316057874,0.10290482560693946,0.24098978459903786,0.5406864280261848,4.0613849927354515,-0.7557285052183149,9.876454357993904,-0.2625696973975904,-0.4510512833089612,0.26060494757367325,0.14417384486009788,0.2117631761133111,-0.5386989484774025,3.9779263338107307,1.136053441093798,10.614686004111288,-0.1682550268326663,-0.4826875356287894,-0.5686423747058822,0.006081785105525815,0.09868332006073344,-0.6197597975092617
-7.290124389146724,2.690816789561829,7.819684707718163,0.23388449249953286,0.014607362485127241,-0.9658675729350605,0.17857994882825806,-0.1367894125221184,-0.5277854880369017,-3.6409086091108502,7.837019675300217,9.703296120580305,-2.1434853764543913,0.4132935951994747,0.5196305863353996,-0.30056471055457973,-0.029389290121839013,-0.3865921054048777,-2.9422481050508913,-0.9846432687435384,10.861568002347934,-0.23926684801062242,0.13627689353296635,0.016995476606034936,0.11182731103155552,0.21345369187555402,0.4567099628923676,3.4364180130802526,-1.887336842958288,10.340881711989157,-0.20416452847487407,-0.46663191597163595,0.13372151884895855,0.1170022876350899,0.20539726896082494,-0.5506919822092838,3.914904535592495,-0.4384343288391835,9.794980875201015,-0.1550895328888489,-0.5073727006962598,-0.33074053747084303,-0.009480378015182388,0.0954443243316135,-0.6287063136843553
-7.513816776519509,3.9170183005607546,7.689428524166611,0.39555150471166267,-0.14574011050726254,-0.5548219725737891,0.1806222091906525,-0.13414486121172878,-0.5236503902171508,-3.9164826209401182,7.151309719370093,8.33683859760616,-2.109966722526467,0.4262743728652549,0.46118397381549686,-0.2728558613999936,-0.011334469916364748,-0.3955662636314964,-3.6032117361896505,-3.0918694668770117,10.575078493334402,-0.29254761227595916,0.28217878787988554,-0.14708184126966062,0.10727527963682316,0.20275119119914375,0.3882532645827587,3.4054227964516013,-4.047187776795241,9.82213941944325,-0.3063330184592713,-0.4257761112044908,0.09581278284870333,0.08565992865649016,0.21190082250190448,-0.544871451048393,4.015698486020438,0.5196938172040206,9.703548623572054,-0.22058078714970683,-0.4633388323206041,-0.023021978503050117,-0.03480806082025537,0.1038520141976283,-0.6235053344647735
-7.792425242821635,3.4592267608007945,7.506837338371723,0.8928401742328336,-0.256998392043998,0.06174909900300503,0.18295841805977922,-0.15322267958685676,-0.5211240234256013,-4.642124121269286,7.003482977654436,9.357039530622677,-2.727934237473467,0.24384981025211006,0.04192685084841791,-0.24009729623046205,0.006057772565324785,-0.41044840264078086,-3.8874591184637532,-2.9608807740914154,10.318314326025877,-0.868252775902931,0.3055563890033117,-0.4461992840257719,0.10450492249653422,0.17663903793937497,0.3181601650047432,3.6133745056147886,-3.417214012388941,10.533662092896362,-0.9623161925667425,-0.33177178040582517,0.1584816813868315,0.06215928143893928,0.22244163736939618,-0.5487992749097039,4.277640048190287,-0.09289327556961262,9.619027434701055,-0.8806106111648278,-0.513392423728324,0.5949697742022407,-0.053958948323423586,0.1237747663482889,-0.6235483180005031
-8.23543288404827,3.7586715783659215,7.303536343713065,1.2798673663109632,-0.18735366758860114,0.46872455073031777,0.19610136930944375,-0.16653201645037652,-0.5175161247709414,-5.226427037169955,5.513629799843391,9.97916496019561,-2.9402308296020494,0.05225740491856021,-0.3869974606193456,-0.19992325776814215,0.026856757483274298,-0.4213321421181365,-4.5369539672835435,-0.8433183924297663,12.677464958576923,-0.6120497098389461,0.2658668956622334,-0.41362277034272305,0.11137503730492132,0.16338117411453473,0.2480415168480541,4.351493518615735,-1.1514967657184365,11.435485569764941,-0.7361856392053947,-0.22921881321031443,0.07064688137631643,0.04586800849487666,0.2342261239142143,-0.5475367549149893,4.245882481355177,-0.201996063863409,9.464778553654115,-0.6929522710707958,-0.35285906294871094,0.7452941587143858,-0.06012727469875635,0.14205137159502773,-0.6221659286261757
-7.048707669503752,4.098192329786542,7.5519665339980655,1.2945515229041338,-0.21680178391485835,0.7551472977319875,0.19163048147422093,-0.19071040356451674,-0.5107594555083808,-4.449004830371544,5.634613143624829,11.134075924957896,-1.8917479067708596,-0.26407076934084456,-0.4878996035751673,-0.1708880245990158,0.03845027986880266,-0.43532711819924214,-3.6800394877112526,-0.4740563819407085,12.767152526338174,-0.6440615658932893,0.4149454015485742,-0.4350708960569261,0.11482125970650081,0.15258502579953825,0.1765047063116634,4.960840823343693,-0.37684364494184347,11.238537329196873,-0.7872927669510991,-0.06719852961348442,0.07787366868376011,0.02436547133028695,0.2462401513428658,-0.5498158471529313,4.721159083633521,-0.7861356787898965,9.575966319749524,-0.7839354620214198,-0.19803981742217908,0.7168106096722151,-0.07263897120371453,0.164688520236191,-0.6194191556166792
-6.193661915823631,4.74173894364403,7.488114941784918,1.3518815060479579,-0.19688907841867237,1.066327399273765,0.18693020040407357,-0.21660666533299638,-0.5023006747877333,-3.2295289722063565,5.278115435382992,11.662263526724157,-1.6284970815355369,-0.4234688681647564,-0.5148584591006532,-0.13525318415913568,0.042793124627643904,-0.4412063991267781,-3.008200242970839,1.0567134291686178,11.74945008809016,-0.44973441485869303,0.5475085904270143,-0.3552735929749535,0.12155437706041797,0.14107128564414004,0.11125945412936013,4.696571949935436,1.0899989230507523,10.361874845574803,-0.5847112980363406,0.017707928068230974,0.01172204338791601,0.007913176484316534,0.24927694490972002,-0.5438325081074177,4.477256723454691,-0.8319638586885512,9.398116406636321,-0.5890224870829514,-0.06726183907665258,0.46405800503777644,-0.07614741402982704,0.1741777324991592,-0.6100486864947924
-7.365558783098011,3.109178780067555,9.242089165824327,1.2857719924999422,-0.45012597246352487,1.3247946323768431,0.18139055587735123,-0.23168055553074549,-0.505480389527102,-3.4245063821973485,3.675960357021819,11.791490120085232,-1.735839274587217,-0.19086193988526698,-0.27216604567939207,-0.11530099936583169,0.06016104161840932,-0.4654591568952409,-3.8430099032988365,1.6241116115701224,11.986476485640146,-0.054191591381396925,0.6784045804041468,-0.1246227475472486,0.11466147495319902,0.14396119822901596,0.028588138869518803,4.922693522961661,2.6331023896521977,11.08002116411215,-0.1855482541859018,0.07993506686028154,-0.07621600252969384,-0.02736861699763239,0.25998845806404486,-0.5604233401734061,4.200464192142997,-0.09132596082905094,9.801785369973022,-0.23919400263827895,0.040811394000102884,0.04556825100491973,-0.09718756149274893,0.18385391877571275,-0.6208115501880638
-7.553822374305143,2.7522251563308764,9.43923624406554,1.1280718846606146,-1.154592791829762,1.456132526990248,0.16113242181858523,-0.25184986873453624,-0.49551041308056726,-3.662888200366024,2.7811282634652104,10.821693607887601,-1.6764495781434796,0.0022551985733665846,-0.07677888910335287,-0.0882725773521313,0.07216940027039452,-0.4845673953262059,-4.18207909622261,0.6139345923153648,11.727889652283162,-0.12461332272683374,0.6427064460811807,-0.007028436289558107,0.12615285654903835,0.148997001647099,-0.03832608842149329,4.8962469398531265,2.284653240338812,10.998139267861145,-0.10546776294473477,0.19989529743126697,0.07530807473504116,-0.046072984860136224,0.26584743004491107,-0.5673543461026749,4.039060255804749,-0.2702966348614876,9.879984134694045,-0.17103866613033442,0.1741343563753416,-0.552883699813172,-0.10756415356267218,0.18966679836314415,-0.6249728481726389
-5.7743643523958275,4.934590310671719,7.819818696706473,0.8921102828102412,-1.7465471331967364,1.5519031790815734,0.13695188004987355,-0.2684618034345387,-0.5030346114627504,-3.5154168772547876,2.435339403611404,11.68067968205052,-1.7755546533524253,0.194245091809063,0.30814829325608384,-0.05455318843682599,0.09949162742991507,-0.49036950151464676,-4.401459200391107,-1.0105286064538002,10.978408831943728,-0.18625933459450972,0.6368323027959437,0.10771575001839764,0.14156276920682834,0.16017595221569877,-0.09461255045335393,4.189929852477438,-0.6113143287006875,10.737730092328528,-0.06650746083554213,0.2773815377468554,0.2239731501573316,-0.05913768705850175,0.2832484900710586,-0.5647542385213555,3.7967680729501683,0.2295589371610286,9.955194589616255,-0.11333411365348556,0.25909484572946817,-0.952920449042732,-0.11267521116120487,0.19818136203936182,-0.6221636357157185
-5.497623286898887,5.718403652519522,7.988870821100093,-0.2827466241449082,-2.186935567767826,1.4081551277354614,0.11093244081749368,-0.26992093966887065,-0.5106777963016869,-4.657374040170685,0.7386870180277824,9.344264185614906,-2.1428737868606245,0.25421291091275444,0.6065357587363428,-0.03176680998303342,0.12041556688836595,-0.5056879827872671,-5.024948798308604,-5.978450129761757,10.161463596219669,-1.2605111786864744,0.6553732893629886,-0.3612060711587939,0.14118747641910911,0.16885448505696984,-0.14496907308991477,3.068369912757183,-5.784772041523874,10.101991673516226,-1.1184438496055549,0.40336655031207025,0.5723906993242003,-0.08191379012159918,0.2986608766737109,-0.5697188427824773,3.993686675295093,1.081841028464006,10.572302238785948,-1.1311825898560002,0.1783902257799151,-0.4825677194652193,-0.13028581797717778,0.21468866588132088,-0.6195594964255784
-2.897019450069611,5.165195025500962,3.260880177598449,-0.8027447775475443,-2.4663660152892493,1.7078110542408882,0.0648996997363478,-0.2589843685496312,-0.5235318987483768,-4.500340974001013,0.16311869030585105,7.585205105579579,-1.7102874701205555,0.12221052894150768,0.06177023746487148,-0.009803468902781904,0.13402071476485344,-0.5211032796657395,-4.792004597949287,-1.4936799421333853,7.146083527576788,-0.8405330244584419,0.5046701160917797,-0.21991469257112864,0.15202699066100367,0.16671923370020364,-0.1910659219588255,3.12273077023824,-2.7176377446699775,10.088599101676971,-0.7791838746065443,0.40708638209142534,0.3988176717559633,-0.09067748673429996,0.30763050539558195,-0.5800901252621093,4.157152317798969,-2.2508404435526512,8.502309233301466,-0.902118711772914,0.22421941139612314,0.04684398907388371,-0.13449514156512,0.22443396609777305,-0.6199417510831174
-2.1134072954123337,3.7591406845743833,2.0636959901953964,0.6502700153824877,-2.0877798430985246,2.4554865471630993,0.024632681364167852,-0.2625963409389017,-0.5204567901529497,-4.6031327779383036,-0.0672244789905953,8.743402854348668,-0.4281790419785516,0.029440519542962746,-0.5756216985246213,0.007814968329051441,0.14847626164427136,-0.5330631399460648,-4.723557828870033,-3.4970042743641656,10.611829504574194,-0.11169207148029354,0.22376305840278105,0.0652506575880627,0.1614517714755704,0.18782333830747383,-0.2326572394821112,3.8698732293185403,-3.097494886052698,10.018820229409004,-0.05414570580963711,0.4738363542142047,0.14221703812612235,-0.10443347944400895,0.325201632944883,-0.5860217707519059,4.423854084901644,-1.871990440671245,7.63870445147006,-0.2280781570318598,0.4610865538955294,0.18914722513876703,-0.13894531537901914,0.24271960414202504,-0.6181084967797834
-2.1410232591479716,2.99884883209586,4.61340012669687,1.227675694134183,-1.960349639022733,2.8570024250129005,-0.010762598052312488,-0.2809343251303447,-0.5112045117403818,-4.985092431460573,0.5392856082189541,8.823178860711565,0.4756982397564449,-0.5124164413235102,-0.7534652599343713,0.017555651832360505,0.14266058892195752,-0.5501632240591706,-5.573700724129112,-0.15020614309307317,11.273431221891219,0.2554975644407377,0.21535150570576297,0.2641760867302562,0.1758535291410701,0.1896035811976267,-0.2729880873457042,4.693480402202429,-0.9676760303221661,10.33849502392508,0.2886246341705923,0.7251169850055593,-0.029884872098421014,-0.10818597316990658,0.3277719830567733,-0.6003644844469987,4.4887136082287045,-1.227543864107424,6.492628455471994,0.10472352248627455,0.740148888022391,0.20768043939255565,-0.12646858220491522,0.24157907675243434,-0.6286372241281295
-2.9654301802035503,2.8829482047717825,8.37781803184762,0.5119867263692929,-2.6125791806592797,2.765391047765278,-0.06761216718399245,-0.28124188564808295,-0.5083261173841008,-3.8729922874629668,-1.3140228129958675,7.226341519244146,0.8429486106930174,-0.5455675831934231,-0.39102818159846103,0.017705799528529097,0.1354139850523579,-0.5715182809082273,-5.335054684112994,-1.3785281632898803,10.056500101570409,0.5300675041872139,-0.22096345748378762,0.2477276353892483,0.17579454083969914,0.19757585857948115,-0.31919379443613916,4.754429601879904,-0.6306676571034222,10.340946632607373,0.5812386579069279,1.0882192503109092,-0.04109442520970369,-0.11748556965361598,0.3312701412651642,-0.6221522319989887,4.381359345581516,-0.5852294692548953,6.9888833825797345,0.33002358107656854,1.103360752708311,0.07907563503600344,-0.12368553104795466,0.2465034654650853,-0.6455402032461564
-2.133898358478747,2.164752604113373,7.098461113500381,0.07816135911775979,-3.4140871215855335,2.0162131714887366,-0.12038331384577589,-0.2733216417822945,-0.4988690591677745,-3.180247643743596,-1.702983962486863,6.892114384980988,0.6591401471162844,-0.33589454986463296,0.28311180059608654,0.02611816132416978,0.13007263999077978,-0.5773777379609241,-4.585103934055005,-0.161124546347779,9.285983388056192,0.20666254784586618,-0.7341849713195606,0.27108252564735885,0.17988021055936568,0.20584507565505963,-0.35278184632812537,3.3304932111490606,-0.36025269278830174,9.469316546370745,0.3071187343154225,1.3559276622812901,-0.048801142311304044,-0.10963339448217135,0.33701848855530253,-0.63167190964631,2.6813870369128483,0.42302850871128533,6.704589895984857,0.050942416909971956,1.417258900054047,-0.012485508198077823,-0.10519994838349878,0.24977588624486646,-0.6481337523194581
-0.4257723993239152,2.7818553699062236,3.502355355553155,0.3399946464820874,-3.785155200346676,1.0520934835902347,-0.17692659999272173,-0.2753693901198282,-0.491367981815105,-3.0121766920767987,-1.4742148284672176,5.348886187529386,0.4892071966221974,-0.5041029802743712,0.8172318868739445,0.019481627293219613,0.11652376539104402,-0.5877871764729994,-3.899179855282632,-2.2194629780667308,8.022299860361446,0.2631558381287692,-1.0208152734949558,0.24146828633831657,0.166128414845284,0.20283268131975377,-0.3815614709435852,2.2495248266547114,-1.8276402432589447,8.615061081380066,0.3536310214137235,1.5800534786489437,0.02876122854220913,-0.1136138782332892,0.33203617471269714,-0.6442317367104407,1.810219972885363,-0.4798890155602434,6.2428691567039545,0.05839928216610907,1.641413486839734,0.020913682772505906,-0.08992616399667744,0.2452246136544845,-0.6543322030382208
-7.478270172048274e-05,4.695654699914495,2.9470646531610853,0.481718694677815,-3.7337807728835863,0.3949328346893326,-0.23546132751665644,-0.28335748095764657,-0.46848773591464576,-3.444982238027549,0.5071670170176685,5.072506348132262,1.1527500928922747,-0.8519967554462524,0.9775436406544263,0.025132874297789046,0.10462965152959136,-0.5932457704993166,-4.397116947247908,-2.135204821627983,9.027258772107448,0.11926195711104372,-1.3230307655020823,0.11440687294484309,0.16675931989977302,0.210725473093401,-0.40384977978095715,1.6828007558225713,-3.3117872155816617,9.184177938919674,0.1397050520097738,1.83085927841575,0.02334599937686862,-0.08952216727610794,0.3421660467588512,-0.6492929428398311,1.5288240612583448,0.36340588422350834,6.4584159136438615,-0.17626294327314346,1.8131999216616546,0.3822590018414977,-0.050000131307367225,0.2542229039771296,-0.6578713163398152
0.1918016933596951,5.311971093460397,2.4790082440821966,0.6209551214878014,-3.3614714992340975,-0.03954486143531029,-0.2742497535629909,-0.29574282783023087,-0.43057401605370615,-3.1226701196460427,2.069510707577614,5.53459736774956,0.7945382500513464,-1.3030310338167945,0.9301953238071456,0.00702342765897512,0.09409439759491309,-0.6065065127096078,-3.8736969355593356,-2.635211477379996,9.004785374464399,0.23392368283894613,-1.6176210496954628,0.06401196489886407,0.14445000919703013,0.2199510387477424,-0.43914633830053396,0.44535574914572806,-2.6125391312813777,9.315198643325239,0.20504954425369545,2.1100766311573707,-0.09464001632984834,-0.07707354111204823,0.3465735980185845,-0.6706324661831562,-0.21907952582748078,-0.34585334749854657,5.9127502278539765,-0.17698298327314385,2.099190492983716,0.945909164671492,-0.020717698872049724,0.2631775537742079,-0.6680162678272671
0.21221009521694678,5.772562978158243,2.2430569566071763,0.38778045544227696,-2.7117583976797386,-0.5899839403470216,-0.30462753038016693,-0.303396944305236,-0.4181633400595108,-2.412746524196482,1.5415978704300897,4.61755458207006,0.20233301501504633,-1.911277398507296,0.8188494823293867,-0.020526444624784486,0.0828423248399798,-0.6120715361476736,-3.6579909401078914,-0.34764464902609915,10.650319368762663,0.6517427356060973,-1.983407114142432,0.19155480009613468,0.12038606290601983,0.20581792249704556,-0.46545739479676124,0.5818109517477862,0.22642612831078646,10.3900540816855,0.5742678567018082,2.4295649994143904,-0.14396903382903076,-0.05265674162900309,0.3373788875729433,-0.6796826750661368,-1.5168271187284796,-0.11800280271127023,5.963095977861345,0.19638272801281464,2.481255983767533,1.0410908606221916,0.021018658163790963,0.25533775638042233,-0.6708866406604067
2.5333128979024617,6.353538858489441,2.8691840078298796,0.04847279345416454,-2.0169633761416903,-1.4283718743317038,-0.334145479590498,-0.3125747795240964,-0.39722903727408787,-0.5998178225533362,1.871750527897474,4.675928267774528,-0.0325521049415886,-2.5579122805740986,0.7797174097749041,-0.058571469924096856,0.08767575870334089,-0.6131758970774407,-2.629888471436108,-1.8607492663302052,10.24576940569014,0.6144531947858417,-2.408325721442253,0.22814995619356132,0.08703515003954383,0.21205275234782409,-0.4890494889112006,-0.9922989000984476,0.475177708457868,9.953512898244625,0.6143131133848881,2.8254749043666445,0.05168863805194385,-0.026565487842860114,0.33523624204976915,-0.6912781633279178,-3.7684511362673234,1.003846937404737,6.1063808386278735,0.26957220442829805,2.8711584071245326,0.9041392193638015,0.0708084979699682,0.2551056296355509,-0.6722109043235509
5.066480336106941,6.756897425404507,3.1213023540936677,-0.5495024335658809,-1.5027178842927351,-2.095294581292077,-0.32882518513418835,-0.33389984525666166,-0.39036990617751804,1.2241618372198833,0.8733431818702297,4.945292795042699,0.39077729660032745,-2.8802631675679273,0.7081421760312754,-0.09673966239679282,0.08441268752491983,-0.6163231711125056,-1.8455441594135338,-0.2728286739382799,8.208182257754496,-0.053607088329598346,-2.8002583398872054,0.19995441979855696,0.04930931126490325,0.21881960556287425,-0.5118299991187396,-2.7025779725558885,-0.2623439952783471,9.11340823521201,0.006324936482112681,3.1141421469168065,0.310610841993447,0.015004528609183117,0.341367386624524,-0.7001410102396223,-5.279951398189049,2.353696473654686,7.4789815673157,-0.28736376455583634,3.1010302283926436,1.0462114785440682,0.1313784725250467,0.2583425483613999,-0.6710781512351026
5.538356842285961,8.340761256018142,2.685421629184687,-0.43173727969823744,-0.7190265926940257,-2.5110296927427176,-0.3236680661969902,-0.34227694560460936,-0.38464621470889343,1.8255288661332059,1.6693781438202415,5.0488840542454225,0.8410789024244297,-3.010992719583016,0.4901875191226213,-0.14066504082211093,0.07755098120481863,-0.6068797912319076,-1.3077594608303889,-0.8457879699577581,6.456409804151944,-0.6849539484620014,-3.007092729480497,0.17596377327691504,0.007596388956533168,0.23332180159523955,-0.5165199339514137,-4.349993237484398,-3.029701287399455,7.68769802230805,-0.7134254469754295,3.1232838903480733,0.14348758703843542,0.054569908902719455,0.3562039827659487,-0.6919384550789358,-6.786464242098573,0.12734386785103038,8.487486653037587,-0.9778315701774505,3.0800470158603295,1.7831267619266946,0.19208852235921653,0.2703375354498243,-0.6501546717710854
5.336116304541216,9.22695271162533,5.6240240488622,-0.721609184328581,-0.014240804427795049,-2.6463067331632004,-0.3043285012778138,-0.35533122470318956,-0.39041616695768516,2.5502907322168986,2.505449169753283,5.785915095320462,1.0443814336581443,-2.935135319860739,0.3121852362655208,-0.18403460476809533,0.058191905759789664,-0.599404143096204,-1.0700985635759628,-3.5498327362411137,5.325402130465416,-0.04476450817138597,-3.0897550278160133,0.03749704109449236,-0.03866008468369628,0.23831775596829993,-0.5244779914576809,-4.757067833776632,-3.270068887036593,6.693133371202755,-0.03819020707709398,2.918745511810579,0.07571329201672453,0.08953391403386338,0.3590308581079898,-0.6906018272362282,-7.967449601096834,-2.077037644117701,8.63401646976851,-0.1328979098303501,3.001526409004377,2.2644222298478285,0.2523973778493871,0.2588945379208656,-0.6307228726259222
4.9694259524872315,9.174449179860028,7.364721304830823,-1.4242612010172668,-0.015358268526197236,-2.812805908666599,-0.2841573024513987,-0.3556977549256674,-0.39612024431526366,2.8436988459335772,2.0731771615352192,5.683794901605689,1.624634827974968,-2.571144583836453,0.23401558265042977,-0.2186374303074853,0.0343819206171644,-0.5892618786449829,-0.7176726318316574,-2.8859727610707457,3.360300487445657,1.669467650293453,-3.123109377365626,-0.22197899123239107,-0.08700881899038042,0.21569302227568224,-0.539528735202752,-4.384161805489438,-0.615873444662268,4.727672374107307,1.6764108366592037,2.7014440294514586,0.38671896983294696,0.1278705531559552,0.33418366461587456,-0.6974034881648462,-7.237527941674984,-2.4322953566525656,8.765229496985132,1.72793976040757,2.7097594961402907,1.8254995628696125,0.30187893640898134,0.2210451340963852,-0.6213521428440505
3.04111329333679,8.571669701183634,6.88978693754123,-2.3630837154163657,0.3075200772605193,-2.870194026508081,-0.2649162638173457,-0.35524577614862124,-0.41425586984811963,2.1388850211473245,4.747365571584634,6.3168747196196255,2.691532310395668,-2.24778145210456,0.30379136657231465,-0.2538489317781078,-0.0003878445979280925,-0.5779297938821647,-0.051962181328583705,-2.432281146838794,3.1777505496708107,2.9247533498036242,-2.9052494068803263,-0.49658492859428427,-0.13741311356720515,0.17966573491717736,-0.5534712807666148,-3.4284496068759527,1.094464062377738,3.7624981429430293,2.7973144521996165,2.3742120817818155,0.9046447990003702,0.1567069383887417,0.2927070838800783,-0.7109140281308619,-5.371666399819299,0.9236377566226462,9.264216796343415,2.8870119721487835,2.285306363256412,1.0469719114509934,0.33688681127238645,0.16945988383057753,-0.6182815929646058
1.4485763325818566,7.639105640483697,8.411249991037531,-2.709554372141945,1.0958947256480183,-2.8332910589982325,-0.22337620887050055,-0.33369548799247273,-0.4375051156079298,1.0845191211571612,6.6748767380281695,7.149003365230634,2.177246548611074,-2.285159261358233,0.3509216025152373,-0.2800189984350617,-0.027679081847485333,-0.5529262384238111,-0.3581010463550079,-0.9721612367386717,3.7399322516600733,3.622362292636279,-2.3565260845053695,-0.6716723583106826,-0.17184485173273356,0.12382594618823618,-0.5524356159522509,-3.579926544073929,2.368035639888412,4.337169928243206,3.3082961658763415,1.9288874307955384,1.4945680229286606,0.1932741535376348,0.236724054796503,-0.7054307812932556,-5.128584333599105,-0.4530527200365259,9.75114361072835,3.2795415252943005,1.8479432975167385,0.1975013194343096,0.36875874304544454,0.11979000359953143,-0.6017089937753698
-0.776815839103461,6.219573699370189,9.93816650625741,-2.7106997227681933,1.8518664208031794,-2.55583603008332,-0.18630379956319812,-0.3020421453702924,-0.46989587699130425,1.368056885757825,7.027521875272882,6.635621441665032,1.0963025000666615,-2.194235919230745,0.3148346692459345,-0.30533015218656945,-0.04089215923813556,-0.5318621437925144,-0.15557751253818536,2.81329244948756,4.178038461806175,3.6928869398927815,-1.9417347092992903,-0.7602222714500859,-0.20112240605741666,0.06843601233203032,-0.5502786177671869,-3.9627970082275343,2.5807664342858962,6.069063722529051,3.2784059628355955,1.424996245602648,1.7907792975487988,0.2178548636295199,0.18175012303621987,-0.7008922476980911,-5.162048407268232,-0.8205583661057063,11.044870608438355,3.169326508921772,1.4798492576658928,-0.7156586779299461,0.3880358227629849,0.07812043167157917,-0.5897354279362056
-2.5306517654003815,5.210051690111364,11.06271590667575,-2.3826144139718415,2.3364245304033417,-2.10092520290208,-0.13621137231964445,-0.27737743308052093,-0.49424199120922574,1.260062739443376,5.872087885340766,7.220925670990573,0.7770600493479818,-1.8474928225508542,0.006841307432775362,-0.33744600142746545,-0.045833292249200255,-0.5167340775875096,-0.053532730546530224,4.950172323114412,4.411316979907962,2.8114786692645675,-1.7056352214351314,-0.6004611288012449,-0.23660555572713116,0.02629443395237027,-0.5468761889012722,-4.045587620655255,2.272149712944116,6.429116675983251,2.4015033746411465,0.8753588804798716,1.5071791784924609,0.22449499101871162,0.13703288550603168,-0.7026086873049603,-4.474956028865237,-0.5092013248185617,11.77751061378302,2.270059792749067,1.0600976056880496,-1.0454328851306174,0.39046914464899496,0.05761587293254702,-0.58371341087241
-3.0060784356965558,4.085011940975843,11.845040888768343,-2.2528316732440166,2.6969530871690433,-1.8964186590370626,-0.08772416523683979,-0.25273983673812617,-0.512213129508689,0.9260536269650322,5.0298642133031635,7.624369819981391,0.8419312673504675,-1.4894634343118796,-0.19005865982242637,-0.3548057407935399,-0.05883281958928508,-0.5050488998791325,-0.07157278158020608,4.9206829574291415,4.911933489717799,1.6190736964999282,-1.406691679286601,-0.3960557429919445,-0.2607567764343547,-0.002771213824905758,-0.5445108086700399,-3.8012655863400013,0.8232203368602456,5.52915411093387,1.3744656324082596,0.3836992854473408,0.9489364328498315,0.2269538934624302,0.11109377723431774,-0.7082986967812771,-3.4973909396631857,-1.8857295797666744,11.319473490697034,1.2657450831269768,0.4803153780978706,-1.0301549629791542,0.3919032169859301,0.04908361848914477,-0.5871760752577467
-4.068052692647212,2.578756078452233,10.940290651601558,-2.7785862747525076,3.139098644269973,-2.0359492071781653,-0.03806870569213118,-0.20761513824517713,-0.5281201375656509,0.2079119368443446,5.9738754988742535,7.868872636885446,1.0311375013893644,-1.1356648661432873,-0.1688254336504071,-0.36135709616950745,-0.0708996567567228,-0.48886974580630393,-0.5745400412774684,5.111332912097986,4.770731695652022,0.7830700793760191,-1.0652841281848495,-0.3493734099906286,-0.26594287801026173,-0.01433244820419549,-0.5289497748010609,-3.943339934109405,0.8016712345376814,5.843456152226938,0.7722713220948433,-0.2281209202950737,0.38504504004935763,0.2281888495914679,0.09597694929801655,-0.7055084940102199,-3.2056190621331693,-1.042636109451225,12.497155105533174,0.7817493747625133,-0.09256628151562668,-0.9486582757994522,0.39348583990079194,0.04566625148581985,-0.5825764121750916
-5.190636774773192,0.6895340628281355,9.918963270321393,-3.0599199658456016,3.4869202151699543,-1.864572233594766,0.018489862117960915,-0.16134520053214435,-0.5404688934666833,0.39570189269698863,6.484840691658902,7.2647890890301765,0.8665461446340254,-0.7746617483121985,-0.19144898544206224,-0.3730447239515964,-0.08483299133639977,-0.4713728940518277,-0.27747140817335986,4.623276333301552,5.0162039342986295,0.0859681381992538,-0.7146476881929614,-0.3709626028982028,-0.2799536201660201,-0.02071871513818881,-0.5176529941582124,-4.10685519242108,0.5494342328414485,5.1833181753481945,0.3648656834806746,-0.7882141673181092,-0.1550737684303825,0.21246922551960076,0.08892398084086407,-0.7082441856926992,-3.4681188925368653,-0.5134263949940664,10.235324527014924,0.5247360468705914,-0.688411908478248,-0.6283061919597488,0.37948296130195447,0.040475961784530806,-0.5876527405493117
-5.027827408969346,-0.8531816940663723,8.444757308896074,-3.0882152255474487,3.9444225513141475,-1.3489180058781594,0.09060792772174094,-0.10693765446971097,-0.5459397045613082,0.4829703036401819,6.712898112301256,7.070766762030405,0.5754972654096822,-0.5079059859009367,-0.3092932642282648,-0.38138799794229317,-0.08432176492213106,-0.4754343804385483,0.08205636866118177,4.122615676746406,5.7245172824929025,-0.47586789545532965,-0.48254376654138453,-0.42728011196283094,-0.29118046998441854,-0.0062611958857210735,-0.524380325889267,-4.387007516335881,0.15857365500683313,5.248034950468152,0.04877998492422185,-1.1976774244116333,-0.6302648003295986,0.18989398594073417,0.10569152235665034,-0.7254375610295306,-3.953728842616367,0.4405392537537145,9.705892711418231,0.338142114948665,-1.1445649786725458,-0.26040903091167633,0.3584198831747168,0.047486774952455055,-0.6113611483940056
-4.387217825014747,-0.3713646945041201,7.634843667761819,-2.647278128859567,4.30959834004874,-0.8401926672763451,0.14626729791339688,-0.06666042651360093,-0.5358483518749857,2.1155599865782886,6.293133523611511,7.563173362945931,0.6009793544106742,-0.4145303439356281,-0.3041589987781706,-0.38696392291609344,-0.09903511107121953,-0.45653108930224995,2.025268901295232,4.416290266924299,5.5432216787657085,-0.978042387102983,-0.06647309895493202,-0.5492826534510503,-0.2910867326938332,-0.002727227461847494,-0.5080464350637649,-2.800280687516945,0.9834821565097863,6.247404205268575,-0.21672703839401,-1.5975048960667018,-1.0952708572101593,0.16073350110291648,0.10925534017447439,-0.719887250354914,-2.919835955784547,3.110638402373096,11.10195672925897,0.12991482841357024,-1.6019957708580101,0.3637918468607039,0.3251876982554901,0.03389592988003718,-0.615543866734016
-7.817457787285545,-1.6100921658652405,7.411290830260879,-2.7364837757876925,4.415486442449201,-0.5666731646752251,0.21754462311801737,-0.020227889737190197,-0.5142518647027154,3.5160678518912567,7.725794644486288,8.114326280649664,-0.09588712411142002,-0.16247109193103573,-0.45615592536914185,-0.39096228116900406,-0.09937426474649087,-0.4640470125366857,2.7137705836009225,3.160529947699319,4.933103498374228,-1.4663134594566773,0.3613674695266129,-0.5544737880054603,-0.28567376900746905,0.014271996099556967,-0.5141267183169939,-2.573596924733914,2.041456433238209,7.089092671244852,-0.6084326580227208,-1.9920786186553847,-1.4220618482729437,0.12949843848829937,0.12552065229883305,-0.7417526928603412,-3.924190186515453,4.031690435484431,11.066754520402093,-0.3013310715839568,-2.035278045789383,0.9962325212157118,0.29165516630056615,0.03157074476980576,-0.6421705383415444
-8.83982605842957,-3.9890964367910082,5.750642055962431,-2.8774047202265347,4.238074528875064,-0.3186891393199055,0.2845955737239278,0.03229565828188489,-0.4852227220296759,3.919804565665583,6.757615635366109,7.823982193277843,-0.668484131437613,0.37716451139663343,-0.5490086207165047,-0.3819882889102494,-0.09742255148260737,-0.47127242437791605,3.15708447450377,3.001999426196933,5.493226322748276,-1.5541024706937527,0.6358307610552755,-0.6349323405792483,-0.2735993006277705,0.031480789365661704,-0.5166708059082783,-2.397763431143049,2.5671881016355518,7.0395195620042825,-0.7081871758910788,-2.3464825539744765,-1.4767468355106899,0.09394853006354728,0.13924054580794692,-0.7495718963421746,-4.443706820520698,1.5026896403106436,9.819038079643132,-0.5051190562804108,-2.3498235012287165,1.116689679910494,0.258498008741983,0.03460678929089837,-0.6614716066358443
-8.984502436669002,-2.792987527259923,5.673230893912771,-2.096314799132515,3.669327625536321,0.16810094181767127,0.3360132150629916,0.05565258438936876,-0.45783281626246064,4.893387502264956,7.174549875877374,8.857330157897135,-0.8044852290715846,0.787660391519577,-0.6008844689837362,-0.37908128265067303,-0.09342400056106875,-0.47748816424816853,3.5687882963464976,2.2573628598636564,6.306562259104514,-1.464316697238715,1.0329984060704895,-0.8034880734427423,-0.2675601282425334,0.04658053820509043,-0.5144479444893947,-2.405020301452412,2.2017268068874367,7.454406965668631,-0.6227082371635625,-2.5538780373465997,-1.4838505408016425,0.04148303010152832,0.15991009594941008,-0.7509421721118386,-4.623247548786917,4.180493499395777,10.062820558700599,-0.5397441905991756,-2.5739181376071696,1.1789652748559982,0.20105436972436322,0.03653257472437526,-0.6748743317646234
-10.284312856545142,-2.4895235102487816,4.018281980729686,-0.338242687442611,3.215894691870754,0.5256379884389123,0.3688931727964511,0.05181365840043612,-0.43128917953541407,4.733833551174283,5.09720175009382,6.793682829498238,-0.5505005180613748,0.9522996547635707,-0.8472745643640806,-0.3649974051092649,-0.08509722963566328,-0.4929529596349314,3.7885104866391828,2.0201679614153982,6.405932204818023,-1.4551900345221351,1.3876254639011654,-0.7801507393187188,-0.24696210942066427,0.06662343721211614,-0.5196143140085144,-2.2117585550626058,3.4526432558305866,8.397547364082262,-0.8513962882308186,-2.8452487167174225,-1.461005278359611,-0.0029706974915284234,0.18199902931782155,-0.7544712280377459,-4.600645032147013,4.616820402237645,10.294249205872823,-0.9774773410408637,-2.7726066731582617,1.353272981908661,0.15273050823673268,0.05560045611698757,-0.6916239754659552
-9.678568971127076,-1.4150043441214437,5.091264904866242,-0.4446131430000777,2.6836394470308416,1.1541306557476896,0.41217633965509515,0.05689759754178974,-0.3999758724041992,4.907195203694204,5.277609927197173,7.616468879688569,0.14720819743731953,1.1145863198257284,-1.108219394489464,-0.3417774895471562,-0.09721623597245949,-0.4991053536971834,3.638428560124243,1.239733115985178,7.774099945654604,-1.4038596756000439,1.516045662752148,-0.7130847139481679,-0.22137005571788604,0.08179810370669968,-0.5165378598722925,-2.074218646868072,4.213111336846228,8.85456731309021,-0.9236037590279078,-3.007751163178754,-1.245519707749489,-0.046727635150814614,0.19465329836346967,-0.7479191471773098,-4.216023322190763,4.147577329866924,10.091532217686298,-1.2594675844223098,-2.854582805624977,1.1021195988347474,0.10691533735103792,0.07343746044879525,-0.6942675229275423
-10.972744511771483,0.2880514784797953,4.708706449505793,-0.950068648600053,2.0471036152138176,1.6776141280958465,0.43736523678800865,0.04483940517371043,-0.37702148574190963,5.241359602390332,6.7487774102141715,9.007937377121221,0.21585031814853387,1.2276582955750954,-1.1997349196663523,-0.32773160253966416,-0.11639496880841478,-0.509898309130234,3.525383126904681,0.8932990871797531,8.302171895168915,-1.0026083522891724,1.7776772866766695,-0.695237654445489,-0.20322306672809354,0.08376215353418767,-0.5264151899204126,-1.4905377508546451,3.697520993427903,8.278420835249081,-0.664983849281754,-3.120077132648047,-0.8874060880201151,-0.10181856473490232,0.20340654736438116,-0.7449697758054526,-3.505803337775026,3.521098751393927,9.321112123080788,-1.170288259892991,-2.9534289418784545,0.6967324197167426,0.047828353001557966,0.08974979130400222,-0.7012636015116187
-11.870385856728596,-0.7068301324320038,4.103264109358418,-1.7370173828786295,1.2761674276927426,2.1254346999198934,0.4630800363805652,0.04574158207322419,-0.3579011080846396,4.77263877731497,6.025340121072234,8.474149607053718,-0.2903068915868859,1.4426796546880818,-1.391843757443427,-0.3008400150417786,-0.11920555226868076,-0.5250616597314844,2.656000452676869,1.3273509601229536,8.612574173427301,-0.26328874541926833,1.8722689348899397,-0.5853606068148419,-0.17507646770718138,0.0864554256468653,-0.524275909461226,-1.25333720926351,4.284240663495245,8.99120064295055,-0.09793847410193478,-3.1350130407910877,-0.5814791665566377,-0.15011997555733542,0.20367634633372514,-0.7325835383994165,-3.0348078484353747,2.4024000345359986,9.382872164200654,-0.6919859422888865,-3.060783443514411,0.1794576559209065,-0.005390097827193463,0.10363217577309694,-0.6971589379638959
-11.142732061724356,-1.9342766551272454,3.4418444234703336,-1.427224407905107,0.4275710323232589,2.651774201402514,0.47326355707701145,0.03482266503697097,-0.34226496463491163,3.862604180593424,6.9913799942409875,9.304259422732317,-0.3873476117390959,1.6409331090916834,-1.5522496817460523,-0.2742006916044786,-0.12585811175835826,-0.5369735348164248,1.7174751895906126,1.6135693493359307,9.478349875406282,0.3249822351775501,1.8949572442587237,-0.46159919841285246,-0.1527188705239659,0.08086185914018773,-0.5273432568377798,-0.9640542291991534,3.3007380782444664,8.383715330061323,0.3989216673855262,-3.068102891686296,-0.3626283401797771,-0.19479524175265167,0.19514254077468962,-0.7204501318679347,-2.989475222951875,1.169629638332329,8.20107571044704,-0.24040949401709114,-3.0928744084641826,-0.368134288382352,-0.06598225838944001,0.10672440112031452,-0.686559980005636
-9.647654771583525,-1.6760654966176551,4.397610926298447,-0.6571371891951151,-0.26718188428109674,2.9282427749352933,0.47541550149063594,0.013612946537577428,-0.3500036777977801,3.235768963593883,6.045552939220355,9.76636422006095,-0.6660422354857994,1.6888946081826968,-1.6261117269629703,-0.24140304783390315,-0.12579385478240968,-0.5512842648865323,1.1291998141221526,2.522511639485603,10.072309920073357,0.9567290266692119,2.051733964444996,-0.3048936522550151,-0.1194893518369492,0.07074647650843813,-0.5344900075709805,-0.35940444835643737,2.81233958084094,8.99901604742791,0.9672671009570185,-2.964223004262504,-0.26818899212901554,-0.23770504078880597,0.1844286181225076,-0.7056527628423306,-2.5334447830632434,1.8178697892574436,8.100306467850075,0.33386134131539985,-3.127542772717932,-0.7022700698028582,-0.12116993394085218,0.1030082789937051,-0.6760894138045089
-9.180250788853755,0.9634675155567749,4.576932860870682,0.21844606712753326,-0.9125230747669454,2.974993345057329,0.46427160821685826,-0.02483742228267659,-0.3564146896749405,3.2892897648405603,4.780396619637521,9.937374965663482,-0.4279713016137193,1.8337941215508065,-1.493493683752551,-0.2142726255192951,-0.1243069025771045,-0.5714159759953813,0.626548074580188,3.563409296232112,10.815046969889147,0.48052964019792543,2.1329950731249916,-0.2755565399146997,-0.0954860837602293,0.06535755640009364,-0.5410073659854764,0.649260469684166,3.2588687299751267,9.965060990212995,0.44708923360850944,-2.913640546088526,-0.3615047025203249,-0.28487394190915805,0.17890109834278883,-0.6859148894213345,-1.2653124495827244,2.8535382704235417,8.467993900708963,-0.13490414786049645,-2.9595627831747033,-0.7063966611007122,-0.18144248168666827,0.10682827290857594,-0.6618334345775785
-9.311088468999518,1.431499458997938,5.931666130777995,-0.23742449570957513,-1.5093879123981557,2.603854928857864,0.46304877582591014,-0.05598429569305775,-0.3717315273283642,2.2213344125797256,5.635074569072058,10.635573670073487,-0.4333162933166312,2.026186480741138,-1.150877420965925,-0.1846353656624651,-0.13280014881247584,-0.5755147311190845,-0.19958196254239452,3.1172038375176205,11.590475092638272,0.4340910408960204,2.1823235033064554,-0.18880709503630516,-0.07025963762885222,0.05421169627105475,-0.5316363869776761,1.569423444332979,4.410235758666049,10.327008858113722,0.38051357375860223,-2.7924905863276495,-0.2738422269079657,-0.3247564182045351,0.16586653274887642,-0.6565165987001601,0.08840965980649934,3.8740390680976087,8.597517543953678,-0.16968381464933335,-2.8180592829632465,-0.7741290548201402,-0.235006850872099,0.0999188255909782,-0.6335766376159231
-8.377480796419869,1.5599351202904566,5.752746870736597,-1.687449494042635,-2.4415803148026156,2.5191209730041977,0.4352468822472207,-0.061960091763834636,-0.39670993265696186,0.9953067592193758,5.521130991605933,10.53812310279481,-0.6197472241837992,2.12019014364686,-0.8127144083872155,-0.14952455894482905,-0.11821554977369314,-0.5952559474067083,-1.2023638223602908,3.123931903858937,11.858152600666996,-0.07041885249221883,2.2653817925190327,-0.16613638301688818,-0.04003443687830668,0.06462673303269321,-0.5396019577571582,2.0102704269012857,4.299598548851299,9.808308649216688,-0.11669588733148147,-2.6504860649018314,-0.09116157794335099,-0.35842782406247736,0.17933837968552047,-0.6367815569554522,0.4484685575077144,1.2032329114655218,7.304350416434453,-0.6034943290117446,-2.5850659225761534,-1.1210503994505188,-0.2797144026516194,0.11161492427545967,-0.6091459835427228
-3.8829778969685576,-2.3904277437754806,0.5448750959321796,-1.9709798207878164,-3.325984403926555,2.3594993698120685,0.39767698044827815,-0.05234114882670772,-0.44389562290930545,0.42265708108570543,6.363336106111771,10.0128194925563,-0.9130490195006613,1.877483927002906,-0.5871405420234818,-0.12039896708650696,-0.10408369798060702,-0.6041727388588333,-1.411146471142962,2.052907812700913,11.521129214896183,-0.15557844435619467,2.43498469972286,-0.128191897323036,-0.010437739581100702,0.06924764986208051,-0.5392126818223175,3.8189742679423926,2.408670466704322,8.909621029143342,-0.15628096037949868,-2.379591516201999,0.00217899388100146,-0.3899501512124641,0.17995257398836995,-0.6069707949657352,1.892161524471796,-0.8948833318489029,5.878458124601856,-0.5054458861107033,-2.352745752175179,-1.6967322027442688,-0.3198859318316072,0.10355492948120155,-0.5828907787204801
-4.255858155447027,0.6694772064630574,2.2010590517935804,-0.05631155149434728,-3.5952409338399263,2.220823709042912,0.3553186408647746,-0.07283913300309061,-0.4711710964420116,-0.3099036702667027,3.2846427804265184,9.00447605539757,-1.08624997531435,1.5879879496385165,-0.270587940356616,-0.09513165606911024,-0.0928554472214673,-0.6269081895436124,-2.5183674044238282,3.0724224250581895,12.480181904728,0.2722515125336181,2.3944828288024445,0.02310621525477149,0.01983896738696945,0.06571984867366405,-0.5507457821402989,5.233181458288765,2.0714160541707356,9.722318207300274,0.28806998885250656,-2.0342268005548276,-0.17456946526522277,-0.4158898412824571,0.1749887443781844,-0.5982469551188699,3.560198059503742,0.7385674742167809,5.851393458836607,0.09383320392572267,-2.069460175444031,-1.890054810481218,-0.3551637088143044,0.08309085003810093,-0.5704344832557143
-7.181061770207405,2.015442902877136,5.033015070641047,2.016308408039256,-4.377407586656067,2.032200885590081,0.2873011686839208,-0.12364472502086589,-0.5004176240794961,-0.9984408272808712,2.390070382199848,10.069493518077795,-0.5228003907551352,1.7618074617780337,-0.25751825429961545,-0.06660474578907914,-0.08041876412456679,-0.622598500758755,-4.146078061421169,1.3490523299862196,11.182156158442158,0.7113925455691945,2.0046565571818493,0.2417785654155381,0.04931838464326789,0.06357718122419011,-0.5402951591239414,6.608629981827785,2.0902378350872044,9.870808006517137,0.6331319814329084,-1.670740715643322,-0.3722027123926947,-0.4320187572347606,0.1750674943014584,-0.5680672988144465,5.328992609341565,2.4285800647767157,5.833379702484495,0.4986371573211102,-1.7134210383234683,-1.7486487727497626,-0.3821702494240614,0.06458834694643188,-0.536421511073967
-4.107016762225781,2.9650843048685904,7.854431573104474,2.499275722897576,-5.406670595056991,2.0684346748898985,0.20546522565221093,-0.16556472609316092,-0.5276732205545234,-2.1934477085878332,2.931193391265925,10.106419139349248,-0.5778582382019715,2.346312027442925,-0.15278547636730969,-0.03704594867661252,-0.06997344016114815,-0.6324269455270419,-4.696122916926519,2.0039027487702117,10.527471661396804,0.758571478628588,1.5991623204788799,0.36718749688795477,0.06109171431538648,0.05074702940187236,-0.5443345842869923,5.543688230986161,3.2530335811923417,9.185006364197601,0.7395811985335281,-1.3413023959163184,-0.3023418249082539,-0.45792825004957854,0.16158066017795233,-0.5568269160627815,4.385266556788427,1.584917619700261,5.17728991495074,0.6227620802060203,-1.3503562535171338,-1.8184210966851546,-0.4073652551121028,0.03855741090147952,-0.5219946964912822
0.4931049061955564,1.476339273759081,6.654347532516797,1.4337897291682944,-5.7521729354495195,1.775570025471416,0.11248488667352036,-0.1842630331586828,-0.5455654845334402,-3.475798794352854,2.5742098075786815,8.238624111538892,-0.7677816568452936,2.290151746484254,0.06343273546850332,0.003855678485143772,-0.058047910288222884,-0.6343602747205956,-5.007749655333955,2.005933610608359,10.977484749891726,0.5626573518098954,1.4766823088417682,0.47322198564629314,0.08594385178227949,0.04198810293109421,-0.5430308280190669,6.126148028048305,2.914778940887757,8.724564867699138,0.6583944540945847,-0.9939012389306017,-0.13925438897466944,-0.4670471965729233,0.15396017221139613,-0.5387135925285443,4.750192401548471,1.2239103340178494,4.283983615694216,0.6053118028708665,-0.9807217927352772,-2.144908439272019,-0.4141635270235982,0.005292866100535528,-0.5055351124381124
1.2445699397026064,2.978246466372839,1.6889136465528212,0.6496237978869633,-5.2287900998600785,1.2740922991664094,0.03305512211233096,-0.20947821342210465,-0.5529763885968569,-3.868156660913068,3.51345882112805,9.008457741079622,-1.0028154550233588,1.592387485657955,0.7719610524943799,0.03119723330836159,-0.041470395291920155,-0.6313361308092825,-4.708096898044808,3.4960884137352646,12.230756512705293,0.37166781205440974,1.5504635862652345,0.34590270636876463,0.1105201736335954,0.041097840802619204,-0.5342062143389597,7.0254433108687255,2.3101823628213918,8.653558953041394,0.49771965104852595,-0.6389173454743123,-0.10976539835572786,-0.4699011015007732,0.15530795537831757,-0.5254689996998553,5.823845821402338,1.3989143078156385,4.247436257909025,0.48408616532454607,-0.5798202879044885,-2.3844863405565424,-0.41577908241311395,-0.02355691092988785,-0.4855194686293747
0.26286469738384277,5.545236447499909,4.72130631903162,0.6102678673725505,-4.6072509990526465,0.8156505939836979,-0.052340129454011286,-0.21961254536902955,-0.54407893952925,-3.952743527926973,1.978021198797555,7.765145465801264,-1.2460017057728545,0.8932999380948805,1.3194871438887987,0.03437210822120195,-0.033128122205590096,-0.6400788406318095,-4.846321359933862,0.9716521762196283,11.20232421335624,0.5144522635229005,1.6093946107230832,0.3849104797503695,0.12461565064448138,0.026255200156316792,-0.5436472921630386,8.404416831563344,1.0854280679048456,8.19017901052493,0.590657279815683,-0.2962051756715873,-0.2765739333869012,-0.482870314827376,0.13973552189161964,-0.5242887493063221,7.303341232224786,1.9980319058360532,3.9242040384404713,0.5650663578385009,-0.19281915877116199,-2.3831745841259537,-0.42267543227612936,-0.06363020657470493,-0.48640603093963336
2.2314681364053515,7.427930848880384,8.067552164507756,0.49764248108190634,-4.792893917534781,0.9170646724014327,-0.12694614895619366,-0.21475833192645621,-0.5245177633658921,-4.53993418286931,0.4190173049888354,6.889574326346198,-0.13522714165293745,0.8121841297860243,0.7283013703695023,0.05383451569674455,-0.026138774261935654,-0.6326275690236559,-5.995520602925296,0.7143869610036606,9.039352482926597,0.8025872538327566,1.1154518371322215,0.7445963395078887,0.1493540127640258,0.015600051432987504,-0.5345136174192118,7.849633897311234,2.6339797022299876,8.163944031745617,1.0121112036158286,0.027019789681324777,-0.36681396574543834,-0.47710841778870383,0.13172502793161106,-0.5170292130930089,5.961421701348055,3.0078998199328417,3.295979976317431,0.946814844237411,0.2524341949570624,-2.413349834496248,-0.4037154314031883,-0.09821857727056939,-0.47612440691890895
1.6700937460677987,6.342547149486412,6.23493371169959,0.45379962215009406,-4.851599802982467,0.840140616524949,-0.19852950493539315,-0.22456282321105275,-0.5072971458855148,-4.445985141177067,1.6474402813866704,8.005379157366836,0.00956933184916725,0.8385311725818119,0.2592454586401316,0.06213176773287739,-0.024089360389003445,-0.6352076233692701,-5.590796073923564,1.668159494797651,9.839818470357994,0.8123517176240579,0.7443690328132131,1.0724644506602374,0.15486216936433841,0.005290568177557413,-0.5352783368922467,7.280509356485041,3.6868194590671597,7.952823922617143,1.3129815565733642,0.38043394304808553,-0.21923452186430803,-0.47822757584509074,0.1182643230971031,-0.521034605783255,4.493087923242142,4.445923903648681,3.5159832170741216,1.1541027796635495,0.674412562843342,-2.672434076457817,-0.3869218581868038,-0.13133775909453432,-0.475316850148716
2.206786279380017,4.973959977813545,7.517415355621785,-0.8633716371097857,-4.7621630433870115,0.25186832514296703,-0.27588502976680646,-0.21412400966165013,-0.47935445863576354,-3.575498829884163,1.986109397812221,7.620053079118541,-0.37873937767538735,0.566496566636888,0.4388881334915292,0.06992061856736076,-0.023025536607708057,-0.6384941686132183,-4.800849704294256,2.1761928389277068,9.95910418292873,0.6132067514356857,0.5874640993597553,1.1090575376548888,0.16123505711929761,-0.010908522267412664,-0.5391918825248375,7.555290358520065,3.2353147062129417,7.3772342985995785,1.251713671499501,0.6545122226699832,-0.016848392381389243,-0.47378831542497846,0.102569731842548,-0.5271077645391964,4.082253520397308,4.936380832460538,4.187050920460723,0.9610737356892476,0.9962488239242482,-2.9249852733186312,-0.35988601577392837,-0.17733904833557085,-0.4781704953944795
3.235310070402384,3.2311173030316978,6.125627420328394,-1.541162727192337,-4.675187937447812,-0.7688185079383518,-0.32880257005940233,-0.19393810040126774,-0.43978365684058757,-3.006644990142359,1.6779338925545162,6.583749782151787,-0.4480412364863741,0.40203816585073227,0.8873774832404416,0.07214727556547201,-0.017019321625622513,-0.6422981894072903,-4.365017344273804,1.8259821487448704,8.861600714264661,0.3044001268269738,0.3653218510511119,0.9470369946112516,0.16208242545262708,-0.01607467622507639,-0.5435666695131817,7.2329240843847575,1.8170686104770872,6.693746625476556,0.9580510895423852,0.9343413499987803,0.15922446187412637,-0.47119262168160786,0.10219228038228814,-0.5410870133167872,4.032886993377443,5.320463894380303,4.6005670254558435,0.4939769164969501,1.1800380127388346,-3.0191056793755244,-0.3324127416128088,-0.20379135812306945,-0.49003853983213486
2.981217725049645,3.2619830644373815,5.010427269453229,-1.1520347753909488,-4.427330516819775,-1.676644856917314,-0.3788856620039245,-0.2040078296933066,-0.40679885932322224,-3.5175183668187824,1.3385529941731424,6.104486978526175,-0.7858047626948749,0.16074414256598782,1.174992745655809,0.07655129866014357,-0.011073376673486596,-0.6478353903434827,-4.383348492138387,1.7287657065622353,9.171489365056065,0.3440972670646235,0.09124398785016763,0.8400990931770225,0.16429880067788116,-0.031022924859739516,-0.5483880848258438,6.823014802088179,0.7543604683125833,7.667117680471706,0.8770578859382174,1.1421387843707285,0.09084885570957552,-0.4578948317232568,0.08883991097038228,-0.5549621959934793,4.580003126230503,5.829068134684174,5.383188751207073,0.21411079754163112,1.3535591652689882,-2.749375243756008,-0.29242807558328604,-0.23433365171140552,-0.5002315881431856
3.233512649618531,4.661178830658655,5.134455827718022,-0.00999735451206625,-4.026124028002637,-2.210342726706332,-0.4193555900768788,-0.2200635321800039,-0.3654634652229046,-3.983918828301488,1.0232179365022165,5.98895240654708,-0.14848166407595836,-0.25483553166724404,1.1245888182296264,0.07690777643258871,0.002987695888388389,-0.6529888573325532,-4.815613795462987,1.3704422447189473,9.591446036269103,0.568385505643072,-0.16703905269399277,0.9053024129670499,0.16766377101823043,-0.026693312144399836,-0.553365420091198,7.085630488002117,2.0202033754235478,8.220852573257787,1.043839459318249,1.308732213040359,-0.0429901063230771,-0.4354653137044664,0.09207438871376639,-0.5672499779402876,3.6246005543018986,6.234483868943104,5.3924740241433335,0.19153800765074475,1.6404328234335732,-2.416485434751871,-0.24819222509143243,-0.23165169900664262,-0.5092448848181979
3.291405154123564,6.431886557404462,5.491573599305815,0.5814831998637441,-3.710385914688837,-2.485541250716411,-0.44025089742738793,-0.2524479597133642,-0.3140501866261812,-3.616644359427833,1.4086934514206622,6.070150360763511,0.34903160103473685,-0.5507743717134025,0.8414262384842981,0.06548669989339737,-0.016091987508107756,-0.6490742294862052,-4.535246666716244,1.6174528547809672,9.590365477109781,0.7661043927852803,-0.5062131759161201,1.0921495383389639,0.1561847033690836,-0.05709869610461257,-0.5517167363318467,6.699971437280887,2.982574281263585,8.791146644140019,1.2930318911693304,1.4993628715347704,-0.0570928993489704,-0.42401993714347763,0.06486851536301266,-0.5748542092360809,2.031957000182473,6.44665037833631,6.230755758931075,0.19176215894736331,1.9354290159292948,-2.3391421646100965,-0.20811536893516158,-0.25951532838697017,-0.514551774715805
