# sampling frequency: 40
# units are seconds/meters/radians/a.u.
seg1_acc_x,seg1_acc_y,seg1_acc_z,seg1_gyr_x,seg1_gyr_y,seg1_gyr_z,seg1_mag_x,seg1_mag_y,seg1_mag_z,seg2_acc_x,seg2_acc_y,seg2_acc_z,seg2_gyr_x,seg2_gyr_y,seg2_gyr_z,seg2_mag_x,seg2_mag_y,seg2_mag_z,seg3_acc_x,seg3_acc_y,seg3_acc_z,seg3_gyr_x,seg3_gyr_y,seg3_gyr_z,seg3_mag_x,seg3_mag_y,seg3_mag_z,seg4_acc_x,seg4_acc_y,seg4_acc_z,seg4_gyr_x,seg4_gyr_y,seg4_gyr_z,seg4_mag_x,seg4_mag_y,seg4_mag_z,seg5_acc_x,seg5_acc_y,seg5_acc_z,seg5_gyr_x,seg5_gyr_y,seg5_gyr_z,seg5_mag_x,seg5_mag_y,seg5_mag_z
2.0752954919486934,-6.2320239269303475,7.2363294284960595,-0.021257387886305382,-0.0014076373330821586,0.019706898421356683,-0.5380273293651875,-0.17276632720212548,0.3504236656894796,0.02635762534469318,7.554091720298496,6.237186843048547,-0.03833584730512472,-0.008789925586855098,-0.018412210882338693,0.547266619446321,0.3695852669518286,0.39518666985228773,-1.5839665873817526,-6.085659683352284,7.376010834925868,-0.05976167906878971,-0.0917167929503394,0.006060516709287833,0.6169541600473337,0.22717909544194576,-0.4212881076442441,-2.072078792824674,-6.251813706252364,7.453638945998814,-0.05823379360044024,0.22938858588157812,0.002392946332699815,0.28580014965755807,0.46138416095141926,-0.7091950665507144,0.2285293073146125,-6.169020949511327,7.677693473872323,-0.025388088648610283,0.009590318442182548,0.0016744993125824355,-0.32194841682569586,0.4283989717352778,-0.41754922002152584
2.0416985913017105,-6.266866944377681,7.220469381709195,-0.010047066762474396,0.00023231181519158803,0.0165628592848851,-0.5344288588057057,-0.18331807736747413,0.35622620186606707,-0.027547258669045643,7.5683013738734575,6.264976104549079,-0.023055945907957755,-0.004898154708790516,-0.015113080583986815,0.5404547660278822,0.36039277578397305,0.40192092705962695,-1.6155726338276946,-6.130452761807024,7.18272827425211,-0.03703768700068789,-0.06632627270385907,0.002864347893045783,0.6124957532154213,0.21877238845793254,-0.41504144804041593,-2.214612465104271,-6.355132200152412,7.661771607269741,-0.036720418535097124,0.15979486581056213,0.0011718247273967515,0.283588198862143,0.45162184403559036,-0.6982094820367442,0.1681015505906099,-6.143552515360239,7.6222263628496965,-0.0163499415959956,0.007236517352803483,-0.0010877809568598964,-0.3280992839611969,0.4166776351563492,-0.40977658544341233
2.066687402391337,-6.236332054651514,7.223848589713725,-0.005026781032134092,0.0009696061983532272,0.008614282168300033,-0.5375336323093859,-0.170582952246886,0.352391581851801,-0.006088139256642823,7.578140310242376,6.256017425730603,-0.013340944660566586,-0.00278956408876389,-0.01078635868856487,0.5436858682105101,0.3478577167241526,0.39627629854640933,-1.5521805721422135,-6.111643714276779,7.0495365142357,-0.011763377057554104,-0.013002799482918924,-0.0018811216889965212,0.6150909764213591,0.20735394292168635,-0.42486125476189174,-2.2176207472693856,-6.295587673010093,7.721483470084536,-0.00830387351501461,0.02340406199279776,-0.0008379593569608053,0.28373581404013265,0.43819703959608713,-0.7028608354441215,0.1912260385542404,-6.1342637389884835,7.655440369336951,-0.008017528783067635,-0.0008570961251640608,-0.004583971252627,-0.32723874002646053,0.40573173708222315,-0.4176592546288616
2.0953172806898346,-6.259946648863226,7.206799403022582,0.0015261472647489507,0.00044586423280788687,0.010178666740403772,-0.5307235276540327,-0.17791709142259407,0.34869974733025466,0.04168395205782929,7.556628835582515,6.252039349386463,-0.0013627616893074831,-0.0005983043246320914,-0.006754243815060451,0.5399553396448127,0.36026949810581244,0.40924818308777017,-1.5277703124773385,-6.076854632545364,7.077751073055187,0.01347214750059147,0.04644157031055175,-0.0010128607072964562,0.6124792780484154,0.21648292418765047,-0.4059686020192396,-2.136126567817474,-6.164027205164846,7.486073860431915,0.01677432377776643,-0.1030128065265035,0.006762002242813602,0.2787136517681586,0.4499374208970939,-0.6937967573320943,0.2344649330966097,-6.182632616225051,7.686006137094816,0.0015003313769364145,0.0012731026373488,-0.005367721344682082,-0.3268345691846408,0.41784611038035724,-0.40245143560297625
2.073954316859838,-6.231442995394666,7.253265253540381,0.010616685498015609,0.0005975248202800814,0.0069132329720163746,-0.5404849214320799,-0.1773788591994985,0.3481918225484955,0.02744266185765274,7.54228368417749,6.242180935031136,0.009677405317896423,0.0002979032082673195,-0.006444570582409199,0.5397287391760119,0.35892211123197937,0.40170027623621446,-1.5747743893979862,-6.036390583380338,7.290973596534786,0.037072249004120546,0.08336026730502441,0.00831837571953575,0.6117532517830716,0.2175531694477355,-0.4152647474540581,-2.0634519930478974,-6.1214966960553685,7.350430542034177,0.03777277585225549,-0.16993200381931184,0.013708521742648427,0.2759626983149257,0.4463017031713089,-0.704776412186258,0.22468840133239207,-6.15451026112132,7.684367613343734,0.006195065596540597,0.0019015615937197762,-0.004734366035685137,-0.32786365660584876,0.4157028388164428,-0.4102725429467497
2.08421393655124,-6.205994293713901,7.243033113414717,0.00786974759893735,0.002991292669219704,0.007431704440846143,-0.5385002326976867,-0.17175949034069313,0.34603475341277906,0.03194597489065209,7.570831143661039,6.208672177701717,0.014647134847986333,-0.0008918488180748328,-0.006530294053915406,0.5404792617007037,0.354042628253877,0.40178319068814855,-1.6235130593284357,-6.064477224397397,7.55197376193663,0.04273567974928834,0.08930282848114787,0.009826986955977517,0.6139181401589938,0.21320456001526897,-0.41152957164512216,-1.9973610770240997,-6.286934634554719,7.396950559889086,0.04330816149570574,-0.1711655886419405,0.015854469613325827,0.27473795972861864,0.44435306637951266,-0.7028193983771935,0.22261136725336556,-6.162769935899919,7.668235760815697,0.0046126972114499615,0.0008337108818132696,-0.004869188700494969,-0.3264055776104252,0.41471391757152937,-0.41004039985625734
2.099096624091817,-6.206252271794538,7.258439349940211,0.0060686675022117945,0.001375633029074079,0.008880306667954599,-0.5438855245126027,-0.17514738373776892,0.34526763908085245,0.021985086589955863,7.567784257381158,6.216341435374955,0.006657313230282428,-0.00022105529300966368,-0.008262239654678321,0.5406858639450448,0.36311609052374916,0.4040740586349844,-1.671785647852438,-6.053463238335902,7.7919853681648075,0.025442584991976394,0.05859828270976643,0.005242073577540293,0.6142182256717094,0.22035957359690755,-0.40701050245649206,-1.9694781760512772,-6.324218613874613,7.456642381853351,0.0289375383454204,-0.11749069864387132,0.010059177733907299,0.2735520781656146,0.4485088535338238,-0.7003697453310276,0.22698104795404758,-6.147908870780282,7.69437536014476,0.004198851084476514,0.0009921944142408153,-0.004447254637946845,-0.32684490599946847,0.42180002840291037,-0.4104850220014155
2.090143416853789,-6.176568425610218,7.25609711129769,-0.0032826350499125093,0.0019717645752484374,0.008876734793204156,-0.5380053321426203,-0.17029684369067535,0.346045108014985,0.02110454007471204,7.599554868532375,6.1732793200656415,-0.0064423783082534596,-0.0009882301452646966,-0.009179631796174365,0.5365596104780525,0.36191505551410347,0.3916344333097691,-1.6870115261196639,-5.994758303670474,7.818224608967839,-0.0018994594619066588,0.009124257775151409,-0.0007732495102891314,0.6090496665613138,0.21527457873951325,-0.4213295058443896,-1.9140147807452188,-6.235627746730663,7.276409467873115,-0.0010955424224381193,-0.026859304459538373,0.0013788748131939065,0.26738161049781245,0.4480720441026499,-0.7164588800275066,0.20676821031524675,-6.1216652304551324,7.683096167927598,-0.004062267177791811,0.003170171486745071,-0.006197865368081489,-0.3342556496323932,0.4172817926438115,-0.42170693558298733
2.1034110787745077,-6.182821041262761,7.23697711933485,-0.011650584528119054,-0.0010292426429600425,0.014665078442854152,-0.5414447387109897,-0.17202484134875426,0.3516411902651963,0.04685467559773547,7.549361351555108,6.2163676175952345,-0.022318513378777226,-0.0038338067679669022,-0.010488990000340022,0.5311621957813705,0.364271922579686,0.4023294088229348,-1.6353138745823315,-6.0102651794184645,7.719850827968728,-0.027029568843935006,-0.03595660691442479,-0.000878312764633276,0.6049341011959413,0.21965336412523032,-0.4096824811054627,-1.8718691371106577,-6.148282072195877,7.1637976227381905,-0.024811652389837204,0.08323417302369282,0.0003570990728781117,0.2655239490485958,0.4549062130078606,-0.7025289342158696,0.22914077851756925,-6.145110666290225,7.701345953557435,-0.016055414993857407,-0.00015154101614559207,-0.0036803583650840874,-0.3358821868394607,0.42285635007853023,-0.41287664039420413
2.1155956278916896,-6.24548438431313,7.2404722483113915,-0.011279431077053063,0.0011647974477721477,0.015186736564636694,-0.545133651776807,-0.17931238766485863,0.34841260944950087,0.06679869123663565,7.565150534696442,6.2205606912798626,-0.028610978238719012,-0.005020586782273963,-0.014834363538258155,0.5287152461968492,0.3657314589638361,0.4025448926370684,-1.6002241636643473,-6.049643387441475,7.553735918828734,-0.04084526004429942,-0.06484291548820466,0.0031974438076542524,0.6052080958975382,0.22347869027273848,-0.41438564086977936,-1.9420337899814961,-6.172733670338893,7.2687799016178545,-0.03734385322702514,0.15954281523785382,0.0019450586465299155,0.2659902624696741,0.4536858371324299,-0.7061939667554236,0.25323538527543027,-6.18886438938132,7.728864578647577,-0.015584442889949129,0.0064828925325032235,-0.0009059283757163087,-0.33659596582458645,0.426041293846631,-0.41383125118108527
2.094988928609697,-6.175786588293505,7.312651848855508,-0.008003497682153414,0.0008984038810327505,0.01597289930846339,-0.5324353868226932,-0.17839852346849416,0.34893664893821374,0.02229816098607186,7.616810017844187,6.194494644181644,-0.019642004545559866,-0.0056927161282189455,-0.01441993014947442,0.5419400289280663,0.35714416389297216,0.39709510144124993,-1.5889467756496973,-6.021141523000501,7.418969784804064,-0.03396166672289346,-0.0646739189104664,0.0037488167687323897,0.613682344236706,0.2143481202178696,-0.4161884263698437,-2.076691146656147,-6.1894226879159735,7.537134051316918,-0.033139280083291714,0.1649565836620167,0.006898598706783037,0.27670040004893937,0.44776206596419804,-0.7055099520043853,0.21196704325772803,-6.1061025768388735,7.719426293697495,-0.013404118113470932,0.008133373193096274,0.00042355177008641324,-0.3281319556645486,0.4157337343864851,-0.41515322016193745
2.026585196752229,-6.222168572924376,7.148573049900026,-0.02165678646979601,-0.0003787477653613409,0.01811936290082779,-0.5363430510292326,-0.178866503416901,0.3486803849789456,-0.011505367872818018,7.532163104673667,6.210377060666192,-0.033197564813940705,-0.006836537113624526,-0.015149763256177975,0.5333695769728681,0.36206221571869807,0.40114893524681156,-1.6109732860847432,-6.092185809062025,7.244836424191965,-0.03841248344889814,-0.04302362505408331,0.0004889647162953247,0.6024894380721528,0.21931320327387596,-0.416513061300907,-2.1772526947651847,-6.35694376018964,7.611665665362196,-0.03902585771326015,0.1006539099784128,-0.000477151759868375,0.2730389686966546,0.448028831714464,-0.7057392149254849,0.1635976720292825,-6.14550145627202,7.58553816193677,-0.02828534644638526,0.0022950491424251836,-0.0022323240897803766,-0.3341966814820859,0.41991713134222364,-0.4133902452135014
2.1026189943394233,-6.376466723560953,7.238320727728492,0.00013487968207156396,0.0014310333795551579,0.008017477654347608,-0.5412027125945816,-0.1681737095785846,0.36021111467838496,0.034309531494730636,7.538912784460063,6.360514646975292,-0.01161871525118918,-2.0307051924155548e-05,-0.008198418904607527,0.5441532462310099,0.3551222395800292,0.3924930122154003,-1.545920367443251,-6.193758860770028,7.123606151966144,-0.008679481996495663,-0.006816793905304432,-0.0028412634733709645,0.6170799496502131,0.21179473088801168,-0.4212730661195483,-2.1107425641289344,-6.311129498489102,7.522060230858571,-0.005820491088496721,0.013338379035142957,-0.0009583309467971475,0.2837500361858587,0.44357211210484443,-0.7072508308035921,0.2270134911362398,-6.186308509546221,7.684387725836012,-0.002011005319684941,-0.00025948774421407646,-0.00624212990210886,-0.3206165067700062,0.41007971661959325,-0.41790892769453086
2.09314479974318,-6.140020183137809,7.260988610242716,0.01037706848852582,0.0015319281416601176,0.0060785030026507545,-0.5446290970176346,-0.17348397210181923,0.3530894739460965,0.04083199539312174,7.606375000121074,6.1847671174512575,0.007965518237207899,0.0009357983073134255,-0.010489702652636905,0.5363250830491025,0.35994098244278244,0.39044589706961674,-1.5245824129063756,-5.984525926478473,7.201879998996481,0.02022943768748764,0.034455815686916864,0.005913137085952651,0.6078517712484751,0.21836292141049637,-0.4269979941231165,-2.100037137206985,-6.005132074133268,7.485304752722454,0.02252518452542282,-0.07313261757575339,0.010540616661953897,0.27447400811672684,0.4475377063868518,-0.7125814148476897,0.23322930492310892,-6.160972317863322,7.749124159155854,0.008255540663617002,0.0032535420786626856,-0.006042172315793173,-0.33109283471239614,0.417519045767218,-0.42440669867208936
2.065099840834189,-6.194140856595244,7.220918356296597,0.00019606232732992718,0.00033403247453320337,0.014650892664604407,-0.5373127164772029,-0.1745032348504004,0.3543205646157657,0.02642057507263327,7.5444793212719174,6.2111830937941495,-0.0030955152646720604,-0.005092341387368102,-0.008654247479745433,0.5358246283940409,0.35841825351332074,0.4017021205369084,-1.5994021133136254,-6.087873762904498,7.333719290795356,0.021235784296325808,0.06416681807266318,0.006488612313096505,0.6093431074622536,0.2215103026308699,-0.4133774670499407,-2.072131555090771,-6.320034964712084,7.354568639850527,0.023015209562273587,-0.12180376567649419,0.013135544024909176,0.2730547709632418,0.45071378406408763,-0.7057367312545397,0.18510738490924467,-6.088089823112646,7.615865014110957,-0.004095351217186096,0.00688124938648433,9.162580914455137e-05,-0.33053895172860387,0.4186640911556947,-0.41243915933860087
2.125201703989615,-6.316574048159204,7.2599177353007445,0.0002527735887145962,0.002666972805611998,0.00460243376562601,-0.536821769059744,-0.17811690807446337,0.3462428893646195,0.05257436613202071,7.575543837154775,6.309570395247058,0.006460231686461154,0.001289572918041342,-0.008073819185880845,0.5395068780588125,0.35799631964162415,0.39023977063759874,-1.6331571473020385,-6.069421150612335,7.605782255046348,0.02593155787312596,0.06311661454540184,0.004846796529656307,0.6112227184352115,0.21225404526186759,-0.42567484323793825,-2.012654398587362,-6.23696885266213,7.5181504521927724,0.027901674931728015,-0.11981306881580003,0.010519077475926545,0.2702769744264561,0.44366197316702954,-0.7186725356157829,0.2338385615730893,-6.19128640368388,7.720202476421298,-0.004330249046970326,-0.0048516310930574475,-0.00815552113160715,-0.3301485029855453,0.4136095838045918,-0.42516656297079114
2.0831437194807054,-6.140806314767176,7.22203694173359,0.01359502540528676,0.0006420508938867149,0.008573655456062304,-0.540004919152197,-0.1802957671636046,0.3457336177685307,0.01879134475606093,7.5588166549849305,6.1528791083662355,0.005098328184596269,0.00021745212644096035,-0.007464093132782952,0.5375325858388716,0.3626639287079928,0.39235564748511004,-1.6549106472835793,-6.0213830113211815,7.68382623631971,0.013888085092618345,0.03432500502559212,0.004849902004501599,0.6129917375859872,0.21989794934581983,-0.42043230114468544,-1.962928720617016,-6.290536896679878,7.383491805086462,0.01538204611222072,-0.08299289304157906,0.008530510359323944,0.2718076578348611,0.45268318625956505,-0.715496010369181,0.21307575758148603,-6.141744430403537,7.6862813043322324,0.014050325222855743,0.008879533017904243,-0.0003930947925527489,-0.32959458372601846,0.41968358483994816,-0.42073882563933007
2.0714173891916525,-6.149265038543702,7.300620681400423,-0.009648968159418458,0.0009364892973748062,0.009873075015132377,-0.5360685720128429,-0.17203646573719225,0.34945689483935977,0.0034045295771558733,7.613660619852063,6.207744337403422,-0.011987539625339829,-0.0034511307000943325,-0.010702995450890084,0.5414244485357369,0.3658728190641085,0.3935296919609181,-1.6629574954061648,-6.036732501124916,7.707744288478216,-0.0009083836129141317,0.00567595684563462,-0.0024376837568237937,0.6159770905584184,0.22699202506050295,-0.4183552774605789,-1.9456611464287032,-6.245850247472838,7.231621608015745,0.005279090384547132,-0.004388728204035537,0.0017089661971159678,0.2750088917849582,0.45632483803775903,-0.713796208168005,0.17514589124324798,-6.024497501858782,7.672687782993577,-0.013869771026653821,-0.0027039148625585497,-0.005783088541966922,-0.32638594399249826,0.42478905749174345,-0.42096767944036045
2.1363223092659864,-6.265374477750477,7.165152253719902,-0.011614388045278904,0.0010953772006328448,0.011207412418663652,-0.5434583736325639,-0.1808548657821418,0.3596381848199273,0.08263717343007454,7.537495399744627,6.217085604719069,-0.02005247262700402,-0.00208551731506812,-0.011538565771871541,0.5387605003670135,0.36047599768465965,0.3926383642138581,-1.5881359711434289,-5.986184260688925,7.647364279470052,-0.02517774665275265,-0.029187351530306525,0.0013445077672204547,0.6122434018062384,0.21774812265252094,-0.4179535442486734,-1.8977112961089573,-6.088027487395049,7.3730647360522195,-0.02534737928062758,0.07023305114402392,0.0025669077905002163,0.27496880924467554,0.44655584350879834,-0.7094102773337237,0.2956762117108682,-6.254136928118373,7.720447128719191,-0.01732874633623693,-0.0016614001278018819,-0.006888384355543397,-0.3288773247992544,0.4160019184878449,-0.4183221534431546
2.0895502245153046,-6.187847537967851,7.2827655546769625,-0.00045886762412703533,0.0003804148685828053,0.018105698799861028,-0.5363899123275698,-0.18453492380622472,0.3571899128335693,0.014800575384335685,7.57669738706813,6.203022310707037,-0.022877502964152124,-0.004104330789709941,-0.013557840827132094,0.5321739809914381,0.35688328682313064,0.398303162637511,-1.6388328845929927,-6.084105815704432,7.485657039956688,-0.032847892284962654,-0.04666342300726993,0.004997395489660886,0.6048893996033174,0.21409006438229625,-0.4210643972331578,-2.0067677208270145,-6.264422493996742,7.243029850753301,-0.03216684462063167,0.11678640285885093,0.00430704962152891,0.26788177326298934,0.4458651939201849,-0.7101158991446341,0.20760899602154448,-6.106865064022282,7.68384151010138,-0.003798935811391815,0.014843934548175486,0.0038878466829862348,-0.3340117468942463,0.4153086457752129,-0.4187907915726093
2.0547495722452753,-6.210089060369529,7.216543537727642,-0.017964458118024346,0.0002687674403970186,0.014633154874760655,-0.5380670893303032,-0.18034481242219338,0.3520850765099529,-0.000381006669534981,7.550029052511076,6.243304573792602,-0.02273408407357873,-0.005535392761682484,-0.015373913142377484,0.5372893082478478,0.36007133397223107,0.3980144128583877,-1.6138273178943294,-6.062606173586567,7.408386270671774,-0.026452767826477666,-0.044667796363255734,0.0011865211204133514,0.6083346951015801,0.2175385496132881,-0.41770492397961334,-2.0995877732984183,-6.254115039984877,7.516550120152113,-0.02200891914211217,0.11853903315287233,0.003893519664545304,0.270364565019634,0.44999782075218075,-0.7059707686809932,0.16582333256289927,-6.087021365293971,7.6306048898564685,-0.023934945609333493,-0.0006822016482765153,-0.00563796342568272,-0.33201847328998135,0.41844663584006736,-0.41511847177561245
2.093383517923078,-6.281619801126717,7.228540346390463,-0.0052803704825993315,7.629927593648178e-07,0.013708715329465987,-0.5297141323198499,-0.17422001750121266,0.3423782010416342,0.03402986136354022,7.57475379900984,6.243874041774272,-0.017796881293160757,-0.003714451338622136,-0.011135450798694817,0.538505697135062,0.3636353509598716,0.39185296546456283,-1.5710961352508583,-6.090550738507912,7.311318548094971,-0.0210996466387005,-0.027362943050882053,0.0001975204196041468,0.6105341668089912,0.21786964385056576,-0.42601327217972745,-2.121625648065051,-6.292988640319516,7.638290453545746,-0.020426680837081865,0.06487043565392765,0.002091350293381106,0.2754926760939171,0.45412314883481364,-0.7118471939566564,0.24491838100492072,-6.223612200516052,7.723167728438096,-0.006867546108180206,0.004662113034157922,-0.002435457556344131,-0.3298523591274297,0.4206860689840923,-0.42488173263601337
2.0621621650166215,-6.218588102752873,7.240867465226553,-0.0008342697761916744,-0.00010016077801793666,0.0092455895300992,-0.5399843078764055,-0.1739724611852425,0.34967941511245504,0.0056678220456163955,7.557976541261922,6.235200665431204,-0.009339885312562825,-0.000598192255203093,-0.011033307227390536,0.5363209622501401,0.3581026404503823,0.39731361770589735,-1.5791684223066271,-6.054320356363743,7.226803619695446,-0.00668467755393442,0.001104063224913279,-0.00023181974747511926,0.6078212015594391,0.21431131734515171,-0.42106891569626165,-2.1198310960096745,-6.202980282442026,7.441189078309249,-0.0045605486703117395,-0.008067641403172012,0.0025284135372882644,0.27351393883014047,0.4482736553460794,-0.7096468942574796,0.18096476182163304,-6.099659465974724,7.663720136846124,-0.002928495264544657,0.003902743612087657,-0.0027778061098371327,-0.3327930955069759,0.41579614761022243,-0.4200137358710818
2.0885929334003066,-6.209086211179581,7.208842398900666,-0.0027412250573085007,0.0023850846744562816,0.00953563365911557,-0.5419344644843903,-0.17226805602302447,0.351882501866838,0.02468525855344058,7.544406407782674,6.238648269675641,-0.005190465746054598,-0.0019719083461288713,-0.00495446503807436,0.5407258052343729,0.35708231554724273,0.39367560446014227,-1.5654184575879102,-6.065085382454941,7.269574255773133,0.007776485005201866,0.032754941640579724,0.0030607389771241823,0.6146601824528759,0.21470924565141472,-0.42327577713329856,-2.0735603471566617,-6.186108540894767,7.362527362470197,0.011715350941347834,-0.05835398766410709,0.008651383532031034,0.2774064338496042,0.44580849345591267,-0.7094206302994117,0.22223248302567628,-6.158932172949859,7.655282096998801,-0.005492035516194485,-0.001862149726416227,-0.005288047965484649,-0.3279255344743133,0.41331631477979086,-0.4195637628425372
2.113675159462607,-6.270785829846136,7.273054711093588,0.004265921729027003,0.0014407256850144186,0.011014461916151647,-0.5333733850282861,-0.17033715576784905,0.3489849724449282,0.05633751964792874,7.562247606945098,6.257018766948527,0.003499004430227902,-0.003339065436338461,-0.0093715580353053,0.5348712125516804,0.3579459133299124,0.3882795169525559,-1.589968903854353,-6.081698917589479,7.434532057405708,0.02118871789166032,0.04687917088514889,0.005773648346465405,0.6090470945620128,0.21511422784525464,-0.43085015524322423,-2.039375348708255,-6.217095669694567,7.4688896085908345,0.023621407853180853,-0.08214344200582178,0.0118517453765206,0.2695660437820681,0.447083760055141,-0.7181774738911275,0.24848118427051918,-6.189470548693193,7.723534503160913,0.0005176886985242293,0.005001673753120431,-0.0008736447096883676,-0.3338009390364029,0.4160879457293137,-0.4268433820023164
2.04725650194369,-6.182900393800058,7.209143019257307,0.007819089059756213,0.0006327853741266596,0.008493815099582287,-0.5404791553744305,-0.17639982861196335,0.3477099658672616,0.004202156715626229,7.582336755257668,6.181319013719124,0.004008251511615405,-0.001344163915145603,-0.00867397626171834,0.540728173856338,0.35729360475004535,0.39171879678885496,-1.6577696895471385,-6.017209347248302,7.5527701348877585,0.015326712760975495,0.042120447280488464,0.006111416761614573,0.6166039378977424,0.21349077385362253,-0.422278641611648,-2.041823312529031,-6.254376354471115,7.429355612780597,0.01616570419832038,-0.08587986824301738,0.00994868389961118,0.2773934056330588,0.4455672763376564,-0.7123508317545054,0.1817146925006593,-6.101629181843796,7.641514151608541,0.006777285698250927,0.0046265982092767435,-0.0027308228749226247,-0.3247555602131013,0.4135433749346351,-0.4205545710325195
2.081107578883744,-6.1919666464626335,7.2679302431214845,-0.005856293044945713,0.0025927603648153467,0.009538504204662441,-0.5294915761686154,-0.1762062674989065,0.347493389572491,0.012881787967049843,7.571782074696085,6.205214620022004,-0.0074284029801531285,-0.0010055040003006904,-0.007896824733386924,0.5416927396397405,0.3590550875133584,0.3946203634904905,-1.648918005508567,-6.074971468219126,7.64607269462024,0.003125696942198918,0.022786693275267108,0.00017745197780002781,0.6190753503907662,0.21720310727297684,-0.41819124526765705,-1.9803720044869664,-6.3083305212642165,7.348864656806764,0.007361319743783089,-0.04603108101823925,0.004259259316135165,0.2788573794409186,0.44604757656833194,-0.7133321764331549,0.21824493400255157,-6.136941654515317,7.688675360283006,-0.010271298567428783,-0.002853180775192776,-0.006736187512443946,-0.32399915195596424,0.41646507084944423,-0.4200517295764694
2.1241542325541523,-6.247666654348698,7.217211456993735,-0.004545805167942603,-0.0009334660040846318,0.010324532270002577,-0.5383097577488954,-0.18323376000753971,0.34571923494047135,0.04973088329326056,7.567947541524586,6.229783408168685,-0.009345503130840425,-0.0023085536972139156,-0.010321600702339333,0.5392233509716478,0.3649651619761493,0.39817982207996194,-1.6172111357662076,-6.012836091031367,7.634749161652294,-0.0065685391238149825,-0.0026470210877851145,0.0012205233056901495,0.6103080053692372,0.21999276789672395,-0.4160375496350797,-1.9337118452749813,-6.146840176013076,7.358494274451313,-0.004930675050462768,0.008992246158809211,0.0031700612874398727,0.27305516762084336,0.45242506951035827,-0.7081771301899693,0.25315302257347483,-6.184265532326884,7.695992459927023,-0.0069580652476561675,0.004297554225354654,-0.0032452249058417953,-0.3295706588341665,0.42039223409621324,-0.41682759605885994
2.0895062381335103,-6.170693130448859,7.254806411469945,-0.0038509701248952448,0.0011271983591620346,0.012413161400556538,-0.5348799750562139,-0.17622679929315777,0.3548045695643633,0.02335480889272165,7.568147016857117,6.211352971445456,-0.016437902291249338,-0.0026575238413150196,-0.011755929112417358,0.5416921207844316,0.3567114884709523,0.400520406468762,-1.6170199635150369,-6.032761184212434,7.524237974535802,-0.01957192737161559,-0.02332393074297904,0.002878470888670208,0.6156479520313227,0.21587996425780265,-0.41133106465435837,-1.9806822564981208,-6.221983282843534,7.254941991007654,-0.01924535267997012,0.058026898438370285,0.004754208750846744,0.2779229034000008,0.44604313621143876,-0.7025863945717833,0.20938170950909896,-6.1079420752355364,7.692637875415392,-0.00721615558904499,0.005263232541318439,-0.0030392230472114736,-0.32641316426344397,0.4144772157159536,-0.41126281209206944
2.0927416737814646,-6.220153041220449,7.243208660496834,-0.011592194224830007,0.0013028450281589333,0.013663821898957092,-0.5412062749997765,-0.17710383464590676,0.34379672749545137,0.01791614131925047,7.555415869903117,6.236170305654854,-0.019189714551207288,-0.005392429417323976,-0.01468722895655822,0.5350817514563964,0.3613327734921327,0.40091999513224374,-1.615931104033564,-6.056438972184141,7.483488635512985,-0.021999661254824398,-0.03139117319517401,0.0018298306215513483,0.6105406582864028,0.2185271286596084,-0.41601292755633573,-2.023161361009486,-6.2342902367670545,7.416821723238211,-0.018701264909843206,0.08787927859063284,0.0036163560612599323,0.2730528882476701,0.44973687583341626,-0.7047616421487506,0.21589656242806185,-6.145437896706128,7.697739127192145,-0.0169189174056612,0.004543368187467074,-0.003088196938915422,-0.3332353602608266,0.4182041233378905,-0.4138940736432736
2.0699793847465835,-6.233952352990715,7.237989687555771,-0.00543925534497415,6.534578579861714e-05,0.012939724000937907,-0.5299870679996656,-0.1774285127607118,0.34821655785536654,0.025902471894985304,7.589723791295738,6.227301531632878,-0.01656733846598348,-0.003588229850355959,-0.011760576843614378,0.5395018268692161,0.3526435622077421,0.4059565391457719,-1.5871454329524066,-6.0488009181154805,7.4091316882218825,-0.02152850351333927,-0.027777885704191006,0.0028580012737994902,0.613410371578553,0.2107749869243289,-0.4110004453232507,-2.070964562930319,-6.232994410384115,7.55902125639181,-0.02059616101246066,0.0698926579137017,0.004106800129914798,0.27766032926253864,0.440915884708558,-0.6996611937498665,0.20722156599906405,-6.145893817910745,7.67336711131713,-0.009779976782186657,0.003707163551276906,-0.002118243032320399,-0.327909414685019,0.4083694139117195,-0.40885105240335007
2.0730851991271324,-6.232395200062754,7.224660563773898,-0.0068873930785245865,0.0004450824136836048,0.012478640279570576,-0.539506215915708,-0.17400079784079908,0.3538304714974091,0.006762247735269719,7.553677452389797,6.247532181488827,-0.016512044461092768,-0.0019537349457477487,-0.010861702558837614,0.5326445831823295,0.3638701670756415,0.3925712513581032,-1.6069952000602596,-6.1206620586477944,7.306674662088195,-0.014605050996011726,-0.012578152047139704,-0.0010163825475342585,0.6066715756231333,0.22356429622549473,-0.4231777248499074,-2.0815183123346266,-6.319329307879915,7.453594266124134,-0.01058725209024024,0.027996324639759984,0.0016024496381701532,0.272326981341979,0.4538955058401087,-0.709392864841702,0.20900227768107188,-6.144536003820774,7.658608282644005,-0.00986950316069229,0.003341597612854614,-0.00292802113292395,-0.3337248808089844,0.4233824827316181,-0.4219170638976815
2.089828799230563,-6.2537610100641645,7.234242722171671,0.0003777858981204709,0.0021723024121107163,0.009546740807496519,-0.5365496186208664,-0.1712929917979738,0.3479953772504776,0.024912551328479648,7.554910550800314,6.258707748668361,-0.005675448927943348,-0.0029160081837975287,-0.008905046363626217,0.5385024981881,0.35873474764998775,0.4053638604003505,-1.5774168172018586,-6.032029526843006,7.325758803838746,0.0006465515411495184,0.009742226807284116,0.0002708042467760112,0.6114814876689278,0.2139306870775397,-0.4130063509556805,-2.0722840511008,-6.135893255217296,7.4447896134891645,0.002908487325185306,-0.015056179475115342,0.003021239992511678,0.27718041699774293,0.44360555936934587,-0.7016097605147517,0.22312468687966666,-6.159341133250167,7.68519727025178,-0.00433626624916327,0.0015096172825784316,-0.0039304019739090324,-0.32957792820105536,0.4135040747128877,-0.40807941770755685
2.0953100595169074,-6.206341987927701,7.250412572396546,0.0031348925056890304,-3.079607265764263e-05,0.011461544249344573,-0.5416764892684052,-0.17223246286192884,0.3460242086926429,0.04573252442185588,7.567025166962913,6.206895859206347,-0.002830217905744901,0.00016384117162756897,-0.010123946842831636,0.5438586348453212,0.3664190812528287,0.39645407234510344,-1.584819201360402,-6.04575520742556,7.3630082278251,0.0076746572958325465,0.027350489434523183,0.003457834016195695,0.615004493525348,0.22752452657452177,-0.4161656715259802,-2.0319050736567585,-6.219613854658896,7.4085391658820985,0.008648258320439636,-0.046277411999035616,0.00939697662519501,0.2811369120133228,0.4557944622719058,-0.706984899510504,0.21918362529435978,-6.166379748656164,7.711265837679762,-0.0018366457309617716,0.002628042907031219,-0.003825657582395842,-0.3239359175379283,0.4237756392038035,-0.4178113330167915
2.0807215271345254,-6.219548255095954,7.210885047791419,-0.0012119755054137895,-0.0005923879399757281,0.0094036047291902,-0.5338774565947288,-0.1715803096452392,0.35288306060363295,0.010601062245136537,7.55550748225127,6.2415091880582345,-0.005077084979396733,-0.00398369361994621,-0.010924459494839271,0.5365537379994826,0.3593897429872877,0.4011990257295172,-1.6198292071103286,-6.0780759653613305,7.46689470265627,0.008209376295850309,0.0316880215667666,0.004106737393267985,0.6046658309427172,0.2166270925826347,-0.4154912700172507,-2.0424783710415624,-6.249547909575283,7.427729769850584,0.013717443244206222,-0.055594678027145,0.00860407879438942,0.27132465830419594,0.4487731862897107,-0.7081737467376858,0.2156752392651883,-6.131284307002824,7.6471191808017345,-0.004105770582612543,0.00482383125815787,-0.0025366808856796563,-0.3317727793026461,0.41721182594489253,-0.4129299508167533
2.0825515893969553,-6.236065958971833,7.238827445268808,-0.0005328610657377369,0.0029725032810580462,0.009724590959455312,-0.542182903675559,-0.17613703416505136,0.3459985106954638,0.029133104515644673,7.589944133589725,6.208543642728638,-0.002906048766411614,-0.000830466894047479,-0.008503210235265776,0.5309507276755197,0.35643054799020135,0.4007510198380545,-1.6288697510470709,-6.038337316105372,7.565625948073512,0.00544153586567558,0.025440697280095056,0.0016313391202109116,0.6051288766104586,0.21323977899063207,-0.4134810674555619,-2.0166924774281516,-6.2633995848167485,7.431696648291229,0.0058384127912976345,-0.045067244192874695,0.007657226647959096,0.26474075357017984,0.4453875304435276,-0.7013148522243837,0.21874006882448596,-6.145212036989954,7.68689858279797,-0.003622220001285736,-0.001827077699485679,-0.0035247142213699653,-0.3396091030904233,0.41385001147682043,-0.4129126021747868
2.098138262924389,-6.196567205060177,7.249168598771954,0.0009914290017076425,-2.864210941729204e-06,0.009579563107515324,-0.5456074558941809,-0.17276268817132054,0.3555327185921128,0.03255278493230403,7.56023312140691,6.218962967606984,-0.006652892918994123,-0.0012225410568413968,-0.008311944066987877,0.5375645999419885,0.3531841704293789,0.39495567115351227,-1.6255623072935288,-6.05317053388937,7.567701141074086,-8.803988573749633e-05,0.007201167934972431,0.0011429179108073482,0.6119613887251852,0.21285550876322099,-0.4186041685276118,-1.9674451496868,-6.278165429936554,7.358988202982354,0.001851969433470787,-0.016488971919321742,0.0030050611077495387,0.2746854502048357,0.44167691246021673,-0.7120998052621392,0.2315224063513353,-6.141322774399018,7.682323635273851,-0.0015261029687339905,0.004245427579672803,-0.004255499429511749,-0.3296444216838058,0.4121100831362377,-0.41980676280783336
2.0922675888484537,-6.210321711493,7.259157549902257,-0.00529814354647521,0.0015048613277198765,0.011963067221464412,-0.5421927609762249,-0.1768858517102778,0.34867885099430357,0.03890968464662387,7.578893914161858,6.218241382699297,-0.013346555846727753,-0.0028607980470896767,-0.01085818652280136,0.5401993425564029,0.36496889249870773,0.39818140627972176,-1.627017435803598,-6.014215729314466,7.546553533938758,-0.01015298744869849,-0.0045094879778369325,0.0018789489200920547,0.6134938177209867,0.2216563243790143,-0.4172876018298578,-1.9833593860630647,-6.152316711330204,7.333233296271205,-0.007918000644080492,0.022848314223525176,0.0039910269284230745,0.27793423536383016,0.45141990286616984,-0.7077083829481043,0.22133046702572085,-6.1149281128632245,7.679439746719494,-0.008518599251093849,0.001098229454750787,-0.004184896995623799,-0.3288339847390144,0.42136685939556334,-0.4173143103522586
2.101317503887736,-6.2151969394902755,7.231210935227913,-0.009999959163186922,0.002364546971756233,0.013158268250531768,-0.5441531563185315,-0.17954875208381568,0.3464604223381429,0.03107926647795406,7.549590143897118,6.211684516254483,-0.015084530140954289,-0.003309142117168626,-0.011675732819614463,0.5397259648866574,0.36435248192161124,0.3906218518231264,-1.599506704443599,-6.039317058977999,7.485103094329585,-0.017198567046247108,-0.015956360611446903,0.004284959112198015,0.6124852840984887,0.21761466059165732,-0.425765470121018,-1.989058194664888,-6.2297715710444965,7.359205606548865,-0.016139692341826353,0.047939593993931176,0.006751372216685225,0.2764441571269282,0.45143453940546674,-0.7140505262466769,0.2289046228860328,-6.174675582654152,7.707973816856542,-0.013480193541911543,0.0035839005036359065,-0.0038193624144148247,-0.32594380187979877,0.4194249838093995,-0.42271085667821157
2.081175929235964,-6.220727832737189,7.237209326382076,-0.004227687797266911,0.0006349351077450958,0.012576178843265277,-0.5331483641065538,-0.174728583183544,0.3482259494956931,0.010707825388366574,7.568285957338385,6.247913482092645,-0.01430607281248225,-0.003516984995783081,-0.012079999471166914,0.5404854405044776,0.3558605589136592,0.39369564254680134,-1.6239568139814118,-6.076623458294906,7.454442591078719,-0.014119541009859697,-0.018671165057696327,0.004077815476348837,0.6143992385815736,0.21251863978062285,-0.4229937767523022,-2.051763276973428,-6.254974523522133,7.437635440292722,-0.012756804270697798,0.052389484054847196,0.0048911927242767566,0.2786005033751346,0.44287467968154426,-0.7118701569282779,0.1969275208903766,-6.129209714592123,7.6627095258610405,-0.008368109977862147,0.0061122487287077,-0.0009635952868373035,-0.32889779180791645,0.4143031930385005,-0.420041244758154
2.0713339699859,-6.2334324377850505,7.237944179223103,-0.005395030400522523,0.002190990479340132,0.009472083334561553,-0.5460899021851098,-0.17515383401478563,0.34794839969509583,0.022561869363142688,7.574194163636285,6.207544923030109,-0.012894919105586534,-0.0008022595664880698,-0.011782996004767114,0.5389958253223346,0.36198155792694375,0.3950549139282768,-1.5960687520715462,-6.0571667361677255,7.400373737022274,-0.009973104244005389,-0.011228091862625548,0.0014599824871017021,0.6127187206958762,0.2161973628538459,-0.4228112467920541,-2.0533518520909073,-6.2493765352035355,7.497591530132546,-0.009762771571352207,0.03438975157541994,0.0035852670509320833,0.27375350257339137,0.4499846626020854,-0.713308249796459,0.21084765886400328,-6.144500213215834,7.688928571450715,-0.01059934016740309,-0.00017270389218770475,-0.0047135638726232025,-0.32764524723823785,0.41721119427873543,-0.417832803930837
2.096323443506542,-6.229474725419622,7.22673737022171,-0.004089056712944739,0.00036765535575034156,0.01092379603149517,-0.5414312891757409,-0.17295434524115852,0.34406722204345114,0.030842951651181047,7.561868874027431,6.233481768987099,-0.01264225671166495,-0.0023627686716786575,-0.010363260801528464,0.5387512359332798,0.3600973578192872,0.3992376165217047,-1.5943130586566363,-6.0574630743183535,7.364113109927127,-0.00728606495234148,2.222632928592089e-05,-0.00013142488557198916,0.6134597829667288,0.21726307941420145,-0.4172135997038836,-2.065964584911156,-6.235812692635645,7.4528669234422855,-0.005102492982194194,0.005036614649576638,0.0037889950169311373,0.27620614555018674,0.4475220984418807,-0.7067292342025231,0.22910858470758877,-6.153219611741063,7.688677339101468,-0.007626905858982565,0.005433682094826033,-0.002615232286162049,-0.32983560536669376,0.41697031509606247,-0.4158707268455873
2.0790848315185926,-6.2387513856217165,7.209970681633208,-0.002042494207792097,0.0010228527382184372,0.010314774437041983,-0.5363114458570847,-0.17130945565195926,0.3504368972024961,0.028332427820946984,7.551834799450368,6.240169355657921,-0.007559128512400983,-0.0002421908481828392,-0.008631919874863468,0.5404595051847636,0.3636346345635974,0.3913672046266006,-1.5936710582756815,-6.048377682946812,7.38256755570956,-0.0019975474164006086,0.011116688086227877,0.0026307071887137967,0.6129934810478859,0.22025941987012418,-0.42800746325650857,-2.0410116035032027,-6.190965912443839,7.376282094936358,0.0005316206261714304,-0.018127940306083137,0.004853745952243032,0.2754850193563639,0.45265794344608795,-0.7116045511261027,0.22308965811870024,-6.1206071362449475,7.659066857549614,-0.005392434905696363,-0.0014816143932721267,-0.004485228821083304,-0.33080609126828536,0.4226367847689472,-0.42315648600720446
2.0895800668262217,-6.2030613498078,7.232345070707299,-0.002042496593629712,0.0010228464662889094,0.01031577441452707,-0.5380630420127225,-0.17985223642681625,0.35135615915661406,0.028724097433174747,7.5677494658299524,6.231854578815372,-0.0056021941637355655,-0.0036353508023557685,-0.009832018820955258,0.5368107090300156,0.36067165748704155,0.3901904555178691,-1.592522420528223,-6.0702738092599535,7.427547357107566,0.004865389685864364,0.0201177108483722,0.0024902558956806514,0.6078676241853714,0.22036081817706504,-0.4243452668106084,-2.036507058948577,-6.24791314734843,7.420295633831528,0.005910492863973559,-0.026320460075877603,0.008872729315100898,0.27154788377278055,0.4495099826059337,-0.714764985739465,0.23693701477550136,-6.162229543930598,7.700669538341465,-0.005602070329996544,0.0020661437104994127,-0.004501053675011678,-0.3325402423645391,0.4189847468713674,-0.4229259970269856
2.093627305038117,-6.224158503558139,7.237027512323671,0.0016100149576801946,0.001226622750824391,0.010953781149137774,-0.5377903094294667,-0.17302678979952188,0.3528646525361112,0.028194975901797387,7.575403294968437,6.228073098427494,-0.004950570768637788,-0.0030624327478391187,-0.010945662324851411,0.5375515293784099,0.3596567469596847,0.38776634251867426,-1.623487988997834,-6.050141838483517,7.508873233260305,0.0039229561151245314,0.015383289157518212,0.004514525447374256,0.6134596287238498,0.21737959203764573,-0.4247846356161473,-2.0304405308310125,-6.238079259733582,7.463087312099356,0.0063103854294097,-0.025627421280212056,0.006299783112046633,0.2759354884002915,0.44973098620977175,-0.7167351514786189,0.21624059126276748,-6.136817248823906,7.6888496772512545,-0.0029253826571796174,0.003915697652657246,-0.0027737435357378043,-0.3332930480388867,0.4185224263272315,-0.42634326206369844
2.06322224908455,-6.196963661572202,7.232468432282657,-0.004246908301050596,0.0004342960765641952,0.01014481985056159,-0.5348580193732447,-0.17303452047209225,0.3518945781766507,0.018965337831458068,7.577869125172534,6.234316156932354,-0.009422551244856239,-0.0016201421325454817,-0.009449124854102053,0.5360619322513582,0.36060053337364856,0.4006898668678562,-1.615316774340458,-6.04430709382971,7.514278535457957,-0.0035263708180533217,0.010501853874257791,0.0025374607499069946,0.6110381593316246,0.21974724639177867,-0.41578957709260944,-2.0085562443062606,-6.2577664336926535,7.4112256308519475,-0.000498351309728169,-0.017803907350608987,0.0048911285019945395,0.27428867045766003,0.4529035635435145,-0.7057395364560177,0.20020459290453996,-6.127439839993497,7.67376476646987,-0.006260215408719391,0.0010508713283204046,-0.004674976201837437,-0.3302732479440213,0.422330006705376,-0.41339457583493294
2.105186993192295,-6.2306463068828535,7.218262978335373,-0.004165749264635521,0.0012533623922288237,0.010873167007727558,-0.5368305059970897,-0.17813987588039432,0.3499048069150043,0.04040120138074592,7.565571477569955,6.221579263027674,-0.010834033954139314,-0.0026346781560529033,-0.010466675942942639,0.5411685074640853,0.36599033908505524,0.4006082948748072,-1.6165122951295658,-6.045127418257902,7.513361542614298,-0.00582178116265241,-8.427790658087132e-05,0.00033503929418487495,0.6147382674740469,0.22462570048117522,-0.4144075338834329,-2.0141600950620298,-6.217022361085273,7.377314159193061,-0.003529067595451119,0.005086567312344676,0.0035598154283225853,0.2779385434677936,0.4521518898754527,-0.7077077058355785,0.23613242001795096,-6.1697754832126925,7.68978402394723,-0.007283758899026741,0.0027751623099161547,-0.004648797312689552,-0.3256373212068554,0.42254755096634683,-0.4143924399449945
2.0948959448592723,-6.206743606656459,7.236495752125843,-0.0027943157849716015,0.0017553517400292393,0.011280596640365919,-0.5338761513980598,-0.1739875477957045,0.34749684441938944,0.0184091466273809,7.576249139900409,6.221611525727057,-0.010455267735782798,-0.0015642698519841068,-0.00976084578319281,0.5399821062843032,0.3590649010733194,0.3955944513804193,-1.6220994875287884,-6.029725785040654,7.474868227709819,-0.008598890182473715,-0.004137344617644502,0.003073431656081724,0.6090581496377342,0.21630797029898796,-0.41792842808546954,-1.995015819718725,-6.181654827707685,7.392906085705357,-0.0076832854348614695,0.021215429806714117,0.005584563012701332,0.27473487350818776,0.44826624830917716,-0.7094077297790427,0.2268453917086496,-6.139089543723727,7.695223670614231,-0.005942169417429397,0.004730635746211594,-0.0024664675248686828,-0.329116044046564,0.41673563686763054,-0.4183166343736171
2.083877799244748,-6.209969710746517,7.239353295059421,-0.006507808714455274,0.0009310556958943006,0.0123595912160234,-0.5441550828700871,-0.17641925527732388,0.35356020557614093,0.02361071994920911,7.562411511506921,6.223683104936585,-0.012696453321438367,-0.004012659079359839,-0.011285879016247148,0.5331442067889427,0.3569442025382204,0.4017222635686786,-1.6185939178838074,-6.066539576205583,7.437204884489532,-0.010420299913197754,-0.007415246376679861,0.0034031704177350684,0.6083207545523176,0.2156598803547378,-0.4132786555198309,-2.0365400743527093,-6.270046305303805,7.3986305960308325,-0.009010577319640703,0.02793801415236207,0.00487818353377497,0.2698627238482434,0.4468255904008459,-0.7047517813813188,0.2137783335002367,-6.1510173386653415,7.667819065533902,-0.010871176260848214,0.0029394143180557102,-0.0037066619986693312,-0.3339732950971623,0.4147682040349178,-0.4100039441183372
2.097675105132905,-6.239772813516958,7.237623251278719,-0.004005935707610198,0.0011836495850604284,0.011662128826517048,-0.5479910767287324,-0.1641589356613749,0.3480128244795141,0.016969665910249336,7.581129710469247,6.261542088360052,-0.011087295232886743,-0.0027856618097219345,-0.011183678495945043,0.5331052987870083,0.3690758905282836,0.3971245774463839,-1.6144912664942,-6.050769155605144,7.460984574661201,-0.010601015873616023,-0.004390449132521708,0.002327128888153917,0.6057216329182336,0.2268347620761651,-0.41786078889232753,-2.0392568879105126,-6.209880313815605,7.475457036670329,-0.00495411302646685,0.01897466254085803,0.0041416284939080035,0.2694330494916138,0.45854957339380104,-0.7071799835409743,0.20398054400740814,-6.147842657229568,7.687707372219882,-0.006518272168994703,0.0020205435016408552,-0.004467950636352869,-0.3365713159272196,0.4304438463655078,-0.415270134324739
2.091647500720179,-6.203223312360558,7.245429282041025,-0.004466748297385419,-0.00012157189877120325,0.011081830079965747,-0.5399761807765033,-0.17346916019037273,0.3472405362596191,0.012772687228272355,7.562392188553935,6.232932453419769,-0.011286945295336092,-0.0030022304948802386,-0.010274263377765904,0.5387576186628878,0.35956449129514284,0.39656016390247706,-1.615150168137393,-6.058768909098483,7.4187984851568345,-0.00717812294926228,0.0002393416229494964,0.0017041500851738614,0.6112849505194861,0.2201726033250594,-0.4194593273005805,-2.0479375865232163,-6.276134968926988,7.452288359007004,-0.007262023638154803,0.0052575755044954224,0.004602755206765898,0.2749677698676226,0.44802313328530813,-0.7118509019733283,0.22100535169427982,-6.160795426167919,7.679213533920577,-0.008023922272423092,0.003458715584456544,-0.0029961354895848844,-0.33180308665259406,0.41724971389085086,-0.4192777653988036
2.0901368995263496,-6.240736744759752,7.2276669964711875,-0.0019593850181494625,0.0018368407573081654,0.011054094643295894,-0.5422083914353051,-0.17861470608411434,0.35184204166873584,0.024082206756624355,7.575874171099233,6.244050541640597,-0.008972556810730078,-0.0012659339579602987,-0.009661321881207779,0.5431688469817892,0.3589503990009136,0.3880316734514833,-1.615618161370995,-6.057321431725304,7.431719068641625,-0.0007782671817593237,0.005636962662174093,0.0005323590320935277,0.6171011199597064,0.2146286539041716,-0.4269375986824766,-2.0230795632307728,-6.200833480192834,7.392341924430688,-0.0002556086962750004,-0.0051537220815280355,0.00447016094797032,0.27885007329402733,0.44727202856292614,-0.7169940166717715,0.22675837764800694,-6.144899657587447,7.690587273042424,-0.0045250097213381454,0.002931890334117838,-0.004748035919251418,-0.32549499689942607,0.4162680217857438,-0.42614994214833124
2.095535888392473,-6.208415758004074,7.262451375700417,-0.002358206813858104,0.0011541342415553135,0.008756809508921772,-0.5366016915255404,-0.17745704888428424,0.35772181147116217,0.03703522232782974,7.567428381211051,6.19561284650781,-0.007993088378911908,-0.002961560451863728,-0.01026438604383429,0.5377949043986682,0.3544957832960263,0.4003058720418227,-1.5920648002065534,-6.032756437900192,7.440994346655228,-0.0007976346357402538,0.008096622499196788,0.004634525336360555,0.6121960634156837,0.21164204554002938,-0.4180957250247514,-2.0273624362386644,-6.200015203502469,7.413902823508793,-0.0012945765817191587,-0.00907350508099561,0.007527579625564329,0.27397804294296096,0.4428980283534149,-0.7077008120885567,0.23082602593104756,-6.160519001200703,7.70834414764176,-0.005907572415605822,0.0004557348042602113,-0.004073194316818079,-0.3289084994269318,0.4088974575323849,-0.41421428749172273
2.0922864168719895,-6.2124481727017855,7.22992159956311,-0.002634530687753404,0.0016826013938474305,0.012075539474686349,-0.5421963670573406,-0.17496659850277527,0.35406200101280305,0.024399000457695205,7.559520761811323,6.223544779098982,-0.00940255845565191,-0.003978138728114901,-0.011284899988388072,0.5389922216261546,0.3636617303731496,0.39331855205228883,-1.6217967645173668,-6.066534526624625,7.46019792591392,-0.0024162399907710313,0.007007173683921592,0.0038151926911173866,0.6110422541025784,0.22038143778308353,-0.421661090825204,-2.018700386514676,-6.249724430543361,7.386190184017466,-0.0003753817743343444,-0.005603696767744961,0.005196214108239023,0.2747448096189143,0.4524196473748449,-0.713065860650815,0.21561373332660982,-6.152727074580162,7.671264198851921,-0.00609592042290406,0.003925438466250475,-0.0022525330286817776,-0.3295951563768846,0.41993048683724454,-0.4212253634855476
2.084553521961625,-6.231397390937211,7.2609720010673025,-0.004536950590646797,0.002469949174809011,0.011700930365226946,-0.5375467540725322,-0.17543977307640954,0.34821099478187434,0.010070037971523033,7.566925217479875,6.218330989563307,-0.007868610417144685,-0.002038023098605794,-0.01026862799758329,0.542908374925774,0.3591128574148209,0.39779589659374026,-1.626343653371972,-6.031789235149039,7.496008121180358,-0.0031286072204870998,0.00570329612148003,0.002083096783787741,0.6168590288533355,0.21481144820164688,-0.4161970881200765,-2.0366655354426277,-6.216103464797241,7.443878621475026,-0.0019351589133037215,0.00022388935848945314,0.0059499177755172675,0.28109343477251075,0.4462706213005515,-0.703819732866884,0.2077434315078898,-6.145852585228171,7.6782560086628076,-0.006671027986114079,0.001215345017006755,-0.004255020928047192,-0.32423328764941534,0.4152225613574272,-0.41615191372962484
2.0852179970091327,-6.222886369576762,7.218016999794887,-0.002716696867719848,0.0008635209922057268,0.011350189893783329,-0.5368057504212402,-0.17301150372104404,0.34969302599833524,0.029074828598014975,7.577004364268581,6.224398276210148,-0.010656859592718237,-0.0017910454761402843,-0.008863264845613419,0.542668291071591,0.35954266772283366,0.3943698162032523,-1.612952227847343,-6.0599846099100265,7.4782067904012886,-0.006638237064477807,0.0006047822839341103,0.0019748886208676452,0.6156531456054758,0.21670878923437348,-0.42013527229531045,-2.0250432501980273,-6.267082503908016,7.393860881401775,-0.005693641449115462,0.005303562388203976,0.004368591768904771,0.2779005962144776,0.44800520485232864,-0.7111295163687561,0.23669147533616414,-6.181264122837671,7.680534514894393,-0.0052484057691138675,0.0014739998826623615,-0.0038992588050350816,-0.32741239911873365,0.4154990621265387,-0.41760012766075844
2.0946070537167025,-6.228635829016112,7.244279931662774,-0.0023370575726373087,0.0013486511035092031,0.011206135109982479,-0.5377611692773316,-0.17319115385371775,0.34016740530258754,0.029229230225572896,7.568542149813389,6.214506716037368,-0.010383992294641837,-0.0022886361092954704,-0.010688737660923663,0.5362873017431742,0.3675987277950907,0.39568945604154837,-1.5996353771194753,-6.046451204337174,7.453697813876505,-0.006842034204624652,-0.001582696762562045,0.003121943609439789,0.6098593111850926,0.22528540422730242,-0.4210102619936779,-2.022523623504914,-6.197813988248791,7.422924841450178,-0.0037143882161619285,0.009407270517616955,0.005142659097005387,0.27209163356881233,0.45487322946748404,-0.708659000457679,0.2158937417936687,-6.127631850444952,7.675620769735299,-0.005525268216233284,0.004579124421046892,-0.002887374529785533,-0.3324793722999069,0.4253135265099042,-0.4197144206037825
2.082951223538984,-6.207871904427282,7.230222036104137,-0.005907396013460267,0.0019679237375494485,0.011298502976206323,-0.5390429783047582,-0.17913147814816535,0.35404340223592556,0.035223813009904945,7.563343090833209,6.211636405781943,-0.011089221003807036,-0.0027979521071780124,-0.01120047849579039,0.5472971896105957,0.3605903543906026,0.3975345436736325,-1.6100218025446418,-6.049696539224445,7.425302243317755,-0.006147812343475889,-1.9370754275914893e-05,0.003741517494718457,0.6198184781836172,0.2186498562225901,-0.41894791663640674,-2.019046778256737,-6.239191007151155,7.410840747447164,-0.006560606812777351,0.0070564202771468895,0.006828704424736045,0.2835376181208713,0.44894422640991644,-0.7070008938937381,0.21942693186050563,-6.172011312665931,7.686083328596695,-0.008109410364365204,0.0030991266606490734,-0.0038068972252452956,-0.3202992619317867,0.4200860742284797,-0.4176067106935147
2.0904686164554835,-6.231432803800157,7.243070488364241,-0.0033918473089990194,0.0007092690848859364,0.012373634680143956,-0.5497927361015441,-0.18344184837355132,0.3486195986046582,0.020822742838410443,7.56202338714311,6.251675853356629,-0.008698281246385574,-0.003476043019390513,-0.010786041780288242,0.5341103949422636,0.3629275031629062,0.39429873960178685,-1.6147267069629265,-6.065035972219039,7.461864016808919,-0.002860131943599376,0.003150163174582159,0.0038872750402703573,0.606918721852149,0.2238227916305093,-0.42220600685219933,-2.038574945331144,-6.223706484973759,7.454822056359608,-0.001304175826030078,0.0034396874491208675,0.005458466878818552,0.27060932820131856,0.45390764201816564,-0.7115840757858061,0.2124074477683423,-6.138180605772556,7.678216530126264,-0.0064267074292655955,0.002392100800994933,-0.0036591465366259657,-0.3351898725843954,0.42240729608407174,-0.42045184715589023
2.091548797825861,-6.210254913497402,7.234582700635301,-0.0019574372507595193,0.001831756188803737,0.011066067669868923,-0.5348196571218631,-0.1714868765551634,0.3387200797936358,0.03737515792269392,7.579031584512716,6.229323057645262,-0.009224418678436905,-0.0031283859953750034,-0.009674588679052246,0.5363325938902779,0.3568133713997202,0.3931836236356894,-1.6157237534393007,-6.063464324197978,7.474787652590766,-0.00470790670713232,0.00409690998325301,0.0034877742223458704,0.6097605756359613,0.21256691515818132,-0.42226123285264505,-2.0244733162334567,-6.230328732297207,7.4268617536577715,-0.0005606728697531532,-0.0012799964606466097,0.006782060527144749,0.27151201131719427,0.4424287189781013,-0.713306546985157,0.23409004461038843,-6.138396075876201,7.6737185931747565,-0.0056622422670026635,0.0016344892964964906,-0.00347831284524652,-0.3310806448744552,0.41627186743512157,-0.4200190724783714
2.094323879107736,-6.222563682072984,7.240838262642968,-0.005217600847667308,0.0006098534128578688,0.012058648108691412,-0.5438965092773538,-0.17662305726336577,0.34696739582250574,0.027348118287460213,7.572577603072002,6.240795744240667,-0.010058470340833781,-0.0028589818712965636,-0.010897675855987126,0.5407042932129231,0.36034879057450925,0.3992367043629652,-1.6058555185808614,-6.060736773459825,7.466208838176788,-0.004378829952345246,0.004037928032265459,7.819497866835894e-05,0.6168982137031922,0.21990467860774035,-0.41823615814780646,-2.019236634286915,-6.235630800511207,7.396758758228,-0.003115002187707642,-0.0008619851083960385,0.0035705362403258244,0.27841126967392893,0.448241236883607,-0.7057602685165869,0.23327836378022185,-6.138266932711558,7.69456584810851,-0.006685780982995275,0.00335877430960674,-0.0034511339853075104,-0.32738490325117015,0.41817374508137134,-0.41587524474635684
2.085869525275111,-6.230292210134412,7.220331157428519,-0.0037085148539292914,0.000845611611127149,0.010806699014098281,-0.5411826029625763,-0.17342510750461276,0.3411347967573288,0.03160078315545092,7.574490020250262,6.249459147039617,-0.007671904669011544,-0.0018297156610479323,-0.01119291196915775,0.5365898671940508,0.3489300461797826,0.40357141911518657,-1.6118835691947702,-6.040519754386881,7.455215451637585,-0.004999455958237327,0.001438732787576338,0.003904675926065839,0.6109485157847926,0.20810114611404723,-0.4114428154985563,-2.0144822693028903,-6.188361466151436,7.404891841516817,-0.003942113247489154,0.004375616677689677,0.006120796584913966,0.2717721034350518,0.4392460054529539,-0.7045215215038579,0.21267613818124045,-6.141743744633276,7.675359897332003,-0.006580472838139647,0.0015849036081127307,-0.0034452239084706224,-0.333792558254776,0.4069635377457584,-0.41151643322859977
2.069591162002645,-6.200325526546144,7.252957003392881,-0.004383655808606088,0.0006923722168118299,0.011828150128615262,-0.5419723995953546,-0.1812895282043406,0.34987278407344136,0.03506440899925169,7.552662131996921,6.215473378247168,-0.01025710944900707,-0.003077579900854832,-0.009990225358065968,0.544343613916373,0.36622600693025686,0.39938853560209014,-1.596640426162845,-6.061118432508027,7.443098498259375,-0.006636206681835411,0.0006087324181457128,0.0019728212587716925,0.6154510415974933,0.22197247927691197,-0.41216572807333396,-2.016383151234915,-6.241974015960845,7.410065563563294,-0.00427932474158859,0.00728242334663776,0.005287880384083309,0.2786965141377053,0.45458598906895203,-0.7050233741534351,0.23676508831620502,-6.161463501951529,7.680654346661671,-0.008174649357403646,0.0026575025793476458,-0.002783191679396295,-0.32295591623622977,0.4225326599672103,-0.41513735245103056
2.088601041230315,-6.226580514325656,7.239038375067969,-0.0030953907672885816,0.0003733047702798026,0.011507215325449982,-0.538505765579873,-0.17683732956383758,0.33818971573211043,0.02268811270008682,7.568228828960976,6.246086388970463,-0.010054074750219633,-0.004569438935544242,-0.01019395196826669,0.5392548484241059,0.3576054834681687,0.3961057137969507,-1.6132318575270488,-6.042453940529593,7.453357124018896,-0.004862250159119146,0.002898041647828224,0.003139955572551769,0.6136739273375413,0.2133188544690537,-0.4193445388795814,-2.0360157042391136,-6.226411915506055,7.454087359369148,-0.002307656900322686,0.0055145506523123135,0.005544405354361722,0.27692221348084517,0.44776618110741767,-0.7113698741768226,0.21264917531522085,-6.144551340778431,7.673113203340919,-0.00668475941522617,0.003361767005829882,-0.0034511210003502733,-0.32864677205752924,0.4152774002933193,-0.4200366285287375
2.0886656412787836,-6.210145669993905,7.2518278953335935,-0.0015223069066421803,0.0012325747180797896,0.008537290861060086,-0.5340906635853364,-0.17005141875862373,0.3428819158473572,0.03403347880457265,7.5665882925125185,6.209738835351045,-0.00930494630407799,-0.0007180968991833162,-0.009481022736055885,0.5311618882666671,0.36591940343250207,0.3986393232216188,-1.59822324878608,-6.0606586380081895,7.455000871071605,-0.003733054063657842,0.004613635408462749,0.0021926255210560778,0.6051941988268301,0.22172886054947835,-0.41679851214919345,-2.026739182852482,-6.232834102324906,7.4470355093688205,-0.00376285152648834,4.8954558842276375e-05,0.00453197118710754,0.26843559180810744,0.45342632146178496,-0.704983877484631,0.21622979504534548,-6.131843574292921,7.69788567803155,-0.004432413865210459,0.0033064283927240565,-0.003937218892985032,-0.33567560067909974,0.4204374813345323,-0.4170431853846797
2.0821445994192422,-6.200184458044485,7.244640651385816,-0.004995806039925868,0.0011626304860501424,0.01113462344959842,-0.5397448876879232,-0.17543244238213557,0.3486938072400911,0.018570759759787808,7.565230118957109,6.209601455092522,-0.011220975200785943,-0.002030509521601486,-0.01192764333915265,0.5387653383686906,0.3578434961837011,0.39585687076833187,-1.6183307971136862,-6.057274581526216,7.4537971439514505,-0.005872370332562007,0.002903204849623704,0.002210009565220704,0.6100475555039246,0.21802144034403068,-0.4172254505348399,-2.0252265582198934,-6.224306191461153,7.397672203431913,-0.0014648109972239154,-0.0004970261653766869,0.006095374453907063,0.27473628158849045,0.44899893043049177,-0.7101400466001083,0.20921645590734173,-6.154680387816785,7.676033222443869,-0.008172632601279251,0.002660494070897807,-0.002784183482320287,-0.3325262536223608,0.41896725920885036,-0.4199960826089945
2.0959827819028876,-6.229680283620328,7.243155637867778,-0.0022721237968174944,0.0019660642294129908,0.009503124059895165,-0.5465894484345053,-0.17686966151304306,0.3494014790256688,0.028725529798375636,7.570444203430862,6.225242561784951,-0.00638787164305748,-0.0017418953217571754,-0.010181072171429814,0.5431762570338757,0.35323830726364913,0.3969175090383149,-1.625527068153727,-6.040565997152706,7.464305204921561,-0.003956004288070651,0.0026846127288286323,0.0022271754688344384,0.6146383525317156,0.21183419924901456,-0.42005289819691455,-2.004234231860463,-6.18835859661074,7.4144233780322155,-0.003518419174917308,0.004302628504785382,0.0066540554896530974,0.28080475032061836,0.44163730658539,-0.7082180209472062,0.22422517722500995,-6.142326828525453,7.687979647065662,-0.004829492586108098,0.0013254860175333214,-0.004322157583667047,-0.3271866287493426,0.4118242712191859,-0.41591408924852047
2.0982858421091994,-6.218122158861876,7.232392382005626,-0.00560794917048089,0.0016338949963633977,0.010440103076223018,-0.5424539844223203,-0.18127037365361282,0.3471856947266531,0.03469044304434175,7.565587490734255,6.221978418137573,-0.011041863684764794,-0.0011775861024162961,-0.010307382031266155,0.5414420514992402,0.36123450225967924,0.3936073344584622,-1.6116829019711256,-6.064513059297051,7.473763076530087,-0.0058037635601360235,0.003633359193833035,0.0018276409676482423,0.6115077424369867,0.21746050340440837,-0.42087891695322704,-2.0141778409329865,-6.244958068835655,7.409006999955122,-0.004130320113943642,0.005342583546093691,0.004129441706739732,0.27863112443995974,0.44873450125419395,-0.7128407291755104,0.23482184262902828,-6.170952059321782,7.688935233886521,-0.009023593019854012,0.0030575238682867194,-0.0037757800262858197,-0.3266733017769872,0.41893251919410324,-0.4212452702758854
2.078448973314795,-6.222854333928314,7.2388475199262405,-0.0021026486878596116,0.00038310931751110223,0.01206665793607652,-0.5383047076427723,-0.17984495467765954,0.3503786062427614,0.022010298243956554,7.557262964698587,6.2502282966881575,-0.009855372813890772,-0.0043601240007451044,-0.011118249430434145,0.5411862157033469,0.3620553218811359,0.39896492759293706,-1.619336730442351,-6.052155894713857,7.456885654831352,-0.00553730452497936,0.001078191568839586,0.0036288536121654624,0.6142156536724084,0.22019922270264894,-0.41653115185532674,-2.0406956028656253,-6.237033811150055,7.433817634191596,-0.0030246137051092212,0.0053275619107205595,0.006847075362686245,0.2784050029040906,0.44799839910169154,-0.7069814841155989,0.21335920790897173,-6.123566099045475,7.653490490375449,-0.005783274645065914,0.005553778471213547,-0.002677319381848689,-0.32687763902339584,0.41937807865570836,-0.41367341422496207
2.0873452442680356,-6.204962008201145,7.247964169650747,-0.0046993329108482975,0.000828684925523423,0.010265216728702242,-0.5392707393165614,-0.17788280285840505,0.34965659166989416,0.025479075621441562,7.5829817532062025,6.221240758827795,-0.009484992454869104,-0.0015822567490385087,-0.011115099581704082,0.5392209818522927,0.3638137905181648,0.402350670932775,-1.6079897802586243,-6.043908209317234,7.4403883585338875,-0.00531334658486789,0.0030082063274562343,0.003594286683129908,0.6103129139947369,0.22055157005082482,-0.41189637382886624,-2.036448970739019,-6.224995181208973,7.4160781024693945,-0.004340611080572654,0.0020548168064718005,0.005152164335408076,0.275763273020661,0.45338231754115643,-0.704035902431078,0.21999000971389535,-6.152954032457114,7.711276119239527,-0.007758213130240975,0.0004515848224503,-0.005846435339066793,-0.32951800939399467,0.4252531648991328,-0.413136727222708
2.096434257644312,-6.223521977640023,7.239615259765395,-0.0035487440149886977,0.0007718362080818133,0.01160563547523253,-0.5373155464489863,-0.1759574709208711,0.35260239831339524,0.02124139853006039,7.5559195975678515,6.237307648137018,-0.010511323914542556,-0.0032357671130815104,-0.010719110679224554,0.5446011985607514,0.3623337616055414,0.4001862025019999,-1.5929306128728724,-6.062296636257688,7.4418951665188215,-0.005331483937590163,0.0032686714415110837,0.002482747677608005,0.6203140457912408,0.2194971763467768,-0.4118813170755556,-2.0175051209214523,-6.233021281487638,7.411176501669011,-0.00236894323930675,0.0002869441121463545,0.005408689305686489,0.2833158393080582,0.4489403367729242,-0.7013849736638104,0.22645049435198003,-6.144247475107351,7.6705440500758275,-0.005522186762596799,0.004589090529205859,-0.002885329699315794,-0.3229899588925524,0.41666271496671775,-0.41346317570147767
2.0888556528346456,-6.204202322123461,7.234470234123064,-0.003865385485949461,0.0009112100014069118,0.010033718771141,-0.5409825846386892,-0.1786051666741769,0.3494039711822592,0.007696067253880539,7.571568644840902,6.2276966218097,-0.009683633249931583,-0.0018008380479962707,-0.01020664922517221,0.5343605657086535,0.359108788827417,0.3994907850957683,-1.6190962873274182,-6.039352964238512,7.4656492310050355,-0.00533048396762529,0.003268663692326839,0.0024827475379816653,0.6063801933368617,0.21733027055050191,-0.4164807149763312,-2.025710003576155,-6.223132550809655,7.404402284799078,-0.0023992062180505434,0.0026727664481965667,0.005839075101132226,0.26914409039936266,0.4497605438372809,-0.7054781609598506,0.2113648630875155,-6.130534280192772,7.663810723959608,-0.006421640373233274,0.0024020704682934384,-0.0036601112527098077,-0.33569730879788195,0.416769809565696,-0.4160879442875424
2.0907848535354914,-6.206954328661433,7.2428777657864485,-0.002946295611100507,0.0018097762943432218,0.010531558523620482,-0.5353718354421723,-0.1798511549994251,0.3491645373769399,0.027578607313127074,7.566454557403471,6.2265745645585815,-0.008569337697510327,-0.004273279139068238,-0.01010538979088054,0.5414425657709003,0.360994620460611,0.39385538376404566,-1.59301967135947,-6.05189999979445,7.473255558924485,-0.002719902997385218,0.004612448271781639,0.003122503742984706,0.6154208884012883,0.21819909913522448,-0.4186951021697599,-2.0307439856451746,-6.2447857248117495,7.4037716619610405,-0.0017836218350865188,0.004148662759242779,0.0053060348151397095,0.278638426630475,0.44751005020791085,-0.7091798889286177,0.22999131714918533,-6.161305327853874,7.687161820912997,-0.006681709115318239,0.0033687451815782262,-0.003451093913510123,-0.32471691437185657,0.4179294397474555,-0.41906353382416645
2.0860217950527438,-6.216045136753733,7.231416126936839,-0.0037705886983277104,0.00021497772322401587,0.012542634709125543,-0.5375664619280961,-0.17717934617780917,0.3530831469783185,0.03294448409865259,7.576836343613158,6.230571487802645,-0.009684615110072863,-0.001803908350838523,-0.010210600072058615,0.5309482582958079,0.3592743386939625,0.39557570561229344,-1.6226532675715777,-6.046290053245941,7.471975910042703,-0.006007546019149037,0.0014478292835399154,0.002971662698478893,0.6029666471909461,0.2180064183879377,-0.4213738733440561,-2.0158163762663373,-6.221448211163531,7.437334011714181,-0.004322204538947892,0.003794699044396302,0.005195741822488491,0.26716795910144564,0.4497775869120511,-0.71132937490458,0.20595628253210096,-6.144322197273194,7.679696717254299,-0.007338868554315275,0.002353483531697239,-0.0036280211697993585,-0.33620863804752443,0.41581775284498806,-0.4195092853110323
2.093605992056705,-6.239330673946089,7.2444764704035505,-0.0022701665428251764,0.001961992173913034,0.009513103414624547,-0.5404847274671256,-0.18075387882827654,0.3413345007339865,0.021719623243011594,7.561776976681723,6.246789798053589,-0.009993520897350281,-0.0018822487260348462,-0.012550141266438533,0.5399718126151398,0.36104620604704807,0.39727052257265827,-1.6145733990490974,-6.055525064971248,7.430362343107233,-0.003953981381050795,0.0026875798749169642,0.0022261248065292677,0.6119897536023113,0.216516879509954,-0.4186658425798006,-2.025457974130514,-6.242634254476971,7.41291486444515,-0.004030983052509723,0.004049690655919048,0.0033568162329417643,0.2757056282379718,0.44703929218933675,-0.7091687320079489,0.23329254921372108,-6.155936956905008,7.680435904379807,-0.005414881039330902,0.0028162173748264288,-0.0028814232642255825,-0.32740418569597296,0.41696591100569547,-0.41807942600772324
2.084071664995729,-6.200803321084349,7.24380634880173,-0.002482335472702108,-0.00010609593352837042,0.012222687317192301,-0.5373455021704773,-0.18182241781900949,0.35354256347801627,0.026846419645173227,7.5807489148433405,6.205963262037872,-0.009751423701761157,-0.002803214741043286,-0.008591764888794873,0.5358434680733821,0.3565869702833398,0.3944077594409609,-1.6131765296036444,-6.042307960794358,7.4762398964632,-0.005919794178302122,0.001918510592676927,0.00370081612517114,0.6065891543609097,0.2128724667172496,-0.4200682106592094,-2.031723065867891,-6.20671933827876,7.4146377242762735,-0.0016511452925767702,0.003820682026504645,0.0076792193011494285,0.2695811707943189,0.4439017130654464,-0.7096354806150311,0.22295242402413726,-6.129723382202875,7.677576643216601,-0.006286056975695819,0.0032992761870659637,-0.005706463382846279,-0.3347565730915835,0.41434522057404394,-0.4200130214272245
2.0970873812725697,-6.2064890602253495,7.2253753266591225,-0.004148437359878375,0.002945817477966699,0.011591839450996172,-0.5405173074284875,-0.18156341765561249,0.35353662036268846,0.03318529220867679,7.566816573400897,6.248125012672244,-0.012651883462358668,-0.002429052116593158,-0.010437178530128223,0.5414140533853752,0.3671498245845993,0.3969267896694754,-1.5971120665485161,-6.059382201830985,7.4425213055855615,-0.005850179420066232,0.002649673855912294,0.0033194304045014124,0.6164471937154247,0.22473718768997544,-0.4214908776350664,-2.0122193811147526,-6.254728012229379,7.420081078256442,-0.0042725350437250054,0.003148753064591087,0.004808929552236132,0.27916132145921396,0.4545886749640521,-0.7108842590644224,0.2268594675511236,-6.145943777683196,7.694858683354855,-0.009743986671779527,0.0016026356406794243,-0.0029309994444569505,-0.3251691528300409,0.4225688196798356,-0.41854466946812746
2.090654632577126,-6.220588422290295,7.235124768467903,-0.0036214579815677522,0.0016554930273757922,0.011560003197406538,-0.5402196645149366,-0.17226082949091456,0.34944558355840094,0.025512272131455075,7.561835172628591,6.243192713589644,-0.009159447729938488,-0.0021547527918998315,-0.011333003030455986,0.5326408770867799,0.3639069242049544,0.39476794072583377,-1.6090839448705534,-6.063701421549929,7.449337241945433,-0.004318333141428788,0.0032674674647864667,0.0034116260413767046,0.6042053608896188,0.22023979446135986,-0.41872644257302816,-2.0323604475879082,-6.2165696176098315,7.396103751479195,-0.0038478311545348276,0.003076758043949313,0.0053431854118291995,0.2698802706295836,0.45342256679228865,-0.710116639217386,0.2293839878974608,-6.166781478853293,7.703556515036755,-0.006680680345849441,0.0033727378342619098,-0.003451074994537105,-0.33663747249277665,0.4228907449452386,-0.41775597165730155
2.0833425499172544,-6.224918084861252,7.247221440043047,-0.0009607971939649624,0.0018304104456693482,0.011646450118059733,-0.5380275627901655,-0.17879410780365493,0.3384225891142161,0.020204835650920648,7.582788276235909,6.223664441438065,-0.007676793727047676,-0.0018452679424652736,-0.011224664506918298,0.5414506942465428,0.35551114684497126,0.40176025694673917,-1.6086282724197294,-6.056482295596007,7.454468276254318,-0.002334375245721401,0.0037770714611384294,0.0030484568866258814,0.6151373782674385,0.21314989049367802,-0.4142143611486633,-2.0372584686219812,-6.22070016376459,7.4083193139473416,-0.0013803460246239565,0.002333804147266754,0.005795722306538274,0.27863906539355027,0.44433147593344147,-0.7042998653453075,0.19931469326289036,-6.138189442556227,7.691045361030567,-0.0047566880565503315,0.0038354657089055997,-0.002703477118172206,-0.326178151248474,0.4127636200801363,-0.41078614776604694
2.0865126113538164,-6.222862186935366,7.234364608271308,-0.0062084618496633815,0.0005928138325226415,0.01153516541802692,-0.5407227914814718,-0.17254026101862896,0.35530176245567385,0.023584541128142712,7.576102703831954,6.237142901977709,-0.011094005493528398,-0.0028337858633606765,-0.011248893891853497,0.536326932881396,0.3566337739375796,0.3970941717692087,-1.6094283636692126,-6.055045697941002,7.467362128865938,-0.005867309327201092,0.002911114208906169,0.0022068745595623866,0.6104961029208128,0.21284629962501977,-0.4198247907882962,-2.0221786383287204,-6.250348290995374,7.448156866520683,-0.0028269552842476475,0.0027397829958556354,0.00530082653521926,0.2742148227944059,0.44216430134411155,-0.7084354507601284,0.23450751830040378,-6.157986040357376,7.683678968536378,-0.009675690177133465,0.0020522378541897373,-0.003954671969450019,-0.33134524027250295,0.41112644062915465,-0.4166304206432356
2.1053971056360723,-6.212836750562026,7.23783962067813,-0.0012037627154657313,0.0010830600631574346,0.010130148973457794,-0.5365802281052368,-0.17595481646948746,0.3516281473769145,0.023580617831006873,7.567772058820875,6.227140857871271,-0.009235618980435338,-0.0014497207291105667,-0.010423798580930545,0.5387634840183854,0.3573923251818302,0.39806172774520265,-1.5993425732359778,-6.052631049227145,7.458595498331602,-0.006927891714836372,0.0019266241005172341,0.0027688195973749772,0.6134379887783891,0.21451587271892478,-0.4208298436650651,-2.017608048785627,-6.220710264383904,7.443399850249293,-0.004395333615263276,0.0026957979732755064,0.005532991839666885,0.27494433293244597,0.44338328911315206,-0.7108782012134958,0.21058614135009235,-6.141040636378521,7.676198096608956,-0.0046494015109985595,0.0020605986100905886,-0.00270058252190468,-0.32986891104148713,0.4147952673461568,-0.41954565691535145
2.0738673601266133,-6.190509161908267,7.254353804703304,-0.004087261071681296,0.0003522951308925327,0.010979705236146737,-0.5443769064207586,-0.17418747772753237,0.3482025532656028,0.023442380283038727,7.583385536296095,6.219475318000453,-0.009160409771954038,-0.0021609063059281237,-0.011341902959684015,0.5343820803351638,0.3567814129332051,0.3917166606069344,-1.6096950967390422,-6.051349734156198,7.457580573306065,-0.0029599831289328893,0.0029448659451413953,0.0020444978458240403,0.6093246827961676,0.2193520718100861,-0.42554984390312345,-2.028404893931346,-6.219092777662165,7.395925707607173,-0.0011894871433899667,0.003878696480506479,0.004727423394177492,0.2700584682969296,0.4458573593675188,-0.7154955629212102,0.21628300480346685,-6.125036769567469,7.687792755503799,-0.006263798322367451,0.003219232564661626,-0.0038729938382766407,-0.3335149522048848,0.4170184397963254,-0.4195149796987134
2.098932733836195,-6.223101209110443,7.225842549663055,-0.004612247635427718,0.0016425913060718399,0.011014546134576251,-0.5390199853944133,-0.17376677154328718,0.35505412691141847,0.026334338043658166,7.5680147139282985,6.237845956912816,-0.011685934239979752,-0.0034904139403318804,-0.00851752044106768,0.5365957384831214,0.35239545769238084,0.39179378537252346,-1.610751694146089,-6.051926372624649,7.4568844705865445,-0.0048208992269573635,0.0023870035952910356,0.005358865036515621,0.6085411398060832,0.21260925776792627,-0.4203083395221711,-2.034820988080261,-6.2361316230504285,7.403821999313225,-0.002432510417425191,0.00505360936295298,0.0062664681819819285,0.27323731723903194,0.4438817891370811,-0.7113589788633307,0.21744092293246892,-6.1561216585691785,7.657660817408846,-0.009257800989281756,0.0018997253678915132,-0.00437658969626388,-0.33281421611814316,0.41237392749670587,-0.4193020397179191
2.099312626435589,-6.230730968464199,7.255562271849117,-0.0010449751617003567,0.0010093332934303018,0.010922083236004132,-0.5389989770571075,-0.17443543656149824,0.3447957522476042,0.01980004448226942,7.571737563717919,6.227993255704644,-0.00780021266384143,-0.002777084715497784,-0.011237284631164076,0.5382639611695189,0.3612632098126875,0.39604283743167573,-1.5913002646583856,-6.051279627632931,7.4485301403440545,-0.005012532845821181,0.0017070735808266423,0.002788002198565761,0.6107910236550735,0.21942705815821947,-0.42042377566976014,-2.0363420853958223,-6.218857650839911,7.416023499427014,-0.00434565823465246,0.0020508519757234103,0.0051461804944316365,0.27400338659168505,0.44802609525299975,-0.7089170594206614,0.2169436906157499,-6.150533506040365,7.708667033994064,-0.005411830739422974,0.0028231955505747734,-0.0028813961773854323,-0.33006547001810127,0.420403029291507,-0.4180462048377597
2.0741399777181275,-6.200133715451513,7.238592735743935,-0.0036921743619073755,0.0025391341151172267,0.01151537560945025,-0.5448572992659029,-0.17464712601493862,0.3440484307149047,0.01977980392142211,7.563568771550932,6.217805449912803,-0.010645022013678293,-0.0024775483443755294,-0.01145912629870125,0.5402420595506466,0.3553839449514066,0.39443531060904163,-1.6222062370436248,-6.051402103078909,7.45501147019895,-0.005308285579506978,0.003016115686738699,0.0035911516774715904,0.6122372703089842,0.2169874688000903,-0.419649973770205,-2.034104324063046,-6.215410251952569,7.402501803300821,-0.00397162970092743,0.002623808834313236,0.006067251661146989,0.2764482087031207,0.4475211260878954,-0.7072181968642053,0.20482853827844322,-6.134534616385165,7.667052149161295,-0.005035943546956654,0.004892162089724694,-0.004327884434654668,-0.3286426581444492,0.4160118246893582,-0.4202762717682041
2.0965167300525764,-6.22812650935225,7.233567441066643,-0.004231627327511405,0.002125691661554866,0.010874481050655006,-0.5384967651386463,-0.17126843842419126,0.34554883058831604,0.02845488673550592,7.5752740173215605,6.24568418978063,-0.010006616232878,-0.0029654721088400522,-0.00932458431993589,0.5463057600297965,0.36590781220976504,0.394513479833237,-1.6150686922366246,-6.059877386140525,7.462223289328239,-0.003881336000096387,0.0034227023632231943,0.0018436714422971749,0.6213327940759323,0.22499673995404318,-0.41832311884695994,-2.0320737563025495,-6.229752471479795,7.420895320952508,-0.0027578812015575235,0.0038327124417312053,0.00495858685686703,0.2852820048779706,0.45528252473825453,-0.7074897887113045,0.21639825515698324,-6.130188432581672,7.683682337575641,-0.008840923740114505,0.00174622606677673,-0.004799508510794539,-0.321014262395969,0.4217944193612191,-0.41661607188766014
2.1077546983166444,-6.214986328774142,7.219281345670401,-0.003928478346339237,0.00027954324259270427,0.011775645691759942,-0.5375277253438235,-0.17201422051142573,0.34701149799904557,0.04073714320030482,7.549798786256222,6.2470533180801295,-0.009688508395835647,-0.0018213394012512707,-0.01023531850258075,0.5326351139045901,0.3649032085305404,0.39597243287123063,-1.5937857838063099,-6.04958765765412,7.473196817585955,-0.006769509924432367,0.0031304437399954145,0.00311555362234952,0.606683640626097,0.22507326017846654,-0.4205177618380715,-2.0090058330955722,-6.221187026114595,7.452184437232979,-0.004619500652247984,0.0035317495031032893,0.007027683841153507,0.2694047818212533,0.4539108871094904,-0.7074282726759784,0.233006015060158,-6.170404034849351,7.689622194160297,-0.007420301528909519,0.002002877460371715,-0.0044407487092604095,-0.33272575437755963,0.4238401404041601,-0.4180129884848864
2.077051403211329,-6.202036146931342,7.233761641244539,-5.324249816419936e-05,0.0010171426321822785,0.011481510924185308,-0.5411976928168765,-0.1744296362180291,0.34552255921218195,0.019349274006005855,7.568983627986838,6.242343599288224,-0.009283814372071179,-0.0030947897068183314,-0.011358489044564683,0.5404600163539732,0.36151557137629253,0.3960423196997207,-1.6062604270871583,-6.060233478358826,7.439018615372573,-0.004019550325246969,0.0019623509038582615,0.0026054092025886546,0.6173756615403184,0.2184248139086388,-0.41894346645058306,-2.034236909724476,-6.2346711233676855,7.366080761135987,-0.0025056355373645023,0.00395470734352109,0.006604718190884184,0.279126344294474,0.4489742373886045,-0.7113774489967502,0.21749679983989914,-6.1341013216768285,7.659720038843912,-0.005083005383428416,0.004358517632640858,-0.0014697613132738548,-0.326414135152079,0.4194051785795313,-0.41880261521102247
2.084368460055024,-6.225307961051075,7.2469074353522664,-0.004906782597213891,0.0019724146356623795,0.0119019320300825,-0.5409507993481195,-0.1741822067681413,0.3447926836868947,0.020240895092159792,7.569424524959898,6.227373610286963,-0.00825110968560595,-0.003146696037669377,-0.011048834780311248,0.5350806176373181,0.36110923748975937,0.4021449063004912,-1.6038130428202315,-6.043343316907677,7.463554003354102,-0.0032022505013302865,0.005246537598185461,0.0013557053358146326,0.6076059257294485,0.2178703931812422,-0.41282762359429254,-2.022071453179673,-6.219958952685738,7.448773266103982,-0.0015851202449172848,0.004906631138269084,0.007334985049890803,0.2718257328667241,0.4485230731513537,-0.7047579380924586,0.19505165847085518,-6.135147096444701,7.684049667962715,-0.008008169284905203,0.0014372168193280603,-0.005642353278423943,-0.33347642900479124,0.4184484066544699,-0.41364745750040316
2.086535211374559,-6.213780624844902,7.23621266271751,-0.002332273561957863,0.0013273207778510712,0.011255013842056223,-0.5470766932050375,-0.17975897910325664,0.3432780570741395,0.043245138920456005,7.589624910451918,6.252475000385165,-0.010722176811205618,-0.0017755698538280103,-0.010552872837451502,0.5350978128257612,0.3621135636998919,0.3891863001181452,-1.6187053720263767,-6.061037868455524,7.472409258987697,-0.006925846110837649,0.0019325570510188828,0.0027657186938573873,0.6068458677866887,0.2144847176598465,-0.42571123078278866,-2.021326840566978,-6.24733480458967,7.4628094754779895,-0.005635545576664748,-0.0002579340917188663,0.006591106284810127,0.2712745301292295,0.44682948120720023,-0.717940472479627,0.2260167063337765,-6.167251195785956,7.672876891882713,-0.0052560006703668075,0.003637360186907299,-0.003092286989237151,-0.3330696622934256,0.41731674740511254,-0.429036603324193
2.071922141455947,-6.214947354885165,7.230418350198591,-0.0034761891618047356,-0.00012507735921320922,0.011692185149302226,-0.5475768354453437,-0.1812354051824471,0.34546465300666745,0.022933499495617772,7.569729682689204,6.238002549758365,-0.00870202610471465,-0.0035141905401817534,-0.010853419392991401,0.5326097850303833,0.3675041576699382,0.40545221504290513,-1.6149167972061325,-6.0432301837640665,7.461422795145268,-0.0061073673019923945,0.0012464640065922333,0.0011248187048694463,0.607900011559199,0.22427297085168077,-0.40951705314514913,-2.03171524915028,-6.228004813183907,7.383342249092771,-0.0032557043252990844,0.0028068054251942087,0.004762581931193331,0.27210524859610546,0.4529132442660672,-0.7023128604780332,0.20794003632695213,-6.105866515549323,7.663469294383316,-0.006763669957304548,0.005071534853226784,-0.0016184860027698331,-0.33438458945558824,0.4232973944870883,-0.40677797989328285
2.0930985484830513,-6.211477558222305,7.264074393750096,-0.0029424001898167894,0.001801582007907085,0.010559517052959932,-0.5421858674544906,-0.17517996514237222,0.34917757787025616,0.025556499824559084,7.5632703234077345,6.211333272678788,-0.011426370953409103,-0.0022909982600243916,-0.011071510638013855,0.5424213019035683,0.3569878466997132,0.40222625406596724,-1.6061880231564516,-6.048198451360798,7.447184083627827,-0.0030275672344151354,0.002217669656161136,0.0024248160625577435,0.6139359924406329,0.21557936336043654,-0.41547612803871664,-2.0214323654783515,-6.2216072085549285,7.4254929819025435,-0.001241209655165232,0.004517657192832153,0.005111237137912555,0.2771693935140121,0.44189682108667294,-0.7018553393496182,0.22960729376733022,-6.12876606534484,7.682092716415129,-0.00634624088871637,0.0028666277850880008,-0.004684728457888025,-0.3266683175579747,0.4122762363809653,-0.41029870226261816
2.0944829433568346,-6.226630761551905,7.238165073521938,-0.003324044228651604,0.0013164488123675695,0.010705567079346332,-0.5331528989718729,-0.17691020561604448,0.34577120042562354,0.026294429188386866,7.578385955991461,6.244171266814358,-0.009164323296624099,-0.002174287753628009,-0.011363688761989923,0.5448299647204626,0.3681233993764676,0.39593912379709734,-1.6130061808658793,-6.075610184321773,7.450519013091171,-0.006384974667110884,0.0022960576666597216,0.003040490205826252,0.6169393621649708,0.2252469758853092,-0.4200353889840733,-2.0231710527219398,-6.239708206476335,7.456745954079895,-0.0034788615456654605,0.003643750107284512,0.00625827088753389,0.28013244806927085,0.45507377781819686,-0.7128406573695075,0.2127366355291454,-6.1469277368258,7.681313841824418,-0.006674598923747707,0.0033847002413230163,-0.0034520326596794906,-0.32563313831815066,0.4252513780358793,-0.4175504144036476
2.0727746786815033,-6.212125148292467,7.2490175036531745,-0.0027129342588693745,0.0008411515237069928,0.011406059828933843,-0.5353382990035414,-0.17542260407182975,0.343821272645619,0.022831152679666643,7.5687019596897205,6.210447675569474,-0.010393657411716379,-0.0023439546354047927,-0.010764839212688575,0.5445993463181169,0.36188160748154324,0.4023920760743853,-1.6096046119468788,-6.05767311043677,7.439554477974111,-0.0057755039265806754,0.003388729638386621,0.002933909820013438,0.616876120153454,0.21701319632287888,-0.4159891407755122,-2.0280670230666282,-6.243780135739263,7.423959191576384,-0.004897190120090239,0.0016669183299415457,0.0053330000195945465,0.27943097702817205,0.4533593895550591,-0.7025854229859493,0.20889013381626265,-6.1334697843922,7.661821960492238,-0.007022158110499789,0.003990794452171256,-0.004052773385184664,-0.324431065677701,0.41935473059236217,-0.4127082060960729
2.0896469232028663,-6.2194021176526535,7.239498903139325,-0.0033947273775088746,0.0022031399829814734,0.010652958520888933,-0.5334020980400038,-0.17764661997804043,0.34649800350204024,0.019621907835347077,7.573881712940996,6.224259554398407,-0.009304325935798335,-0.0024664003334131167,-0.008826679006045822,0.544601409112268,0.3637403608065614,0.3967441829431713,-1.5993257420913576,-6.050713409184924,7.458384170668851,-0.0028692081409899955,0.003418523491226,0.0027736003287447057,0.6166540892174744,0.21989835146746545,-0.4187240548610245,-2.016431849299012,-6.241695214070422,7.412757042897128,-0.000645039603080086,0.004251676234816036,0.004535621468416298,0.28231807341053894,0.4501740010536288,-0.7087039168017409,0.21938708299350654,-6.127975213753889,7.70025676165565,-0.006828393058965356,0.0025755210409762344,-0.0032411218119290787,-0.3232255964359925,0.42158077162878216,-0.41904886049538126
2.095690255089618,-6.20946794313002,7.237690587276307,-0.0035468912838667543,0.0007595887853917523,0.011643563934532121,-0.5417128117533835,-0.17883803889768074,0.3481797408573263,0.023379692297700892,7.5672054296132,6.237669487614552,-0.009031467909967983,-0.002958125695005342,-0.010660251111665605,0.5350655924317352,0.36548624457917395,0.4010945024817572,-1.6001978586498002,-6.049280033980755,7.471291098856168,-0.005305247481165922,0.0030210578999328333,0.0035890673341184435,0.6066772017515994,0.22416731406824086,-0.4163519130426563,-2.031923121588162,-6.222003947263756,7.444383267385866,-0.0035022916014659563,0.001901900158184576,0.006211711384682849,0.270389460058429,0.45439197416029103,-0.7062107021364267,0.2391182999504712,-6.160254136031033,7.701506938852444,-0.009250733927454211,0.0019116985072506407,-0.004380552090869741,-0.3342083552154215,0.4194393527312002,-0.4151020910952321
2.0845357625041645,-6.21252182476217,7.240615886600802,-0.004588219489580778,0.0018259124320353264,0.01349280903688961,-0.5421582819068578,-0.16859735691255123,0.3506839632559576,0.03198840864954772,7.587932797804727,6.2205008007799005,-0.01000751839973481,-0.0029818416479532855,-0.009346315042063394,0.5433838156157322,0.36440731842155516,0.39306845068728063,-1.6154214332921226,-6.071285066867748,7.452696139115637,-0.0069409528408414045,0.0021969813901445956,0.001653112044773119,0.6142072949346544,0.2191730660962816,-0.4194432821324111,-2.026454896178004,-6.249656461204769,7.392319978961048,-0.003407777671502671,0.004737666823743098,0.005917024202148561,0.27864549067189254,0.4511754579340566,-0.7128384712087407,0.20681327281587564,-6.141132281612636,7.6716164286621735,-0.0060857048256681805,0.003953347610104313,-0.0022494151347675967,-0.3266680646206234,0.4186797859864727,-0.4197817609667404
2.091275966941375,-6.212133858370087,7.236679312300319,-0.0025587965111520416,0.0022826494198761715,0.010422446403817825,-0.5368253011365208,-0.1774023011724608,0.34917642895017886,0.01761072492566009,7.571438985613291,6.212863418759241,-0.007892707297321685,-0.0003729409863567855,-0.011049636896274024,0.5355907150310601,0.3569086148267697,0.399041606944632,-1.6087904766951346,-6.039856103987584,7.439866263126911,-0.002955944790515712,0.0029498172491947893,0.002043413221004482,0.6075810771418324,0.2146805026974345,-0.4137500298220504,-2.037450808541449,-6.213213349895915,7.41529323246215,-0.003235319446505515,0.0045436769013114395,0.004805148727724473,0.2708146936727353,0.4438915225436712,-0.7064673443392865,0.21178518522186957,-6.152630827742392,7.697608821490249,-0.00743243084448798,0.0021028663858585644,-0.006277147656788855,-0.3340036220781738,0.4143137442967455,-0.4156226758809864
2.1138894932797574,-6.203753689600537,7.24916810551412,-0.0034762366515646934,-0.00012915249894920552,0.01170415974661716,-0.5329217974624096,-0.1754984619070998,0.3540807932431195,0.036554885011109546,7.557891527496846,6.2164275364957975,-0.011160634459740469,-0.0038637403288202614,-0.00966855108728818,0.5431600925277655,0.35739279493401876,0.3970929995095351,-1.598086008139753,-6.077081135862717,7.4514018790984204,-0.005773488765294604,0.003390696956308178,0.002932875999339122,0.6200449182049165,0.21641745450609498,-0.4208636557869551,-2.0331792662919947,-6.254757762580866,7.448304208810536,-0.004351717134362457,0.0020448930621482864,0.005140198765308012,0.281090342666692,0.4501828032479629,-0.7104080651937503,0.2374747014520749,-6.146108724289622,7.66663019388331,-0.006067506064002417,0.0038643271037035296,-0.00041497975718844074,-0.32471229155587095,0.416937907243914,-0.4166274026856615
2.089177465454937,-6.233396365834896,7.23154583308829,-0.00285331954375014,0.0026125041091143502,0.011304832411898644,-0.5388176064449394,-0.1823187880979017,0.35597699288782514,0.026311400697069706,7.575052315297274,6.230476132908844,-0.00793693392525175,-0.002011911905668125,-0.011979421995656499,0.5326490064805939,0.3593625664529699,0.400460789181127,-1.6007017838958488,-6.037283338292095,7.479350353219945,-0.0037905532664197065,0.0038973597374745744,0.0025727570835869856,0.6066186404698252,0.2166037404845736,-0.415979473489537,-2.035384006427959,-6.214620531940631,7.392583533020795,-0.002410323944263843,0.002658839929927297,0.005830105806135306,0.2693679680078812,0.4463411693663223,-0.7054822893687757,0.21088987122869593,-6.132370924721699,7.672571285620164,-0.006102874817865145,0.00404636076918878,-0.004083831593373734,-0.33643983196239086,0.4153101241030116,-0.4160931115107042
2.0880805282308046,-6.207772055945705,7.246451265434551,-0.0037743952458947063,0.0017169471832373029,0.010807006796414118,-0.5431888592005151,-0.1788602052049009,0.35281518458890593,0.024544065935039,7.5735961466529025,6.232253765525012,-0.01084552111538247,-0.0027206356713299806,-0.010580273261106249,0.5370501802337906,0.36165661091309587,0.39066244735155514,-1.6023428944896627,-6.044152823837791,7.437607558136766,-0.004921735701121919,0.0021836632512375526,0.003513054723954151,0.6105493601342207,0.21982641723089424,-0.42580219849376366,-2.031028854618931,-6.220456427812338,7.406810885905113,-0.0037838159967003666,0.004163722694570255,0.004994960042466309,0.27375969532193845,0.4516945587726038,-0.7142836608564291,0.21338770547658079,-6.1529802574602215,7.681409611827258,-0.007675288811562776,0.0029815217538760918,-0.0042326842181130055,-0.33375475300596613,0.419725017072988,-0.42267177285336494
2.0916334338940654,-6.229680868442552,7.250491422526295,-0.003999237501511673,0.001160109159743558,0.011742998984245114,-0.5371020972697275,-0.18447939829719007,0.3488873749970997,0.025342891759786504,7.573853768484609,6.217588729408672,-0.009870458387987589,-0.0026980070463691256,-0.011899193510013527,0.5358626126623661,0.3521691070674881,0.39301650853234027,-1.6105499454956844,-6.077107688224275,7.448843329986224,-0.0035644006098359713,0.0018591035045301854,0.002147960067609391,0.6092661948971603,0.21179359018515742,-0.42493445565877247,-2.0210411677940296,-6.249437641426008,7.4229380211239455,-0.0021423478580729965,0.005300609843063562,0.004424539179013756,0.27297595243497325,0.44290979463311364,-0.7140448887880034,0.2146094352794466,-6.149905814461518,7.688806344723376,-0.007742590117853554,0.0025319183356927967,-0.003210016481001165,-0.33259715564505465,0.4094495923374467,-0.42054156609010473
2.08681755935004,-6.238762056088691,7.238970716675012,-0.0033220989038473606,0.001312345397219973,0.010720546321501146,-0.5380435142755802,-0.1749785754665104,0.3528518066790849,0.030505736677564683,7.560459107268576,6.219065748116304,-0.00891396796204905,-0.0020386814308578144,-0.010668436914329981,0.5370415244298429,0.3570449100617645,0.4068548787111406,-1.6114713474017521,-6.031580610360167,7.469097773787104,-0.004920727985423259,0.002184655330220083,0.003513037742696957,0.6090475498150273,0.21476370698679853,-0.40813603080664224,-2.018971946929369,-6.210664599563605,7.435335706018704,-0.0044541052581912296,0.003331807497087105,0.005908830607768969,0.27330815436607286,0.4470432312233311,-0.6981731519633322,0.20888035323649018,-6.139825947750633,7.6825426757477775,-0.005993602669917536,0.002271497229513307,-0.00408394654365979,-0.33249140198068133,0.41596844802282806,-0.408295805610835
2.084880824970262,-6.203497836755313,7.25615965764732,-0.001407292838431036,0.002213721079723733,0.011774791838843161,-0.5387703130417428,-0.17399660676668108,0.35261122607708245,0.026320468098131808,7.557178721425333,6.237407164136815,-0.009286679413884459,-0.003115383799162931,-0.011393154227326502,0.5350856686008525,0.36364269781902175,0.393067245024159,-1.6107382776284143,-6.070902341601474,7.453048479008397,-0.005372832126870663,0.0022938279308655626,0.00396738583453229,0.6071484444385934,0.22192168671792656,-0.41899959941635606,-2.031148692575111,-6.240128746404519,7.415107773217351,-0.0034332273605398324,0.002993830570118121,0.005868470789589644,0.2701089270209585,0.45097940638828066,-0.7103638627902328,0.20664260779327032,-6.144401911399705,7.694824406611697,-0.006431228078581746,0.0045644272569382955,-0.002850135824374076,-0.3327655430931516,0.4199488855108785,-0.4204780954224499
2.0973249825329656,-6.223693123209358,7.256794698270969,-0.005600101692039633,0.0016285186279497508,0.010494089294323519,-0.5336249312921368,-0.17083877230705144,0.351179275597353,0.03655688038050464,7.571272986716625,6.208330515181272,-0.01000844586616647,-0.002994111392552136,-0.00936211356014254,0.5375259968496967,0.3627292784335714,0.39626109521854447,-1.5946521602794408,-6.0374034776775565,7.467697089401261,-0.004605009228315358,0.004586404429621067,0.004212606131017076,0.6105286511747384,0.21702125700904157,-0.4184299081936783,-2.0349658067667744,-6.2312234402313535,7.431666457199178,-0.001987637660946115,0.002583856725885176,0.006364366814451112,0.2752200658974493,0.4467972412275463,-0.7081910323887598,0.20728666100903226,-6.118473076940116,7.679262633029532,-0.007479514205603644,0.00156823987777069,-0.0034220303817971928,-0.329103198178733,0.41721295912465245,-0.41636078968483653
2.097788624909115,-6.229586794085631,7.232810299751324,-0.0033221131621249647,0.0013113203403564463,0.010724539948314963,-0.5331606239890706,-0.17427887582648965,0.3543318782529168,0.018823536168767932,7.5680390109335285,6.2246890202689125,-0.008795498382994715,-0.001115083358137666,-0.010667689313958381,0.5343337997926146,0.36407276521971166,0.40429136838975255,-1.611732001883711,-6.064867972332756,7.456945681162917,-0.006745281423782904,0.002881829028575372,0.004220890541583564,0.606400947153524,0.21988596964300472,-0.4096867950159788,-2.0231288864070684,-6.229198729322484,7.420488453435826,-0.004131577593075222,0.0012069688877766587,0.003641520794439864,0.27209477174157076,0.4499826755830234,-0.7006065839970718,0.22164560811377285,-6.16195812505956,7.698431098906928,-0.0073256936909721765,0.002380412979013595,-0.0036319234567091384,-0.3327294479944222,0.41891800875091656,-0.4114501568288606
2.0871468552487973,-6.19598998826209,7.253406090727928,-0.0018083984943889294,2.5872873645505453e-05,0.011245100910169779,-0.5377740390540401,-0.17226012588243825,0.347498378995457,0.012570647595367069,7.580493039926713,6.210046038594215,-0.008837732617288986,-0.002752046927479895,-0.011597504640837824,0.5360517443553431,0.364225220203069,0.39843088709915514,-1.6079091500016784,-6.044948571569341,7.459652588940163,-0.006103298790973816,0.001255364103182214,0.0011206671390466857,0.6096015023030675,0.22341586072281525,-0.416095011983233,-2.03369917832972,-6.209858240414365,7.385964328559665,-0.001664319893366161,0.00379776837962741,0.007669249613048714,0.27281362709912976,0.4516928969672153,-0.7064678547459761,0.20956079796956756,-6.117672643975136,7.6639651061328955,-0.005405722937907423,0.0028381518585320034,-0.002881336069689352,-0.3322431055593399,0.4216266227963669,-0.4158314404294311
2.0869455522581664,-6.216205488921684,7.2486037121310325,-0.005738463316711458,0.00340288674888845,0.010388885529112173,-0.5370941364417142,-0.1810829412132859,0.35232677376758476,0.009498808150815462,7.561812453087179,6.221267980839546,-0.01144878341302625,-0.0016818814225695975,-0.0085553835824018,0.5333652501404006,0.36257565403235176,0.402605543765458,-1.6114791384799036,-6.057072967777683,7.4744988343863525,-0.003787522373589942,0.003901335802588942,0.0025726892981845486,0.6107950899004404,0.21980669646143597,-0.4123720278331486,-2.0345544515990244,-6.232802323093518,7.408352139498813,-0.00642579876672542,0.005098684950714902,0.00564730475385413,0.27109181389708864,0.4480389293587837,-0.7042664894846419,0.2111162458310164,-6.142943763530321,7.664102853648049,-0.00962060435220569,-0.0001502695962278755,-0.0029410509935685358,-0.33420958146879276,0.4179627600643244,-0.41315784147328766
2.0933076184927373,-6.2302597151014085,7.263691083562667,-0.002034883440425524,0.0009842641424021306,0.010402552546460095,-0.5460692240057442,-0.1700361805829984,0.34944558030043865,0.024139370340671998,7.576649426443844,6.256294398732025,-0.010067040591243323,-0.0029277463868247052,-0.011000554387334039,0.5351056318737494,0.3554582905630491,0.4000411947899745,-1.6028556218028511,-6.0619457228313784,7.46030054859872,-0.004782312218441362,-0.00032231623561477683,0.0023570539004455506,0.6095141219996671,0.21216311974618746,-0.4173706726730326,-2.027954210924522,-6.2305001240692475,7.41807829016037,-0.0031886656029975536,0.0038957495503495936,0.00441734650137514,0.26862345094582124,0.4458587982613242,-0.7079208213987817,0.24004346628957596,-6.144603270560167,7.7035549936021726,-0.006099812541942785,0.004054332932912165,-0.00408279860172668,-0.33620168536594736,0.4148233077205223,-0.41658516842645926
2.077608083720108,-6.197813111306824,7.243226669079955,-0.002869828635769523,0.0009047123441187573,0.010639066884634028,-0.5446107082052726,-0.1690962290800825,0.35409306002948976,0.010417921482326224,7.577728681673334,6.199125112455412,-0.0083311548245214,-0.0024612118449520762,-0.010171314297774963,0.5399646066836071,0.36158723710423957,0.4004359061939126,-1.6150892005024478,-6.026249400437287,7.447203867769677,-0.005387946332496956,0.0025572692818680047,0.0028557958852388045,0.6110239327251943,0.21797687181544192,-0.41942227532713566,-2.0291341063999906,-6.212856832553578,7.385609420882859,-0.0035083524301878087,0.0018949403140452402,0.006206728722265974,0.2772033112600995,0.4494672329935616,-0.7045333165986883,0.20438111133693074,-6.133111555366039,7.678549114650843,-0.006321946301549486,0.0027915695986694064,-0.0028512388774196928,-0.3300795962581794,0.416972065346732,-0.41586955147560145
2.086488058036391,-6.21634751320574,7.234944422320074,-0.004156082116310419,0.0012297262423935666,0.010967043941338675,-0.5432043764447477,-0.18251749489106872,0.3520591922830046,0.010851338824233942,7.560529587164223,6.233826501166447,-0.010516946056075966,-0.0032972702337370464,-0.01080710362027217,0.5460517754817578,0.365300621444856,0.4020932817583777,-1.615839139216454,-6.071255095071803,7.438904791050556,-0.00522958696896057,0.003758139956976374,0.0032055800095856946,0.6181244154616353,0.22047458070099818,-0.4128743260120817,-2.033172841256924,-6.2572695346450224,7.4079694676335235,-0.0033124641493901563,0.003442800340713517,0.005141412750692929,0.27991413402190246,0.4533576771833065,-0.7038083462816602,0.22398742685127415,-6.1652577586269866,7.679830681214806,-0.008587454710927192,0.0029429104530638984,-0.004202558822077521,-0.3241648160750156,0.4222803965041559,-0.412448007860802
2.098195049463256,-6.2270682809485844,7.237688175176169,-0.0030963065377894437,0.0018650972792366859,0.009797531064662478,-0.5424634559294002,-0.17864264749118597,0.356480362311126,0.04582593382523431,7.572654461778199,6.225424455039976,-0.008331142174733975,-0.0024632617422092667,-0.010174280399799143,0.5468105336708013,0.35846024482564304,0.4017199525231393,-1.622827161468529,-6.050491614014429,7.476774392096573,-0.004918697602780864,0.002188605464431686,0.003510970380601004,0.6205123264025814,0.21361673062356143,-0.4130035028424786,-2.0333155325854975,-6.2269655839680915,7.424646907771471,-0.0026411847548089627,0.004273710622575139,0.004226537306762255,0.2825492292115969,0.44601886103962957,-0.7057787474972904,0.21469960573882418,-6.1348170141484655,7.685470874081764,-0.00590505950375276,0.0026380583605836215,-0.0032721577503681053,-0.32080087348129455,0.4144413061577931,-0.4120228434599965
2.071950556732454,-6.201362637830379,7.2418088768375775,-0.0035459910490233766,0.0007514212322491957,0.011669515440324468,-0.5329140332347033,-0.17885358070348595,0.3440505428684327,0.010256368027835718,7.559541008880766,6.22073118548759,-0.010145210982932721,-0.0022246547516025245,-0.01008732027586879,0.5392552588355688,0.35854150018742753,0.3936487069730224,-1.6033720509309157,-6.05209052122073,7.45468993025765,-0.006465635660176985,0.0018372021709297669,0.0023041346950598784,0.6119840178180352,0.2157808963212588,-0.4188974798970376,-2.0194972840590926,-6.25165408321412,7.383280482851722,-0.003984759245977611,0.0026098969243362573,0.0060552903147525535,0.27813405538668456,0.4460495730120288,-0.710888292572007,0.20217481188356595,-6.1403731859190565,7.688694603620506,-0.0052498736911371306,0.0036543104393001106,-0.003091215042718385,-0.32839692966930173,0.4157617161309301,-0.4195469164189383
2.089074397531826,-6.232658671223271,7.249182611044118,-0.0023284231311003194,0.0013130827730357462,0.01128993451503213,-0.5353771602633566,-0.1784183563840806,0.3543006267233343,0.04415775861518815,7.586927370185642,6.219637028404475,-0.008290891478848,-0.0008293555673655035,-0.009247417684350886,0.5309788310651431,0.3512185252657912,0.39571055484762707,-1.6150077842550954,-6.056393371036053,7.461563508326991,-0.0030931364487225585,0.0014924238450589279,0.0028031006004572024,0.602908884540639,0.2104931522798211,-0.4180738659402984,-2.0257838698219692,-6.2160046203101755,7.429948547961668,-0.00020199584054421356,0.005907562716750246,0.005114443706608303,0.2661512919006938,0.44172462424798375,-0.7093799731671097,0.2145188948934479,-6.137061208817445,7.683684290224765,-0.007322655367078679,0.0023863971667868987,-0.0036329022746758926,-0.3396681742508181,0.408750922507863,-0.4175818903737168
2.0987470285548384,-6.200418927894456,7.239417673912481,-0.0037037928750278328,0.0008241182153012934,0.010881577160784263,-0.5370750847348672,-0.1781402521571911,0.35014822651044164,0.028207367095348997,7.577062173005732,6.223925778917772,-0.009519206629762819,-0.0010040178905247454,-0.008648482827374166,0.5478014216488403,0.3585618978409258,0.3929296804750476,-1.611410864657053,-6.038159420596736,7.4509159659917055,-0.005784549411147396,0.00366107242765406,0.0018191678838044404,0.6207981737028522,0.21906442420503713,-0.4228617177398765,-2.028022940743433,-6.2118437261323995,7.437902418217713,-0.006100402864108236,-0.0011457997140694456,0.002900072914741698,0.284005380126733,0.44845775814428074,-0.7116422442718501,0.23667291851679773,-6.160148154062842,7.702119264310239,-0.0074071386415808516,0.002028812919713031,-0.004445656900977093,-0.32081473958232165,0.4174148917749861,-0.4193292428679447
2.080586798325071,-6.223877420587593,7.241549264531683,-0.003388220068663659,0.0006756804382541569,0.012464434712880704,-0.5380721532829591,-0.18349268598220178,0.3479152273032569,0.017563834384198347,7.561643477830129,6.2401750859647995,-0.011669013212443298,-0.00418734795077556,-0.011140202591827469,0.5387596766676992,0.35954407996252485,0.39534033639741045,-1.6050182261872865,-6.094618661698548,7.47211202179467,-0.005021556173631534,0.0019823484944203862,0.0016692103048244883,0.6112505123065165,0.21575368786834428,-0.42085010053727,-2.0360524903486596,-6.272701054138787,7.378989986889002,-0.0035113759946548786,0.0018929608395107972,0.0062037387827212735,0.2759495760354894,0.44801622899658694,-0.7106337828421271,0.21081224098417456,-6.124795643636106,7.663236596550925,-0.004855730284317851,0.0056382204869784075,-0.0026972443615986006,-0.3286285932249466,0.4179647396567953,-0.4202646826353838
2.1059477841913345,-6.207719277795323,7.265228647597882,-0.0013363378440858042,0.0028341245499833015,0.010068813842834024,-0.5434461992150809,-0.17985898879189482,0.35647038861375246,0.031215295013373952,7.577178628852629,6.234801442284929,-0.00800162910687913,-0.003028693335147343,-0.010389294938424781,0.5355619963859682,0.36259630215219235,0.40334100796426847,-1.6080874815473047,-6.014651574482597,7.480399377086418,-0.002847032719961795,0.0031629928411810383,0.0038830548512871223,0.6110571403206757,0.2221929357456605,-0.4155867389641335,-2.0266114013573273,-6.173414436029961,7.449885375731788,0.0002723854566209952,0.00518961981968107,0.005263887279396738,0.2737805444038433,0.44997818089575975,-0.7064733063638555,0.21247891253152634,-6.144022448255787,7.694069785034602,-0.005548910199425781,-9.459658552553153e-06,-0.005321719657551364,-0.3312638687113963,0.4201386470537826,-0.41315891851462655
2.0814526533780544,-6.1988735218360445,7.2115944785826995,-0.005666201668057823,0.0009968472427814845,0.01223900907882079,-0.5358273753123235,-0.17397371314948504,0.34675925927923984,0.032535210108748075,7.55368247600743,6.217492326258507,-0.013560268023737875,-0.003244528535758535,-0.010133024459905379,0.5407249820324483,0.35709048008028993,0.394163535462169,-1.6106608905070647,-6.071500688981643,7.438878524433803,-0.008986374601947436,0.0009759129398097459,0.002383330956326872,0.6141778312543289,0.21531706176428267,-0.4164489141718647,-2.0076738367202656,-6.291983912741661,7.403310625395037,-0.006876950489147595,0.003429853339414933,0.005060502251745066,0.27788342209276323,0.44360819941039914,-0.7089366000016353,0.2365802782943446,-6.169295762363533,7.668900138942971,-0.009400012826060462,0.0031638967412263635,-0.0015272823186156376,-0.3271719298583983,0.4150083331666646,-0.41760420476446114
2.09555485305327,-6.240337964656705,7.261199178923417,-0.0026430362836730825,0.0014574594963239619,0.00971605398398767,-0.5375668501075198,-0.18055589615739195,0.3464698196701705,0.012247737820449293,7.571994388550739,6.253412813019654,-0.007416859417407225,-0.00344404982962825,-0.009882287647779507,0.5414621186323342,0.35187419648537943,0.4032863403537895,-1.616323163037422,-6.049365579429567,7.441517672006329,-0.0029337693694875115,0.002694286599149828,0.0031528677435468983,0.6136230876104442,0.20661558354083864,-0.4114185175457031,-2.036693856624664,-6.181282549725467,7.384279261331859,-0.0011742101032149832,0.0055985995633404005,0.004767994291405195,0.2771713242255352,0.4418963583108592,-0.701367343388373,0.19514589846911498,-6.112792850365118,7.676137407916679,-0.006487872179730552,0.0020813733988634315,-0.004475732940422384,-0.32572760391012484,0.40935829378023647,-0.4134937025461239
2.087948677019126,-6.196909373651857,7.239332920567879,-0.0042228009950816495,0.0021143295642458006,0.01092543199373341,-0.5395148028135353,-0.17667599623782215,0.35210463349755194,0.040429905350857706,7.557878962822714,6.194902239993879,-0.010165553307990051,-0.0005244079461452756,-0.010799901492533726,0.545558662724942,0.3690989711169581,0.39567999449071944,-1.5981570080259724,-6.052236154375028,7.454795989127955,-0.0052265486005082665,0.0037630990102140126,0.003204495524392475,0.6188858020716791,0.2242591276710134,-0.41977424229141397,-2.0341949590893327,-6.235766675125505,7.4128749435146775,-0.005183160178869756,0.0031348989962291535,0.0072015389913281935,0.28161427687248375,0.4557941382275943,-0.7096718106899502,0.23699640982669246,-6.16644778359064,7.697067973070871,-0.006557199790775196,0.001628790426100977,-0.003454073341968799,-0.323934691284557,0.4252522318706793,-0.41975558263873597
2.1006456657953443,-6.2411013845910945,7.256805437735213,-0.0028688903977685623,0.000899607417707726,0.01065503746495509,-0.5382845447042107,-0.17593448414325205,0.34967116461588377,0.024999710704385003,7.570960920042503,6.242377054395533,-0.00981566333949398,-0.0027962025751111595,-0.010309233403345545,0.5392470215295937,0.35580389860508144,0.40517012380096185,-1.606787430284236,-6.087183490558057,7.452291479724006,-0.002498786849218686,0.0028475878597520104,0.0015879466814615406,0.6126993965967612,0.2134785415350455,-0.4103126837060177,-2.0253415159121246,-6.260000268303264,7.437801141271313,0.0011947495248917758,0.002015899753871581,0.005518230491299849,0.2754719306505817,0.4438598382172866,-0.7018467619262522,0.2161007185582172,-6.141610681068273,7.685012623440688,-0.00791305577057639,0.003872134765142205,-0.0021871736859071884,-0.3276395969873564,0.41276975385743975,-0.41004611213914866
2.0859713560749777,-6.2181877755617965,7.234091628356706,-0.0036347786040558695,0.0014515999204265935,0.009164638681940233,-0.5336680063909367,-0.18156053376278386,0.34793785371456226,0.021709449138081587,7.5616154601631305,6.2084640643110784,-0.00829383916694258,-0.0008375833537649323,-0.009260286820524787,0.541163978166611,0.3660352607474153,0.40329291524456434,-1.6155841428575357,-6.0318340005739355,7.478348463920194,-0.004932796346974712,0.0024540387225834345,0.00239934660841947,0.6139723206126464,0.22024223688984496,-0.4140894641599556,-2.0316929951360927,-6.183712056969358,7.429718548176218,-0.004385206087642638,0.00029911053563076316,0.005084675255744129,0.2774808982069697,0.453858867814653,-0.702577234012215,0.2165118687204805,-6.14286368858411,7.684000152350076,-0.005369315171623064,-0.0013297236117609675,-0.0063474870385140415,-0.32881533149133846,0.42134354052271217,-0.4134074244713401
2.0869099077994346,-6.211512748905553,7.244715972091684,-0.0026210007821460893,0.0016378466218399687,0.012185293527171064,-0.5497668969870454,-0.1768638311961447,0.3508579675094426,0.02428657057969953,7.57000437120746,6.229310007503112,-0.011143818842081887,-0.004538460081444973,-0.012278603287996206,0.5407160239239184,0.3560044583478839,0.40223983204841646,-1.6148403967012712,-6.073271648661609,7.448495840524299,-0.005940870646307601,0.002465151714924069,0.0014672995557307431,0.6141615393960115,0.2131656716387318,-0.4137262940913109,-2.015654009768878,-6.270837207391387,7.376972033634222,-0.004213598494274209,0.004227754852073351,0.004452716658380629,0.2779094564568901,0.4445803200807185,-0.7038087386916717,0.23295515425418611,-6.1543033452527025,7.697437762002159,-0.006619825411198496,0.005999634089124232,-0.0036566929488089537,-0.3271650461524459,0.4120444853687052,-0.41176175666070164
2.0775721241441194,-6.233181824306979,7.243511759629607,-0.0027111194174088446,0.0008238666237126869,0.011449956737511324,-0.5339120164142028,-0.17842222012651907,0.35381608717615426,0.032803943965389944,7.581611847293625,6.2572391242008845,-0.008997011812753326,-0.00135610787949114,-0.00978487193888398,0.5345981827881853,0.36246186835622013,0.39552852667448424,-1.6170172680174233,-6.033619692969667,7.476597673828858,-0.004083066459933131,0.001244021031380972,0.002979576137179741,0.6095836934999826,0.22116989691293792,-0.418987595328835,-2.027646259760517,-6.177063222219346,7.447519990260136,-0.0015242050632406014,0.005976613735625523,0.006986755840898124,0.270828971727165,0.4482892221493212,-0.7093922546482749,0.207177499128967,-6.119134624819148,7.65841759690369,-0.007848413394028697,-0.000495717406330888,-0.001985545881991025,-0.3335049523072506,0.41922363161739146,-0.42072290106798815
2.091776663798364,-6.2122298383253005,7.240437989528492,-0.004064044286961015,0.0020375589835757266,0.011724347249295776,-0.5368299907562857,-0.17693269298301462,0.35210942914722476,0.026010283896690904,7.570786308098784,6.199930679020337,-0.011629691669878166,-0.002565694789930141,-0.01022813853584765,0.5333877944997304,0.35882841555422074,0.3975405592107059,-1.6039894067118259,-6.063702261278444,7.44498026200009,-0.00560602231224634,0.004605428122919181,0.003278423651577281,0.6063738563724405,0.2165562899580585,-0.41890902382929923,-2.022981623983143,-6.275831990303569,7.432992751458855,-0.005259906495787125,0.0028258964027409266,0.004443526772345621,0.26910950400683625,0.44585639172585095,-0.7084117507526249,0.23569032817652896,-6.176401069814419,7.705032035292543,-0.00667954853859883,0.003507620047836442,-0.005285328932102343,-0.334727312807595,0.4172648928617092,-0.4182866846789565
2.0763024830394063,-6.227863086745707,7.253604316452313,-0.0029369806322690835,0.0002650083040215077,0.012389933912837306,-0.5304869628013097,-0.18034845145299835,0.3469760236073197,0.013411204797291945,7.561951820534889,6.228109216195471,-0.0090958584960608,-0.0029207498740270047,-0.012356224843899928,0.5348398132519082,0.3613114127982746,0.39969877171862656,-1.6224208140066687,-6.05241222362891,7.449690783946088,-0.002640009640331418,0.0013862092996425198,0.0023467021277831096,0.6112762841343774,0.2190011376208535,-0.41651017911887817,-2.047139107118081,-6.218627200853529,7.398833292775177,-0.0001270613118373396,0.0028768247398565532,0.004296266383638642,0.27206249856195736,0.4482790306792349,-0.7062231183808064,0.19277339613204997,-6.1296884477868385,7.673600819770421,-0.006078558706054356,0.003972284633774225,-0.0022473361665162513,-0.33203541866749303,0.41723688909992773,-0.4168346613568949
2.0860569833446214,-6.1956112334169084,7.2439196524078975,-0.0027087551196577062,0.0023410706630783277,0.009672438154478021,-0.5263096826324687,-0.1723419593278404,0.35191931737168275,0.03296148673702456,7.557255992591855,6.2267755708129195,-0.008179371240288726,8.601616052884405e-05,-0.00925854585416444,0.5387608090712163,0.3578884178460611,0.398541491138089,-1.5914703429607846,-6.044161209457811,7.461170104665808,-0.005764374200160189,0.003405540435934083,0.002927622827439608,0.6132039811751803,0.2157714423164799,-0.41889765024117204,-2.021397497584161,-6.21910820180692,7.413420113871154,-0.004064915742553466,0.0015090408537101292,0.006388566248210532,0.2740010552661843,0.4463152735308539,-0.7069656564382011,0.2305691137480717,-6.1400820529651625,7.683536627250796,-0.00630726756017316,0.0007631081539031186,-0.005502493241234729,-0.33084965697976404,0.41185199563600755,-0.41614044193758737
2.114068919818958,-6.208128032981762,7.261003364493128,-0.0033882936891412104,0.0006695614567206346,0.01248339658633819,-0.5375755569659624,-0.181060721231137,0.3491516930518823,0.01590552301742804,7.562408220583289,6.238557265229263,-0.010889495589127152,-0.0043986717527314916,-0.0115734133092231,0.541693048570005,0.3592868047793795,0.39388438318288044,-1.5984187131230947,-6.07172427891397,7.464248581438894,-0.004947902806867219,0.002718479901752653,0.0012877398174951293,0.6141602204427887,0.2130834417062948,-0.41860860148623946,-2.030924109947116,-6.239878039290911,7.389135907485633,-0.0022459422248491327,0.0024559029105201673,0.004712253751310333,0.27789449164343366,0.4443385657560228,-0.7072269370330277,0.23644344257152822,-6.152663988908608,7.687763609719289,-0.006340601074520729,0.004939949775894515,-0.0020343033759560813,-0.3286199029597077,0.4167219362245709,-0.41661003503155913
2.080085862075173,-6.215017347892837,7.230020379558835,-0.0014235229274496123,0.002013042771390196,0.009347439824656748,-0.5348640928602109,-0.17883668535565692,0.34282496871556106,0.009182900912664969,7.5661788506209,6.228793459508336,-0.008782932508127811,-0.0028502926480234486,-0.010010544110001974,0.5343366826862398,0.36404417262344596,0.4025826100240486,-1.6298210359970533,-6.031656756233052,7.450853424764419,-0.004462547917404993,0.0020853503159193646,0.003053521105995401,0.607121654397534,0.21835798195792505,-0.41307973956351807,-2.035499632043754,-6.1910629594207816,7.395314352987217,-0.004937606359225287,0.0040368139914033095,0.005748410757778925,0.2716143887978823,0.4524281231861434,-0.7023113784855095,0.1980319017447466,-6.1217916053840105,7.652979243865896,-0.0058999780443210505,0.0026500279408032093,-0.003273110598420385,-0.3366253636064749,0.41967316995167364,-0.4104510201492039
2.0886095083367024,-6.211820024061991,7.258284405346557,-0.005755370306375796,0.00018075595374988983,0.011520661696346775,-0.539733223796317,-0.1756427483201229,0.34332139508482223,0.035395133127118,7.57324964247019,6.230005549422332,-0.009976826827427667,-0.00031729824537407185,-0.011734180298555247,0.538981616421666,0.36447221894780235,0.3979436281381489,-1.5985906756811525,-6.06780372278162,7.4546622458255465,-0.006912663845018398,0.0019562501071042526,0.0027533143816553295,0.6091114949167654,0.2231674494707593,-0.4165797651278556,-2.0262910089869512,-6.273355791459488,7.417125061514154,-0.0025715306957716346,0.004571761221213246,0.006977567141698818,0.2737757876899508,0.4485122803950023,-0.70549766959971,0.22504374710501301,-6.155316533357357,7.698300511551332,-0.009455702441212013,0.000677865683038898,-0.003157901907757011,-0.3324947592811687,0.41942126856150663,-0.4141343520100865
2.095071615468419,-6.223729932510828,7.2199392614407305,-0.001174645198228606,0.0027502584607769316,0.010880691892393764,-0.5360899039550877,-0.17595099694235478,0.35065231919583284,0.030866317815289812,7.569863404977123,6.248315152381214,-0.00794672131733306,-0.0020410000324466303,-0.01204196068637484,0.5338739119078721,0.36261725674109613,0.39039697962298253,-1.61698732099113,-6.056544237479279,7.45935627054483,-0.0019236721631347641,0.002686140752897525,0.004083864133930454,0.6073951619735763,0.22234193485242523,-0.4229132981737188,-2.0238125531693574,-6.19911295114516,7.455924982233423,-0.00020318047095172013,0.0017789403477162955,0.004634529203219121,0.2705896405137093,0.45171230072341206,-0.7132940939127587,0.21429016069425583,-6.134777695768838,7.665186471087824,-0.003328814288531423,0.004121011911377405,-0.0023355792126910587,-0.33471665165240644,0.42168493304310306,-0.4226554822406014
2.083779887283663,-6.204395806988316,7.259841481878712,-0.0020330140084402776,0.0009720606232187644,0.010433481163364084,-0.5297436974760799,-0.17670840814783872,0.3499306935369182,0.016206289562122993,7.562566113827078,6.19582108850264,-0.010929431715796566,-0.002062480672700744,-0.009721304688388076,0.5380217142608281,0.3638294289574279,0.38891848709382754,-1.6040404983929095,-6.040300065275428,7.449004752635756,-0.005778472944354037,0.0036709736940858315,0.0018159990552580744,0.6120202576543142,0.22056439144472678,-0.4248378865395179,-2.0272355034660956,-6.242512563584389,7.388885813552786,-0.00553692375008718,0.00018118516782740748,0.005843126331055993,0.27374522518535066,0.4512083460023334,-0.7172140889407154,0.21966639538565993,-6.118750012323538,7.677032810265824,-0.006468668600624851,0.00199435756919625,-0.002643290453484019,-0.3288483890030954,0.4255720483467994,-0.42656641321601757
