# sampling frequency: 40
# units are seconds/meters/radians/a.u.
seg1_acc_x,seg1_acc_y,seg1_acc_z,seg1_gyr_x,seg1_gyr_y,seg1_gyr_z,seg1_mag_x,seg1_mag_y,seg1_mag_z,seg2_acc_x,seg2_acc_y,seg2_acc_z,seg2_gyr_x,seg2_gyr_y,seg2_gyr_z,seg2_mag_x,seg2_mag_y,seg2_mag_z,seg3_acc_x,seg3_acc_y,seg3_acc_z,seg3_gyr_x,seg3_gyr_y,seg3_gyr_z,seg3_mag_x,seg3_mag_y,seg3_mag_z,seg4_acc_x,seg4_acc_y,seg4_acc_z,seg4_gyr_x,seg4_gyr_y,seg4_gyr_z,seg4_mag_x,seg4_mag_y,seg4_mag_z,seg5_acc_x,seg5_acc_y,seg5_acc_z,seg5_gyr_x,seg5_gyr_y,seg5_gyr_z,seg5_mag_x,seg5_mag_y,seg5_mag_z
1.917098,-7.478124,6.11689,-0.005675,0.001148,0.011267,-0.351074,0.324951,0.125488,-0.065333,8.208845,5.139133,-0.076142,0.010408,0.001711,0.266357,0.401611,0.473633,-1.516967,-7.019076,6.665643,-0.115873,-0.095724,-0.003159,0.587402,0.243408,-0.30835,-1.319161,-7.285521,6.535928,-0.126154,0.28292,0.06918,0.325439,0.335938,-0.519775,0.943338,-6.729717,7.103175,-0.118023,-0.021858,0.017244,-0.273438,0.437256,-0.358398
1.828737,-7.419971,6.123032,-0.014394,0.004267,0.00373,-0.356201,0.314209,0.131104,-0.083255,8.283725,5.18692,0.024187,0.000841,-0.006529,0.272949,0.395508,0.473633,-1.550351,-7.264685,6.492033,-0.061974,-0.069383,-0.003726,0.581299,0.233643,-0.300293,-1.652709,-7.55193,6.540937,-0.040365,0.188529,0.046603,0.32373,0.32666,-0.510742,0.934909,-6.891978,6.960562,-0.029087,-0.0078,0.012426,-0.281006,0.427002,-0.35083
1.880421,-7.498138,6.089197,-0.001462,-0.005912,-0.002577,-0.355957,0.303223,0.127197,-0.080029,8.435113,5.210564,-0.009074,0.007269,0.009258,0.270264,0.405273,0.474609,-1.423184,-7.116217,6.416627,0.058757,-0.022403,-0.021827,0.585205,0.226562,-0.307373,-1.687194,-7.314084,6.563966,0.053885,0.018348,-0.016551,0.324707,0.315674,-0.515137,0.938896,-6.744243,7.023373,0.092356,0.028518,-0.027848,-0.278809,0.413086,-0.360352
1.929009,-7.431451,6.116465,0.011176,0.00482,-0.001913,-0.357666,0.314941,0.137451,-0.027156,8.279564,5.177514,-0.046954,0.003066,0.007584,0.274902,0.396973,0.473389,-1.375638,-6.894485,6.513385,0.015866,0.050809,0.001596,0.583008,0.234863,-0.293945,-1.507769,-7.101629,6.450835,0.012123,-0.135209,-0.009287,0.320068,0.326416,-0.503418,0.94102,-6.58318,7.172306,0.034084,0.023279,-0.016335,-0.280273,0.424805,-0.345459
1.888288,-7.476483,6.099622,0.008793,0.00249,-0.004145,-0.356445,0.309814,0.13208,-0.039205,8.234828,5.117761,0.034803,0.015165,0.011042,0.261963,0.402344,0.467529,-1.495514,-7.093621,6.563195,-0.013366,0.099699,0.029183,0.584961,0.231445,-0.297852,-1.32012,-7.185269,6.429443,0.023154,-0.188299,-0.014399,0.319092,0.322266,-0.514893,0.895053,-6.696284,7.098192,-0.044571,-0.017722,0.015943,-0.279785,0.423584,-0.354492
1.910938,-7.403395,6.143255,0.026569,0.004802,-0.002287,-0.356689,0.308838,0.131836,-0.063092,8.402877,5.161381,0.042041,0.004297,0.003321,0.265381,0.405029,0.467773,-1.611272,-7.131009,6.770593,0.066976,0.102978,0.015524,0.587158,0.224854,-0.296143,-1.209648,-7.223432,6.627702,0.013916,-0.185023,-0.007349,0.313721,0.320801,-0.513916,0.961266,-6.775771,7.088253,-0.016312,-0.041847,-0.012241,-0.279053,0.418701,-0.352051
1.902189,-7.405548,6.165201,-0.002023,0.002464,-0.005105,-0.356934,0.316895,0.134766,-0.016504,8.365937,5.124072,-0.020665,0.005792,0.01324,0.260742,0.402588,0.464844,-1.712206,-6.952565,6.939584,0.053057,0.072033,0.007733,0.585449,0.234863,-0.293701,-1.055142,-7.427563,6.726856,-0.009648,-0.145013,-0.00023,0.31543,0.326416,-0.515869,1.033293,-6.74895,7.061429,0.027649,-0.006181,-0.002954,-0.28125,0.426758,-0.351074
1.886049,-7.432092,6.138508,0.014932,0.002848,0.000117,-0.361572,0.310059,0.122559,-0.062939,8.320385,5.072439,0.003356,0.012763,0.005245,0.265869,0.406738,0.464111,-1.75307,-6.922575,6.983224,-0.009603,0.009267,-0.002943,0.578857,0.230713,-0.306885,-0.932301,-7.306539,6.61348,0.051606,-0.036618,-0.01789,0.30542,0.321045,-0.52832,0.962521,-6.683661,7.10306,0.045839,0.048145,-0.014521,-0.286865,0.420898,-0.364258
1.921382,-7.324957,6.163666,-0.00549,-0.005198,0.000696,-0.365967,0.319336,0.133057,-0.019351,8.398645,5.149611,-0.010763,-0.00026,0.003726,0.266113,0.40625,0.4729,-1.646718,-7.017797,6.834082,-0.04279,-0.046421,-0.007544,0.576416,0.239746,-0.29834,-0.938387,-7.023009,6.580917,0.005574,0.086873,0.012398,0.305176,0.328125,-0.51709,0.884833,-6.618487,7.152447,0.021513,0.021173,-0.014672,-0.288086,0.425049,-0.35376
1.936898,-7.488767,6.107011,-0.04445,0.00223,0.001814,-0.367676,0.320557,0.129883,0.003725,8.306581,5.154243,-0.058162,0.003157,0.001358,0.259521,0.39502,0.469482,-1.575138,-7.036174,6.786,-0.038972,-0.068278,-0.009646,0.573242,0.238525,-0.302002,-1.048084,-7.13117,6.518092,-0.086493,0.181516,0.052625,0.304932,0.328613,-0.517334,0.942383,-6.643995,7.197124,-0.069389,-0.046204,0.01582,-0.289551,0.432861,-0.352539
1.926321,-7.497682,6.188695,0.041058,0.002695,0.005825,-0.354736,0.309082,0.126709,-0.049672,8.315506,5.082982,0.018707,0.008426,-0.001273,0.274902,0.394531,0.472656,-1.533002,-7.049415,6.669126,-0.02806,-0.068839,-0.004595,0.584717,0.229736,-0.304199,-1.349479,-7.406068,6.58928,-0.041742,0.20986,0.049873,0.321777,0.322021,-0.517578,1.021575,-6.802262,7.098192,-0.058348,-0.040146,0.013727,-0.281494,0.421875,-0.35791
1.78495,-7.191352,6.119675,-0.02383,0.005933,0.007619,-0.364258,0.312988,0.12793,-0.109173,8.466475,5.197188,-0.041806,0.008022,-0.003408,0.270996,0.398926,0.469482,-1.55386,-6.947308,6.588347,-0.011102,-0.040836,-0.015529,0.574707,0.234863,-0.303467,-1.575636,-7.21966,6.632352,0.008949,0.114052,0.008606,0.315186,0.323486,-0.514648,0.981439,-6.76081,6.92957,0.041626,0.051558,-0.013252,-0.286133,0.42627,-0.357666
1.947027,-7.72062,6.05938,-0.090389,-0.015349,-0.011285,-0.351074,0.309082,0.124023,-0.021627,8.136876,5.267018,-0.086009,-0.012613,0.0168,0.264404,0.40625,0.480957,-1.448354,-7.112158,6.491153,-0.096115,-0.023443,0.00388,0.586914,0.226562,-0.309326,-1.487639,-7.37986,6.449283,-0.098387,-0.01446,0.03206,0.326172,0.321533,-0.520752,0.853442,-6.671748,7.135854,0.037605,0.053667,-0.016088,-0.274902,0.416016,-0.362305
1.921814,-7.541214,6.101377,0.148372,0.023333,0.004147,-0.360352,0.312988,0.121582,0.018915,8.278759,5.025641,0.11597,0.028824,-0.005559,0.26123,0.402344,0.474854,-1.381426,-7.316096,6.491539,0.058097,0.047626,0.005997,0.578369,0.233887,-0.310791,-1.418752,-7.380612,6.405392,0.140032,-0.071775,-0.031478,0.315918,0.325439,-0.523682,0.878944,-6.681293,7.224341,-0.013726,-0.053314,-0.001337,-0.284668,0.422119,-0.366211
1.842497,-6.956522,6.269817,-0.03104,-0.011952,0.00287,-0.360352,0.315186,0.128906,-0.131809,8.571445,5.223711,-0.023044,-0.000801,0.012275,0.267334,0.400879,0.477539,-1.576271,-6.787683,6.669242,0.135863,0.086992,-0.006426,0.579102,0.235107,-0.301025,-1.345875,-6.745699,6.618069,0.032649,-0.127873,-0.02418,0.312988,0.325195,-0.516846,1.037489,-6.718252,6.982125,-0.014447,-0.040383,0.010269,-0.282471,0.427979,-0.35498
1.966444,-7.890769,6.014067,-0.115805,0.007045,-0.017345,-0.358887,0.308594,0.119873,0.047604,8.183905,5.18323,-0.070893,-0.006311,0.008194,0.268311,0.39917,0.4646,-1.611942,-6.885889,6.857679,-0.099806,0.060616,0.033047,0.583252,0.227539,-0.313965,-1.191918,-7.492074,6.625741,-0.161935,-0.157389,0.060407,0.313232,0.32251,-0.527344,1.0054,-6.684034,7.14626,0.016509,0.033946,-0.020282,-0.282471,0.419922,-0.368896
1.856861,-7.423375,6.097469,0.202521,0.0065,0.01347,-0.360107,0.315186,0.122559,-0.078587,8.250163,5.039577,0.08356,0.033725,0.007563,0.265869,0.398926,0.469971,-1.65054,-7.33927,6.785421,-0.00999,0.050606,0.015407,0.582764,0.236084,-0.304443,-1.080985,-7.593608,6.540268,0.128834,-0.091954,-0.053437,0.311768,0.325195,-0.525635,0.908006,-6.826896,7.09779,-0.042707,0.011054,-0.002015,-0.283447,0.427002,-0.361816
1.88161,-6.930565,6.360806,-0.086553,-0.004161,-0.006933,-0.357422,0.322266,0.123779,-0.083265,8.562951,5.181647,0.012778,-0.011081,-0.001081,0.267822,0.406738,0.471436,-1.722906,-6.976481,6.871319,0.123056,0.010151,-0.028559,0.585938,0.241699,-0.305664,-1.029916,-6.942646,6.64609,0.058599,-6.5e-05,-0.005991,0.314697,0.331299,-0.525146,0.90199,-6.722167,6.969942,0.128671,-0.008022,0.007354,-0.279785,0.432617,-0.36377
1.964355,-7.908176,5.927692,-0.096983,-0.002804,-0.007167,-0.358398,0.310547,0.125977,0.072299,8.343233,5.149068,-0.109134,0.005382,0.011879,0.263916,0.395508,0.481201,-1.572067,-6.681554,6.891025,-0.035088,-0.047891,-0.00523,0.58252,0.231934,-0.30249,-1.034458,-7.096441,6.647941,-0.087155,0.061665,0.035202,0.316895,0.322998,-0.522949,1.024551,-6.438074,7.330167,-0.007167,0.010307,-0.061077,-0.280273,0.420898,-0.362549
1.887157,-7.303867,6.221022,0.169342,0.009719,0.020155,-0.366455,0.313232,0.124023,-0.081916,8.117312,5.06322,0.009061,0.016162,-0.000444,0.269287,0.391846,0.476807,-1.562079,-7.104025,6.695368,-0.145913,-0.033368,0.017377,0.575439,0.229248,-0.304443,-1.130063,-7.347036,6.424632,-0.062565,0.134724,0.0441,0.308105,0.321777,-0.520752,0.936147,-6.797922,7.07009,-0.171389,-0.010404,0.08259,-0.285889,0.424072,-0.359863
1.851052,-7.102816,6.222412,-0.130744,-0.00328,-0.007952,-0.363037,0.312988,0.127686,-0.066727,8.505598,5.20898,0.046042,-0.00116,-0.00829,0.267822,0.400391,0.472656,-1.6435,-7.311977,6.634022,0.010269,-0.048845,-0.014465,0.578369,0.23291,-0.299316,-1.396757,-7.353528,6.581039,0.0146,0.164572,0.021972,0.314941,0.325928,-0.515625,0.859347,-6.882229,6.943737,0.070282,-0.021931,-0.027758,-0.283447,0.425781,-0.356201
1.917141,-7.905586,5.962986,-0.027504,-0.000999,0.001044,-0.358643,0.315186,0.121338,-0.021897,8.354419,5.180397,-0.103796,0.000222,0.013867,0.275391,0.402588,0.468506,-1.442251,-6.905192,6.633609,0.062419,-0.043886,-0.02512,0.581299,0.23584,-0.30957,-1.494893,-7.175983,6.668736,-0.012655,0.055387,0.013597,0.31665,0.327637,-0.522461,1.100807,-6.596143,7.180841,0.03485,0.015955,-0.044988,-0.281982,0.427002,-0.366699
1.861785,-7.226657,6.206317,0.128939,0.006167,0.007391,-0.361328,0.312256,0.125244,-0.074883,8.176844,5.125699,0.01131,0.014582,-0.000873,0.266357,0.402832,0.472412,-1.526138,-6.920064,6.586842,-0.06907,0.019798,0.013801,0.579102,0.231689,-0.306152,-1.414249,-7.324552,6.440089,-0.039106,-0.020955,0.016602,0.317139,0.322754,-0.521729,0.860724,-6.714496,7.021614,-0.010979,0.041381,0.063496,-0.281738,0.42334,-0.361816
1.863836,-7.276502,6.158516,-0.112806,-0.003726,-0.010704,-0.35791,0.310303,0.125732,-0.060363,8.39528,5.163678,0.031223,0.003929,0.009258,0.263916,0.404785,0.470947,-1.517708,-7.193758,6.564469,-0.021785,0.017972,0.00521,0.582031,0.22876,-0.307617,-1.371571,-7.227229,6.451032,0.05943,-0.06435,-0.018276,0.318848,0.321777,-0.521973,0.838482,-6.691797,7.137198,0.018906,-0.006649,-0.07935,-0.28125,0.419434,-0.362061
1.965534,-7.788663,6.032206,0.021635,0.000282,0.000359,-0.36377,0.312988,0.117432,0.00521,8.367884,5.189769,-0.024893,0.00061,0.005485,0.273193,0.406982,0.46875,-1.482658,-7.111262,6.6596,0.066931,0.064908,0.005739,0.580078,0.231445,-0.313477,-1.249258,-7.127308,6.604808,-0.005259,-0.095914,0.005715,0.3125,0.324951,-0.530762,1.033662,-6.681141,7.175555,-0.041851,-0.060218,0.053155,-0.286133,0.421387,-0.369385
1.828141,-7.174097,6.181204,0.094633,0.013487,0.003616,-0.358398,0.309326,0.125732,-0.065359,8.276735,5.102958,-0.003553,0.018868,0.010641,0.261475,0.398193,0.468018,-1.698278,-6.922271,6.824542,0.047255,0.057869,0.007255,0.586914,0.228516,-0.305664,-1.243481,-7.341793,6.604609,-0.013922,-0.086603,0.009119,0.317871,0.321289,-0.520996,0.965073,-6.810056,6.952043,-0.01499,-0.00256,-0.005574,-0.279541,0.421631,-0.360107
1.920058,-7.333887,6.208467,-0.091066,-0.008733,-0.008897,-0.354004,0.313965,0.122314,-0.092135,8.35378,5.108229,0.027613,-0.000998,0.001673,0.275391,0.400146,0.468506,-1.633436,-6.92773,6.839739,-0.037247,0.01121,0.004073,0.588379,0.231934,-0.305176,-1.137782,-7.342269,6.587389,0.010781,-0.070993,-0.009218,0.318359,0.325928,-0.523926,0.989888,-6.720171,7.077278,0.078653,0.054276,-0.045896,-0.275879,0.42334,-0.361084
1.92457,-7.660841,6.041022,0.022539,0.005288,0.00256,-0.356934,0.315918,0.127441,0.028495,8.434549,5.181431,-0.027459,0.005696,0.005678,0.265625,0.395996,0.466309,-1.59708,-7.15656,6.824684,-0.032601,0.007296,0.004005,0.584229,0.236328,-0.302979,-1.0107,-7.212803,6.564294,0.02909,0.007012,0.001235,0.313477,0.327637,-0.522705,0.876242,-6.609993,7.19775,0.017849,0.006699,0.026701,-0.282959,0.431396,-0.356934
1.900404,-7.209642,6.217381,0.053322,0.002641,0.00432,-0.354492,0.310059,0.132568,-0.067112,8.272999,5.083785,-0.041702,0.014014,0.006435,0.27417,0.39917,0.476074,-1.635688,-6.994618,6.736577,0.047156,-0.026587,-0.015655,0.585938,0.227539,-0.298828,-1.1521,-7.055657,6.548089,-0.010702,0.079609,0.015931,0.319092,0.320068,-0.515137,0.924546,-6.691433,7.110464,-0.051661,-0.035044,-0.021981,-0.27832,0.421875,-0.352783
1.876952,-7.421121,6.134235,-0.087331,-0.000197,-0.002126,-0.362549,0.313232,0.130371,-0.035026,8.324488,5.149183,0.018344,-0.003512,-0.002485,0.266113,0.402588,0.463623,-1.561204,-6.894126,6.737086,-0.041446,-0.033764,-0.001206,0.578125,0.234375,-0.298584,-1.23432,-7.308935,6.538096,-0.090891,0.090582,0.053196,0.313721,0.325195,-0.515381,0.99698,-6.729825,7.078594,-0.030127,-0.017019,0.025322,-0.285156,0.424072,-0.357666
1.911695,-7.61937,6.068975,0.03336,0.002934,0.004458,-0.359131,0.30542,0.133057,-0.024718,8.407336,5.189284,-0.019505,0.009819,0.005324,0.271973,0.398438,0.469482,-1.576576,-7.112799,6.679333,-0.06023,-0.028357,0.005369,0.581543,0.224609,-0.293945,-1.338677,-7.390393,6.593186,0.028835,0.093462,0.005815,0.317139,0.319824,-0.509766,0.956974,-6.787287,7.051598,-0.003824,0.015251,-0.012116,-0.280762,0.415283,-0.35083
1.856794,-7.235919,6.200237,0.019883,0.001928,0.004061,-0.361572,0.316895,0.123291,-0.096531,8.315199,5.165909,-0.041831,0.005851,0.005023,0.266846,0.405273,0.473877,-1.522579,-7.120785,6.58019,0.006012,-0.015695,-0.012609,0.576904,0.238281,-0.306152,-1.432326,-7.164614,6.577995,-0.015292,0.028269,0.00975,0.313965,0.328369,-0.521729,0.930742,-6.731661,7.072508,0.040341,0.025241,-0.010915,-0.284912,0.429199,-0.362793
1.916632,-7.539732,6.104828,-0.060031,-0.002222,-0.005206,-0.356201,0.30957,0.133301,-0.020348,8.262562,5.132517,0.000435,0.00014,0.004364,0.267578,0.404053,0.467285,-1.49878,-7.03472,6.614167,0.019544,0.010651,-0.002087,0.581787,0.22998,-0.296631,-1.342565,-7.330124,6.491366,-0.018791,-0.036665,0.014977,0.317871,0.31958,-0.512207,0.898576,-6.645825,7.114437,0.026859,0.005474,-0.002504,-0.281006,0.422363,-0.351807
1.914775,-7.492105,6.115019,0.068637,0.005764,0.001886,-0.353271,0.320312,0.12793,-0.01405,8.392017,5.140082,0.030627,0.014184,0.003521,0.26001,0.404053,0.466309,-1.510372,-6.957891,6.641447,0.012474,0.030188,0.00401,0.589111,0.239746,-0.303467,-1.286784,-7.153476,6.523461,0.055301,-0.039431,-0.015994,0.322021,0.332275,-0.519531,0.9396,-6.662573,7.139161,-0.0362,-0.025177,-0.009503,-0.277832,0.432617,-0.358154
1.879616,-7.23657,6.197769,-0.017227,0.00051,0.000708,-0.363037,0.314697,0.126465,-0.085445,8.373434,5.168384,-0.036615,0.005101,0.008579,0.271973,0.405273,0.474609,-1.570725,-7.047556,6.713977,-0.023602,0.045201,0.01412,0.578857,0.231689,-0.300049,-1.276325,-7.205296,6.610925,-0.04678,-0.063412,0.024224,0.313232,0.325684,-0.516846,0.965637,-6.774169,7.011111,-0.025874,-0.021389,0.018562,-0.287109,0.425049,-0.355713
1.897679,-7.608881,6.087597,-0.030067,0.002948,-0.005365,-0.368652,0.307373,0.130371,-0.030899,8.270523,5.106757,-0.003036,0.003944,0.006942,0.261719,0.400146,0.466309,-1.63585,-7.11477,6.778789,0.022965,0.024791,-0.000115,0.574219,0.227783,-0.299561,-1.202783,-7.400016,6.58555,0.000719,-0.061275,-0.001439,0.30542,0.319824,-0.514893,0.94953,-6.755658,7.081568,0.031008,0.013862,-0.021913,-0.291016,0.420166,-0.354248
1.913435,-7.371649,6.1638,0.066892,0.000969,0.003679,-0.359131,0.306641,0.124512,-0.050315,8.36632,5.147498,0.020959,0.010594,0.003969,0.260254,0.405518,0.477539,-1.573805,-6.965471,6.786458,0.021373,0.008082,-0.006572,0.580322,0.229736,-0.304443,-1.125454,-7.275928,6.571615,0.028883,-0.021724,-0.00522,0.311768,0.319092,-0.520752,0.953833,-6.69813,7.123293,0.024611,0.016767,-0.004818,-0.284912,0.419434,-0.362305
1.891945,-7.320992,6.200906,-0.04664,0.001231,-0.002192,-0.35791,0.317871,0.125488,-0.032046,8.380581,5.141766,-0.026174,0.001552,0.007131,0.265381,0.397461,0.470703,-1.620907,-6.984234,6.769262,-0.021569,-0.002667,0.000833,0.583984,0.236328,-0.300537,-1.149587,-7.139044,6.568745,0.007143,0.029004,0.008299,0.313965,0.330322,-0.520752,0.90134,-6.656321,7.115468,0.015804,0.002184,0.001623,-0.279297,0.431641,-0.359863
1.933764,-7.561712,6.085769,-0.005042,0.000757,0.001178,-0.357178,0.314453,0.121094,-0.02741,8.30887,5.137465,-0.02855,0.008045,0.003531,0.259766,0.39624,0.47168,-1.559551,-7.027358,6.729928,-0.0239,-0.025266,-0.002481,0.586426,0.236328,-0.312744,-1.187058,-7.163334,6.583264,-0.042985,0.04882,0.025082,0.319092,0.323975,-0.525879,0.965322,-6.671559,7.142952,-0.03735,-0.015202,-0.01417,-0.277832,0.424805,-0.36499
1.863859,-7.357379,6.159097,0.027669,0.00331,0.005675,-0.356934,0.310303,0.127686,-0.072076,8.293753,5.165144,0.000858,0.006541,0.003023,0.27124,0.400635,0.467041,-1.586236,-7.081581,6.706974,-0.019907,-0.007602,0.001415,0.584961,0.229248,-0.306641,-1.264569,-7.368765,6.531992,-0.04128,0.065035,0.030322,0.317627,0.321289,-0.52002,0.93021,-6.769753,7.04455,-0.040344,-0.012396,0.026528,-0.278809,0.419678,-0.360107
1.899126,-7.413461,6.13841,-0.033815,-6.4e-05,-0.00397,-0.35791,0.312012,0.123535,-0.037908,8.368095,5.147693,-0.005467,0.002078,0.002597,0.260254,0.404053,0.467041,-1.579219,-7.050087,6.664206,0.005482,-0.019406,-0.006998,0.584229,0.232178,-0.306885,-1.367288,-7.299466,6.580748,0.026601,0.044853,0.001779,0.318359,0.323486,-0.523438,0.957906,-6.747969,7.061881,0.040076,0.009795,-0.02775,-0.281494,0.425293,-0.361572
1.884031,-7.498075,6.121589,0.013468,0.002689,0.004167,-0.360352,0.3125,0.128906,-0.048207,8.347138,5.152442,-0.024008,0.008715,0.006125,0.264893,0.400391,0.463379,-1.48883,-6.998725,6.661495,-0.007426,-0.000478,-0.003483,0.583008,0.232422,-0.30249,-1.328284,-7.186576,6.562034,-0.007497,-0.007228,0.00698,0.316162,0.325928,-0.517334,0.957899,-6.664917,7.146025,0.015706,0.015507,-0.006848,-0.282227,0.42334,-0.356445
1.896581,-7.366662,6.147772,0.00623,0.000752,-0.002414,-0.358154,0.318115,0.121094,-0.041121,8.294213,5.133016,-0.010083,0.003887,0.005141,0.268066,0.405029,0.470703,-1.583725,-7.070785,6.640286,-0.012311,0.022688,0.007585,0.582031,0.237061,-0.311279,-1.292076,-7.24347,6.482713,-0.009057,-0.025288,0.010318,0.31958,0.327637,-0.525635,0.892731,-6.681406,7.070929,-0.004577,0.002764,0.011066,-0.279297,0.428467,-0.365723
1.898933,-7.45008,6.115805,-0.010818,0.002124,-0.00033,-0.362305,0.313477,0.123779,-0.011923,8.333981,5.140854,0.010479,0.008569,0.004924,0.267822,0.397461,0.473145,-1.527404,-7.071709,6.687985,0.011844,0.011425,-0.001054,0.580322,0.235352,-0.309082,-1.258869,-7.263335,6.541515,-0.001715,-0.02742,0.006057,0.31543,0.326416,-0.524902,0.926108,-6.714652,7.125487,-0.016612,-0.018228,-0.022318,-0.283447,0.427002,-0.362061
1.903159,-7.441174,6.115548,0.016121,0.004126,0.00046,-0.361328,0.312744,0.119873,-0.04024,8.380769,5.15387,-0.009241,0.005361,0.002112,0.266846,0.402588,0.4729,-1.579546,-7.016888,6.741345,0.010304,0.033253,0.006696,0.582031,0.234375,-0.30957,-1.231473,-7.274716,6.600739,0.004663,-0.026503,0.006984,0.314209,0.32373,-0.526855,0.972815,-6.746416,7.046942,-0.011718,-0.017893,0.022858,-0.285156,0.423584,-0.36499
1.88017,-7.380021,6.139454,0.001648,0.000792,-0.001089,-0.361572,0.317383,0.131836,-0.048319,8.331439,5.126626,-0.013568,0.00744,0.010488,0.273438,0.404541,0.475098,-1.644697,-7.012067,6.756355,0.001772,0.005946,-0.002043,0.579834,0.236084,-0.300049,-1.23648,-7.242902,6.600338,0.000591,-0.023513,0.001566,0.316162,0.331299,-0.518311,0.945225,-6.741417,7.065491,0.030336,0.020037,-0.022757,-0.28418,0.427734,-0.355957
1.934001,-7.455524,6.13719,-0.011273,0.000694,-0.001113,-0.357422,0.31543,0.130371,-0.044183,8.319342,5.145157,-0.010385,0.003367,0.002077,0.268066,0.400146,0.472168,-1.561028,-7.025921,6.737819,-0.021232,-0.002506,-0.000615,0.58374,0.237549,-0.300049,-1.176158,-7.276839,6.54338,-0.01604,-0.006602,0.013434,0.316895,0.327881,-0.516846,0.934556,-6.67836,7.143317,0.014534,0.017758,-0.008372,-0.278809,0.425293,-0.356445
1.891112,-7.455391,6.127588,0.010623,0.003453,0.000855,-0.357666,0.311523,0.125488,-0.017163,8.357431,5.130651,-0.002754,0.006202,0.007022,0.270996,0.402832,0.470947,-1.599714,-7.067935,6.714231,0.002893,0.001442,0.000848,0.58374,0.232666,-0.306885,-1.202381,-7.229617,6.553968,0.021769,0.037102,0.003474,0.317383,0.32251,-0.520508,0.914541,-6.686749,7.119149,-0.012313,-0.017914,0.013752,-0.281006,0.423828,-0.361572
1.8971,-7.367676,6.140319,-0.005134,0.001285,0.001589,-0.362549,0.310303,0.131836,-0.0573,8.354773,5.152976,-0.020511,0.007957,0.001007,0.260986,0.399414,0.4729,-1.580699,-6.985491,6.710517,0.003839,-0.010773,-0.005424,0.577393,0.231689,-0.296631,-1.26905,-7.162184,6.572593,-0.02925,0.030054,0.019497,0.312012,0.321289,-0.515869,0.968571,-6.715544,7.068509,-0.019997,-0.014086,-0.016688,-0.286377,0.421143,-0.352539
1.896919,-7.495268,6.115848,-0.018419,-0.000771,0.000369,-0.363525,0.320557,0.127441,-0.040205,8.304159,5.168626,-0.014766,0.001616,0.006969,0.259766,0.412598,0.469727,-1.565991,-7.031515,6.711844,-0.033753,-0.000204,0.005562,0.57666,0.243896,-0.303467,-1.283556,-7.351154,6.570646,-0.032213,0.01841,0.023153,0.309814,0.334961,-0.520264,0.954812,-6.736038,7.069391,-0.00018,0.009435,0.011677,-0.287598,0.434814,-0.359863
1.879926,-7.436923,6.151193,0.028583,0.00471,0.001908,-0.35791,0.3125,0.128418,-0.047054,8.364767,5.140442,0.003265,0.011881,0.001428,0.264404,0.401855,0.471924,-1.564084,-7.098662,6.667828,-0.000639,-0.001479,-0.004966,0.583008,0.234131,-0.304443,-1.318864,-7.279439,6.529891,0.024601,0.010368,-0.003501,0.317139,0.323975,-0.522461,0.904053,-6.728433,7.096402,0.012605,0.009396,-0.015601,-0.281738,0.423828,-0.362061
1.895554,-7.376474,6.162607,-0.01722,-0.003784,-0.000569,-0.354004,0.310547,0.118652,-0.068763,8.342505,5.169753,-0.027573,0.001386,0.007662,0.262695,0.398926,0.473633,-1.542404,-7.009251,6.678817,0.008389,0.010165,-0.001692,0.586426,0.232178,-0.312256,-1.270347,-7.19721,6.541079,-0.005887,-0.015202,0.011242,0.320557,0.32251,-0.528564,0.951567,-6.683368,7.08147,0.013702,-0.001413,-0.001919,-0.277832,0.422852,-0.368652
1.899394,-7.520639,6.102359,-0.001109,0.005094,-0.001973,-0.359375,0.306396,0.129883,-0.010884,8.310483,5.127715,0.003355,0.005921,0.002229,0.268311,0.402344,0.481934,-1.592112,-7.012599,6.732391,0.000884,0.009659,0.001756,0.58252,0.224854,-0.299805,-1.24008,-7.234312,6.558575,-0.000916,-0.009103,0.00833,0.317871,0.319336,-0.516846,0.924068,-6.687034,7.110418,-0.004749,-0.004229,-0.001907,-0.280762,0.419189,-0.357422
1.897797,-7.365419,6.171605,0.024466,-0.000491,0.003677,-0.360107,0.317383,0.122559,-0.05962,8.365166,5.162869,-0.005533,0.009079,0.005017,0.260986,0.402832,0.4729,-1.546663,-7.030807,6.713188,-0.015127,0.010215,0.003038,0.581299,0.236816,-0.305908,-1.251035,-7.256538,6.563217,-0.022667,-0.006678,0.014864,0.314941,0.326904,-0.52417,0.946993,-6.725825,7.075901,-0.025938,-0.009116,-0.004843,-0.283447,0.426025,-0.36377
1.900999,-7.427516,6.135124,-0.027771,0.00366,-0.003366,-0.355225,0.310547,0.128662,-0.035526,8.345042,5.15947,-0.016423,0.003708,0.004737,0.267334,0.401855,0.469727,-1.61893,-7.063661,6.731543,-0.003588,0.012041,0.002164,0.585693,0.231201,-0.30249,-1.258979,-7.314229,6.562581,0.004638,-0.000442,0.007683,0.321289,0.320068,-0.518311,0.945162,-6.73989,7.074165,0.020275,0.002007,0.005787,-0.277588,0.422852,-0.356445
1.889369,-7.492192,6.105244,0.016955,-0.001305,0.001467,-0.356445,0.311523,0.126709,-0.057785,8.327353,5.120662,-0.008992,0.008862,0.004763,0.268555,0.402832,0.471436,-1.568015,-7.033123,6.742638,0.008375,-0.007591,-0.006076,0.584473,0.233398,-0.304932,-1.225278,-7.205623,6.57789,0.006645,0.001324,0.002718,0.318359,0.323975,-0.519287,0.943445,-6.690296,7.10905,0.008637,0.009409,-0.022898,-0.27832,0.422852,-0.359863
1.918506,-7.365033,6.17718,0.003292,0.003501,2.5e-05,-0.36084,0.318115,0.126953,-0.037369,8.341802,5.139724,-0.004615,0.004339,0.005564,0.265625,0.406006,0.460938,-1.549961,-7.003788,6.717449,-0.01218,0.00661,0.001436,0.578125,0.239258,-0.305908,-1.241759,-7.249117,6.521316,-0.014961,0.008726,0.01761,0.312988,0.32959,-0.52124,0.922122,-6.703636,7.073091,0.000368,0.0017,0.014524,-0.282959,0.432861,-0.36084
1.905614,-7.455618,6.111623,-0.01787,0.000363,-0.000829,-0.349854,0.312988,0.126221,-0.044365,8.345076,5.146233,-0.014073,0.007502,0.005456,0.266846,0.397705,0.475342,-1.581488,-7.022679,6.680709,-0.007898,-0.001401,-0.001471,0.593018,0.235107,-0.305176,-1.265131,-7.238843,6.538472,0.001731,0.010364,0.005345,0.32666,0.324463,-0.518066,0.926248,-6.695018,7.121216,-0.007523,-0.008745,-0.014968,-0.271729,0.425293,-0.358154
1.881811,-7.453549,6.116012,0.016305,0.002612,0.002777,-0.362061,0.31665,0.123291,-0.045709,8.314519,5.154045,-0.012848,0.005283,0.003315,0.255615,0.393311,0.469727,-1.544442,-7.052262,6.695028,-0.00729,0.010196,0.001466,0.579102,0.235352,-0.306152,-1.276257,-7.255169,6.578006,-0.018796,0.000921,0.016974,0.311768,0.328369,-0.521729,0.957882,-6.747099,7.069855,-0.015422,-0.005182,0.004919,-0.285645,0.428467,-0.359375
1.886347,-7.3949,6.156554,-0.001833,0.00095,-0.002794,-0.361816,0.310303,0.123779,-0.032882,8.344309,5.12506,0.001525,0.005101,0.004002,0.271484,0.404785,0.459473,-1.607622,-7.048585,6.709296,0.006995,0.009012,-0.000136,0.582031,0.227783,-0.308105,-1.268569,-7.287664,6.564559,0.004054,-0.003011,0.005418,0.314453,0.320312,-0.524414,0.932623,-6.730067,7.088154,0.017421,0.005525,-0.002481,-0.286621,0.419189,-0.363037
1.902922,-7.453038,6.121631,-0.005223,-0.000335,0.001364,-0.355957,0.314697,0.12793,-0.061483,8.367572,5.160166,-0.011593,0.006631,0.007426,0.259521,0.401123,0.467285,-1.54645,-7.000017,6.715026,-0.006281,-0.000596,-0.001771,0.585449,0.232178,-0.301514,-1.243709,-7.241549,6.558989,-0.004255,-0.010746,0.008364,0.318359,0.326172,-0.517334,0.952366,-6.691833,7.125116,0.006199,0.00589,-0.019018,-0.275879,0.426025,-0.35791
1.89707,-7.438077,6.127239,0.005678,0.001765,-0.000581,-0.362549,0.30127,0.133301,-0.021327,8.326779,5.140463,-0.016372,0.005265,0.002403,0.264648,0.402344,0.466309,-1.580009,-7.051703,6.706871,-0.011004,0.011115,0.004114,0.578369,0.221436,-0.297607,-1.22231,-7.235651,6.554005,0.00333,0.008458,0.008039,0.315186,0.315186,-0.513428,0.921348,-6.697174,7.093824,-9.5e-05,-0.000938,0.015603,-0.282471,0.412598,-0.354736
1.896311,-7.401303,6.150303,0.001462,0.001616,0.001301,-0.35376,0.317627,0.13208,-0.050143,8.325968,5.137299,-0.004514,0.009713,0.006723,0.262451,0.393799,0.4729,-1.586099,-7.030688,6.697445,0.003045,-0.004018,-0.003102,0.586182,0.238281,-0.297363,-1.280801,-7.204141,6.567646,-0.012282,0.009945,0.011028,0.320557,0.330078,-0.514648,0.937855,-6.708827,7.103518,-0.010935,-0.004647,-0.018757,-0.277344,0.431396,-0.355713
1.878679,-7.450786,6.126376,-0.00779,0.000536,0.000589,-0.357422,0.307129,0.124268,-0.05808,8.346997,5.166736,-0.007768,0.002369,0.002561,0.266113,0.399902,0.46167,-1.551081,-7.043,6.711655,-0.011989,0.00878,0.003911,0.583008,0.22876,-0.306152,-1.268999,-7.309809,6.554382,-0.024083,0.003882,0.016413,0.317383,0.31958,-0.52002,0.949223,-6.743578,7.062845,-0.004269,-0.003363,0.009912,-0.279785,0.421875,-0.361572
1.908718,-7.442194,6.152006,0.009986,0.001158,-0.001306,-0.365479,0.318359,0.131104,-0.027224,8.35087,5.129439,-0.009014,0.008605,0.00753,0.270752,0.409668,0.463379,-1.607847,-7.040752,6.697941,-0.001034,0.0034,-0.001066,0.577148,0.238281,-0.299316,-1.260792,-7.260079,6.581376,0.019915,0.001252,0.001315,0.310303,0.328369,-0.515869,0.93145,-6.722639,7.109861,0.012804,0.004682,-0.009879,-0.287109,0.430664,-0.355957
1.896657,-7.379617,6.146351,-9.8e-05,0.002445,0.002614,-0.359619,0.312256,0.125244,-0.065411,8.343114,5.159293,-0.010789,0.006814,0.003947,0.267578,0.401367,0.471191,-1.562225,-7.03428,6.707642,-0.001982,0.005693,-0.000312,0.582275,0.233887,-0.305176,-1.264324,-7.200096,6.559688,-0.010822,-0.007623,0.011175,0.313965,0.323242,-0.520752,0.94111,-6.699947,7.092853,0.001675,0.002324,-0.009631,-0.284912,0.424072,-0.362793
1.896647,-7.461436,6.12314,-0.010445,1.8e-05,-0.001978,-0.356934,0.304688,0.125488,-0.035023,8.329883,5.159035,-0.01035,0.002922,0.005477,0.258789,0.399414,0.47168,-1.598906,-7.027749,6.713207,-0.002352,0.008047,0.002363,0.58667,0.230225,-0.30542,-1.231523,-7.262838,6.548996,-0.008531,0.002597,0.011945,0.319824,0.320068,-0.519287,0.905051,-6.70699,7.093781,0.00741,0.002503,0.008994,-0.275146,0.419434,-0.361328
1.909001,-7.425078,6.107735,0.013555,0.00216,0.003759,-0.355225,0.313232,0.124023,-0.039976,8.345188,5.136127,-0.000227,0.008618,0.003707,0.263184,0.396484,0.470215,-1.546405,-7.015158,6.723743,-0.008349,-0.001394,-0.000652,0.586182,0.233887,-0.305908,-1.254062,-7.240777,6.559142,-0.003659,0.006431,0.007529,0.320801,0.326172,-0.521729,0.952797,-6.71013,7.111786,-0.014761,-0.011338,-0.019667,-0.275635,0.425049,-0.364014
1.87508,-7.403341,6.136823,-0.009076,0.002161,-0.000266,-0.357422,0.3125,0.128174,-0.047151,8.348062,5.143283,-0.024667,0.002919,0.00542,0.268799,0.396484,0.473145,-1.580106,-7.062207,6.694085,-0.010309,0.011688,0.003346,0.583984,0.231445,-0.301758,-1.260027,-7.25805,6.544205,-0.007358,0.006265,0.013797,0.316895,0.324951,-0.512695,0.952375,-6.74088,7.039044,-0.008351,-0.003172,0.017159,-0.280762,0.426758,-0.358154
1.9147,-7.459362,6.137645,0.00293,0.001544,-0.001168,-0.358643,0.318359,0.130615,-0.044636,8.317854,5.11441,2.5e-05,0.007835,0.006314,0.265869,0.39917,0.4729,-1.58913,-7.040457,6.698731,0.009337,-0.002729,-0.004646,0.582275,0.239746,-0.298828,-1.276108,-7.254349,6.563308,0.005557,0.004753,0.004954,0.316406,0.329346,-0.513672,0.927893,-6.726878,7.106256,0.024379,0.01203,-0.019927,-0.282471,0.428711,-0.353271
1.90277,-7.396917,6.131795,0.004944,0.001686,0.001438,-0.352539,0.314209,0.130859,-0.057977,8.378289,5.15908,-0.010022,0.003956,0.002986,0.265625,0.399902,0.476318,-1.541317,-7.005594,6.701515,-0.011757,0.005666,0.001809,0.589844,0.232422,-0.296631,-1.259375,-7.254034,6.550042,-0.018109,-0.007876,0.01289,0.321045,0.324707,-0.512939,0.947829,-6.678922,7.107793,-0.004463,0.002585,-0.003472,-0.275879,0.425049,-0.354004
1.901107,-7.463263,6.136228,-0.008709,0.0022,-0.001276,-0.366699,0.312012,0.130615,-0.035736,8.322934,5.145402,-0.017897,0.007752,0.007463,0.263428,0.397705,0.470947,-1.605584,-7.072454,6.707472,-0.010692,0.010345,0.003868,0.577637,0.235107,-0.299316,-1.234967,-7.285248,6.538001,0.002132,0.00622,0.008877,0.310059,0.324951,-0.515625,0.911854,-6.712444,7.073221,0.000203,-0.004129,0.009904,-0.286133,0.424805,-0.355713
1.896437,-7.426714,6.137506,0.012553,5.6e-05,0.001038,-0.356201,0.3125,0.126221,-0.047014,8.331002,5.119939,0.000731,0.00692,0.001739,0.272217,0.398438,0.470215,-1.564558,-7.027845,6.694366,0.006487,-0.002996,-0.004572,0.587158,0.232666,-0.303711,-1.26215,-7.225639,6.569036,0.001611,0.003455,0.00809,0.320312,0.323486,-0.520264,0.953046,-6.695732,7.121247,-0.006712,-0.006213,-0.023469,-0.2771,0.422852,-0.359863
1.90447,-7.385766,6.141077,-0.005413,0.003095,0.001251,-0.366211,0.314209,0.121826,-0.04457,8.371333,5.147415,-0.008042,0.005417,0.005748,0.267334,0.398682,0.47876,-1.573507,-7.01054,6.72064,-0.003799,0.012624,0.003052,0.574219,0.23291,-0.306152,-1.258089,-7.233521,6.568958,-0.010742,-0.00124,0.013913,0.308105,0.326172,-0.520996,0.952667,-6.727029,7.073935,0.001594,-0.000376,0.018871,-0.289062,0.425537,-0.360596
1.876296,-7.474095,6.122934,-0.00843,0.00039,-0.000941,-0.357178,0.313965,0.125977,-0.046091,8.334691,5.139473,-0.020445,0.004552,0.004768,0.266846,0.394287,0.465576,-1.583379,-7.042496,6.702988,-0.016303,-0.001206,0.000291,0.585693,0.231445,-0.301758,-1.265063,-7.280655,6.532636,-0.014277,0.005269,0.010627,0.317627,0.326416,-0.518799,0.92237,-6.711283,7.12485,0.007301,0.006985,-0.020692,-0.280273,0.424316,-0.359375
1.900656,-7.405132,6.15495,0.01997,0.001626,0.002095,-0.364258,0.309082,0.126709,-0.046284,8.32721,5.126111,-0.003229,0.007294,0.005235,0.268066,0.396973,0.473877,-1.542885,-7.072317,6.70394,0.00094,0.004613,-0.000685,0.577148,0.231689,-0.305908,-1.277551,-7.260045,6.565839,0.015631,0.001906,0.005209,0.311768,0.320557,-0.52124,0.950048,-6.711189,7.085151,0.004172,0.001844,0.001514,-0.285645,0.419922,-0.361328
1.896358,-7.405099,6.133603,-0.019149,-0.000386,-0.000754,-0.354248,0.318115,0.125244,-0.035649,8.368957,5.164971,-0.005001,0.003756,0.004617,0.262939,0.397705,0.477051,-1.587271,-6.985939,6.714914,0.008532,0.00747,-0.00227,0.58667,0.239258,-0.302246,-1.261963,-7.182216,6.559092,-0.00992,0.000989,0.008328,0.319092,0.33252,-0.520996,0.924377,-6.691618,7.079994,0.002632,-0.003594,0.001151,-0.276611,0.430908,-0.362549
1.912321,-7.508926,6.097708,0.000264,0.004859,0.000671,-0.365479,0.316895,0.125977,-0.037927,8.326311,5.141254,-0.02422,0.007847,0.004271,0.264404,0.404541,0.471924,-1.545759,-7.039432,6.688251,-0.022419,-0.000565,0.002185,0.577148,0.237793,-0.306885,-1.246158,-7.312158,6.53285,-0.027322,-0.001562,0.019516,0.307861,0.329834,-0.519287,0.952169,-6.712128,7.083976,-0.021392,-0.009097,-0.013861,-0.287109,0.431152,-0.360352
1.885486,-7.385549,6.158384,0.023178,0.001359,0.001264,-0.354248,0.307861,0.131104,-0.051752,8.316576,5.129006,0.002231,0.004949,0.005433,0.265137,0.396973,0.459717,-1.588609,-7.086139,6.698671,0.000945,0.011758,0.00151,0.58667,0.230469,-0.297852,-1.259786,-7.256597,6.543925,0.024589,0.009293,-0.000823,0.319824,0.320801,-0.513428,0.942221,-6.773987,7.064847,7e-06,-0.003582,0.01638,-0.279053,0.423096,-0.354492
1.897766,-7.39417,6.142707,-0.023734,0.002261,-0.001935,-0.360352,0.307617,0.125732,-0.028189,8.39564,5.152488,0.001566,0.008138,0.001498,0.265869,0.405762,0.477539,-1.587493,-7.004649,6.713003,0.010888,-0.000573,-0.004637,0.580566,0.227539,-0.306152,-1.289158,-7.195458,6.603457,-0.009958,0.000478,0.013805,0.315674,0.321045,-0.51709,0.934363,-6.697372,7.117855,0.023606,0.008438,-0.026379,-0.28125,0.418457,-0.357666
1.910896,-7.517468,6.12026,9.3e-05,-0.000527,-0.000411,-0.358887,0.309814,0.127197,-0.031055,8.335733,5.165801,-0.035859,0.004897,0.008312,0.268799,0.401367,0.471436,-1.552326,-7.012252,6.705998,-0.019397,0.005085,0.002501,0.584473,0.230957,-0.306152,-1.248145,-7.30879,6.537486,-0.028292,-0.003382,0.013831,0.31665,0.321777,-0.521484,0.944886,-6.694046,7.079228,-0.00767,0.005538,0.007516,-0.282227,0.420166,-0.358643
1.884058,-7.36155,6.163814,0.030316,0.004968,0.000418,-0.364502,0.310303,0.121338,-0.064767,8.287314,5.0968,0.008259,0.010373,0.002656,0.261963,0.404785,0.471191,-1.599693,-7.077756,6.694287,-0.003173,0.003948,0.000361,0.580322,0.23291,-0.310059,-1.266185,-7.287118,6.507119,0.023166,0.008619,0.003728,0.314941,0.323242,-0.523682,0.901533,-6.708063,7.074515,0.001372,-0.002213,-0.000777,-0.281982,0.424561,-0.364746
1.891225,-7.391638,6.131117,-0.033162,-0.002287,-0.00153,-0.362061,0.307373,0.121826,-0.051196,8.41652,5.180241,-0.005777,0.002339,0.005508,0.261963,0.405518,0.474854,-1.566613,-7.01523,6.708448,0.009513,0.002659,-0.004252,0.580322,0.226807,-0.307617,-1.27496,-7.143691,6.580811,-0.005052,0.002867,0.006709,0.312744,0.319336,-0.519531,0.957771,-6.699243,7.10999,-0.001331,-0.004758,-0.014497,-0.284424,0.419189,-0.364014
1.919387,-7.557835,6.101095,0.006407,0.00399,-0.001963,-0.360352,0.314209,0.124268,-0.011534,8.329348,5.14213,-0.026752,0.005686,0.004786,0.265869,0.403809,0.465332,-1.577971,-7.034351,6.712396,-0.018344,0.006069,0.002405,0.582764,0.234375,-0.306152,-1.263586,-7.301974,6.561444,-0.035506,-0.004556,0.023986,0.316895,0.325684,-0.521484,0.947099,-6.73301,7.1021,-0.011819,-0.00457,0.014398,-0.283447,0.426514,-0.361084
1.872864,-7.32234,6.153626,0.032885,0.001491,0.003696,-0.358398,0.309326,0.126953,-0.070971,8.334376,5.125884,0.001816,0.011626,0.004171,0.259521,0.403564,0.467285,-1.590799,-7.061178,6.687078,0.000487,0.004619,0.000141,0.585449,0.22998,-0.308838,-1.257195,-7.299323,6.525998,0.019202,0.00464,1.1e-05,0.316895,0.321777,-0.523193,0.92651,-6.74834,7.064215,-0.000347,0.002507,-0.017312,-0.280518,0.423096,-0.362793
1.902534,-7.408623,6.13806,-0.044251,-0.000498,-0.002839,-0.350586,0.318848,0.125244,-0.042338,8.356794,5.171004,-0.003528,0.000752,0.005077,0.266846,0.403076,0.466064,-1.582094,-7.018663,6.710137,0.00449,0.005459,-0.001524,0.591309,0.239746,-0.302734,-1.273178,-7.176882,6.579104,0.002594,0.003093,0.009748,0.327393,0.329834,-0.518555,0.940821,-6.699382,7.074659,0.029837,0.00781,0.000956,-0.270508,0.430664,-0.361084
1.914994,-7.544996,6.097639,0.017311,0.003026,0.001736,-0.365479,0.317871,0.127686,-0.017174,8.359449,5.147086,-0.019954,0.010775,0.004076,0.268799,0.404541,0.468262,-1.57957,-7.024076,6.717337,-0.009933,0.002425,0.0006,0.578369,0.237305,-0.302734,-1.251246,-7.260826,6.574198,-0.027365,-0.004235,0.012657,0.311768,0.330811,-0.517578,0.92476,-6.671699,7.135085,-0.010753,-0.001766,-0.009591,-0.288574,0.429688,-0.358643
1.886812,-7.31608,6.186542,0.020974,0.001811,0.002618,-0.354736,0.314453,0.125488,-0.063068,8.292029,5.140052,-0.012266,0.006576,0.00662,0.266357,0.40332,0.467285,-1.583006,-7.061416,6.693736,-0.013424,0.007135,0.001215,0.585205,0.23291,-0.304443,-1.243191,-7.312327,6.504069,-0.004155,0.004884,0.010912,0.320557,0.325928,-0.520508,0.939624,-6.749399,7.072955,-0.023881,-0.00987,0.008082,-0.274902,0.42749,-0.360107
1.907863,-7.460081,6.110156,-0.034902,-0.002092,-0.00317,-0.362061,0.31543,0.133545,-0.045885,8.35785,5.145291,0.00949,0.003877,0.000465,0.262939,0.401123,0.466064,-1.607069,-7.069903,6.709293,0.00925,0.004836,-0.000947,0.578857,0.233887,-0.299316,-1.282199,-7.231148,6.583197,0.02044,0.011484,0.003248,0.313477,0.326416,-0.515869,0.932049,-6.735576,7.090147,0.021986,-0.000855,-0.006593,-0.282959,0.425293,-0.356445
1.910872,-7.486599,6.095127,0.022991,0.002184,0.003658,-0.364014,0.312256,0.117188,-0.027024,8.377373,5.156728,-0.024325,0.006034,0.009321,0.256836,0.397949,0.466553,-1.541054,-6.997303,6.716815,-0.000936,0.002985,-0.002559,0.580322,0.233154,-0.312256,-1.250649,-7.216951,6.57855,-0.026654,-0.010338,0.015416,0.30957,0.322266,-0.529053,0.962904,-6.698157,7.11032,-0.002958,0.005563,-0.013223,-0.285889,0.424561,-0.368896
1.882527,-7.352334,6.142986,0.003658,0.003538,-0.000985,-0.364746,0.316406,0.135986,-0.052217,8.301544,5.128642,-0.014367,0.009793,0.00261,0.258545,0.395996,0.470215,-1.605628,-7.071184,6.694257,-0.02052,0.009132,0.005058,0.580811,0.23877,-0.296875,-1.242942,-7.333289,6.508981,-0.016255,-0.001568,0.014489,0.312988,0.331787,-0.51123,0.93341,-6.7257,7.08068,0.004057,0.003851,0.012574,-0.28418,0.428711,-0.352539
1.885615,-7.455403,6.145939,-0.014292,-9e-05,-0.001111,-0.355713,0.306885,0.131592,-0.045535,8.347801,5.136179,0.003225,0.002782,0.00689,0.263428,0.401611,0.473877,-1.592508,-7.058727,6.696034,0.008686,-0.002126,-0.002945,0.587646,0.22583,-0.299316,-1.274666,-7.224904,6.553276,0.029617,0.013401,-0.00091,0.318359,0.317871,-0.515381,0.914072,-6.707958,7.091675,0.00762,0.000849,-0.02185,-0.276611,0.417236,-0.35498
1.91008,-7.43662,6.136531,0.010532,0.00183,0.000637,-0.353271,0.319092,0.125244,-0.007043,8.377142,5.14862,-0.00784,0.006849,0.00195,0.273193,0.400391,0.467773,-1.557041,-7.012546,6.711457,0.002622,0.007522,-0.00124,0.588623,0.240723,-0.304199,-1.278348,-7.182929,6.594302,-0.022204,-0.001442,0.015652,0.322754,0.330566,-0.520996,0.945354,-6.707293,7.111125,-0.005328,-0.009672,0.008844,-0.273682,0.431396,-0.360596
1.890576,-7.393116,6.123487,0.000542,0.003049,0.001005,-0.355469,0.314209,0.134033,-0.069941,8.31806,5.12696,-0.026204,0.009956,0.007709,0.268555,0.401855,0.466309,-1.592214,-7.030722,6.688269,-0.017922,0.005126,0.002772,0.587402,0.236816,-0.299316,-1.27584,-7.316164,6.523878,-0.028082,-0.002976,0.015612,0.320312,0.328613,-0.515137,0.933476,-6.737381,7.055055,-0.013886,-0.00333,-0.003763,-0.276367,0.42749,-0.354736
1.902413,-7.442408,6.147659,-0.003481,-7e-05,-0.000138,-0.353516,0.316162,0.12915,-0.055311,8.301785,5.104351,0.003356,0.001627,0.002197,0.272705,0.39624,0.470215,-1.568237,-7.057566,6.685117,-0.002263,0.000484,-0.001322,0.589355,0.235596,-0.302734,-1.262554,-7.291164,6.524257,0.023078,0.005608,0.000883,0.322266,0.328125,-0.517822,0.942628,-6.725863,7.072074,0.015624,0.007047,-0.010705,-0.274658,0.428955,-0.359375
1.904271,-7.44457,6.138434,0.00329,0.003499,2.5e-05,-0.364502,0.317383,0.129883,-0.023212,8.388146,5.155149,0.002126,0.008116,0.004402,0.263184,0.400879,0.470947,-1.569184,-7.0216,6.720321,0.007835,0.006894,-0.001484,0.57959,0.23999,-0.299072,-1.264087,-7.15455,6.599958,0.005211,0.000612,0.007274,0.313232,0.328857,-0.516357,0.915446,-6.695233,7.125329,0.007401,-0.001053,-5.6e-05,-0.284424,0.428223,-0.358398
1.892986,-7.450721,6.127529,-0.000553,0.001244,0.000262,-0.356445,0.313232,0.124023,-0.058915,8.333989,5.130628,-0.033237,0.008452,0.006046,0.262695,0.410156,0.477295,-1.583365,-7.01893,6.702384,-0.013918,0.005966,0.001108,0.585693,0.234131,-0.308105,-1.269469,-7.255424,6.529166,-0.042676,-0.002733,0.020384,0.317871,0.325195,-0.523438,0.944761,-6.716695,7.061831,-0.017549,-0.004772,-0.004227,-0.277588,0.427246,-0.364502
1.898636,-7.420635,6.122382,0.004303,0.001539,-8.9e-05,-0.363037,0.309814,0.128662,-0.037962,8.28951,5.125295,-0.001592,0.002664,0.004424,0.267334,0.397461,0.471436,-1.580383,-7.070767,6.715926,-0.007328,0.002108,0.000475,0.578857,0.228271,-0.303223,-1.264033,-7.353037,6.515509,0.013686,0.007903,0.007317,0.313965,0.322754,-0.518066,0.911863,-6.721706,7.097571,0.009827,0.000651,-0.000457,-0.284912,0.421631,-0.357666
1.901257,-7.409948,6.130815,-0.004028,-0.000973,-0.000509,-0.355225,0.312256,0.126221,-0.052776,8.396228,5.163864,0.007116,0.008369,0.002637,0.272705,0.405029,0.477295,-1.578591,-7.025752,6.694615,0.008043,0.006306,-0.002357,0.587646,0.232422,-0.307129,-1.266011,-7.1637,6.611062,0.017077,0.002533,0.000674,0.323242,0.322266,-0.520508,0.943862,-6.704887,7.094912,-0.002218,-0.000442,-0.009558,-0.276123,0.423584,-0.359131
1.89618,-7.463926,6.130921,-0.005321,0.002568,0.000837,-0.364014,0.311279,0.129639,-0.053037,8.354556,5.163201,-0.030951,0.003885,0.005997,0.26416,0.397461,0.474854,-1.589368,-7.037233,6.727562,-0.009541,0.004001,0.002202,0.578369,0.231689,-0.302734,-1.26628,-7.258846,6.548884,-0.039494,-0.005326,0.021625,0.310547,0.322266,-0.516602,0.93526,-6.724048,7.08924,0.000333,-0.000741,0.004414,-0.286377,0.424072,-0.356689
1.887789,-7.414146,6.128985,0.014748,0.001977,-0.001242,-0.362061,0.314697,0.121094,-0.056535,8.294092,5.092261,-0.003903,0.008725,0.004268,0.260742,0.399902,0.473389,-1.587918,-7.05013,6.705776,-0.002295,0.003002,-8.9e-05,0.580811,0.234619,-0.308838,-1.248071,-7.307093,6.549437,0.012459,0.003735,0.002632,0.313721,0.325684,-0.525391,0.920492,-6.714975,7.102847,0.005054,0.002267,-0.011455,-0.282959,0.425049,-0.365479
1.894914,-7.394758,6.136829,-0.011638,0.000429,0.001455,-0.361328,0.304199,0.120361,-0.04674,8.35903,5.170301,0.002481,0.003387,0.002052,0.266357,0.394287,0.470947,-1.56792,-7.030782,6.709269,-0.007115,0.005208,0.001762,0.581543,0.226318,-0.306152,-1.270641,-7.19507,6.559919,0.000642,0.004994,0.010611,0.313965,0.315674,-0.524658,0.927483,-6.706828,7.083756,-0.000539,-0.001107,0.001368,-0.283936,0.417969,-0.368652
1.904242,-7.504658,6.111474,-0.003393,0.001779,-0.001484,-0.360596,0.309814,0.135986,-0.019869,8.356646,5.15393,-0.021188,0.007235,0.006305,0.266846,0.402832,0.474365,-1.588902,-7.035124,6.689518,-0.003285,0.004121,-0.000259,0.582275,0.231934,-0.296875,-1.268192,-7.26783,6.560129,-0.020354,0.000955,0.014547,0.314941,0.320801,-0.513184,0.919184,-6.728015,7.102049,0.000533,-0.001294,-0.002063,-0.284424,0.423096,-0.352783
1.883982,-7.388106,6.14365,0.021247,0.002376,0.002024,-0.362549,0.315674,0.126221,-0.066243,8.317884,5.117818,-0.009121,0.007772,0.003624,0.26709,0.405273,0.474365,-1.573481,-7.038921,6.692554,-0.002257,0.004173,0.00084,0.580078,0.237305,-0.305176,-1.276945,-7.278882,6.51614,-0.000534,0.000616,0.007406,0.311279,0.329834,-0.519531,0.940857,-6.737383,7.08001,-0.009007,-0.001632,-0.007676,-0.286621,0.427979,-0.360596
1.889472,-7.403086,6.138156,-0.021619,-3.9e-05,-0.00195,-0.357178,0.312744,0.126465,-0.026104,8.341591,5.138614,0.0022,0.002145,0.005183,0.271973,0.406982,0.4729,-1.579694,-7.027101,6.726142,-0.001066,0.005917,0.000177,0.583252,0.235352,-0.302002,-1.273675,-7.244514,6.558121,0.007811,0.002968,0.007383,0.317383,0.325195,-0.519287,0.921804,-6.709728,7.055814,0.020612,0.002541,0.002538,-0.282471,0.425537,-0.359375
1.89784,-7.48975,6.117169,0.003748,0.002553,0.001742,-0.36084,0.313965,0.133301,-0.049698,8.359356,5.145998,-0.018199,0.010049,0.004598,0.275391,0.40332,0.474854,-1.580489,-7.023198,6.703714,-0.010072,0.001663,0.001167,0.57959,0.233398,-0.297607,-1.246306,-7.217936,6.587341,-0.015988,-0.000646,0.010797,0.313721,0.324463,-0.513672,0.938853,-6.696281,7.125454,-0.010965,0.000526,-0.016015,-0.283691,0.425293,-0.352295
1.874573,-7.383529,6.141452,0.019598,0.001584,0.003113,-0.361084,0.317139,0.12793,-0.050617,8.30548,5.114363,-0.013686,0.003617,0.006903,0.268311,0.404541,0.469238,-1.580949,-7.064802,6.688516,-0.00575,0.00888,0.001459,0.579346,0.236084,-0.30249,-1.253449,-7.305919,6.523713,-0.012005,0.002586,0.01318,0.315186,0.328125,-0.518555,0.911471,-6.743087,7.048308,-0.008886,-0.002457,0.015051,-0.282959,0.425537,-0.358154
1.89462,-7.409408,6.110818,-0.021804,0.001244,-0.002698,-0.362793,0.316895,0.130859,-0.028367,8.348654,5.128792,0.002939,0.006543,0.00391,0.268311,0.39917,0.471436,-1.606696,-6.998809,6.703751,0.011926,-0.000511,-0.003527,0.580078,0.233887,-0.298584,-1.281486,-7.234284,6.56139,0.014542,0.006735,0.001847,0.314453,0.328369,-0.511963,0.907748,-6.710786,7.104304,0.021499,0.001784,-0.018787,-0.28418,0.427246,-0.351562
1.911507,-7.500537,6.092427,0.000821,0.001469,-0.000227,-0.366211,0.308838,0.127686,-0.038071,8.340219,5.163617,-0.020442,0.005873,0.005138,0.260742,0.40918,0.473389,-1.562274,-7.021413,6.720162,-0.022643,0.003462,0.003078,0.578613,0.230225,-0.302246,-1.260642,-7.229549,6.55534,-0.02734,-0.003931,0.016946,0.312256,0.321777,-0.517578,0.945155,-6.702057,7.104646,-0.015797,-0.002236,-0.001616,-0.285645,0.420654,-0.359619
1.892589,-7.394091,6.138351,0.024175,0.003917,0.000859,-0.357178,0.313477,0.128662,-0.04534,8.314364,5.115156,-0.003575,0.008003,0.00475,0.261719,0.410645,0.475098,-1.603244,-7.075197,6.688398,0.001682,0.010048,0.001653,0.584229,0.231445,-0.303223,-1.267367,-7.287839,6.526577,0.007892,0.004712,0.006076,0.317139,0.324463,-0.518066,0.902453,-6.742024,7.064997,0.002552,-0.000882,0.009795,-0.277588,0.427002,-0.359131
1.905365,-7.389948,6.140334,-0.025007,-0.000864,-0.000934,-0.354004,0.314697,0.131592,-0.056222,8.351854,5.144639,-0.0079,0.003797,0.004442,0.261963,0.397217,0.4729,-1.575943,-6.995483,6.715877,0.008538,0.000335,-0.00445,0.587891,0.237305,-0.297119,-1.256975,-7.197242,6.567826,-0.002942,0.002249,0.007507,0.321289,0.329834,-0.514893,0.937438,-6.713161,7.087856,0.011149,0.003646,-0.023927,-0.276367,0.428955,-0.355957
1.920521,-7.515536,6.108531,-9.8e-05,0.002902,-0.000524,-0.352783,0.310791,0.131348,-0.025726,8.338253,5.144855,-0.016963,0.004585,0.005604,0.265381,0.399658,0.47876,-1.559766,-7.045043,6.725997,-0.021406,0.006612,0.005464,0.591553,0.23291,-0.299072,-1.261895,-7.303574,6.553391,-0.024547,-0.000956,0.017363,0.32373,0.321289,-0.514404,0.93227,-6.712214,7.096674,-0.003815,0.000462,0.017194,-0.273193,0.422119,-0.355469
1.882382,-7.366134,6.140634,0.02912,0.003226,0.003235,-0.357666,0.310547,0.125244,-0.06228,8.336089,5.130523,-0.007348,0.011305,0.004252,0.272949,0.401855,0.46582,-1.597785,-7.053689,6.673307,0.0021,0.001735,-0.002307,0.582764,0.228271,-0.304688,-1.257094,-7.276742,6.517612,0.012339,0.005577,0.002364,0.317139,0.323975,-0.52002,0.912888,-6.721698,7.071527,-0.00551,-0.003108,-0.016382,-0.28125,0.422363,-0.359131
1.901037,-7.409193,6.154501,-0.03325,-0.001755,-0.001135,-0.369629,0.304199,0.125244,-0.053933,8.34273,5.158605,-0.001309,0.000645,0.004446,0.27002,0.397949,0.47583,-1.583522,-7.03329,6.704716,-0.001067,0.005916,0.000181,0.574707,0.227539,-0.301758,-1.266679,-7.227366,6.557987,-0.005614,0.003456,0.014119,0.30835,0.315186,-0.520508,0.943423,-6.718618,7.06739,0.010019,-0.001122,0.000725,-0.290527,0.416992,-0.361572
1.913282,-7.512924,6.097269,0.015382,0.004499,-0.000644,-0.348389,0.314453,0.121582,0.002796,8.357223,5.110811,-0.011259,0.008966,0.005338,0.269287,0.398193,0.472168,-1.561506,-7.029789,6.709837,0.002567,0.005654,0.001159,0.592529,0.233398,-0.308838,-1.26968,-7.239045,6.578376,-0.000536,-0.003507,0.006164,0.325439,0.326904,-0.523682,0.9285,-6.683636,7.115944,0.003939,-0.002457,-0.00282,-0.272217,0.424805,-0.365234
1.85119,-7.325369,6.155665,0.009518,0.000956,0.004826,-0.359375,0.3125,0.125488,-0.085404,8.322813,5.170519,-0.023698,0.00963,0.004094,0.268066,0.393311,0.467529,-1.601435,-7.019468,6.706178,-0.021035,0.007715,0.002825,0.583496,0.23291,-0.305908,-1.253417,-7.26927,6.529369,-0.030407,-0.000506,0.014528,0.31543,0.324951,-0.521729,0.930183,-6.737373,7.06998,-0.01826,0.002497,-0.006132,-0.280273,0.425293,-0.360107
1.936327,-7.501675,6.111656,-0.024547,0.001481,-0.006429,-0.360107,0.314941,0.129639,-0.00476,8.31828,5.117405,0.007409,-0.001193,0.005766,0.261963,0.398438,0.477783,-1.581863,-7.115311,6.709327,-0.004571,-0.000664,0.001859,0.580322,0.236084,-0.29834,-1.272314,-7.330099,6.562415,0.017206,0.008117,0.010404,0.314697,0.324463,-0.516846,0.902624,-6.73347,7.087614,0.025759,0.001536,0.003694,-0.282471,0.427246,-0.355713
1.876516,-7.411291,6.119242,0.032503,0.003365,0.006925,-0.355469,0.308594,0.127197,-0.036485,8.39265,5.139373,-0.011545,0.015257,0.005385,0.26709,0.401367,0.471436,-1.558289,-6.991775,6.693866,0.023699,0.00489,-0.00851,0.587402,0.228516,-0.302246,-1.25449,-7.13456,6.576149,0.005771,-0.001453,-0.002817,0.319824,0.31958,-0.520996,0.952837,-6.685928,7.1075,-0.014578,-0.006148,-0.019222,-0.276611,0.422852,-0.361084
1.901214,-7.411168,6.146027,-0.028671,0.000579,-0.003393,-0.356201,0.305908,0.133301,-0.063753,8.311003,5.15513,-0.028406,-0.002675,0.005904,0.268311,0.395264,0.46875,-1.59625,-7.014475,6.705492,-0.036973,0.007377,0.008007,0.584229,0.224365,-0.295166,-1.254316,-7.319092,6.500114,-0.046496,0.002418,0.032039,0.317871,0.31543,-0.512695,0.929993,-6.740524,7.033847,-0.001504,0.003004,0.0195,-0.279541,0.415527,-0.354248
1.894737,-7.503547,6.093084,0.018679,0.003246,0.001253,-0.352295,0.31958,0.123535,-0.023418,8.339734,5.108808,0.013535,0.01258,0.003841,0.266113,0.400146,0.476807,-1.565674,-7.082569,6.660987,0.007502,-0.003862,-0.00228,0.589355,0.239746,-0.304443,-1.282682,-7.259984,6.544115,0.038398,0.006952,-0.009749,0.322998,0.330566,-0.52124,0.910466,-6.710311,7.137571,0.006703,0.0027,-0.027031,-0.27417,0.429443,-0.361328
1.914777,-7.335717,6.18457,0.003204,-0.000725,0.002307,-0.359375,0.307373,0.134766,-0.07273,8.376983,5.180648,-0.015556,0.001782,0.005398,0.264893,0.399902,0.471436,-1.574564,-7.012751,6.708695,0.002048,0.014602,-0.000931,0.582275,0.228271,-0.297607,-1.244224,-7.199967,6.561427,-0.029704,-0.005404,0.021444,0.319824,0.316895,-0.509521,0.949914,-6.736534,7.046446,-0.003175,-0.006467,0.011035,-0.281494,0.419922,-0.351074
1.872933,-7.503334,6.08851,-0.02318,0.003624,-0.00472,-0.355957,0.315918,0.133301,-0.009307,8.339921,5.111104,-0.01584,0.008072,0.005448,0.273682,0.397217,0.468994,-1.62599,-7.036224,6.725202,-0.005287,0.001972,0.00055,0.586426,0.238281,-0.297363,-1.275401,-7.328434,6.537637,-0.000327,0.003891,0.006275,0.321045,0.329346,-0.513184,0.905624,-6.704247,7.099376,0.015838,0.004159,-0.008464,-0.279297,0.427734,-0.354736
1.90733,-7.404571,6.136373,0.034077,-0.001757,0.004352,-0.356934,0.308105,0.129883,-0.061594,8.329401,5.142263,-0.0093,0.009391,0.004885,0.256104,0.398926,0.476562,-1.517486,-7.017788,6.705948,-0.009421,0.000833,-0.002658,0.584717,0.230469,-0.299561,-1.221807,-7.220273,6.541113,0.003611,-0.004292,0.00479,0.318359,0.321045,-0.516357,0.94519,-6.718213,7.10069,-0.022961,-0.001652,-0.014632,-0.280029,0.419678,-0.355469
1.892428,-7.393302,6.162042,-0.027121,0.004043,-0.003439,-0.363037,0.312988,0.126465,-0.029033,8.357352,5.167886,0.001974,0.001438,0.002781,0.273438,0.401367,0.477539,-1.622647,-7.067531,6.702154,-0.007507,0.010996,0.004495,0.578857,0.235107,-0.306152,-1.267245,-7.267078,6.544218,-0.008289,0.017026,0.016165,0.312988,0.325684,-0.519043,0.899878,-6.734082,7.035582,0.014385,-0.004008,0.023984,-0.285889,0.425293,-0.359619
1.916469,-7.514301,6.111322,0.006868,0.000666,0.000691,-0.365723,0.310791,0.127441,-0.034373,8.360855,5.114327,-0.021675,0.01088,0.007502,0.268555,0.402832,0.476318,-1.560277,-7.002149,6.694861,0.011018,-0.007867,-0.006214,0.577637,0.231689,-0.303467,-1.286919,-7.228525,6.567893,-0.00775,-0.002702,0.005219,0.313232,0.321777,-0.522461,0.953329,-6.687272,7.139301,-0.004246,-0.002121,-0.039196,-0.286133,0.422607,-0.356689
1.882623,-7.365511,6.163991,0.014008,0.001668,0.00235,-0.361084,0.31665,0.127441,-0.068525,8.330299,5.152588,-0.00696,0.003602,0.002269,0.273926,0.396484,0.468018,-1.579178,-7.028135,6.696862,-0.022349,0.020411,0.007294,0.582764,0.236084,-0.30249,-1.24446,-7.32433,6.529982,-0.02,-0.004139,0.018184,0.314453,0.32373,-0.516846,0.932332,-6.760848,7.044341,-0.006918,0.005587,0.030353,-0.284912,0.426025,-0.35791
1.903584,-7.459828,6.128504,-0.019693,0.001319,-0.003645,-0.359863,0.310303,0.125244,-0.030512,8.353127,5.150358,-0.005216,0.006853,0.005676,0.276367,0.405518,0.474365,-1.626439,-7.086087,6.713527,0.006478,-0.003911,-0.00338,0.581543,0.230713,-0.302246,-1.283935,-7.237084,6.566928,0.028339,0.008344,-0.004382,0.314941,0.322754,-0.518066,0.875212,-6.72547,7.090494,0.026138,0.007499,-0.026019,-0.28125,0.420166,-0.358154
1.899226,-7.45575,6.146835,0.016574,0.000797,0.003129,-0.35498,0.309814,0.128174,-0.053034,8.359954,5.149392,-0.006835,0.007479,0.003645,0.267334,0.394775,0.46875,-1.516521,-6.997406,6.702776,-0.00224,0.004869,-0.002468,0.585693,0.231689,-0.303711,-1.247254,-7.206613,6.562915,-0.030664,-0.009375,0.020018,0.318848,0.324219,-0.520752,0.964333,-6.691227,7.112332,-0.014367,-0.009681,-0.005134,-0.277832,0.422607,-0.362793
1.8867,-7.405888,6.123555,-0.005226,0.00227,-0.001146,-0.364258,0.315918,0.130371,-0.043935,8.348419,5.15541,-0.018482,0.00482,0.004835,0.271973,0.399902,0.464844,-1.645395,-7.054982,6.715174,-0.010644,0.012656,0.005749,0.577637,0.236572,-0.296631,-1.250245,-7.325527,6.527534,-0.001353,0.010492,0.009903,0.311035,0.326904,-0.514404,0.897708,-6.732705,7.044444,-0.006725,-0.002172,0.021791,-0.286133,0.427734,-0.35498
1.897627,-7.444719,6.134288,-0.001365,-0.002142,-0.001712,-0.360596,0.314453,0.12915,-0.055051,8.316668,5.126767,-0.000895,0.006776,0.005922,0.265869,0.401123,0.466797,-1.559621,-7.02295,6.676828,-0.001758,-0.008933,-0.003482,0.580811,0.23584,-0.298828,-1.293588,-7.21472,6.576797,0.002359,0.004605,0.00518,0.31543,0.325928,-0.515625,0.948559,-6.72583,7.111676,0.003369,0.004067,-0.03947,-0.282959,0.426758,-0.357666
1.914903,-7.444704,6.117847,0.00274,0.002366,0.001222,-0.36377,0.317627,0.123047,-0.040068,8.370077,5.16172,-0.007504,0.004647,0.0026,0.268799,0.401367,0.476074,-1.575999,-7.070595,6.700755,-0.010268,0.017446,0.005285,0.579346,0.240967,-0.30542,-1.254361,-7.296893,6.560581,-0.013018,-0.003373,0.014544,0.313965,0.32959,-0.522217,0.937663,-6.720888,7.080472,-0.001782,-0.005025,0.028731,-0.283203,0.428467,-0.364014
1.861986,-7.424531,6.133166,0.006956,0.002513,-0.000656,-0.359375,0.316406,0.118652,-0.052899,8.34359,5.125467,-0.015088,0.007724,0.007504,0.2771,0.404541,0.473633,-1.617143,-7.02997,6.705486,0.013905,-0.002975,-0.005301,0.583984,0.237549,-0.311279,-1.280486,-7.231205,6.535825,0.010166,0.002978,0.000196,0.318115,0.330811,-0.529053,0.902511,-6.719847,7.070518,0.016502,0.00506,-0.02438,-0.280762,0.429688,-0.366455
1.919521,-7.422924,6.135388,-0.010536,0.000318,-1e-05,-0.357422,0.309814,0.125488,-0.049495,8.331125,5.143847,-0.009047,0.003582,0.001406,0.268555,0.397949,0.469238,-1.543769,-7.008765,6.714565,-0.018508,0.005055,0.000839,0.584473,0.231201,-0.307373,-1.248392,-7.253363,6.552159,-0.024027,-0.002536,0.018383,0.318359,0.322266,-0.522705,0.949368,-6.693345,7.100873,-0.0034,0.00297,-0.002727,-0.279785,0.423096,-0.362305
1.89463,-7.487301,6.143857,0.002836,0.002068,-0.000756,-0.366943,0.313477,0.13501,-0.044825,8.342628,5.140485,-0.002196,0.009183,0.007409,0.262207,0.400879,0.469238,-1.620957,-7.07284,6.702085,-0.009058,0.00884,0.004482,0.576416,0.23291,-0.296631,-1.257123,-7.246463,6.55017,0.011773,0.011232,0.002594,0.309326,0.325928,-0.514404,0.901252,-6.733164,7.069474,-0.008892,-0.007254,0.013667,-0.287598,0.428223,-0.351074
1.891128,-7.383775,6.141546,0.013275,0.002048,0.001233,-0.361816,0.310791,0.131348,-0.05068,8.369255,5.126247,-0.01317,0.005844,0.003373,0.259766,0.400391,0.463623,-1.56032,-7.036112,6.701583,0.009781,-0.003876,-0.006391,0.579346,0.232422,-0.298096,-1.291102,-7.244225,6.580711,-0.021179,-0.001702,0.01477,0.313477,0.324707,-0.51416,0.944179,-6.73584,7.095505,0.001004,-0.006417,-0.025425,-0.283447,0.424072,-0.353271
1.890454,-7.44186,6.123297,-0.020422,-0.000905,-0.002262,-0.360596,0.316406,0.13208,-0.039747,8.317541,5.153151,-0.017399,0.003748,0.007376,0.266846,0.401855,0.470459,-1.595563,-7.017345,6.714785,-0.007202,0.013678,0.004296,0.580322,0.231934,-0.300293,-1.256813,-7.296047,6.535048,0.003449,-0.001021,0.007206,0.313721,0.327881,-0.514648,0.94756,-6.711702,7.061963,0.004716,0.004217,0.017922,-0.286621,0.429688,-0.356689
1.904251,-7.461234,6.120581,0.018583,0.003772,0.001666,-0.352783,0.305908,0.128174,-0.048738,8.355243,5.122853,0.004015,0.010207,0.003156,0.268311,0.405029,0.479492,-1.610548,-7.02672,6.689233,-0.003598,-0.002252,-0.002221,0.587646,0.226807,-0.302246,-1.271526,-7.179949,6.539422,0.006854,0.001854,0.003049,0.320801,0.318359,-0.518311,0.900408,-6.718523,7.079316,0.004367,0.007246,-0.02066,-0.276611,0.422607,-0.359375
1.89299,-7.373148,6.150131,-0.009438,-0.000251,0.001667,-0.354004,0.308105,0.120117,-0.064356,8.345477,5.170279,-0.023522,0.001794,0.006283,0.273193,0.400635,0.476318,-1.547219,-7.053357,6.69539,-0.013539,0.007528,0.002715,0.588135,0.229736,-0.309326,-1.252064,-7.275713,6.554893,-0.031736,-0.00058,0.019368,0.322266,0.318604,-0.529785,0.925863,-6.707953,7.071476,-0.006964,-0.004741,0.004554,-0.276611,0.419434,-0.367432
1.917708,-7.512738,6.135567,-0.002937,0.003436,-0.002274,-0.354492,0.313721,0.12915,-0.026066,8.333724,5.097225,0.005022,0.006545,0.004794,0.265625,0.402588,0.472168,-1.610684,-7.062127,6.701487,0.005881,0.002468,0.000233,0.584961,0.235352,-0.299316,-1.274972,-7.29429,6.537782,0.015682,0.008572,0.005047,0.320801,0.32666,-0.516602,0.91271,-6.729312,7.097537,0.003734,-0.0091,0.001573,-0.27832,0.426514,-0.355225
1.857677,-7.344774,6.126382,0.023255,0.00014,0.005579,-0.358398,0.310059,0.13208,-0.062489,8.401628,5.13979,-0.008372,0.010693,0.002527,0.264893,0.402832,0.470459,-1.564769,-6.99748,6.712688,0.007617,0.007015,-0.004818,0.584229,0.232422,-0.300293,-1.275839,-7.199825,6.58593,-0.001297,-0.002775,0.006296,0.314941,0.323486,-0.512207,0.954071,-6.727182,7.076491,-0.005948,0.003245,-0.016701,-0.280518,0.424316,-0.354736
1.924266,-7.461347,6.125845,-0.038919,-0.000453,-0.006213,-0.361084,0.305908,0.122559,-0.032632,8.312704,5.150123,-0.028171,-0.00216,0.00887,0.263672,0.399902,0.469238,-1.613816,-7.034276,6.706934,-0.027983,0.00793,0.004848,0.582031,0.227295,-0.303467,-1.253359,-7.28432,6.566804,-0.023687,-0.001817,0.016176,0.315186,0.319824,-0.520996,0.901751,-6.724024,7.066691,0.012888,0.009816,0.013166,-0.283203,0.418213,-0.362061
1.886597,-7.502011,6.074802,0.034065,0.002992,0.002489,-0.353516,0.307373,0.126221,-0.029792,8.317475,5.108297,0.004799,0.011623,0.002283,0.267822,0.398438,0.478271,-1.548791,-7.085344,6.684469,0.000817,-0.006728,-0.00237,0.587891,0.226807,-0.303955,-1.257619,-7.278452,6.523331,0.007791,0.005813,0.004475,0.321533,0.319336,-0.518799,0.912722,-6.708656,7.120205,-0.00837,-0.008663,-0.023258,-0.274902,0.421143,-0.362305
1.886879,-7.299345,6.175108,-0.004308,0.000609,0.000719,-0.36084,0.31958,0.125977,-0.067506,8.362359,5.170943,-0.005251,0.004066,0.005399,0.268311,0.407227,0.470703,-1.590956,-7.020279,6.718023,0.013041,0.016852,0.000589,0.579834,0.239014,-0.303955,-1.271927,-7.221688,6.549493,0.001046,0.00883,0.009809,0.312012,0.331055,-0.517334,0.939341,-6.749155,7.043121,0.000117,-0.006192,0.017166,-0.283691,0.428955,-0.360352
1.89505,-7.5257,6.112971,-0.028582,0.002198,-0.003182,-0.365479,0.318359,0.125,-0.026989,8.356322,5.138126,-0.017641,0.004557,0.004761,0.269287,0.404297,0.466064,-1.621419,-7.013752,6.696655,-0.015066,-0.004971,0.002539,0.577881,0.238037,-0.306885,-1.304752,-7.243782,6.579977,-0.017776,-0.001734,0.013532,0.311035,0.329834,-0.523682,0.914413,-6.708428,7.120202,0.009769,0.008842,-0.018285,-0.286865,0.430664,-0.362549
1.909854,-7.428593,6.147263,0.045327,0.002063,0.005189,-0.362549,0.319824,0.126465,-0.048639,8.310815,5.127339,-0.011494,0.009293,0.006125,0.261719,0.402588,0.470947,-1.526581,-7.054991,6.680814,-0.014675,0.007652,0.000992,0.582764,0.241455,-0.301514,-1.257715,-7.311613,6.534982,-0.009798,-0.009549,0.00905,0.313721,0.333252,-0.520264,0.939173,-6.73132,7.089046,-0.017342,-0.001787,-0.001649,-0.2854,0.431152,-0.359375
1.877328,-7.339642,6.172802,-0.026472,0.002046,-0.002551,-0.366943,0.3125,0.132324,-0.054907,8.360679,5.152048,0.005209,0.003435,0.003712,0.26416,0.408203,0.464355,-1.645092,-7.053081,6.702862,0.012732,0.010484,-0.001377,0.576904,0.230957,-0.298584,-1.269539,-7.231502,6.53332,0.018675,0.011641,0.002964,0.311523,0.325439,-0.51416,0.891103,-6.722006,6.999575,0.025948,-0.002016,0.008357,-0.287354,0.422363,-0.355225
1.842506,-7.484901,6.123017,-0.010282,0.013212,-0.008431,-0.358398,0.31958,0.128418,-0.084355,8.360169,5.148672,-0.027597,0.022946,0.0056,0.259521,0.398682,0.4729,-1.609329,-6.990173,6.704696,0.001139,0.003559,-0.005782,0.581543,0.242188,-0.299561,-1.306524,-7.216807,6.570512,-0.023937,0.016423,0.015114,0.314453,0.334961,-0.516113,0.895968,-6.524259,7.180607,0.070528,0.031557,-0.059229,-0.283691,0.431885,-0.361084
2.042663,-7.541069,6.098782,0.010911,-0.03614,0.003413,-0.355225,0.309814,0.13501,0.03165,8.338145,5.125665,0.008659,-0.03555,0.00731,0.26709,0.40332,0.469482,-1.505935,-7.041637,6.704827,-0.032748,-0.024598,0.004052,0.58667,0.230225,-0.29834,-1.266088,-7.360742,6.601047,-0.02137,-0.050128,0.007906,0.32251,0.319824,-0.513184,0.905722,-6.853817,7.168176,-0.210978,-0.076817,0.055271,-0.274658,0.420654,-0.351807
1.752219,-7.212576,6.188238,0.033763,0.06519,0.009602,-0.353516,0.309082,0.123047,-0.057147,8.345053,5.102916,-0.030379,0.063755,-0.000173,0.26416,0.400879,0.474854,-1.574633,-7.138687,6.666638,0.011598,0.058706,0.007952,0.586426,0.227539,-0.306396,-1.116656,-7.174884,6.35884,0.053039,0.030925,-0.002981,0.319336,0.319092,-0.520752,0.960307,-6.89275,6.830057,0.111636,-0.034642,0.012002,-0.277832,0.420898,-0.364014
1.9728,-7.533778,6.237129,-0.073871,-0.058893,-0.025263,-0.351807,0.313965,0.126709,-0.148932,8.356251,5.216544,0.006875,-0.037067,0.013106,0.266846,0.405762,0.474121,-1.728543,-6.910507,6.689764,0.031064,-0.030559,-0.020952,0.593018,0.234619,-0.30249,-1.467327,-7.162633,6.740408,-0.050645,0.025854,0.020247,0.327637,0.325439,-0.517822,1.776126,-4.247088,5.738989,0.441309,1.078452,-0.247709,-0.266602,0.422363,-0.374512
1.54183,-7.496666,6.071654,-0.001158,0.121928,-0.006176,-0.362061,0.311523,0.125732,-0.210768,8.177956,5.123069,-0.048051,0.081624,0.023614,0.259521,0.401367,0.474121,-1.753641,-7.035291,6.824676,-0.052133,0.060107,0.025019,0.581055,0.229004,-0.301758,-1.605618,-7.484085,6.653002,-0.054615,0.008371,0.022666,0.315918,0.324463,-0.517578,-0.14903,-8.912227,5.844531,-0.299475,1.519701,-0.417023,-0.266846,0.418213,-0.37915
2.374308,-8.103904,5.687953,0.109567,-0.101309,-0.001767,-0.357178,0.312256,0.122314,0.201873,8.495392,5.157763,0.110287,-0.087619,0.022179,0.262695,0.40625,0.467041,-1.305699,-7.206198,6.467865,-0.029771,-0.081782,-0.05686,0.585693,0.233398,-0.306641,-1.320329,-7.662955,6.695729,0.012481,-0.248161,-0.053462,0.315186,0.325195,-0.524414,1.080707,-6.995697,8.0261,0.196414,1.443967,-0.063286,-0.249512,0.414551,-0.395996
1.705539,-6.156829,6.882004,0.309136,0.158923,0.038825,-0.35791,0.317627,0.119385,0.12195,8.323768,5.00357,-0.089098,0.136569,0.025192,0.268799,0.39917,0.46582,-1.191672,-7.178296,6.452135,0.11147,0.186969,0.047991,0.584961,0.238525,-0.301758,-0.669145,-6.754291,5.864544,0.254935,-0.097016,-0.072819,0.313232,0.32666,-0.526123,1.974259,-5.010297,6.330748,0.99221,2.319637,-0.338676,-0.229248,0.409424,-0.425293
1.750749,-7.720629,5.883599,-0.599053,-0.135518,-0.090866,-0.361328,0.305908,0.130859,-0.594091,8.4202,5.344291,0.070781,-0.070354,-0.019406,0.268799,0.403809,0.472412,-2.348455,-6.545025,6.917895,0.107193,0.037165,-0.041601,0.581543,0.227539,-0.297119,-1.719788,-6.559011,6.890836,-0.14234,0.046326,0.044218,0.310547,0.318848,-0.514893,0.146236,-5.980307,4.581684,1.455631,3.878682,-0.778519,-0.19873,0.373047,-0.45874
2.197378,-8.200671,5.984627,0.424244,0.118553,0.054407,-0.349854,0.313477,0.127197,0.636852,8.248857,4.923455,-0.048505,0.003513,0.045267,0.268799,0.400635,0.473633,-0.906939,-7.141138,6.856008,-0.230806,-0.032386,0.081677,0.594971,0.231689,-0.296387,-0.947393,-7.907097,6.896163,-0.178582,-0.323367,0.062505,0.31958,0.326416,-0.518066,-1.380434,-6.085764,6.963173,1.442466,4.431352,-1.004419,-0.142578,0.353271,-0.503174
1.724414,-5.950135,6.544248,-0.154066,-0.030528,-0.022235,-0.356445,0.312744,0.123779,-0.441782,8.648391,5.15504,0.058583,0.090086,-0.046542,0.266846,0.395264,0.470703,-2.085932,-7.398588,6.654572,0.125138,0.205003,-0.038501,0.588867,0.229248,-0.298584,-0.720985,-7.676579,6.249387,0.129972,0.06721,-0.074233,0.310059,0.322266,-0.521973,-4.305272,-6.879868,9.567832,1.852612,1.754829,0.04546,-0.131348,0.322998,-0.531494
1.626349,-8.678374,5.815574,-0.327457,0.022345,-0.035091,-0.352051,0.306396,0.126221,-0.1521,7.96783,5.270545,-0.260372,-0.073701,0.088522,0.269775,0.405029,0.467529,-2.067638,-6.706335,6.971993,0.034267,-0.173221,-0.021383,0.591797,0.223877,-0.300781,-1.663231,-6.921749,6.68158,0.099964,0.066905,-0.006117,0.317383,0.31665,-0.523926,-2.062205,-5.62464,8.629121,1.477657,0.604998,0.595372,-0.117188,0.298828,-0.550049
2.30671,-7.404632,6.211979,0.449249,0.040717,-0.003175,-0.355225,0.313477,0.120361,0.220126,8.316305,4.958397,0.352387,0.058255,-0.065593,0.266113,0.400879,0.47168,-0.992432,-7.0866,6.691869,-0.099313,0.012422,-0.004537,0.5896,0.234131,-0.305176,-0.856263,-6.977455,6.796429,-0.071716,-0.094813,0.01263,0.311523,0.328369,-0.527344,-3.739644,-5.245623,10.127152,0.415886,0.360491,0.463734,-0.112305,0.300781,-0.562256
1.935335,-6.318409,6.163668,-0.24636,0.000813,0.00885,-0.355957,0.310059,0.119873,0.240254,9.048187,5.151344,-0.209615,-0.01307,0.059883,0.260498,0.400391,0.467773,-1.52776,-6.927064,6.474343,0.051541,-0.005628,-0.010232,0.588867,0.230225,-0.303467,-0.754491,-7.280653,6.275038,-0.106154,0.042567,0.028608,0.3125,0.323486,-0.526367,-2.170569,-4.769586,9.015891,-0.332739,-1.262228,0.870642,-0.122803,0.311035,-0.556396
1.724153,-8.413823,6.1054,-0.210362,0.027148,0.001327,-0.364502,0.3125,0.125,-0.454696,7.587302,5.220453,-0.199944,0.040327,-0.042598,0.258545,0.400391,0.471924,-1.7237,-7.113498,6.728017,-0.125873,0.069392,0.032546,0.579834,0.230957,-0.298096,-1.454088,-7.447732,6.064918,0.040873,0.13347,0.024669,0.304688,0.32251,-0.520264,-1.248569,-4.613393,7.787238,-0.555882,-0.786719,0.180014,-0.141357,0.320557,-0.541504
1.943675,-7.421416,5.969277,0.275346,-0.015236,-0.044171,-0.35791,0.314697,0.123779,0.192669,8.474786,5.128995,0.334966,-0.055821,0.015514,0.261475,0.400879,0.465088,-1.861722,-7.251941,6.751036,0.10103,-0.06311,-0.006925,0.585938,0.233154,-0.300293,-1.340639,-6.916586,7.250979,0.118944,-0.004078,-0.010267,0.311523,0.324219,-0.519043,-1.213282,-5.695879,6.697225,-0.067821,-0.785718,-0.087404,-0.148193,0.32251,-0.537109
1.893524,-6.738718,6.396886,-0.19071,0.046254,-0.008298,-0.366699,0.313232,0.128418,-0.060362,8.777006,5.129938,-0.146644,0.099949,-0.019145,0.266113,0.405518,0.47168,-1.243035,-6.753256,6.778375,0.030916,0.008938,-0.008172,0.580566,0.232178,-0.296143,-1.067144,-7.421953,6.671977,-0.298064,-0.00912,0.085376,0.305176,0.32959,-0.518311,-1.573808,-5.65017,8.74241,-0.33719,-0.401504,-0.311709,-0.162354,0.326904,-0.533936
1.813283,-8.420492,5.739232,-0.110209,-0.026347,-0.043009,-0.355469,0.310059,0.12085,-0.223547,8.088203,5.177231,-0.108749,-0.054645,0.027453,0.260254,0.396729,0.47583,-1.973258,-7.092723,6.655034,-0.129432,0.036745,-0.008057,0.589355,0.23291,-0.300781,-1.46717,-8.226559,6.123506,0.102053,-0.022592,-0.035095,0.316406,0.324951,-0.525391,-2.344599,-6.040825,8.747848,-0.028707,-0.539767,-0.022077,-0.159912,0.328125,-0.538086
2.048013,-6.850029,6.300648,0.27627,0.024073,0.025922,-0.361572,0.30835,0.12207,0.223309,8.153231,4.893565,0.125,0.030303,-0.024958,0.260498,0.400635,0.469482,-1.278174,-7.262489,6.561203,0.082983,-0.083122,0.003475,0.581055,0.227295,-0.30249,-0.783124,-6.1446,6.509107,0.436401,-0.044347,-0.131107,0.303955,0.319336,-0.52832,-1.965561,-6.74814,6.952503,1.605865,-2.676396,1.56932,-0.188965,0.315186,-0.534424
1.748313,-7.402014,6.083339,-0.326272,0.010721,-0.062262,-0.358887,0.308594,0.129395,-0.271613,8.588596,5.553748,-0.026626,0.026093,0.010264,0.26001,0.401367,0.4646,-1.658866,-6.729816,6.74452,0.080954,0.144284,-0.009646,0.587402,0.226074,-0.294678,-1.184006,-6.478192,6.844749,-0.472936,0.147126,0.182434,0.3125,0.322021,-0.512451,0.15576,-4.151748,8.318241,2.070923,-2.649476,2.010815,-0.203613,0.300293,-0.528076
2.018408,-8.45432,5.886798,0.198113,0.048579,-0.051786,-0.351562,0.306641,0.120605,0.113878,8.12831,5.018134,0.003133,0.018757,0.01619,0.259033,0.403809,0.476074,-1.91446,-7.11554,6.771822,-0.164338,-0.083348,0.045472,0.592529,0.227539,-0.302002,-1.731417,-8.97529,6.459646,-0.18732,-0.076958,0.065893,0.317627,0.321533,-0.522461,0.268705,-3.137637,9.684708,1.216548,-1.094341,0.891715,-0.203613,0.292236,-0.54126
1.687199,-6.349773,6.299029,0.183602,-0.006336,-0.008226,-0.366943,0.311035,0.125732,-0.248044,8.552185,4.809811,0.114459,0.050737,-0.020605,0.263916,0.401855,0.467773,-1.214451,-7.444544,6.537948,0.107072,0.045671,-0.041689,0.578125,0.233398,-0.294434,-1.024688,-7.370898,6.594984,0.56326,-0.113927,-0.194741,0.30249,0.324463,-0.521729,0.510254,-3.132834,9.387301,-0.860403,0.809052,-0.576272,-0.210449,0.305176,-0.531738
2.120718,-7.49371,6.029216,-0.339254,-0.00066,-0.014644,-0.352051,0.307861,0.123291,0.135098,8.48503,5.297147,-0.147783,-0.039887,0.019922,0.259521,0.393311,0.466553,-1.743064,-6.585879,6.755847,0.176267,0.0808,-0.023733,0.592285,0.228271,-0.302734,-1.019467,-5.796206,6.742226,-0.010503,-0.066057,-0.008798,0.313477,0.319824,-0.527588,-1.455053,-5.388819,7.951662,-1.900156,1.277298,-1.203201,-0.191895,0.320068,-0.532471
1.729634,-8.678543,5.783493,0.098953,0.000534,-0.019073,-0.358398,0.304688,0.128174,-0.18043,7.827676,5.261614,-0.021293,0.06355,0.025338,0.263672,0.405029,0.469971,-1.729871,-6.71406,6.773186,-0.192825,0.005578,0.040616,0.584961,0.224121,-0.291748,-1.252079,-7.305811,6.320684,-0.381932,-0.082214,0.124291,0.305176,0.31958,-0.519043,-1.582051,-5.497564,8.452141,-0.437478,-0.65049,0.084694,-0.207764,0.324463,-0.51416
2.065753,-6.502051,6.5079,0.408504,0.045783,-0.006738,-0.361328,0.302246,0.121582,-0.046197,8.51803,4.900295,0.24898,0.003055,-0.016388,0.263184,0.403809,0.469482,-1.576386,-7.740669,6.619617,-0.052942,0.038597,0.045296,0.584961,0.222168,-0.293213,-0.998537,-8.356817,6.506486,0.104625,-0.03257,0.002742,0.301758,0.315674,-0.518311,-0.521579,-4.842232,8.392804,0.155232,-1.342852,0.58075,-0.224609,0.324463,-0.510254
1.731151,-6.763037,6.397512,-0.394068,-0.011124,-0.043368,-0.362305,0.307617,0.116699,-0.036794,8.953754,5.027349,-0.063001,0.043993,0.023914,0.266357,0.401855,0.470459,-1.687271,-6.836283,6.865342,0.31783,0.04463,-0.078942,0.584473,0.228027,-0.304932,-1.296496,-6.891675,7.068313,0.273034,-0.014388,-0.119983,0.302246,0.319092,-0.535156,0.036792,-4.31113,8.345325,-0.258992,-0.746596,0.206292,-0.230957,0.337158,-0.513428
2.070744,-8.663352,5.571721,-0.076351,0.033515,-0.003284,-0.362793,0.310303,0.131348,-0.174541,8.024036,5.333654,-0.250986,-0.018448,0.010566,0.261719,0.397461,0.469971,-1.72172,-6.364703,6.90133,-0.137085,0.0176,0.008048,0.584961,0.229248,-0.290527,-1.121033,-6.864554,6.617854,-0.202894,-0.171555,0.053118,0.299805,0.322998,-0.515869,0.348832,-5.06662,8.061068,-1.349216,0.287846,-0.672537,-0.233154,0.351074,-0.486816
1.906412,-7.581465,6.042531,0.369721,-0.004305,-0.05161,-0.359375,0.310303,0.120361,0.208865,7.855316,5.224375,0.19882,0.060304,0.016365,0.267822,0.400879,0.474854,-1.601182,-7.496219,6.492749,-0.204552,-0.01913,0.038371,0.587402,0.234375,-0.296875,-0.776302,-7.444527,6.087892,0.037578,-0.040214,-0.021542,0.302979,0.327148,-0.52832,-0.469095,-5.370928,9.185121,-1.606256,0.495628,-1.088322,-0.235596,0.367432,-0.483887
2.152062,-6.405959,6.571727,0.006689,0.043176,-0.012221,-0.365234,0.306152,0.121826,-0.109969,8.870087,4.738523,0.191708,0.043768,-0.011718,0.263428,0.397217,0.468262,-1.282369,-7.513647,6.494365,0.21856,0.018564,-0.007185,0.583984,0.227295,-0.29834,-0.920334,-7.089666,6.511785,0.093769,0.042768,0.025208,0.298828,0.31958,-0.527344,-0.217659,-5.841008,8.480835,-1.523721,0.356373,-0.973872,-0.246338,0.373535,-0.467285
1.738721,-7.302431,6.133008,-0.218345,-0.025998,0.034177,-0.367432,0.314697,0.116943,-0.102735,8.848938,4.817417,-0.186129,-0.046468,-0.007432,0.256348,0.401123,0.473877,-1.725733,-6.25833,7.059804,0.237332,0.107779,-0.008101,0.580811,0.235596,-0.303223,-1.137237,-6.835695,6.952923,0.050699,-0.005127,-0.004434,0.294189,0.328369,-0.531494,-0.627466,-6.905981,7.714118,-0.785475,-0.174192,-0.492795,-0.256592,0.38916,-0.4646
2.008056,-8.082427,5.932581,-0.062038,-0.001536,0.037451,-0.358887,0.319092,0.123779,-0.020294,7.759444,5.239187,-0.230403,-0.041219,0.031063,0.265625,0.398438,0.468262,-1.947306,-6.39096,7.016206,-0.308416,-0.042132,0.044437,0.586914,0.238525,-0.296387,-0.953028,-7.181095,6.748679,-0.256358,-0.035419,0.08422,0.304199,0.333496,-0.526123,-0.271188,-6.489762,7.601287,-0.030397,-0.715261,0.040338,-0.257324,0.388916,-0.451904
1.846213,-7.593353,6.004601,0.196796,-0.010875,0.040425,-0.35498,0.305664,0.117188,-0.115771,8.232511,5.159551,0.271852,0.016652,-0.038986,0.260986,0.403809,0.466064,-1.668492,-8.088277,6.69078,-0.297007,-0.060064,0.057188,0.589111,0.22583,-0.302979,-0.838698,-8.125667,6.379221,-0.03275,0.116186,0.046344,0.306396,0.319092,-0.530518,0.017161,-5.949507,8.09985,0.312364,-1.183853,0.273536,-0.263916,0.376465,-0.452148
2.077404,-6.800216,6.377157,0.035653,0.007104,0.021888,-0.355469,0.307861,0.113037,0.104646,8.926606,4.971272,-0.084448,-0.04949,0.023092,0.260498,0.399658,0.46875,-1.579023,-7.36145,6.612501,0.415289,-0.090629,-0.096317,0.586914,0.227295,-0.310059,-0.866995,-6.969496,6.55778,0.259507,0.204756,-0.044483,0.308594,0.321289,-0.534912,0.408309,-5.77786,8.464374,0.057009,-1.165262,0.244325,-0.273682,0.37915,-0.445312
1.849314,-7.377653,6.177897,-0.132059,-0.039675,0.069611,-0.357422,0.310303,0.122803,-0.087283,8.276055,4.842136,-0.144512,-0.019816,-0.036005,0.261719,0.394287,0.466797,-1.532671,-5.774824,7.101054,0.057666,-0.068601,0.001685,0.584961,0.227539,-0.303223,-1.02419,-6.381633,6.713042,-0.07529,0.26803,0.082593,0.312988,0.321777,-0.525635,0.610466,-5.963192,8.493235,-0.213608,-1.171036,0.210477,-0.282715,0.383301,-0.424316
2.038592,-7.677075,5.815234,0.014077,-0.024165,0.053508,-0.361328,0.310547,0.124756,0.038441,8.179794,5.294258,-0.098864,-0.091351,0.003381,0.264404,0.4021,0.470459,-1.656898,-6.875831,6.678765,-0.495689,-0.114314,0.080265,0.581055,0.233887,-0.302246,-1.13497,-7.086692,6.557835,-0.299344,0.233764,0.124106,0.312988,0.325439,-0.519043,1.245316,-6.251615,7.547501,-0.133696,-0.939883,0.093532,-0.296143,0.386475,-0.414062
1.679292,-7.554096,6.306484,0.060034,-0.011795,0.037163,-0.361084,0.30835,0.125,-0.054935,8.183382,5.263652,0.037417,0.027962,-0.026075,0.270264,0.395264,0.469238,-1.659801,-8.187618,6.512546,-0.125137,-0.095647,0.033235,0.580811,0.230957,-0.30249,-1.281742,-8.18494,6.300058,-0.197795,0.371807,0.12183,0.319092,0.322998,-0.513428,1.430634,-6.387734,7.385173,0.79317,0.122709,-0.217125,-0.296875,0.369629,-0.418457
1.815573,-7.424108,6.072909,0.041372,-0.015206,0.009847,-0.360596,0.316406,0.128418,-0.377332,8.696295,5.202887,0.037529,-0.035417,-0.007098,0.259766,0.400635,0.467041,-1.8292,-7.116222,6.608271,0.36829,-0.084185,-0.083953,0.577881,0.23584,-0.300537,-2.080182,-7.667684,6.854716,0.253513,0.290731,-0.012521,0.320801,0.327881,-0.512451,0.972927,-5.707281,9.548527,1.291579,0.976375,-0.134725,-0.286133,0.360596,-0.438477
1.831598,-7.335099,6.224776,0.009769,-0.029228,0.00885,-0.350586,0.317871,0.126221,0.138938,8.283451,4.896572,-0.18426,-0.016234,0.011203,0.279785,0.397461,0.475586,-1.319961,-6.02109,6.684335,-0.026382,-0.094361,-0.017624,0.589844,0.235352,-0.307861,-1.632516,-6.671385,6.750496,-0.005572,-0.034928,-0.012564,0.332764,0.327393,-0.513916,0.330327,-5.367388,10.35982,0.766517,1.373609,-0.117374,-0.256836,0.350098,-0.457764
1.906475,-7.401852,6.20647,-0.005622,0.002355,0.025805,-0.358398,0.309082,0.128906,-0.187105,8.145861,5.297326,0.027451,0.004176,0.00849,0.269531,0.391602,0.469482,-1.429475,-7.124857,6.362239,-0.364072,0.052117,0.048658,0.583984,0.22876,-0.299561,-1.426271,-7.240418,6.203271,-0.177353,-0.044998,0.0424,0.323486,0.32373,-0.511475,-0.40249,-6.186802,8.956674,-0.830628,1.060175,-0.059069,-0.246582,0.350586,-0.453125
1.939678,-7.730186,5.956785,-0.039257,-7.9e-05,-0.008466,-0.35376,0.312256,0.123047,0.120206,8.398362,5.337883,0.016518,-0.011339,-0.001451,0.265869,0.400635,0.462891,-1.50319,-8.024593,6.347279,0.001689,0.035888,0.028894,0.586914,0.233154,-0.306396,-1.45144,-7.455824,6.144435,0.053399,-0.10467,-0.021574,0.328857,0.325684,-0.517822,-0.711672,-6.646992,6.100167,-1.596803,-0.605862,0.106632,-0.245605,0.373779,-0.438965
1.788495,-7.44553,6.207679,0.154714,0.009622,0.008559,-0.358398,0.317139,0.127197,-0.240228,8.281681,5.031202,0.003478,0.030007,0.023202,0.263672,0.4021,0.476318,-1.563727,-7.003245,6.698322,0.408462,0.12678,-0.026468,0.585938,0.234131,-0.301758,-1.40823,-7.228218,6.753164,0.102242,-0.09366,0.021755,0.319092,0.32666,-0.515137,1.177305,-5.574152,4.295312,-1.607753,-0.95615,0.150083,-0.257568,0.395264,-0.411865
1.97757,-7.020967,6.258239,-0.034643,-0.015488,-0.007431,-0.358887,0.315186,0.120117,0.085733,8.459637,5.04606,0.079213,-0.03522,-0.009823,0.260986,0.402588,0.468262,-1.770735,-6.046634,7.125138,0.001581,0.039651,-0.000875,0.584473,0.233887,-0.30835,-1.401317,-7.369966,6.935565,-0.059613,-0.177016,-0.021847,0.317139,0.327637,-0.520264,1.227604,-5.601888,6.122457,0.038591,0.061741,0.117921,-0.254639,0.398438,-0.418457
1.829741,-7.668029,6.096305,-0.06451,0.009918,0.000775,-0.354492,0.310059,0.122803,-0.113175,8.488905,5.176263,-0.072497,0.067246,0.023889,0.267578,0.404297,0.468262,-1.569146,-7.328166,6.747657,-0.340502,0.046473,0.063647,0.587891,0.229004,-0.304199,-1.010909,-7.414994,6.386821,0.051317,-0.153966,-0.020875,0.319824,0.323975,-0.521484,0.547674,-5.090268,8.019277,-0.162599,0.34033,0.082233,-0.244385,0.390137,-0.41748
1.896279,-7.369472,6.179261,0.09553,-0.01504,0.006187,-0.361328,0.314453,0.129883,-0.072734,8.162415,5.102628,-0.056626,-0.060226,-0.002715,0.267822,0.398926,0.477539,-1.81253,-7.673083,6.693871,0.143791,-0.018141,-0.043351,0.583008,0.23584,-0.298584,-0.868856,-6.923095,6.360794,0.038564,0.057704,-0.01903,0.313965,0.330811,-0.516357,-0.519608,-6.823862,6.988042,-0.61137,0.679987,0.191835,-0.246338,0.407959,-0.411377
2.000493,-7.252165,6.248976,-0.091536,0.014891,0.002182,-0.355469,0.312988,0.12793,0.149507,8.282965,5.135344,0.044727,0.039617,0.001645,0.268311,0.398193,0.46875,-1.440659,-6.597933,6.918625,0.162543,-0.055117,-0.025499,0.586426,0.231689,-0.303955,-1.099244,-7.174559,6.62194,-0.078629,0.165274,0.088399,0.325439,0.32666,-0.516846,-0.32168,-6.565715,6.970781,-0.12235,-0.798655,0.78658,-0.238281,0.409424,-0.404541
1.742664,-7.738069,6.070142,0.037047,0.001198,0.005085,-0.356201,0.313232,0.131104,-0.217475,8.570505,5.096886,0.014836,-0.009003,-0.00431,0.27002,0.390381,0.469971,-1.755943,-6.598653,6.837206,-0.16156,-0.034552,0.019653,0.58374,0.233887,-0.299316,-1.413195,-7.368073,6.66867,-0.053407,0.180993,0.022316,0.323975,0.327881,-0.512695,0.568594,-6.78127,7.01293,-0.327109,-0.006595,-0.925916,-0.248047,0.408203,-0.401367
1.968614,-7.000178,6.340988,0.053019,-0.014517,0.011748,-0.359619,0.316162,0.132568,0.008574,8.348598,5.119481,-0.127077,0.00754,0.008587,0.265625,0.401123,0.4729,-1.584204,-7.399397,6.579033,-0.194903,-0.096949,0.003942,0.58374,0.238037,-0.297852,-1.540598,-7.451584,6.5381,-0.068836,0.112858,0.037388,0.324707,0.32959,-0.506836,-0.072881,-7.288056,7.565394,1.154414,-0.321148,0.615775,-0.246094,0.402344,-0.406006
1.796619,-7.693182,5.94764,-0.15584,0.022754,-0.006366,-0.361328,0.312988,0.123779,-0.109826,8.159352,5.221567,-0.006975,0.008397,-0.001075,0.265381,0.402832,0.467285,-1.377557,-7.466964,6.383341,0.096055,0.003068,-0.02892,0.578857,0.233154,-0.308105,-1.442954,-7.317063,6.385645,0.061484,0.041285,-0.018763,0.321777,0.325928,-0.516602,0.243321,-3.253004,7.994723,-0.541804,-0.492176,0.134742,-0.253662,0.403564,-0.404297
2.014398,-7.53358,6.184402,0.125498,-0.032153,0.009716,-0.352051,0.309814,0.119141,0.028036,8.340745,5.075639,0.050453,-0.020044,0.015836,0.265869,0.401123,0.474121,-1.611183,-6.672725,6.582767,0.137228,-0.008036,-0.014692,0.584473,0.229736,-0.312744,-1.519534,-6.967802,6.440806,-0.002261,-0.005816,0.016277,0.328613,0.324707,-0.520752,1.361598,-6.490321,7.180173,-1.952676,0.064659,0.12021,-0.246338,0.424805,-0.386719
1.847455,-7.153686,6.199089,-0.040961,0.027174,-0.004331,-0.357422,0.311768,0.123291,-0.008812,8.51059,5.248732,-0.031022,0.030721,-0.020635,0.267334,0.395752,0.46582,-1.275907,-6.887491,6.652926,-0.151907,0.049243,0.029925,0.58252,0.230469,-0.305664,-1.407425,-7.379387,6.483733,-0.033916,-0.10517,0.019992,0.327148,0.325928,-0.513184,-0.129825,-9.185862,6.553878,-0.943989,0.317074,0.378763,-0.240723,0.442383,-0.375244
1.839569,-7.707105,6.062593,-0.027254,-0.012194,0.00859,-0.355469,0.312988,0.120361,-0.189073,8.19977,5.072294,-0.036526,-0.008915,0.040057,0.26416,0.403076,0.47168,-1.844185,-7.448834,6.664827,0.004236,0.104759,0.04465,0.588379,0.232422,-0.304932,-1.386006,-7.20447,6.564166,0.055473,-0.084386,-0.019936,0.326416,0.325928,-0.520996,-0.372446,-8.209199,6.663554,0.843963,-0.152785,-0.24988,-0.243408,0.431885,-0.386719
1.90806,-7.495888,6.046787,0.09483,-0.004057,0.004646,-0.360107,0.30835,0.126953,0.104116,8.286256,5.208538,0.058529,-0.000101,-0.024471,0.265137,0.399902,0.468262,-1.562264,-7.042555,6.806159,0.122903,-0.01471,-0.04366,0.58252,0.229248,-0.304443,-1.244179,-7.462013,6.624134,-0.069591,-0.119523,0.028271,0.318115,0.321777,-0.517334,0.773451,-5.921904,7.275478,0.842165,-0.239209,-0.004806,-0.247314,0.416504,-0.391602
1.853197,-7.275073,6.257877,0.078402,-0.011817,0.01035,-0.367432,0.302246,0.129395,-0.149017,8.470442,5.011326,0.025784,0.015983,0.039184,0.263672,0.394043,0.467285,-1.626005,-6.850318,6.858739,0.00784,0.061337,0.037449,0.57666,0.221191,-0.297119,-1.080918,-7.365105,6.492847,0.119469,-0.022608,-0.02833,0.312012,0.314209,-0.513428,0.575555,-5.592096,7.351236,-0.083888,0.177829,0.068125,-0.250977,0.41333,-0.38501
1.959554,-7.03606,6.463684,0.025954,-0.001564,0.004012,-0.35083,0.317139,0.123779,0.051258,8.478561,5.053456,-0.034358,-0.021498,-0.0217,0.274658,0.41626,0.469238,-1.739109,-6.856556,6.823249,-0.02912,-0.04915,-0.029461,0.591064,0.234619,-0.305176,-1.17713,-6.86445,6.583542,-0.008352,0.055453,0.008928,0.327148,0.32666,-0.51709,-0.198791,-6.337453,7.223904,-0.309858,0.106354,0.048527,-0.237061,0.427734,-0.387451
1.830157,-7.608176,5.902395,-0.190075,0.001723,0.009812,-0.360107,0.312256,0.128906,-0.087063,8.320082,5.239757,-0.085922,0.018846,0.01628,0.273438,0.401367,0.477783,-1.468567,-7.088567,6.826122,-0.103318,-0.02358,0.022113,0.58374,0.231201,-0.299561,-1.170174,-7.287944,6.577583,-0.120928,0.097079,0.056765,0.32373,0.323242,-0.513916,0.299081,-7.227248,7.456398,-0.534885,-0.193947,0.049525,-0.245605,0.431152,-0.376953
2.148993,-7.765672,6.133407,0.149213,-0.0156,0.022952,-0.358887,0.317627,0.123291,0.114669,8.149653,5.022836,-0.018085,-0.044586,-0.008796,0.275635,0.401855,0.4646,-1.613455,-7.286667,6.581209,-0.037907,-0.063681,-0.001127,0.582275,0.237793,-0.307617,-1.182811,-7.41782,6.388276,-0.042457,0.123098,0.023624,0.323242,0.335693,-0.518066,0.915417,-7.864508,6.744072,-0.043719,0.099499,0.068759,-0.244629,0.439209,-0.383545
1.527218,-6.827961,6.31346,0.064132,-0.002838,0.030914,-0.35376,0.314941,0.12915,-0.169743,8.497708,5.185542,0.059414,0.028964,-0.018232,0.263428,0.406494,0.475098,-1.573856,-6.99468,6.751251,0.09294,-0.047582,-0.013466,0.586182,0.235352,-0.303223,-1.43454,-7.286046,6.406704,0.051236,0.215713,0.039764,0.327637,0.327393,-0.51123,-0.355935,-6.747408,6.54463,0.746497,0.261644,0.00021,-0.237549,0.426025,-0.388428
1.929016,-7.602421,6.196596,-0.198256,0.000157,-0.011574,-0.367676,0.313232,0.134521,-0.207396,8.377534,5.262431,-0.122242,-0.029937,0.029761,0.270752,0.397461,0.470459,-1.77756,-6.691106,6.713923,-0.055955,-0.015174,-0.000466,0.573242,0.233154,-0.29834,-1.836855,-7.009019,6.825833,-0.065927,0.133008,0.013415,0.318604,0.324707,-0.50293,-0.365504,-5.277012,7.577996,0.295761,-0.219074,-0.109704,-0.25293,0.422363,-0.383789
1.946045,-7.860141,6.005709,0.125387,-0.004426,-0.002124,-0.366943,0.319092,0.125732,0.233243,8.233526,5.115286,0.018798,0.011706,-0.022385,0.263672,0.402832,0.480957,-1.320073,-7.311342,6.472741,-0.177261,-0.080856,0.002659,0.574463,0.23877,-0.303711,-1.560059,-7.76459,6.474901,-0.16567,-0.0869,0.067396,0.320557,0.33374,-0.508789,1.014556,-6.234102,7.243333,-0.716255,-0.199731,0.084328,-0.251465,0.43457,-0.381592
1.820886,-6.82938,6.295616,0.035373,0.004905,0.016989,-0.349854,0.306396,0.12793,-0.268987,8.328389,5.192929,-0.012486,0.026188,0.031521,0.269531,0.390381,0.473877,-1.453614,-7.442867,6.435906,0.115,0.09333,0.002089,0.588379,0.22998,-0.30249,-1.346698,-7.481617,6.12098,0.213808,-0.049365,-0.095728,0.331055,0.318848,-0.510498,0.287182,-7.799861,6.766506,-0.420522,0.312235,0.093622,-0.234863,0.430176,-0.37793
1.891707,-7.796337,6.086552,-0.148887,-0.000383,-0.028095,-0.355469,0.3125,0.128906,0.101024,8.331845,5.16093,0.016152,-0.017136,-0.015769,0.263428,0.400879,0.466309,-1.661338,-6.737966,6.672539,0.131606,0.028542,-0.029297,0.584473,0.232422,-0.30249,-1.480425,-6.558576,6.554358,0.083403,-0.063082,0.004267,0.326904,0.324463,-0.515381,-0.47997,-7.464154,7.076503,0.368736,-0.058986,-0.056604,-0.239014,0.43042,-0.382324
1.924486,-7.512134,6.052311,0.190213,0.004622,0.022045,-0.354736,0.315186,0.121338,-0.052395,8.35463,5.118676,0.002406,0.02476,0.024199,0.267578,0.403076,0.468262,-1.406351,-6.840886,6.808518,-0.072941,0.063607,0.058961,0.587891,0.237061,-0.308594,-1.306319,-7.218578,6.686125,-0.177976,-0.134545,0.052593,0.327393,0.32959,-0.518066,0.602827,-6.301951,7.134116,0.436675,-0.261549,-0.085871,-0.239258,0.428223,-0.391602
1.818481,-6.943608,6.423598,-0.039243,-0.003754,-0.009216,-0.355713,0.313232,0.122314,-0.041268,8.363925,5.083852,0.017799,-0.003509,-0.003539,0.267578,0.400879,0.464844,-1.830094,-7.281135,6.783547,-0.060316,0.055561,0.000357,0.586182,0.231689,-0.307129,-1.281014,-7.896569,6.48736,-0.051263,-0.058662,0.015896,0.324707,0.325684,-0.51709,0.56735,-6.046078,7.266278,-0.070567,0.168982,0.031536,-0.24292,0.422852,-0.389648
1.870405,-7.674693,6.02937,-0.092891,0.016253,-0.003131,-0.357422,0.310791,0.133301,-0.094192,8.421532,5.173494,-0.031451,0.023052,0.008144,0.270508,0.394531,0.470215,-1.626615,-7.229618,6.810963,0.071838,-0.017145,-0.013139,0.582031,0.230713,-0.300049,-1.249636,-7.422257,6.527624,0.18318,-0.01427,-0.056684,0.322998,0.324219,-0.51416,-0.256595,-6.731826,7.169453,-0.377513,0.056232,0.053652,-0.240479,0.428223,-0.378906
1.903551,-7.473013,6.196082,0.100742,-0.018009,0.006862,-0.357422,0.318848,0.129395,0.021059,8.248245,5.11108,-0.037695,-0.019568,0.01022,0.263184,0.39917,0.463867,-1.639921,-6.755517,6.825374,0.057842,-0.014624,-0.034179,0.583496,0.23584,-0.303467,-1.145357,-6.648295,6.633762,0.041519,0.057109,0.00601,0.324219,0.329346,-0.512451,0.294071,-7.340354,6.937399,-0.083684,-0.176017,-0.016669,-0.243408,0.436279,-0.377441
1.955818,-7.114591,6.212532,-0.036272,0.015348,-0.000899,-0.357666,0.313477,0.13208,0.018919,8.378895,5.085729,0.023818,0.021131,-0.007814,0.266113,0.401855,0.467529,-1.497584,-6.900769,6.704024,-0.124259,-0.076592,0.026903,0.583008,0.23584,-0.299072,-1.226793,-7.145279,6.448244,-0.211608,0.104008,0.072726,0.326904,0.326416,-0.50708,0.595468,-6.934896,7.188239,0.223434,0.024435,-0.028897,-0.245117,0.430908,-0.37915
1.801735,-7.651855,6.120011,-0.050698,-0.002856,0.007896,-0.358643,0.309326,0.126221,-0.090015,8.386668,5.176534,-0.050877,0.001657,0.006847,0.27002,0.399902,0.480713,-1.499717,-7.313232,6.579593,-0.07195,0.005395,-0.002451,0.582275,0.230225,-0.303223,-1.44531,-7.709013,6.358088,-0.009551,0.134855,0.031454,0.325684,0.324219,-0.512695,0.090791,-6.47116,7.126094,0.105759,0.092984,0.011472,-0.244385,0.424805,-0.38623
1.854592,-7.359433,6.198306,0.058644,0.009639,0.005987,-0.361816,0.311523,0.122559,-0.082179,8.298132,5.193442,-0.008566,0.000303,-0.002687,0.262695,0.404053,0.470459,-1.73251,-7.166602,6.632131,0.073661,-0.027056,-0.002831,0.575684,0.230957,-0.306885,-1.663573,-7.213402,6.625816,0.078617,0.071851,-0.011981,0.322998,0.324463,-0.513428,-0.00805,-6.459059,7.128175,-0.066582,-0.065849,-0.003607,-0.24585,0.42749,-0.385498
1.856081,-7.412315,6.119365,-0.048626,-0.014712,-0.010707,-0.359863,0.314941,0.129639,-0.05415,8.325101,5.149675,-0.01033,0.004264,0.013694,0.264404,0.404785,0.46582,-1.382745,-6.870149,6.621783,0.011186,-0.014799,-0.025149,0.580566,0.232422,-0.304199,-1.582572,-7.236648,6.602044,-0.064328,-0.058416,0.027531,0.327393,0.329346,-0.51001,0.432121,-6.886842,7.019387,-0.188826,-0.0634,-2.9e-05,-0.24585,0.432373,-0.378906
1.920458,-7.477274,6.168893,0.034195,0.016374,0.005675,-0.362061,0.318115,0.135498,-0.000114,8.368927,5.109899,0.01293,0.009641,0.003028,0.259033,0.397949,0.479492,-1.5397,-7.07704,6.581401,-0.052102,0.057906,0.028366,0.580078,0.242188,-0.294678,-1.362022,-7.394507,6.279253,0.026613,-0.093529,-0.02228,0.321045,0.333252,-0.502197,0.281741,-7.050108,7.114506,0.025058,0.055002,0.014669,-0.246582,0.435059,-0.375244
1.876375,-7.342733,6.130399,-0.002673,-0.008345,-0.006225,-0.348633,0.316895,0.125488,-0.029954,8.33249,5.201634,-0.031317,0.010894,0.010201,0.260498,0.399658,0.479004,-1.537746,-7.172871,6.6222,0.024965,0.028547,-0.007747,0.591797,0.238037,-0.306885,-1.283737,-7.056097,6.406181,0.068745,-0.059507,-0.009702,0.332275,0.326172,-0.515381,0.120341,-6.771351,7.118024,0.115784,-0.032919,-0.034321,-0.237305,0.430908,-0.38501
1.886352,-7.465787,6.1828,0.005344,0.007395,0.003465,-0.359619,0.319336,0.128174,-0.064402,8.248378,5.100453,0.022417,-0.005687,0.006813,0.261475,0.400146,0.47168,-1.600629,-7.060957,6.777815,0.05017,0.057274,0.023947,0.582275,0.242188,-0.30249,-1.367676,-7.199243,6.663633,-0.061886,-0.04452,0.031376,0.322754,0.33374,-0.512207,0.334777,-6.591217,7.127978,0.063074,-0.045434,0.003952,-0.246338,0.435791,-0.381592
1.872064,-7.367305,6.17029,0.028097,-0.000394,-0.004766,-0.361084,0.30957,0.125977,0.004474,8.47962,5.111847,0.031101,0.021726,-0.003434,0.270752,0.400879,0.46875,-1.701442,-6.90562,6.866735,0.017906,0.00641,-0.014054,0.581787,0.22876,-0.301514,-1.291811,-7.575947,6.603944,-0.043342,-0.044593,0.014682,0.320312,0.324219,-0.512451,0.278431,-6.655523,7.158538,-0.066143,0.032023,-0.006769,-0.244873,0.426514,-0.381104
1.863707,-7.300626,6.224954,-0.02546,0.003507,0.004821,-0.356689,0.316406,0.134521,-0.111817,8.38902,5.159725,-0.071573,0.001762,0.013884,0.273682,0.408691,0.469971,-1.605544,-7.053462,6.805946,-0.076781,-0.00968,0.008628,0.581299,0.238037,-0.300537,-1.233662,-7.345343,6.479603,0.074413,0.020898,-0.023302,0.322266,0.327637,-0.507568,0.148478,-6.832018,7.054417,-0.043459,-0.005219,0.018674,-0.243652,0.43335,-0.375732
1.936098,-7.559748,6.101331,-0.031937,-0.008558,-0.0065,-0.355713,0.313232,0.126465,0.053175,8.216401,5.115487,-0.017992,-0.006885,-0.00171,0.263916,0.400879,0.464355,-1.628938,-7.174718,6.687327,0.005015,-0.033553,-0.013688,0.584229,0.233887,-0.306885,-1.265179,-6.972248,6.52146,0.008669,0.067874,0.010666,0.327148,0.325928,-0.517334,0.27898,-6.820034,7.124747,0.015352,-0.052962,-0.021548,-0.244141,0.431152,-0.381348
1.884896,-7.352688,6.187158,0.055387,0.013751,0.011191,-0.364014,0.314697,0.130859,-0.052723,8.364815,5.155834,0.02596,0.027613,0.00696,0.26123,0.398438,0.468018,-1.456515,-6.976658,6.644242,0.012491,-0.030779,-0.008281,0.576172,0.235352,-0.300049,-1.318976,-7.207953,6.460421,-0.096135,0.090016,0.050186,0.319092,0.328857,-0.506592,0.41446,-6.79836,7.126472,-0.009586,0.00056,0.003821,-0.25,0.431641,-0.376221
1.84801,-7.333235,6.185188,-0.05082,-0.004954,-0.00038,-0.357666,0.314697,0.123291,-0.071599,8.435634,5.162529,-0.032174,-0.013807,-0.006023,0.264893,0.403564,0.468994,-1.592357,-6.996706,6.659695,-0.039503,0.00192,0.011704,0.580811,0.231689,-0.307617,-1.531309,-7.482785,6.475167,-0.02104,0.086038,0.027865,0.327637,0.325684,-0.512207,0.136884,-6.769506,7.027594,0.039793,0.051978,0.011858,-0.244385,0.428711,-0.388672
1.850485,-7.559188,6.11014,0.000262,0.002707,2.3e-05,-0.35791,0.312012,0.121338,-0.05027,8.257303,5.162797,-0.041192,0.016851,0.015892,0.266113,0.405273,0.471191,-1.558923,-7.153544,6.60379,-0.036359,-0.018522,-0.004781,0.580566,0.234863,-0.311768,-1.582464,-7.318275,6.586784,0.032515,-0.003171,-0.00697,0.325928,0.326904,-0.519531,0.123959,-6.651468,7.118148,0.016884,-0.046074,-0.025142,-0.243408,0.43042,-0.388428
1.897067,-7.386571,6.165492,0.025989,-0.000683,-0.002255,-0.361572,0.316162,0.126709,-0.077694,8.297364,5.16325,0.022104,-0.003417,-0.003854,0.268555,0.4104,0.46167,-1.498712,-7.174953,6.60251,0.02487,0.029618,0.000141,0.576904,0.237305,-0.304443,-1.441821,-7.260489,6.487243,-0.010794,-0.068748,0.005614,0.322754,0.328857,-0.511475,0.399862,-6.773506,7.090852,-0.060032,-0.03849,0.013093,-0.248047,0.435547,-0.382568
1.882568,-7.373692,6.192593,-0.001736,0.002561,-0.002588,-0.358398,0.30957,0.128662,0.021032,8.412875,5.126343,0.007778,0.015518,0.013408,0.264404,0.395508,0.473633,-1.568592,-6.970857,6.664488,0.053512,0.027096,-0.005122,0.580322,0.228027,-0.303223,-1.329119,-7.239762,6.392124,0.035476,-0.06371,-0.010916,0.322266,0.320557,-0.511719,0.25941,-6.86142,7.090701,0.007667,0.039929,-0.007725,-0.246826,0.427002,-0.381104
1.885063,-7.425552,6.14312,-0.004113,-0.000439,-0.000106,-0.354492,0.312988,0.123291,-0.068475,8.333431,5.162314,-0.030626,-0.002244,0.001857,0.271973,0.408691,0.470459,-1.533475,-6.938125,6.718475,-0.020373,0.038103,0.014219,0.588623,0.234863,-0.306885,-1.301634,-7.09796,6.538173,0.011802,-0.044678,0.004953,0.329102,0.327393,-0.514648,0.200511,-6.795003,7.120328,0.028914,-0.034936,-0.001837,-0.240967,0.431885,-0.384521
1.88603,-7.42227,6.175255,0.017144,0.008033,0.001847,-0.364746,0.314941,0.124268,0.001974,8.310244,5.111161,0.010462,0.009527,0.007855,0.269043,0.406006,0.477295,-1.681899,-7.15256,6.763963,-0.032894,0.031639,0.015669,0.577637,0.23291,-0.309082,-1.326453,-7.336991,6.610031,-0.060334,-0.021164,0.028944,0.318115,0.328369,-0.515625,0.335683,-6.712215,7.064252,0.03996,-0.016369,-0.00882,-0.251953,0.427002,-0.385742
1.855569,-7.33538,6.190902,0.001475,-0.002675,5.1e-05,-0.359863,0.314697,0.130127,-0.089618,8.410414,5.137042,0.006665,0.011123,0.000241,0.268799,0.401367,0.475342,-1.610671,-7.085319,6.767458,0.04028,-0.014404,-0.016022,0.581055,0.231689,-0.300293,-1.310789,-7.473326,6.503669,0.003129,-0.001957,0.002594,0.323242,0.327637,-0.510254,0.228075,-6.684707,7.143908,0.000805,0.022999,-0.001925,-0.246338,0.429199,-0.378662
1.89603,-7.428698,6.16917,-0.018475,-0.000204,0.000724,-0.353027,0.313232,0.124756,-0.013038,8.368883,5.135007,-0.04354,-0.004869,0.00923,0.272217,0.406006,0.476074,-1.57917,-6.949006,6.749328,-0.007745,-0.010969,-0.0023,0.583984,0.232178,-0.30957,-1.271063,-7.228254,6.496982,0.048109,0.039885,-0.004919,0.328369,0.328125,-0.516602,0.220783,-6.745219,7.099536,-0.031121,-0.03252,0.005582,-0.239502,0.432129,-0.38501
1.885379,-7.428006,6.134128,0.00298,0.004844,0.002809,-0.354736,0.31543,0.118164,-0.028267,8.277485,5.117256,-0.016201,0.016424,0.001839,0.28125,0.402588,0.468506,-1.566502,-7.016455,6.677018,-0.03852,-0.029482,-0.004556,0.58374,0.235107,-0.309082,-1.32976,-7.039933,6.511728,-0.019668,0.067518,0.017828,0.327148,0.326172,-0.519775,0.340558,-6.8123,7.111714,-0.021582,-0.01694,-0.012543,-0.242676,0.431885,-0.390381
1.879256,-7.387356,6.174955,-0.0025,0.001815,0.004135,-0.354248,0.315918,0.121094,-0.065972,8.355122,5.170295,0.002509,0.000346,0.002476,0.269531,0.396973,0.465576,-1.505939,-7.141588,6.620462,-0.036607,-0.010884,0.008026,0.584717,0.236084,-0.308838,-1.410155,-7.321749,6.466692,-0.08756,0.055236,0.044986,0.330566,0.328125,-0.515869,0.274502,-6.835581,7.084703,0.006715,0.021734,0.014086,-0.242676,0.43335,-0.38501
1.845186,-7.460966,6.162291,-0.012531,-0.000261,0.000494,-0.359619,0.316162,0.130615,-0.050067,8.385556,5.16677,-0.013821,0.005644,0.003131,0.271729,0.405518,0.467773,-1.604779,-7.115713,6.638467,0.020109,0.001282,-0.004068,0.581055,0.23584,-0.299316,-1.524403,-7.485494,6.51011,0.015897,0.034034,0.008831,0.326416,0.330322,-0.505371,0.169463,-6.730121,7.092664,0.046458,-0.003931,-0.015215,-0.243652,0.433105,-0.375488
1.900281,-7.424016,6.15789,0.026139,0.004691,-0.001198,-0.356689,0.31665,0.12915,-0.062115,8.343708,5.105643,-0.01039,0.011275,0.006162,0.26709,0.407715,0.468506,-1.509831,-7.003118,6.664012,0.013287,0.008928,-0.004578,0.582275,0.238037,-0.306396,-1.497166,-7.255428,6.600774,0.042711,-0.036283,-0.011056,0.325439,0.332031,-0.511475,0.300749,-6.685127,7.119418,0.001796,-0.036016,-0.006656,-0.244629,0.43457,-0.381104
1.811427,-7.329055,6.156562,-0.017267,-0.003216,-0.000196,-0.36499,0.310791,0.125,-0.076142,8.337363,5.193679,-0.019773,0.003877,0.007764,0.276855,0.39917,0.468262,-1.606551,-7.033196,6.654872,-0.018255,0.032284,0.005441,0.573242,0.231201,-0.308838,-1.393427,-7.160048,6.44135,-0.018723,-0.065349,0.003447,0.318848,0.321289,-0.516357,0.295129,-6.754879,7.02605,-0.032442,0.016033,0.006669,-0.254395,0.42627,-0.38501
1.981929,-7.559927,6.155491,-0.010551,-0.002303,-0.008717,-0.356934,0.319336,0.126221,0.021071,8.273646,5.119502,0.005982,-8e-06,0.006212,0.264893,0.402588,0.469971,-1.537153,-7.115878,6.668991,-0.006325,0.005804,0.003782,0.583252,0.238037,-0.307129,-1.271708,-7.333432,6.440746,-0.010801,-0.041675,0.01186,0.324707,0.330566,-0.51416,0.212652,-6.808534,7.170227,-0.002052,-0.021099,-0.007321,-0.243896,0.436768,-0.382812
1.837052,-7.327294,6.184986,0.058232,0.011514,0.009192,-0.354004,0.306885,0.126465,-0.052976,8.42934,5.119869,0.022249,0.020212,0.000474,0.27124,0.401855,0.460938,-1.560372,-7.051075,6.730821,0.04055,0.039679,0.004891,0.585449,0.226562,-0.306396,-1.319593,-7.223975,6.555768,0.039082,-0.004761,-0.002814,0.32959,0.320557,-0.511963,0.390723,-6.851543,7.107171,-0.002208,-0.028918,-0.002656,-0.242432,0.424072,-0.379883
1.870048,-7.317988,6.233079,-0.048675,-0.006575,-0.005082,-0.352539,0.307617,0.128662,-0.072526,8.34944,5.16653,-0.045378,-0.005373,0.008127,0.265625,0.396973,0.475586,-1.711695,-6.957259,6.811828,-0.006145,0.003843,-0.000171,0.588379,0.227295,-0.30127,-1.360582,-7.265883,6.564416,-0.051534,0.001795,0.024559,0.328369,0.321289,-0.51123,0.221992,-6.731703,7.031127,0.084761,0.05169,0.001809,-0.236816,0.423096,-0.37915
1.870544,-7.571869,6.092292,-0.00048,0.005228,-0.000476,-0.361816,0.311768,0.125732,-0.006247,8.317826,5.138124,0.001463,0.010984,0.003395,0.267334,0.404541,0.468994,-1.570661,-7.075953,6.741022,-0.046117,-0.024074,0.000146,0.576416,0.233643,-0.30542,-1.334591,-7.396913,6.535212,-0.006548,0.014417,0.006771,0.318848,0.327637,-0.511719,0.162131,-6.55976,7.245545,-0.006841,-0.048481,-0.02196,-0.248291,0.430176,-0.384521
1.897815,-7.280813,6.209094,0.038098,0.000783,0.005162,-0.361816,0.314209,0.131592,-0.061356,8.353733,5.140276,-0.018458,0.007253,0.006211,0.271729,0.39624,0.472168,-1.575554,-7.140385,6.663813,-0.007336,-0.001791,-0.003847,0.580322,0.234619,-0.29834,-1.312118,-7.224433,6.433078,0.016011,0.040851,0.002878,0.320312,0.325195,-0.509277,0.462137,-6.815717,7.049737,-0.099439,-0.02898,0.018263,-0.250732,0.429688,-0.377686
1.863658,-7.412572,6.178399,-0.060874,-0.000148,-0.005306,-0.359619,0.325684,0.125,-0.02364,8.340661,5.152108,-0.006772,0.001816,0.001562,0.269531,0.406738,0.467529,-1.571141,-7.013679,6.673702,0.024207,-0.021256,-0.009537,0.580811,0.246094,-0.308838,-1.410551,-7.173989,6.498315,-0.006391,0.053473,0.01836,0.325195,0.338135,-0.517334,0.192608,-6.866128,7.073673,0.032744,0.057868,-0.005096,-0.24585,0.442139,-0.38501
1.900519,-7.542959,6.112397,0.035627,0.003276,0.004597,-0.357666,0.311768,0.124512,-0.043804,8.319307,5.120404,-0.023577,0.010216,0.00688,0.270508,0.402832,0.476807,-1.504155,-6.965423,6.668415,-0.02368,0.001306,0.004957,0.57959,0.23291,-0.306396,-1.4328,-7.256692,6.533823,-0.037475,0.013729,0.022487,0.323975,0.326904,-0.514404,0.204819,-6.748256,7.133972,0.02994,-0.056672,-0.014758,-0.245605,0.427002,-0.383301
1.839362,-7.270399,6.223403,0.005745,0.000772,0.002158,-0.354248,0.313721,0.123779,-0.067031,8.34816,5.159648,0.011967,0.004535,0.001885,0.270752,0.398682,0.468262,-1.625582,-7.145355,6.655216,-0.035813,0.018239,0.009415,0.587646,0.234619,-0.307617,-1.488668,-7.414616,6.481363,-0.021292,-0.00324,0.016625,0.32959,0.327148,-0.515381,0.377078,-6.69012,7.057295,0.041636,-0.000925,0.003254,-0.241699,0.431641,-0.386475
1.884473,-7.512438,6.102748,-0.037286,0.000679,-0.005401,-0.362549,0.310791,0.12915,-0.025746,8.353797,5.158326,-0.025479,0.005108,0.008454,0.271484,0.399414,0.472412,-1.541824,-7.134609,6.653216,0.028691,0.001664,-0.008489,0.577393,0.23291,-0.302734,-1.430969,-7.318627,6.524909,0.044579,-0.041368,-0.013371,0.319336,0.324463,-0.508301,0.20525,-6.664694,7.159271,-0.032661,0.016198,-0.015346,-0.249023,0.427246,-0.380615
1.860445,-7.410395,6.187937,0.053006,0.001451,0.004709,-0.364014,0.310059,0.125244,-0.060071,8.290674,5.122353,0.000675,0.008061,0.004429,0.266113,0.397461,0.469727,-1.567628,-6.984334,6.688161,0.028561,0.034887,0.001025,0.575928,0.229492,-0.305176,-1.311821,-7.147215,6.494491,0.00998,-0.038302,0.003056,0.319336,0.322998,-0.515137,0.284303,-6.849611,7.056983,-0.038784,-0.038852,0.018529,-0.251953,0.427002,-0.384033
1.880561,-7.308111,6.182069,-0.023118,0.001276,-0.00384,-0.363281,0.314453,0.129639,-0.008247,8.372393,5.147998,5.5e-05,0.005037,0.003995,0.269287,0.405518,0.471436,-1.616471,-6.976922,6.734133,-0.020937,0.005204,0.004335,0.577148,0.233398,-0.300293,-1.331834,-7.236307,6.519861,-0.023528,-0.012737,0.016048,0.320312,0.327393,-0.510254,0.333279,-6.81058,7.091255,0.043651,0.003225,-0.027554,-0.248779,0.428467,-0.375977
1.889955,-7.49587,6.174262,-0.006421,0.000323,0.003211,-0.352295,0.316162,0.126709,-0.059709,8.340746,5.136698,-0.015457,0.005268,0.007867,0.26123,0.400879,0.468994,-1.556246,-7.126817,6.708144,-0.029982,0.008268,0.009666,0.588867,0.236328,-0.305176,-1.325415,-7.330706,6.524545,-0.01986,-0.003809,0.016245,0.330566,0.328857,-0.515625,0.253667,-6.721123,7.16856,0.02631,0.002073,0.010583,-0.239258,0.430664,-0.383301
1.858043,-7.353607,6.176654,0.026478,0.006419,0.001557,-0.357178,0.30835,0.128906,-0.040955,8.35894,5.15026,-0.008796,0.007387,0.001269,0.270264,0.406982,0.465576,-1.673378,-7.101771,6.743771,0.023889,0.005005,-0.005667,0.58252,0.228516,-0.302002,-1.351358,-7.331575,6.562346,0.009146,0.032056,0.007186,0.324463,0.321533,-0.508545,0.260456,-6.699137,7.100369,-0.004003,-0.010482,-0.011111,-0.244629,0.424805,-0.378174
1.875609,-7.372674,6.195916,-0.025214,-0.003528,-0.001014,-0.364258,0.320068,0.121826,-0.058608,8.315904,5.101583,-0.017715,0.005376,0.00844,0.270996,0.399414,0.470459,-1.551932,-6.971295,6.711416,0.001668,-0.023965,-0.007194,0.578125,0.239014,-0.305176,-1.407374,-7.237161,6.527913,-0.003554,0.018852,0.007436,0.321533,0.330078,-0.517578,0.286646,-6.72712,7.117951,-0.010848,-0.008354,-0.001274,-0.251221,0.433105,-0.384033
1.90763,-7.479801,6.11288,-0.0004,0.004251,0.002253,-0.360596,0.310303,0.127197,-0.010788,8.343488,5.152977,-0.003468,0.005606,-0.000389,0.271973,0.399414,0.468018,-1.524051,-7.034976,6.671508,-0.042455,-0.001357,0.003463,0.57959,0.231445,-0.304443,-1.335589,-7.28447,6.464737,-0.019798,0.015883,0.015511,0.323486,0.327393,-0.515869,0.313543,-6.784293,7.123392,-0.024147,-0.01375,0.003432,-0.248047,0.428467,-0.380615
1.873451,-7.363151,6.18178,0.013983,-0.000496,0.001752,-0.347168,0.314941,0.12207,-0.06713,8.333619,5.135363,-0.022362,0.010499,0.007774,0.265869,0.39624,0.466309,-1.585851,-7.133663,6.616705,-0.00494,-0.001083,0.001163,0.594238,0.233398,-0.307861,-1.408764,-7.223173,6.482679,0.009376,0.036011,0.007452,0.33667,0.329834,-0.514404,0.298862,-6.821492,7.08603,0.010661,0.003352,-0.007749,-0.234375,0.429443,-0.381836
1.871205,-7.410589,6.150975,-0.018118,0.001977,0.000331,-0.369873,0.310547,0.127197,-0.060579,8.338741,5.141417,-0.000389,0.000413,0.002275,0.27124,0.400391,0.470703,-1.548609,-7.052525,6.655668,0.019293,0.007993,-0.001626,0.570068,0.229492,-0.300781,-1.457019,-7.289228,6.531141,-0.03035,-0.007059,0.019897,0.314941,0.324463,-0.512207,0.245927,-6.725114,7.095341,0.034195,-0.004363,0.000154,-0.255859,0.426514,-0.379395
1.857882,-7.45995,6.148719,0.012626,-0.000267,-0.000898,-0.356201,0.311768,0.133057,-0.049346,8.357178,5.141697,-0.006281,0.011474,0.007273,0.264893,0.397705,0.471924,-1.584969,-7.026555,6.697849,-0.008254,0.017028,0.003376,0.583496,0.235107,-0.30127,-1.388024,-7.389027,6.502436,-0.001637,-0.024999,0.00691,0.325439,0.328125,-0.506348,0.290244,-6.705155,7.141619,-0.003701,-0.01885,-0.012899,-0.246094,0.429199,-0.374756
1.882074,-7.358316,6.163407,0.006845,0.003023,-0.000244,-0.354736,0.314209,0.124023,-0.047956,8.33993,5.118947,-0.009056,0.002895,0.005352,0.274658,0.402344,0.476562,-1.587647,-7.08496,6.695361,-0.009861,0.008893,-0.00075,0.583984,0.234375,-0.305908,-1.385657,-7.243374,6.477283,0.03039,-0.02321,-0.006969,0.328369,0.326416,-0.515625,0.293554,-6.739592,7.117286,-0.011985,0.001003,0.006324,-0.243652,0.431152,-0.385254
1.894339,-7.412038,6.147868,-0.010784,-3e-06,-0.001004,-0.361084,0.309082,0.131104,-0.008615,8.321437,5.13799,-0.010208,0.006689,0.005205,0.266113,0.403564,0.4729,-1.56246,-7.069768,6.694627,0.013105,0.014333,-0.000519,0.577881,0.228027,-0.302979,-1.307026,-7.182577,6.502827,-0.002412,-0.023569,0.008411,0.320801,0.320068,-0.509521,0.277153,-6.790749,7.078269,-0.005577,-0.015825,-0.011502,-0.249756,0.423584,-0.378174
1.876385,-7.424795,6.14669,0.009947,0.003051,0.000913,-0.357666,0.311768,0.127197,-0.045652,8.337531,5.145998,-0.001258,0.007432,0.005486,0.268799,0.405518,0.469727,-1.588896,-6.996307,6.740089,0.005989,0.005731,0.000964,0.580322,0.230225,-0.302246,-1.300112,-7.263952,6.501809,-0.025943,0.009986,0.01812,0.324219,0.32373,-0.513672,0.33211,-6.77566,7.13065,0.009833,-0.008827,0.001482,-0.248047,0.428223,-0.379639
1.876316,-7.366033,6.165547,0.004915,0.004045,0.000497,-0.359863,0.316406,0.124756,-0.047937,8.382961,5.120181,-0.009931,0.008193,0.001463,0.267334,0.400635,0.461426,-1.586067,-7.037732,6.710702,-0.023514,0.003005,0.00319,0.582031,0.236572,-0.303711,-1.389467,-7.364597,6.516686,-0.009552,0.018972,0.014351,0.324463,0.329102,-0.513672,0.26911,-6.746523,7.108096,0.018237,0.009838,-0.006424,-0.245361,0.434326,-0.384277
1.872154,-7.444124,6.16066,-0.022573,-0.002783,-1.6e-05,-0.351807,0.316406,0.123779,-0.05838,8.32132,5.14357,-0.026876,0.003983,0.005723,0.26709,0.397461,0.472656,-1.606114,-7.100934,6.688046,-0.014424,-0.005785,-0.001352,0.590088,0.239258,-0.306641,-1.374656,-7.28867,6.523981,-0.001173,0.013365,0.004585,0.32959,0.329834,-0.51416,0.260048,-6.701433,7.112974,-0.000118,-0.013717,-0.002743,-0.240479,0.432373,-0.381592
1.876289,-7.448888,6.141787,0.017802,0.006483,-0.000377,-0.354492,0.31665,0.115967,-0.030947,8.3186,5.128597,-0.000493,0.006075,0.004337,0.272217,0.405029,0.471436,-1.560197,-7.073141,6.677323,0.009692,-0.008023,-0.005929,0.582031,0.236084,-0.317383,-1.375212,-7.276945,6.488618,-0.003873,0.016421,0.014209,0.327393,0.330078,-0.522949,0.319979,-6.740684,7.119032,-0.016022,-0.017647,-0.005753,-0.244385,0.432129,-0.390137
1.87847,-7.342722,6.191396,0.001104,-0.00271,0.001061,-0.351562,0.310547,0.12207,-0.038438,8.373823,5.146424,-0.001942,0.006114,0.004232,0.270996,0.397705,0.470459,-1.549162,-7.00888,6.666758,-0.001529,0.0059,0.001061,0.5896,0.231445,-0.306396,-1.396587,-7.241475,6.478832,0.00164,0.012648,0.006607,0.330078,0.322998,-0.514893,0.312385,-6.802645,7.099226,-0.006079,0.005059,0.000702,-0.241455,0.427979,-0.383301
1.881762,-7.437645,6.172442,-0.013396,0.007076,0.001641,-0.358154,0.308105,0.115967,-0.017413,8.365117,5.126822,-0.016404,0.003512,0.003528,0.269531,0.406738,0.473633,-1.56629,-7.052079,6.668061,-0.016358,0.006094,0.004622,0.581543,0.229004,-0.316895,-1.387585,-7.241072,6.520949,-0.010153,-0.000306,0.015642,0.324219,0.321533,-0.526855,0.255278,-6.764714,7.117627,0.031012,-0.007658,-0.004384,-0.247559,0.423096,-0.390381
1.879517,-7.440262,6.141513,0.009976,-0.001236,-0.00033,-0.356934,0.313721,0.130859,-0.057359,8.32114,5.168426,-0.020171,0.010608,0.006529,0.271973,0.410645,0.46875,-1.570338,-7.082509,6.671992,-0.008357,0.013759,0.002684,0.582031,0.232422,-0.301025,-1.412887,-7.324284,6.501404,-0.027473,-0.014073,0.012264,0.325439,0.324951,-0.508301,0.312442,-6.713712,7.110951,-0.003094,-0.015492,-0.009266,-0.242676,0.429443,-0.374023
1.876573,-7.400616,6.174187,0.003549,0.004048,-0.000584,-0.358643,0.314941,0.124756,-0.026918,8.332457,5.1235,0.012403,0.00336,0.003692,0.269775,0.403809,0.474365,-1.599035,-7.090729,6.700829,0.010678,0.009677,-0.000169,0.58374,0.233398,-0.305664,-1.370671,-7.367174,6.499277,0.020358,-0.017208,0.005705,0.325195,0.328369,-0.516602,0.278771,-6.757018,7.109239,0.003265,-0.000553,0.00355,-0.245361,0.429932,-0.383057
1.882046,-7.383419,6.15134,0.000556,-0.001243,-0.000254,-0.355713,0.31665,0.130859,-0.02324,8.40672,5.140689,-0.01162,0.008015,0.005564,0.262451,0.407471,0.47583,-1.56466,-6.998261,6.71202,0.018108,0.005591,-0.007341,0.584717,0.235596,-0.299072,-1.349841,-7.163388,6.532886,0.023529,-0.00751,-0.006562,0.32666,0.329102,-0.510254,0.28284,-6.743128,7.110783,-8.9e-05,-0.012494,-0.012415,-0.243164,0.432129,-0.376465
1.888921,-7.409753,6.158215,-0.010717,0.003758,-0.00017,-0.348145,0.307129,0.120361,-0.035577,8.310352,5.152186,-0.032348,0.001921,0.005926,0.272949,0.399414,0.473877,-1.579615,-7.018066,6.72825,-0.033481,0.005619,0.005903,0.59082,0.227539,-0.309082,-1.32732,-7.236006,6.492565,-0.043021,8.8e-05,0.026584,0.332031,0.321045,-0.51709,0.343545,-6.772884,7.107102,0.002113,-0.010029,0.005687,-0.238037,0.422119,-0.386475
1.876578,-7.43764,6.151503,0.007861,0.001064,-0.000343,-0.350098,0.3125,0.132812,-0.030782,8.310568,5.11857,0.007224,0.008033,0.003542,0.266846,0.402588,0.468506,-1.583189,-7.120029,6.673288,-0.010298,-0.004889,-0.000252,0.592773,0.231934,-0.302002,-1.368235,-7.36398,6.49116,-0.00422,0.01866,0.007725,0.33667,0.323975,-0.508057,0.29019,-6.750805,7.114515,-0.000314,0.006148,-0.007494,-0.236328,0.42749,-0.376709
1.867744,-7.370392,6.206976,0.00316,0.003563,0.003562,-0.353271,0.314209,0.123535,-0.061899,8.390468,5.157737,-0.002216,0.006634,0.004401,0.271973,0.403809,0.463623,-1.575691,-7.061237,6.697202,0.015956,0.002897,-0.003874,0.586182,0.233887,-0.306396,-1.397427,-7.268337,6.529137,0.004984,0.019629,0.010626,0.328613,0.324951,-0.514893,0.283836,-6.761558,7.097589,0.005821,-0.008778,0.003454,-0.241455,0.429199,-0.382812
1.866997,-7.446366,6.131069,-0.014612,0.000347,-0.003287,-0.362305,0.303955,0.125244,-0.021775,8.349655,5.13761,-0.029235,0.001535,0.005312,0.259766,0.399414,0.473389,-1.595258,-7.011916,6.700638,-0.006739,-0.000588,-0.000989,0.578857,0.223389,-0.307617,-1.41515,-7.280804,6.505977,-0.008311,0.003989,0.008541,0.319824,0.316406,-0.515625,0.298466,-6.719367,7.09529,0.012577,-0.009344,-0.01042,-0.249756,0.421387,-0.382568
1.895635,-7.414129,6.161562,0.017523,0.003327,0.002743,-0.357422,0.30957,0.129883,-0.041096,8.287575,5.125618,-0.009374,0.009402,0.004819,0.270264,0.39624,0.47168,-1.525603,-7.051092,6.672187,-0.019305,-0.001324,-0.000358,0.581787,0.230469,-0.299561,-1.378964,-7.257106,6.46702,-0.008957,-0.005735,0.009316,0.32373,0.323486,-0.506592,0.312617,-6.745771,7.12935,-0.014862,-0.005895,-0.002893,-0.248291,0.425049,-0.376221
1.872151,-7.366605,6.166128,-0.01105,-0.00034,-0.001976,-0.361084,0.306152,0.126221,-0.021343,8.352302,5.157874,0.007915,0.00261,0.001619,0.265381,0.395752,0.472168,-1.566087,-7.104609,6.638626,-0.006103,0.013262,0.004015,0.579102,0.229736,-0.303711,-1.374092,-7.289264,6.467025,-0.000688,0.004256,0.01018,0.32251,0.320068,-0.513184,0.302702,-6.78964,7.071196,-0.005873,-0.002966,0.004564,-0.25,0.422607,-0.381592
1.844944,-7.44613,6.126433,0.003259,0.005628,0.000639,-0.35791,0.30957,0.127441,-0.051556,8.353219,5.129705,-0.025115,0.010495,0.006054,0.264404,0.399658,0.470459,-1.606454,-7.044715,6.680574,0.02315,0.006934,-0.00362,0.58252,0.228271,-0.304443,-1.417243,-7.241858,6.517763,0.002119,-0.00071,0.0066,0.326416,0.321289,-0.512451,0.300623,-6.763721,7.105998,0.01344,0.000106,-0.01027,-0.246582,0.420166,-0.380615
1.858813,-7.402577,6.182185,0.005143,-0.003664,-0.000612,-0.359375,0.316162,0.125732,-0.076587,8.295595,5.145196,-0.004759,-6e-06,0.005348,0.267334,0.399902,0.470703,-1.589793,-7.018519,6.727257,-0.025088,0.007952,0.005432,0.58252,0.237549,-0.304688,-1.398455,-7.351272,6.510555,-0.03602,-0.006365,0.020289,0.324463,0.330566,-0.51416,0.273869,-6.726139,7.086371,0.018934,-0.006241,0.003281,-0.248291,0.434082,-0.38208
1.909726,-7.405781,6.196743,0.009956,0.005866,-0.003171,-0.359863,0.317383,0.128418,0.003343,8.401585,5.108369,0.024549,0.009251,0.004017,0.269043,0.401367,0.467285,-1.557751,-7.118911,6.697017,0.004524,-0.001419,-0.0016,0.581543,0.235107,-0.302979,-1.381665,-7.333583,6.555234,0.044961,-0.005398,-0.005684,0.323975,0.328613,-0.511963,0.30747,-6.69402,7.173208,0.013279,-0.018103,-0.015849,-0.248779,0.432129,-0.375977
1.883331,-7.337074,6.175145,-0.003046,0.000916,0.003764,-0.361816,0.311523,0.130615,-0.047418,8.430998,5.165845,-0.039654,0.011115,0.004328,0.269043,0.394287,0.465576,-1.532499,-6.971618,6.698838,0.017853,0.011902,-0.007227,0.578125,0.231689,-0.301758,-1.330377,-7.113942,6.522429,-0.005869,-0.01621,0.000712,0.323486,0.327148,-0.511719,0.365193,-6.721155,7.127861,-0.031878,-0.008929,0.006526,-0.251709,0.428711,-0.377197
1.820618,-7.493999,6.090181,-0.038879,0.003211,-0.000363,-0.357178,0.314209,0.134277,-0.071498,8.180364,5.184755,-0.066793,0.001429,0.007808,0.267822,0.402344,0.469238,-1.663254,-7.05443,6.69193,-0.055106,0.007708,0.009724,0.58374,0.231689,-0.29541,-1.336277,-7.338878,6.398613,-0.059973,0.017817,0.032611,0.323975,0.32666,-0.505615,0.270686,-6.816879,7.054819,-0.020132,0.025344,0.00127,-0.246094,0.433105,-0.374756
1.945559,-7.513086,6.230005,0.062788,-0.003071,-0.007215,-0.35498,0.310059,0.126221,0.014998,8.292081,5.026764,0.098338,0.003846,0.004704,0.270264,0.403076,0.462646,-1.535087,-7.200556,6.668476,0.013204,-0.018941,-0.000391,0.585449,0.232178,-0.303467,-1.418433,-7.404215,6.568795,0.047183,0.032162,0.002187,0.328369,0.325684,-0.510498,0.256248,-6.775355,7.192516,0.052977,-0.028653,-0.010817,-0.246826,0.429932,-0.380127
1.8123,-7.079756,6.194594,-0.002513,0.008745,0.014053,-0.35791,0.316406,0.129395,-0.066207,8.666023,5.22029,-0.02284,0.015954,-0.001835,0.265381,0.404297,0.46582,-1.5387,-6.898547,6.71153,0.059742,0.023566,-0.012314,0.582031,0.237793,-0.301514,-1.405106,-7.068468,6.608523,0.002507,-0.012568,-0.002295,0.325928,0.330811,-0.50708,0.391671,-6.666448,7.085116,0.014778,-0.023178,-0.009994,-0.246094,0.431396,-0.376221
1.932514,-7.701013,6.121996,-0.108511,-0.008003,-0.015293,-0.35376,0.31543,0.128906,-0.037454,8.10194,5.190391,-0.13909,-0.009984,0.019717,0.269287,0.398926,0.470459,-1.639879,-6.98342,6.704405,-0.098649,-0.00292,0.009971,0.585205,0.234619,-0.304932,-1.331519,-7.441726,6.38745,-0.098007,-0.013212,0.037625,0.329102,0.328613,-0.510986,0.28659,-6.702351,7.104065,-0.02823,0.039769,0.012135,-0.243408,0.427734,-0.378906
1.860489,-7.491091,6.110784,0.144698,0.015883,0.009908,-0.353271,0.310303,0.118652,-0.016809,8.213218,5.013357,0.125904,0.025191,-0.012355,0.263428,0.404541,0.47168,-1.522394,-7.29017,6.601765,0.007942,-0.00412,0.004433,0.585693,0.227539,-0.311279,-1.37542,-7.31681,6.474501,0.119027,0.02277,-0.021859,0.331543,0.322998,-0.519287,0.232975,-6.806382,7.183391,-0.038181,-0.033495,-0.011835,-0.241943,0.425049,-0.387451
1.893999,-6.969869,6.282605,-0.055064,-0.013555,0.002517,-0.359131,0.310791,0.124512,-0.068055,8.591632,5.250811,-0.02565,-0.006733,0.011162,0.273682,0.410156,0.4729,-1.573607,-6.952936,6.69824,0.069297,0.018457,-0.015463,0.581055,0.229248,-0.30542,-1.376242,-7.020417,6.596656,-0.063792,-0.002505,0.024053,0.322998,0.32373,-0.513428,0.424193,-6.860075,6.994777,0.035032,-0.016061,0.005513,-0.248047,0.425781,-0.379395
1.895414,-7.860024,6.026263,-0.083508,0.013418,-0.010453,-0.358643,0.310059,0.120117,0.025434,8.255701,5.123751,-0.075725,0.007038,0.004025,0.259766,0.409424,0.462402,-1.602783,-6.930882,6.736182,-0.042704,-0.000149,0.010662,0.58252,0.23291,-0.309082,-1.408963,-7.544034,6.508229,-0.045351,-0.001797,0.031474,0.326904,0.324463,-0.517578,0.243057,-6.617644,7.216035,0.070846,0.031151,-0.019397,-0.24707,0.427002,-0.384766
1.841005,-7.268569,6.19154,0.166768,-0.003343,0.016518,-0.362549,0.310059,0.135254,-0.120172,8.225852,5.085833,0.022432,0.016928,0.009589,0.276123,0.401855,0.469482,-1.564894,-7.139708,6.629928,-0.042983,0.004343,0.003459,0.579834,0.22998,-0.295898,-1.383781,-7.210623,6.464162,0.068831,-0.0047,-0.028058,0.321777,0.323486,-0.505371,0.307738,-6.708218,7.094303,-0.079503,-0.029529,0.008189,-0.251953,0.427002,-0.370605
1.87925,-7.154685,6.28028,-0.131649,0.001433,-0.013495,-0.359131,0.314697,0.126221,0.008862,8.474544,5.177072,0.041614,-0.012009,-0.005161,0.262451,0.404053,0.47583,-1.605476,-7.156338,6.68261,0.028531,0.003643,-0.004486,0.580322,0.233398,-0.305176,-1.360926,-7.218849,6.560092,-0.037634,0.005921,0.034346,0.323242,0.327393,-0.513184,0.296967,-6.78799,7.095155,0.034527,0.001431,0.002369,-0.246826,0.429688,-0.380127
1.920258,-7.882141,5.955199,0.01001,0.004217,0.004274,-0.354492,0.311523,0.126221,0.014166,8.382039,5.151473,-0.088505,0.021107,0.013102,0.272461,0.402344,0.468994,-1.494349,-6.909237,6.695274,0.032834,-0.005676,-0.010566,0.586426,0.229736,-0.306641,-1.371035,-7.306464,6.492543,-0.009634,-0.0062,-0.00484,0.330322,0.324219,-0.513672,0.36384,-6.732384,7.201883,-0.050658,-0.025522,-0.025982,-0.243164,0.425049,-0.383057
1.802302,-7.075296,6.315707,0.111076,0.003482,0.010111,-0.355225,0.315918,0.122803,-0.12905,8.151765,5.102661,0.011464,0.001045,0.002812,0.27124,0.404785,0.463623,-1.634087,-7.026197,6.69394,-0.059018,0.023174,0.018454,0.585938,0.237549,-0.307129,-1.369847,-7.298983,6.408768,0.003417,0.0185,0.022445,0.330566,0.329346,-0.517578,0.3025,-6.857449,6.987419,0.046548,0.039992,0.042009,-0.241699,0.432373,-0.381592
1.92847,-7.406016,6.10151,-0.143591,-0.006505,-0.015151,-0.361572,0.31543,0.128906,0.047871,8.487857,5.166606,0.042102,-0.000885,0.000424,0.272217,0.40625,0.472168,-1.604915,-7.174847,6.680728,0.002078,-0.022591,-0.007762,0.57959,0.236084,-0.303467,-1.437647,-7.214277,6.645226,0.01032,0.011254,-0.004361,0.323975,0.328613,-0.511475,0.162589,-6.573193,7.22675,0.066825,-0.026224,-0.065612,-0.25,0.429932,-0.378906
