# sampling frequency: 40
# units are seconds/meters/radians/a.u.
seg1_acc_x,seg1_acc_y,seg1_acc_z,seg1_gyr_x,seg1_gyr_y,seg1_gyr_z,seg1_mag_x,seg1_mag_y,seg1_mag_z,seg2_acc_x,seg2_acc_y,seg2_acc_z,seg2_gyr_x,seg2_gyr_y,seg2_gyr_z,seg2_mag_x,seg2_mag_y,seg2_mag_z,seg3_acc_x,seg3_acc_y,seg3_acc_z,seg3_gyr_x,seg3_gyr_y,seg3_gyr_z,seg3_mag_x,seg3_mag_y,seg3_mag_z,seg4_acc_x,seg4_acc_y,seg4_acc_z,seg4_gyr_x,seg4_gyr_y,seg4_gyr_z,seg4_mag_x,seg4_mag_y,seg4_mag_z,seg5_acc_x,seg5_acc_y,seg5_acc_z,seg5_gyr_x,seg5_gyr_y,seg5_gyr_z,seg5_mag_x,seg5_mag_y,seg5_mag_z
1.9199506146520613,-6.0639298152058645,7.429368730960628,-0.0014840573858745125,0.0005072477446934154,0.010104952617451243,-0.2664686171599471,-0.39614357073044376,0.8989054044390875,-0.11025151562593416,7.008614502251064,6.846357050993489,-0.005639818492028122,-0.004033960846901816,-0.01004589907686917,0.7666280521066022,0.4190036880985868,0.2843902503761669,2.2764653335594582,-6.811792600451988,6.563516743158622,-0.002326866816715668,0.0026741195413616517,0.0011418180659698996,0.30029513893140375,0.28906376431976954,-0.47999244468163627,-5.459991790434012,-6.976177246193406,4.322362917803708,-0.0026873552622647414,0.0046552090586459705,0.007707655435648281,0.6389801815740513,0.4234453090720062,-0.27716003407689443,0.11358362849244781,-6.021074494109982,7.76493670253903,-0.004580402789956226,0.002992594880043572,-0.0067767349930256396,-0.4650341890634474,0.28539407073178763,-0.09121320204466714
1.9146815002977955,-6.066385827566698,7.438081918047172,-0.0030364056345613183,0.0016944938893315219,0.01107563150711608,-0.26844254945000695,-0.4032181906937453,0.8991366806573087,-0.09552505166638642,7.03862579593572,6.843753272849804,-0.008192798230491249,-0.003627609892282137,-0.009911756031293155,0.7637349754468679,0.41189227386171823,0.2835395306852211,2.296335716842834,-6.801934686535439,6.591547244873462,-0.0029846993433784953,0.0061621370464974585,0.0008165916052835392,0.2992833529823806,0.28099845429950315,-0.48111900070347857,-5.497508389813793,-6.973922515920564,4.31451640065444,-0.0008508821085493613,0.002078850083481025,0.007569225717849978,0.6338391847362249,0.4139527676395052,-0.2799224637440009,0.10816718739994065,-6.014945417789399,7.803449731390939,-0.005098437017135804,0.0035199435484679137,-0.00520783221675761,-0.46897753333009684,0.275409109091177,-0.09322154515036785
1.920798215857924,-6.0741540711876425,7.418336108977849,-0.00421842733628393,0.00036050811994910154,0.010611743952053462,-0.2674681787405209,-0.40273585087675096,0.9013370958502752,-0.09292748485287328,7.0161823543236705,6.840504661414762,-0.00922117556744976,-0.002148225201242699,-0.011516079872900039,0.7649416193744083,0.414331251105511,0.2830076787919363,2.2797357263033167,-6.787774656694521,6.593581162028177,-0.0061759294457204945,0.0013361234254020491,0.003435120765500749,0.2997777840462985,0.2844000195278142,-0.48237985990282567,-5.516698152576754,-6.987210583001734,4.33478651166419,-0.004381543399987529,0.0012989439345988958,0.004019919413221423,0.6357883307877875,0.4168544472531998,-0.2762359426075978,0.10162455913696611,-6.013172040768751,7.774143052811557,-0.008416234975548833,0.0016685093438654106,-0.0067798872708757,-0.46629329309394646,0.2749007281289121,-0.0912703252366119
1.9359605347023718,-6.081676841527141,7.401952234781603,-0.005770779257625502,0.0015477516921304083,0.011584422836691808,-0.2718669458399602,-0.4041877963171445,0.9010831501021105,-0.0853001168339881,7.019606890176761,6.826368465275227,-0.014807606350868596,0.0007272187472517083,-0.00941759608665405,0.7642361021277597,0.41124179339041744,0.2881892657536045,2.3104676199566376,-6.819265678900824,6.587095834982984,-0.009048262116354903,-0.001069484726256918,0.00227523824995095,0.299292976376857,0.2778729811473769,-0.47669036242906315,-5.472506724230641,-6.979230300255614,4.336622466462738,-0.0053457787865470695,0.00331283468228009,0.0022271619907823312,0.6372319327167318,0.4102449721462484,-0.2740766035232164,0.12058376503863356,-6.036341265379476,7.779633679416597,-0.006186351201332023,0.0021627458368579685,-0.0046351978662114695,-0.4665541292788993,0.27026138456716503,-0.0910515815494
1.9088626259303367,-6.087245544101669,7.412110337056089,-0.004126791233852365,0.0006719421430042096,0.012394317281264595,-0.26354083978879655,-0.3990776485871595,0.8954889983163161,-0.10097148732842567,7.008993177832399,6.853122359087105,-0.01241264367113856,-0.001956244952285706,-0.010723946091807837,0.7695709286904688,0.41556072846092357,0.28200055680887576,2.283581619576631,-6.8437434090619735,6.559241681581305,-0.009633062813329232,0.003000415612311848,0.0021412778866482665,0.306113115997324,0.2860428012218337,-0.48633453541114613,-5.459986334762731,-6.972884088820412,4.310180986152596,-0.003022572901960217,0.0024824718629191085,0.002540468559567451,0.6409242811626138,0.41710562717170435,-0.27914860949480974,0.10024194305376419,-6.032005642943532,7.767388415375801,-0.007107436865984968,0.004336731726981265,-0.0038263335092790693,-0.46066863054768936,0.27758489928881386,-0.09467384421336
1.8933387621952802,-6.080825587231352,7.418316103287479,-0.0025715310639505048,0.0012762050381879783,0.011029947039203824,-0.2606211847836681,-0.40079889755630344,0.8984221532111778,-0.09905607835064145,7.014935101779496,6.883097106012721,-0.009664719446809012,-0.0032094736052564465,-0.009726931848822317,0.7703139680390195,0.41437292380448526,0.28372851040334773,2.2837329553732264,-6.868777244736934,6.556007982016447,-0.0041009627932468064,0.004639685931971208,0.0021457708687261604,0.30565229530189514,0.28586501980964485,-0.48047095296897446,-5.458100992128314,-6.980837881920394,4.320084071958219,-0.0024548033756366474,0.0022710599862340555,0.005945816674426608,0.6431196143861077,0.41515394872538725,-0.28013197630328224,0.08749329749471246,-6.024105629131995,7.760490525539974,-0.005640316752688831,0.0019164788095534537,-0.0067875790899163966,-0.4601815047470848,0.2773314894614607,-0.0934552134596917
1.9235825480055984,-6.057964417973931,7.4132010326092646,-0.0024208468851650835,0.0013438174306191835,0.010218308669821563,-0.26770658784662194,-0.40370454165690595,0.8962083992058468,-0.083531061747263,7.015990154769457,6.847893522094982,-0.006554295882477421,-0.005165029756874499,-0.009861874015395882,0.7649506739353024,0.41185334548247976,0.28085240810400003,2.2986982544456596,-6.840155113026719,6.594056365018038,-0.0010097538182072474,0.004427984929141538,0.0031833752047019655,0.29904051705597073,0.28003314142282354,-0.4801311531631358,-5.517732026524839,-6.994794393623317,4.341562519199268,-0.0033380019667440908,0.002327542701426233,0.007106671080263252,0.6382299630382096,0.41271950608387076,-0.2794298169758042,0.12317707477541097,-6.023882219594653,7.78143451248516,-0.006759828749315904,0.0025962463700084704,-0.005995848736095667,-0.4663022029788956,0.27247706439531433,-0.0944575703982512
1.90785537265104,-6.081668096232299,7.424882693381208,-0.0016377570154319056,0.0004406311766669328,0.010926586755458115,-0.26771510473302457,-0.403710507184225,0.9008463875494209,-0.08114915394310501,7.0326328068085076,6.833566240555222,-0.007593790219623118,-0.004930875811244035,-0.008988676756589079,0.7649471747371179,0.4138681966596329,0.28448074318906824,2.284449230819373,-6.817821140929142,6.602432607973096,-0.0011065284929594095,0.0014181318729203874,0.0002777241172031924,0.30052654214492763,0.2829817578707329,-0.4779735330672641,-5.507922548965836,-7.0031763482173925,4.321745879342768,-0.0015377200342245817,0.0037335314804054923,0.007095969826680883,0.6365211167435876,0.41248003169729996,-0.2796802932412126,0.10268519513216429,-6.025845640623141,7.792411293641382,-0.0033804400007397765,0.0026897788349624645,-0.005224379122956758,-0.46678305413247684,0.27441185275551194,-0.0907849727931026
1.913069964635537,-6.079671377514809,7.406451790994225,-0.004221438055855296,0.00036250522555802695,0.010620741014732437,-0.255499369530053,-0.40008514880785373,0.9018504852009245,-0.10056785765629264,7.005727609661588,6.851102702529772,-0.009179596068969268,-0.0019032008905553307,-0.010587185243526883,0.7761521154087893,0.41754931411310464,0.2819538504651735,2.2712467906293154,-6.808591490386166,6.577603540453705,-0.005011363823817693,0.0010135127219892607,-0.0004151837998973768,0.3100500115588672,0.2856157397639348,-0.47951319559783395,-5.490868261631746,-6.983532339369903,4.313041139661073,5.580580618199617e-05,0.0025319187242910227,0.003852679494271603,0.6484918259832729,0.41708502438210954,-0.2786389567577648,0.10941500523006248,-6.0319101076503765,7.786150074932394,-0.0071882792408325446,0.0016447804282280656,-0.005812020724217507,-0.4540730937556234,0.2785236551573246,-0.09222779579931725
1.9225475655216164,-6.082848719863001,7.431143170239755,-0.002421854224598404,0.0013438151829432237,0.0102223068271739,-0.26968168242638657,-0.4046893812688972,0.9067015319287108,-0.09311158663910976,7.024022401509065,6.852931755228807,-0.009457590960655574,-0.0028199609098875987,-0.011064146360548196,0.7610647627150008,0.411758009377338,0.290872132202746,2.293254360385818,-6.814753295280491,6.558782585540179,-0.0058022545071081425,0.0028231665729149128,0.002643924381732414,0.29810035833558857,0.2815740886885667,-0.47355112268412675,-5.45927499640756,-6.942216079429169,4.31728012326376,-0.0038948112611418896,0.003045933580747122,0.00447266216718403,0.6350429056927044,0.4134255475221667,-0.27430727854609277,0.1042284982715491,-6.021395809266873,7.767741136014794,-0.004752821641597843,0.001781470854707304,-0.007378336468133423,-0.46825062426716707,0.27365493907613875,-0.08541799276875527
1.917535597053426,-6.071839259069139,7.410318074967409,-0.004523809799440395,0.00022927689674286152,0.012249018491418283,-0.262837961929681,-0.4037287368845626,0.9040293281322499,-0.09439630348488252,7.022389202617188,6.854588247005353,-0.009346145460498936,-0.002048745485960482,-0.008324056641142687,0.7678980081288761,0.4099829087436682,0.2847849357335908,2.294135319977448,-6.808263721472973,6.563895380372234,-0.004924106113215744,0.005446729383030675,0.004236987964795467,0.30540711018027583,0.2810218197824007,-0.476998276515252,-5.47106263432652,-6.9620332927565025,4.339256226972798,-0.004590604861843249,0.004195631320013538,0.0032280857840123398,0.6409000668650441,0.4117078376335539,-0.27503358546454854,0.10489660764319662,-6.022460711649462,7.766906314606904,-0.006385777587266173,0.0006685529194313199,-0.004656331775108908,-0.462394412740351,0.2729349242389809,-0.09152609281602524
1.9088269558348885,-6.076261466667633,7.427658438662632,-0.0045386486296532655,0.0008484010123332964,0.009865781587832682,-0.26549388185605577,-0.3978535097068872,0.8974409913197159,-0.09571980632039662,7.020594527930681,6.856407579853954,-0.011331508718822237,-0.0019542713085513317,-0.010662096923580687,0.7658959923812159,0.41772915464516636,0.28148290054606745,2.2845074409316855,-6.8165000263541975,6.592193066779142,-0.005144200392458282,0.0037000955929413514,0.0036642053606925533,0.30246900291920664,0.2858551235269935,-0.4824087446682826,-5.512146610175011,-6.9967551237798205,4.330768600751714,-0.004197706663827373,0.0028955767252446447,0.005711846653463375,0.6397100266819142,0.4176091021610441,-0.2811028868526098,0.11211326525564418,-6.027901362555064,7.7772517317385645,-0.007819749988012287,0.0015181357878422865,-0.006007703708960214,-0.4657929467001608,0.2783381588867246,-0.0951586719638818
1.9321388775311528,-6.073616053658074,7.416133620623457,-0.004841018536910983,0.0007151739697465308,0.011493059067031774,-0.27404653587194094,-0.4000266832922807,0.8981544924425677,-0.07654816970158428,7.028193783380313,6.873738408482945,-0.011924401202723249,-0.0006656817628899425,-0.011567936581216551,0.7595685752423185,0.41505975000210793,0.28447109401403525,2.2890072504580585,-6.826363750352675,6.600557582850512,-0.007714897143023465,0.002201610987216177,0.0015188338070827186,0.29368043458252907,0.28177236099966874,-0.4791475464625581,-5.5149475514955135,-7.01221679715796,4.336114392467341,-0.0027186729356247948,0.002634826367222509,0.0013012999207293813,0.6296916932503348,0.41688275715699147,-0.27845035613859637,0.11283138032213165,-6.028571984322625,7.792861300444848,-0.009170289737729858,0.002739648496896036,-0.005013016780297245,-0.4716651952594628,0.2746948442604548,-0.09468941575264533
1.9085683208596511,-6.0774524623496085,7.417390406025603,-0.004138732552704948,0.0030845611398557255,0.009628391580719613,-0.265013572152448,-0.3983473161494899,0.9008582467661034,-0.1178127183789532,7.0156055563016935,6.8492676758729445,-0.010178539130059781,-0.0014211304048450087,-0.008791141311016845,0.7681037205933823,0.41834607983631544,0.2883050824147756,2.291022387106844,-6.854105081646481,6.583556741067411,-0.00698404714806215,-0.0007045566707345329,0.0020323265808841915,0.30225831376072015,0.2854485767366101,-0.47507873881659834,-5.4792442526082725,-6.979400772660016,4.306259211045705,-0.0012212938534169702,0.0038884518521074634,0.0025307701431477266,0.6392056882572087,0.42024548793467564,-0.2732740413562446,0.10691357261335906,-6.019351755661737,7.757318071703456,-0.006218344211296676,0.0018837059014688226,-0.004056708314212971,-0.4626046911304062,0.2821979847575196,-0.08878960714484668
1.9067909463145907,-6.0619836715426665,7.440953097800899,-0.0038304485554838254,0.0008071634068572206,0.010785031344341216,-0.26550037996404996,-0.4010256094354788,0.8959718956501079,-0.08988517820208067,7.019828731717753,6.869692043331311,-0.008617066905344571,-0.003464207206209941,-0.01057779255711032,0.7676247514855122,0.4145866912029899,0.2827540285781308,2.2865303419397667,-6.8489459001912305,6.5600098244554905,-0.0024008890542228604,0.0020922623464495436,0.0009525565720429998,0.30221769855884345,0.28511332016231644,-0.48337645479358676,-5.458653858383003,-6.963153108693733,4.320994207017428,-0.0018864655748162297,0.0015562372544469048,0.005253798173027285,0.638240868648166,0.415657932158619,-0.2808747634353352,0.1159234512026819,-6.008528660613688,7.772455096820254,-0.006729227375569471,0.000560311934259958,-0.006219939184928761,-0.4640830684482586,0.2785746208181119,-0.09491340655931639
1.9176168461769514,-6.063874684499571,7.381848396878156,-0.0007739739880703924,0.0022565040741034524,0.010644507862242619,-0.2657514281164771,-0.40176035235503615,0.8986554963408447,-0.09642696371468451,7.0020585106488875,6.838888056779717,-0.00738062460345909,-0.004546244775252279,-0.010320819536563252,0.7649377055381971,0.41532052136633896,0.283722998323983,2.2907585496529714,-6.823890023937128,6.590919306409627,0.000430681168594872,0.004916653175830814,0.00289408574157894,0.301016317664388,0.289278238027585,-0.4824394312495902,-5.478735722001619,-6.98661302470552,4.315642131969075,-0.003062604492359157,0.0019683379583157793,0.00842616688686112,0.6382427944368971,0.41833437307591903,-0.2793933612929243,0.10665028323695452,-6.036884506240468,7.767662754629881,-0.004840804233525404,0.0009432784638117697,-0.005634873655406254,-0.4653031302280082,0.27880709287138444,-0.09198207870354154
1.9312475794646304,-6.0886031440135815,7.425885731596597,-0.0025953074887045203,0.00010381949018477804,0.00905439045726061,-0.2654867758314587,-0.39833554044153135,0.8928013727065891,-0.07084175546761813,7.022479286461522,6.8277074660902946,-0.008021124314700407,-0.004759677454847032,-0.009665841207776114,0.7668774348135236,0.415727907290008,0.27834048208641926,2.297491954311523,-6.804197109639684,6.594805820423205,-0.0030684613249245926,0.0026396858687227583,0.0016777853295065464,0.3012474550838308,0.28827993943826896,-0.4843827007676712,-5.512886806357674,-6.987450901158047,4.331336832232408,-0.002341314133908296,0.001330193405997091,0.007114070187241837,0.6402095210188697,0.4200610022644229,-0.28279458933543605,0.12208605647592945,-6.029795453359545,7.794485522044269,-0.004504944703590169,0.0033715645039690788,-0.0044326377038024015,-0.4655454494410271,0.27933153616441303,-0.09832731326432802
1.9298988928208511,-6.075885783240467,7.396159537687803,-0.0033576500165288787,0.0021813755354651546,0.01034066599111381,-0.26377520196350895,-0.3959026437682482,0.8952486511279544,-0.0752387638252863,7.00303805045314,6.844799619874093,-0.009609901873833177,-0.0017349165451060425,-0.011258293501095754,0.7692962323600668,0.42015208540454835,0.2792377565369971,2.292976825694005,-6.7990558870613675,6.57125521151457,-0.007079583488031887,0.0006525550071402155,-0.00017629690480121883,0.30539838902800903,0.29020155854170315,-0.48588880913441845,-5.4851577325510945,-6.9771508126899215,4.348400850644786,-0.0009538514687826509,0.0030232676571715616,0.0030779418526998776,0.6407039423956548,0.4222599911085327,-0.283266916092733,0.13580371354637233,-6.03332406565245,7.776623834532052,-0.006505800756948889,0.0023356064594050974,-0.006783283569014969,-0.4650342962522727,0.28543263025490895,-0.09829409705530578
1.913886320409412,-6.083286301772322,7.431648703798435,-0.004672596180225021,0.0019571584140767825,0.012680968806788975,-0.26575351829624727,-0.39908227417774234,0.9040299506301146,-0.08588362911759584,7.019128056871491,6.859818625246155,-0.013556672395120742,0.0008423526827685643,-0.011583327006055032,0.7659076149412227,0.41808601325253275,0.28806978189086535,2.286315228295926,-6.801743452804547,6.541622521449677,-0.006389270757671875,0.002531116484969401,0.0018138860285793108,0.3022720658986218,0.2895956153707999,-0.4753684238960208,-5.445578810586608,-6.947327237450805,4.297062870541496,-0.004856045566803893,0.0050628043739594595,0.0026819327590641086,0.6397025075492246,0.4219644077051596,-0.27497050574246673,0.10099389261942739,-6.035082023460756,7.7706176994704474,-0.006864009973180082,0.006393136935461175,-0.004973156061549495,-0.46333584114505677,0.2824592634839306,-0.09147421309045611
1.8493357837739992,-6.081055633401084,7.428713029651365,-0.005777805638345576,0.00155573720443351,0.011611420273000349,-0.26524209086105904,-0.39346269223747266,0.9001321080479763,-0.14313692145945725,7.027402993542887,6.8689170937492445,-0.010452437287133158,-0.0023506459050678663,-0.009254892035433808,0.766596117306318,0.42409672168479756,0.28235056239555323,2.237864767468306,-6.821222104019129,6.5821635513015675,-0.005813763053057405,0.004247548401424359,0.004391443468890611,0.30176684333364623,0.2912525901450485,-0.4802675767572146,-5.488929050560861,-6.968894179068359,4.290516094812975,-0.005079330131587907,0.002451646210447677,0.0027753567830354196,0.6370316965168311,0.4229734871170612,-0.279121749913763,0.062133538053669154,-6.009034981095193,7.75181184782714,-0.006562797638560542,0.0017744740134818912,-0.005621321119699679,-0.46478937138005477,0.28566111265242033,-0.09560681671991156
2.0082171343952275,-6.0680193005688485,7.365061395555597,-0.007054446336396075,-8.567005770268817e-05,0.009361959064646737,-0.26720560875851584,-0.40296705375108804,0.8908392542513821,-0.00530185346216867,6.997245100173505,6.835175997639252,-0.010362198021112533,0.0006514904595575142,-0.012369484805453987,0.7632273281323549,0.4129985249428559,0.276928785511676,2.369107867427516,-6.867500954844167,6.574908607028123,-0.004916579538962923,0.004023395064420206,0.002492476638335908,0.29999676403369646,0.28264459855425544,-0.48651290381388074,-5.481156892053171,-7.017526122070402,4.383396369968561,-0.003060028783736722,0.0014669289341592358,0.004327819005553398,0.6380133086632982,0.4147268577904087,-0.28771762935351225,0.19104369727976026,-6.049201224958924,7.812668073828948,-0.009545739781686534,0.002350362173677081,-0.005997145543746214,-0.46752332058900825,0.2725266999857442,-0.10275840469911729
1.8958765193300111,-6.075705762714384,7.405815317286567,0.002445990762453809,0.0031493259755027213,0.01208557276631995,-0.26059840912278137,-0.3966403823995511,0.892568529123458,-0.11226412298533152,7.018229157652391,6.866644765333222,-0.009127490604720014,-0.005051749210534559,-0.010606844779415382,0.7724518974149641,0.42231214209295026,0.27602041381913345,2.2702181657572775,-6.83536924887354,6.600789564525645,-0.002808826167931108,-0.00039740589638352544,0.0007738715086272743,0.30759505883090577,0.2904348453140666,-0.4861459084515737,-5.492698145862867,-6.978732858997124,4.3077758714008585,-0.00147935747595017,0.005762008798077071,0.006855288328672453,0.6441233234093706,0.42225528179332117,-0.2837451203434345,0.08775465223702066,-6.0363619491999625,7.784751139610731,0.00023823552489120905,0.006693420961493905,-0.0018625822577577143,-0.4586980158342658,0.2824942727814432,-0.10099523382017173
1.858481660668478,-6.068128526454985,7.467799549921596,-0.0022722881908274458,-0.0010001974941775634,0.01221057154069649,-0.2638118689096013,-0.4064049873528956,0.8986530839390227,-0.1878296834085354,7.025806983410189,6.86420939930086,-0.009845343556572766,-0.0024037321588326194,-0.010811412209403775,0.7666847193384098,0.4087554593981838,0.284808161047333,2.2143496366553346,-6.821010189534568,6.585010995963028,-0.002995421112877746,0.003222579630467015,0.001870040342298883,0.3024470528817025,0.27878364727242755,-0.4815988275262466,-5.506134550017525,-6.979262743252776,4.300471591144166,-0.000574919236893533,0.0012162279993007063,0.004792354883015944,0.6409051493189121,0.41026187622199045,-0.2779730232959938,0.029243340329414304,-5.995394109564654,7.766103838855223,-0.005478868876076421,0.0031356752695514416,-0.006191933578671899,-0.46435013123372565,0.27223661473448113,-0.09641193829153898
1.9897042670701834,-6.089578653678498,7.345578620653167,-0.006094012264600695,0.0020436287976943446,0.010857465259264277,-0.26917969906496964,-0.4063872281251957,0.8969342453680831,0.00747364823049361,7.008433896698135,6.844019235215571,-0.010280772351689352,-0.00221978312835203,-0.011500778961262732,0.7600623040009893,0.4125461968365252,0.28011715414345256,2.3702847942379335,-6.830756149593137,6.58730984028723,-0.005407064254608221,0.0023742186554950484,0.0038700570955009592,0.29706680823104015,0.2797506507566586,-0.4842688962071056,-5.4807867980554,-6.979634921363571,4.381371144937253,-0.004373576292210469,0.001808929777640232,0.004791269505650979,0.6348183073761821,0.41274163022253946,-0.2816365451344689,0.18350877782198818,-6.055429571856226,7.805243161392308,-0.008454217175833804,0.0013925346898178844,-0.006209381054621346,-0.46923843609248467,0.2707960216961559,-0.0976407272505394
1.8909582175660087,-6.0715249660589965,7.427852718519121,0.0015042875173732248,0.0021943911298534942,0.012593616503383587,-0.26502031358263967,-0.4000575642082834,0.9018330370668922,-0.12371854982408306,7.02618042710882,6.848710704280941,-0.009887916024544778,-0.003911709228937745,-0.009249502883928081,0.7656614249501259,0.4185767488682501,0.28830597046753736,2.2719352009667335,-6.811712839120413,6.580085743968034,-0.005389041074548164,-0.00047153795980904676,0.00037400969144112567,0.29932807068242656,0.2847326793488062,-0.47456880310276,-5.487315298542296,-6.973081743359424,4.288633530144557,-0.0019415854026698025,0.004528581081291539,0.0038448826398614425,0.6370082697247245,0.4209777843661073,-0.27254359578701537,0.10240245963674724,-6.033055345434164,7.776356799498697,-0.0013651630080930306,0.006329868956570743,-0.0038155666622372627,-0.4660395138486823,0.27757514977268694,-0.08930273636543423
1.8810100234133684,-6.0656499151404315,7.447037055250049,-0.003054380399781464,-9.402186990594465e-05,0.011508299147198522,-0.26331506484330264,-0.4027456762486214,0.8996357054133678,-0.12357535714530968,7.009244765833266,6.857921246122572,-0.010751655284391457,-0.0022954499081182184,-0.013096801455505742,0.7698218896330215,0.41383261951980244,0.2808092234831729,2.2549861933751694,-6.828775400943413,6.573879044708572,-0.0039045826167645476,0.003962382217101578,7.124216259092568e-06,0.3034424597728071,0.2819699787745274,-0.4801735252145009,-5.468884315364557,-6.972361488669682,4.3095257577252575,-0.0027726653297244154,0.001614713861797017,0.006416656926614105,0.6428668142674251,0.4122198325355786,-0.27941971631935997,0.06452087107378102,-5.998091184010975,7.768664655914535,-0.00799976643453585,0.0026250840877806627,-0.006975687458950145,-0.4621522229406396,0.2724593413466109,-0.09396972249611196
1.951813148669448,-6.082792274787721,7.397721900036922,-0.0034404687278903044,0.0012548116080374624,0.010959323690846224,-0.2669895418565585,-0.4039613410881401,0.904510406499282,-0.04533780243876662,7.024792447956673,6.852527664091106,-0.010088935304891553,-0.004316999987186626,-0.007901030915288425,0.7642265676711862,0.413715557174883,0.29010057206940126,2.342706235642106,-6.833136229229612,6.610821723148894,-0.005366289848728216,0.0019534800936458685,0.0030924321792346297,0.2988307265913259,0.28374411057479504,-0.47577563931123956,-5.505375543643035,-6.9839290242994565,4.388947736875752,-0.0028762000872285995,0.0030625487765574186,0.006021739702895904,0.6382100025357509,0.41315998481024035,-0.27210183300543705,0.151342603754659,-6.036165746435181,7.779600169093871,-0.0047033674808388045,0.0018783733803403816,-0.004454766187379163,-0.46653991569122766,0.274157665849106,-0.089077335327187
1.909304338013316,-6.0609244203660735,7.4173210162566585,-0.0030454692916052238,0.0016984672090090934,0.01111662007688535,-0.2698920410388922,-0.4029595856105166,0.8910783312888165,-0.09785649208030012,7.0227495460963345,6.812748826497163,-0.008845384085743695,-0.004149710404776853,-0.010114639634320095,0.7617561123491177,0.41293668657215316,0.2737592659684231,2.2934836291308915,-6.809567265451949,6.579077924893341,-0.007069597080038621,0.00013792398119899198,0.003586584461757402,0.29387945026397255,0.28505770343880554,-0.49114848587646004,-5.482479767868716,-6.99655285657286,4.3181299527009775,-0.002695753070549394,0.0036497755590153046,0.0028449876540045005,0.6333645557099613,0.4127703395135372,-0.28554664012942366,0.11272979772140995,-6.00996931189573,7.7609251291565915,-0.007028838642141268,0.002861995082594914,-0.005218386004306718,-0.4694665415764078,0.27521208346876597,-0.10152273373027335
1.8753723798942807,-6.069214697507529,7.445554113839565,-0.005559246810499244,0.0007644044930102284,0.010601801246534467,-0.26038258161968375,-0.40250890973566394,0.8986643925072785,-0.12143571761886739,7.016366657428833,6.835286840612423,-0.009966207289911573,-0.0010570601336826586,-0.010096929589151952,0.7722698162823574,0.4144084266549657,0.28518927431193797,2.261743696768567,-6.835665561276824,6.572934387909457,-0.00439607090971689,0.002312209522970018,0.0013847204333827406,0.3073507342505759,0.28292998245877493,-0.48044680992437566,-5.47468063539045,-6.991801848342045,4.300614766536475,-0.0007169138477983274,0.00164552884615605,0.0061837657904632295,0.6457973104370383,0.4148863451268809,-0.2774399398672553,0.06526422076673641,-6.002764219636355,7.748874904266829,-0.007399288673635794,0.0024726742715180474,-0.006199514986769347,-0.4594617893611209,0.27366158665037565,-0.09249819458819666
1.955261619999653,-6.0863385831866115,7.39950867568728,-0.005478448784003853,0.0016939536201862088,0.009999143716024126,-0.2676839562976875,-0.39418704301554275,0.8989056892207772,-0.05795320150408557,7.037901819304053,6.870590585070263,-0.0093256813060835,-0.0008465421036174234,-0.010746857756766289,0.7644149940573091,0.421929537205425,0.28483300208364215,2.3385678018246607,-6.822699070981758,6.591351373351114,-0.004802761325807726,0.004186550197210628,0.0019070957221810519,0.2998237031949177,0.2939482203676332,-0.4800438981834757,-5.47675998555564,-6.951925052355453,4.366367078600266,-0.0011452650638653686,0.0019300423904865653,0.005486361116843691,0.6372871452877863,0.42737099251382604,-0.27958150442525936,0.1519655101192688,-6.047790215811514,7.782530902172743,-0.00841961950427342,-0.0006443979091481566,-0.0064364770440003966,-0.4643039951077226,0.2849140643100962,-0.09316985597987333
1.933238785304373,-6.069077199875058,7.394442423901587,-0.0010105104760100934,0.0012583210313134644,0.012086793237249824,-0.2637937355765779,-0.3985951675767022,0.9011051686124407,-0.08753822451308049,7.001913537902021,6.82033932700357,-0.00796944509132543,-0.004529443533890708,-0.008727714031156422,0.7668841892255135,0.41706475263998083,0.2851547711827355,2.2976403176528017,-6.823833565532133,6.572685430501171,-0.005450837414822665,0.002793979222931667,0.004648707194370875,0.303958224692325,0.28517956804387756,-0.47679304192510763,-5.4739891485851775,-6.959846590417826,4.331406792013777,-0.00581256988123945,0.002588807435858079,0.0033171503486809136,0.6392081249360303,0.4173361438021235,-0.27646698463494235,0.14051148156356136,-6.0312880289859,7.786524997291487,-0.003426008662466893,0.004734789314081417,-0.005004239082614082,-0.46433234104255416,0.2770945826914633,-0.09199141899647503
1.8696336870425756,-6.072788203929376,7.444083975680476,-0.0031292838274184264,0.0007689151974904331,0.011728272086992429,-0.2608598750146985,-0.3973827169098533,0.9003791138046568,-0.11869395801538814,7.023005072103826,6.836190894747714,-0.010114180260887347,-0.003341066388099112,-0.011266038835393349,0.7702724613637006,0.4206618953556949,0.28020332359638556,2.268701004854818,-6.8109440668567665,6.58072981983027,-0.004323035484800047,0.0028950922892983216,0.0015759755180855552,0.3049333430646175,0.2878366707946211,-0.47902408632897064,-5.470919389107282,-7.001936733244699,4.287838532333576,-0.0009933147846847416,0.0020057228974661345,0.004866273563735065,0.6414153188348549,0.42026893226358425,-0.2776626421667277,0.0532834519466661,-6.002978410355552,7.780035381265999,-0.005798886475330644,0.0028372317003642505,-0.004245525046996605,-0.45894279287339973,0.2822126097169635,-0.09391665895518507
1.9315776963937763,-6.073958152883513,7.41514414760664,-0.005408565245822748,0.0008330130217320366,0.009793164161153594,-0.27282038958245947,-0.39929539575611916,0.8959606791377841,-0.06859466519507394,7.021646853836643,6.879428729002487,-0.010399580060981281,-0.0008799463273219171,-0.010777183027872972,0.7627356290788537,0.4157840493380666,0.2829873536498149,2.299019498091224,-6.808029470321998,6.596384759814619,-0.006234675735309989,0.0022755219262853787,0.0004498582427068792,0.29831732282117385,0.28538229418317923,-0.4823836692774258,-5.519429315097436,-6.980647345301059,4.369466095444421,-0.0023178202398841364,0.0018417447146233253,0.004558391354605316,0.6355504884255737,0.41832630498771084,-0.2772031048587722,0.14659979248146085,-6.045138535285576,7.802337716773272,-0.007401285060317549,0.002473692401637793,-0.006201509441902004,-0.4679899174323784,0.2783408143601103,-0.09418160976000714
1.9296589523966299,-6.075258874921665,7.4145789497183925,-0.00311837273099461,0.002561398481930191,0.011336596681868634,-0.2662641138309741,-0.4076236163324346,0.902309022567587,-0.07142564777476318,7.020659983803487,6.857428836476132,-0.010948557037091512,-0.002715410955697002,-0.011730085896839573,0.7652224501265458,0.4095383851121195,0.2882162446845832,2.303157774910323,-6.828062003260418,6.5852784167153064,-0.007029823848138974,-0.00028182199548185333,0.0028079533519984228,0.3015106939516182,0.280091353433093,-0.4740391802096445,-5.482273264603674,-6.9766916809982025,4.299003884333584,-0.005079323868013372,0.0024556396297280287,0.0027763827280724213,0.638458092390805,0.4121967019776958,-0.27430542248815476,0.12053482684627591,-6.029094762210513,7.772624036995221,-0.005577456197979236,0.004613528019155563,-0.004807863930696202,-0.46629858577914285,0.2734264531594515,-0.08956932808731816
1.87440653367274,-6.0719780368967715,7.415451710289412,-0.0036080930683161025,-0.0006032911337956555,0.012181629005114745,-0.26136233460472946,-0.40299501948809857,0.8993949699479937,-0.14231559142372507,7.016505859186974,6.8305468518187915,-0.009196625649500653,-0.002217691299961918,-0.011432936847591698,0.7717788405355263,0.41412451455737886,0.2829977392935394,2.271769153073672,-6.833056661270316,6.567828341627793,-0.005723691260670854,0.0019857001238647626,0.0010886447403095072,0.30344568148689266,0.2831882139582512,-0.48043095415167725,-5.473927893250105,-6.967136087807061,4.2940077473522305,-0.002001964618773496,0.0024990759651153634,0.0040905517947780355,0.6431204406551613,0.4161267604536577,-0.2796376518565684,0.06522143961790518,-6.024140706550313,7.772414848467925,-0.004837556128400098,0.005392173271586165,-0.002845605930864359,-0.46237940934661426,0.2771074341494803,-0.09565343287288516
1.9323579883621191,-6.0883651501626845,7.424951074436291,-0.003048493146232568,0.0016984591797528136,0.011129614546429112,-0.268934339507806,-0.40468145564159824,0.8988898948565932,-0.08371206067155013,7.011592131622212,6.8770537912773095,-0.00936319077531489,-0.002363371693352829,-0.009177807077080926,0.7627434493049378,0.41380649168275274,0.28155569776798667,2.312089809372485,-6.836466235738065,6.571698089369164,-0.003664974199216862,0.0037700544297819298,0.002599278306675984,0.29829859926145513,0.2804969389737161,-0.48257387681061764,-5.485541000704155,-6.981375490247044,4.329371867748656,-0.0009823597151850483,0.0025116954378221717,0.0056386062477889725,0.6360382760351989,0.41395245386847945,-0.28064815676472293,0.1188553531460128,-6.039844617015584,7.760085338268479,-0.007922337419792497,0.0029960520679745972,-0.004632633787915974,-0.46947265726167176,0.27347121493645865,-0.09567312679034859
1.9080714725208565,-6.06831852899927,7.3984601943976305,-0.001631105641808633,0.0016109823829124085,0.01296710943684852,-0.26160171078794137,-0.40201606082560837,0.898418787086002,-0.08328021095652842,7.005425632264803,6.842221530634354,-0.006086476907293976,-0.005400930400534976,-0.009120681535146058,0.7715327469345431,0.4161587577818512,0.28784740066761944,2.308602616348852,-6.832032808863917,6.598175939677817,-0.0037497864374683772,0.0002455080751619011,0.003451499450732756,0.3034714014976408,0.28518403099757444,-0.4765467427997302,-5.488530263765789,-6.991164408385979,4.347780239757545,-0.003345011735221469,0.002329526350973412,0.007111663903148908,0.6428654927662633,0.41561716510840124,-0.2762236046749907,0.12162238291607254,-6.016293300363288,7.77480276308381,-0.0036040177553816923,0.005843692192194979,-0.005965212115404862,-0.46017528188813295,0.27903380391613786,-0.09222492537415092
1.9227887362899214,-6.072409761133887,7.436095052438714,-0.0007091581483684521,0.0013905406863348674,0.010467512613808976,-0.2632922873460885,-0.3985871598056407,0.8937810813281615,-0.08829106682640583,7.0250124346210425,6.848478818537981,-0.008435248165824267,-0.0046159115912229294,-0.010313561681735953,0.767357983536861,0.4174558773919178,0.2792873433494378,2.2817507854020924,-6.800280482964774,6.5817091687192715,-0.003498876609937378,0.0020910559846518996,-0.0005142794352145505,0.30146601792906225,0.2860409316849767,-0.48802138989473076,-5.481491283440407,-6.991317510294451,4.31728573182932,-0.0013887950378007935,0.0038081670348002984,0.006483866992624093,0.6370490112442434,0.42106962566970296,-0.28670323933138264,0.09834963727595884,-6.0409790658109,7.804135124165659,-0.003882455805584129,0.0035032634917295745,-0.004240927118591028,-0.4653050201239708,0.27836164349975545,-0.09979662023107908
1.8560927232600655,-6.080406386902549,7.441253304200424,-0.00446788586712193,0.0017879340436497038,0.009298118558823096,-0.27478564119272075,-0.39564377067942713,0.9084127984115317,-0.13637320018232613,7.015512937714131,6.844085995930696,-0.009560052475955861,-0.0015252148848714907,-0.010291810055181578,0.7561290193676959,0.42201279992747476,0.29241699283800143,2.242070307451299,-6.812093953138927,6.593573871540706,-0.004626682135188339,0.0019889429853899,0.0025584632537516312,0.2939852278316231,0.2877213397498075,-0.47091382495246886,-5.492883751019932,-6.976349374700423,4.303616691874433,-0.0009429050309608219,0.0035292207396242945,0.0038532744612335256,0.6301700855145048,0.4200175564205307,-0.272569499447697,0.05464327025224755,-5.995419862333752,7.761979252971762,-0.007143253479035278,0.0022140433940017663,-0.006989938954220383,-0.47481599174273037,0.2810050416861818,-0.08562187148920901
1.9739974313654147,-6.07515648383324,7.403162472687379,-0.005494373699372783,-9.253707409333295e-05,0.01040781766469604,-0.262830892398587,-0.4076228433949682,0.894015307236159,-0.037081149250481706,7.026854551785425,6.837350205182322,-0.010198535782432312,-0.0017416361969592477,-0.009636784954116653,0.7703143805441148,0.4118204311377755,0.2771798813089317,2.3294162661019566,-6.839580648585221,6.5783348668868475,-0.005577614431805504,0.0031504877144579307,0.001473165778575042,0.3043769379367289,0.2784815429702653,-0.48624307834473174,-5.479642185548023,-6.97804892805539,4.377894637431959,-0.0024817261738399815,0.0012610874614551175,0.0044071498287031555,0.6414115342890176,0.4112741475221705,-0.2835801419033432,0.16885245349386524,-6.043277674184479,7.79543141082657,-0.00796715793424355,0.0005911859125751965,-0.007207766968180414,-0.4599553445927464,0.2724899197059619,-0.10104969421134484
1.8825814365955906,-6.073584228208147,7.389527591004986,-0.003203193547695292,0.0016328429314829737,0.011953248138355924,-0.2652679152955379,-0.4017649071767572,0.901098384509711,-0.10481490131374004,7.0067130034500185,6.841582938706365,-0.008559173385815903,-0.00326140994625172,-0.009608207278885644,0.7678811985995507,0.4134169329442538,0.2857028111224734,2.2722036048070433,-6.801915595716988,6.564426608261599,-0.006257962306018948,0.0007552623586489714,0.003242886452846293,0.30297451630818756,0.2839568480077734,-0.4772629222591151,-5.490273272471067,-6.968320378839228,4.306424349297774,-0.003243181909671783,0.005378532656026192,0.005083681595933947,0.6399369048520314,0.4173249531569839,-0.2749999234216678,0.11081186742015842,-6.005084978212136,7.742328480054486,-0.00659778708916697,0.001496477620454123,-0.005048825928619605,-0.46286824390494574,0.27684792696114735,-0.09248079157677486
1.8978274343673267,-6.061322669518774,7.450979513256867,-0.0026073527648459594,0.00010781436385926908,0.009085373554378256,-0.26915982624213985,-0.3973586698374414,0.9003639032687396,-0.12586364064914637,7.032574810976294,6.865105774098042,-0.008883042165331385,-0.0010579562992037495,-0.010028034670757767,0.7654069681560103,0.4187406355623992,0.2836640111946215,2.2710627350014994,-6.824017517634547,6.574910843504902,-0.0032882765706200535,0.005258130548787123,0.0018120563807516713,0.2966171294010617,0.28782936428112066,-0.4824024381337637,-5.4723412378373,-6.972752350916926,4.314416399372435,-0.0021963753163793376,0.0014058640958675467,0.006497962497087075,0.6358093237782987,0.4217595006226734,-0.27962215343047414,0.09801809789040958,-6.009668474457859,7.798310544373204,-0.0051486274195160844,-0.0011938608034951386,-0.007432533422520554,-0.4701780300348501,0.28078575170147485,-0.0934362517012823
1.949293953162081,-6.086626224110488,7.371569276906801,-0.005391844086009689,0.0020103699485985306,0.011806714277136305,-0.2647957397753836,-0.4090865155822923,0.8981598269325712,-0.0592841985647915,6.996418885335875,6.858031531395072,-0.009465484692830848,-0.003152076930202454,-0.011890613926785714,0.7683994156392199,0.40753667576047103,0.28433740841544247,2.3186832311291816,-6.828502915044337,6.594080575313918,-0.004554645500448535,0.0025708404619277547,0.002750734026502564,0.30488478744515163,0.27658863321403043,-0.4806092910278777,-5.5075212610797095,-6.978991524218936,4.362073911122117,-0.0014117115165276145,0.0027972047763200857,0.004942205179212554,0.6401829677980421,0.4115003659448372,-0.28040812967094275,0.15650975733449982,-6.054058767778948,7.781781686931016,-0.00774931744810047,0.0018901836134698324,-0.0036746441999104804,-0.4609365125916616,0.2709766477095429,-0.09153677882105787
1.9038431899378303,-6.0897006706579635,7.42809500204819,-0.002204547014090175,-7.065057599266278e-05,0.011638890108544629,-0.2664617394945599,-0.39345821319112545,0.8993978722895559,-0.103898179960895,7.028442666151292,6.835286360758774,-0.010636044214995952,-0.0028119693216895497,-0.00785449559109482,0.7670857560422252,0.4246245950083945,0.2845379582587965,2.291035764526483,-6.80537417462433,6.62139358130075,-0.005129153203460945,0.0008583716431173732,0.0001701280039215151,0.30078518384017366,0.29027753654979643,-0.48049617274419004,-5.502284130429211,-7.000265318118896,4.325004065213998,-0.004488063324891598,0.002755772575701442,0.003627051985121637,0.6382537855091835,0.4246733033617285,-0.27813118379828344,0.09557502509388358,-6.044556283006054,7.786728428374161,-0.006571779578559403,0.0017795610338037528,-0.005631293430269542,-0.4645453175544136,0.28564028547612424,-0.09194487953326874
1.8864526715736538,-6.0806961993926905,7.412545610090363,-0.006580838914958266,0.0006844069921428113,0.011340824231266302,-0.2689080838087605,-0.39808446475297676,0.8949924185123787,-0.1086707180247198,6.984826843370657,6.855698095364081,-0.010828788659587463,-0.000723383033594771,-0.011432092116174413,0.7661301437944431,0.4194350699046308,0.2812094426092472,2.2738621365423675,-6.845663187581709,6.56254755650057,-0.008244640329406454,-0.0004452056003556043,0.0019235017057795025,0.29831821672788555,0.2894997991301181,-0.4853591612053033,-5.4798811668821426,-6.97403652938354,4.320327524955997,-0.0030225678224373464,0.0024884522628879843,0.002543507439362823,0.6382613040498473,0.42031899130795725,-0.28426255844104736,0.09772573160880195,-6.030740736117515,7.773495432052193,-0.008258186179588569,0.0005708095274976989,-0.005842853284703479,-0.46700071428864726,0.2820297692161703,-0.09977661951963979
1.924309165951123,-6.079024820869762,7.417222288535773,-0.0030525196090926267,0.0016994501840247762,0.011145608467379567,-0.2701241292955674,-0.3963719358121716,0.8949923881580353,-0.056293685064068275,7.026362337642431,6.856340120159727,-0.007880140770069844,-0.0027970890688323244,-0.009341385560231511,0.7629467283853533,0.4208701109472665,0.28045823455609503,2.3290164272102447,-6.840454313398866,6.565981498939033,-0.0026519689125814416,0.003710048863085657,0.00011491005273009425,0.2961155707808233,0.2865924387028283,-0.484095558349292,-5.449295376310572,-6.972165222234083,4.348181365600771,-0.0004445266780146261,0.0012843180899554114,0.00750523997460085,0.6350752405333071,0.4205417985203565,-0.27987616992489034,0.13242755895632644,-6.03921145422081,7.783513928074905,-0.006599783460711198,0.0014974903050826778,-0.005049820398579171,-0.47018165092815933,0.2798376916371882,-0.0985684903944489
1.9260153518388088,-6.062101601198284,7.431876225606319,-0.004379284637282008,0.0020993523200781325,0.011099686342498529,-0.26990950974891864,-0.4012662951869484,0.9032875078534183,-0.08656196339651338,7.0190230035030154,6.838990701432298,-0.008025147510811962,-0.005077181471210857,-0.010516567963841707,0.7647089013622187,0.41392488222879126,0.28789874868132004,2.283856215861839,-6.822178352993743,6.557752143178242,-0.002601230861979885,0.0027696686154025734,0.003099221638337176,0.29881114246688745,0.2824882930593424,-0.4789359645840481,-5.485058683557456,-6.959284943588763,4.321189328075162,-0.003753448228388265,0.0036279895362863355,0.007958931858070268,0.6355516244236418,0.41759965914150227,-0.27818483930540033,0.11352157405675907,-6.026487423654709,7.782022480747554,-0.007463281969528879,0.0019125998890636901,-0.005043546758746143,-0.4684867686677434,0.2758989808128838,-0.09370689218338339
1.8920616790368285,-6.072908060775329,7.4068649131124555,-0.0018794513155874135,0.0012339314749207407,0.012013166021808599,-0.25992267102235983,-0.4061845526558462,0.9081825332588005,-0.11113850119339065,7.013527362319111,6.837511109293764,-0.00902496311361949,-0.0033488099456812667,-0.011190038549777827,0.7705784711242964,0.41301824082499317,0.2900999159110009,2.285789118488621,-6.805060427643199,6.582698465314552,-0.0025466641057927757,0.005293597140569223,0.001279077888802727,0.30566688656982066,0.2815411135679705,-0.47407501973698163,-5.481812750972246,-6.9853968019350585,4.315925174168287,-0.002439905882340595,0.003284982230525541,0.007496474840246661,0.6416183312000073,0.41045826108796857,-0.270889519248639,0.09418285662743377,-6.014355106428503,7.763869570762887,-0.0036274168982927684,0.0032456089956178374,-0.005026345679869684,-0.4597065553195853,0.2733759374863444,-0.08468763057650933
1.9306967245969626,-6.080681636795236,7.4104988702433365,-0.00492897607117444,0.0015910843244976642,0.011763024847467064,-0.26454899928238956,-0.4103038200450604,0.8947407057042375,-0.05912013288074849,7.0312500594653935,6.841392528744354,-0.011302755146360753,-0.002053371363457097,-0.010558456144017927,0.7676552126930646,0.408202389465777,0.28066403540994717,2.301299505876035,-6.81076513933045,6.598901105891251,-0.005767452443298609,0.002407471552508024,0.0018682727419072193,0.30266532016265896,0.27485017953676477,-0.48399779479708716,-5.498652564489422,-6.9727579210178225,4.355339689792187,-0.002002965796074854,0.0025010652496270246,0.00409256186720034,0.6399230380880655,0.4063645475831247,-0.2789771522772118,0.1486841150072816,-6.028087527752827,7.7854042852626035,-0.00813435403114428,0.003821922356918236,-0.005015138980496489,-0.46168898861530056,0.26539898785772387,-0.09791423508600043
1.9265273719428075,-6.079151201322267,7.388542127253805,-0.001019580765093337,0.001254305967240214,0.01211877149730934,-0.26793072855298405,-0.39638081304733186,0.8969494094602011,-0.0843426138879739,7.001558246840043,6.843462449240716,-0.011266269273582524,-0.001797664598441236,-0.009646735336197499,0.7675751500406578,0.4233618520543621,0.2818720412033839,2.2979770905052366,-6.8085278457613585,6.561507721776016,-0.008287418294672201,-2.5459676023882823e-05,0.0027011471292821628,0.3017805823957802,0.29152710739165894,-0.47758446801557086,-5.481827974327906,-6.963962119157637,4.320678274680663,-0.0036914421770903668,0.004654083468998912,0.0028436367061896966,0.6402076008800873,0.42564261569972434,-0.27763126271668254,0.1254254204618268,-6.047414218630039,7.774517232595424,-0.0037636163330881075,0.006756383538719327,-0.0034112017787042335,-0.4630865574549544,0.28393531006553635,-0.09366321152142372
1.8928200039633474,-6.070555288995799,7.440967417555079,-0.005966272814376287,0.00033373857558171264,0.010479499571430075,-0.26329836206627294,-0.39713039061975985,0.8993989580299806,-0.10532632932558478,7.012834993204848,6.8507683665587,-0.009513227604635945,-4.749816758227828e-05,-0.011811207875000293,0.768810472174841,0.42093518958369164,0.2823998806469994,2.2657299984084,-6.822221166582434,6.58771954146083,-0.0076478304649487535,0.002790537227882117,0.0017120511555458056,0.3049225337240924,0.2880548035482224,-0.4814686088303937,-5.473925289820057,-6.959573213338032,4.302679025688662,-0.004060712694100083,0.0024722548255383258,0.004325460263784296,0.644845300891939,0.4249031130598798,-0.2781107274658923,0.07405848020409057,-6.009542312824016,7.800665628993249,-0.007586286937100653,0.003584653321803832,-0.007168471250584516,-0.46237226002260107,0.2790391222347159,-0.09173685591991648
1.9193569475924595,-6.083367449203156,7.3962725563779115,-0.004777289003392008,0.001659693814667032,0.010951389602220614,-0.2669956068636588,-0.40883866358116655,0.9001091109497072,-0.08000652427419952,7.008469849828933,6.867086047780846,-0.011026704162839497,-0.0011434683497999005,-0.010072373475910432,0.7652037598128002,0.4106545773790357,0.28209244018938184,2.298009610543174,-6.845960000637437,6.587430012295574,-0.004773469146423644,0.0051882705659918775,0.002884011415061296,0.30123543715113604,0.2807463468036375,-0.4811255740300817,-5.4855577813639735,-6.974159370314622,4.337548828830277,-0.0038978073454197623,0.0030539078728739322,0.004477705394729577,0.6377423704253757,0.4127237978056555,-0.2799192043735107,0.12055964615550929,-6.029631771577269,7.765996014066632,-0.006670381376702142,0.0032533975325997892,-0.004244245608375985,-0.46557645283826676,0.2707800702225641,-0.09715286231398666
1.8967756272338865,-6.0798253878712645,7.420527706539982,-0.0016381675387889278,0.001607965378024881,0.012996092661178264,-0.266724994044433,-0.3981005641606029,0.9025644257026791,-0.08862231585311174,7.020122482897402,6.845628059477176,-0.007145207038199941,-0.005457926609356135,-0.009131633342844,0.7688195941263192,0.42101391846593583,0.2870372034256187,2.297268113463107,-6.825552378452059,6.575860339663251,-0.0025002098041830975,-1.185798192772948e-05,0.0035553548800831853,0.3020193026545325,0.2890924298696018,-0.47682678602314194,-5.483890141744851,-7.016328220345294,4.338325140746584,-0.004139337924881634,0.004933021399885653,0.005476223462561293,0.6399453143036705,0.4185585913290236,-0.2769449468512465,0.1070613537607724,-6.028465542736968,7.782119808152338,-0.005354413915928127,0.004075828163579861,-0.0050137984002036244,-0.46187360764518465,0.28196063896489176,-0.09049993603496058
1.9162792919217684,-6.078508210380537,7.418490210723892,-0.00250585174906324,0.0022097062816153704,0.010498267007497298,-0.26087881994746287,-0.4029995730235912,0.9018368581193732,-0.12453492111311143,7.000083776042158,6.856254395487723,-0.011497558856169276,-0.0012220328043473859,-0.011662345954996463,0.7720491770397315,0.41179712867132157,0.289629682757704,2.273495236282384,-6.831159162329422,6.57396465611826,-0.004314505313716823,0.0014767210012277751,-0.00017159540332461484,0.30711928457243215,0.2793281746112089,-0.4750347093824697,-5.493180681772436,-6.98586221798123,4.318294507033475,0.0003172166647358634,0.0016617030689594168,0.004406801390830395,0.6472520738754064,0.4131597608375395,-0.27524989762332785,0.09452128545707467,-6.013577480777141,7.752513631820043,-0.004724939510017562,0.004203474597611815,-0.004817109915074307,-0.4616658355159472,0.271705969150533,-0.09055578172227334
1.917872743118667,-6.078089678616664,7.409088651520985,-0.0038495304525280934,0.0008181386529454108,0.010847010576173302,-0.26086256523431467,-0.39738460123445923,0.9018441101227543,-0.06800642563428802,7.020662583382765,6.852174300226731,-0.010330278608869408,-0.0040570749470912265,-0.010777388400573669,0.7697916337776969,0.4207296947404298,0.28435472457388306,2.3128191186497,-6.8318864401821875,6.5914126589978554,-0.003887074421648463,0.0020244058771339323,0.002024494328268633,0.3049327566529072,0.2873513864231853,-0.4787747296868666,-5.465390579583702,-6.975711695757229,4.335577736474751,-0.001993013597050808,0.003007033607838431,0.004865891663744765,0.6438590987509892,0.4219675116303689,-0.27691157502177194,0.12828566106286335,-6.028454410188627,7.785758601443084,-0.0066027762558023215,0.0014995283805364925,-0.0050548093289241565,-0.461879823101886,0.2802556616650223,-0.09124123137086117
1.933203044542883,-6.068733508800854,7.417216857572779,-0.001333789239428262,0.0017421904797973692,0.011365820146249402,-0.2694135621713237,-0.40053063023271185,0.900115356836303,-0.07743202198366803,7.022805230456033,6.850344200235481,-0.00770856056471635,-0.003918446950124696,-0.009112654855702503,0.76419994897569,0.4165539201964962,0.28468065253101416,2.3151529431984907,-6.816530854501403,6.5528158701110115,-0.003540637828407733,0.002512820117917275,0.0002653390718276937,0.29930528630202846,0.2861321589655204,-0.4804435043440497,-5.455369387873534,-6.950095426417402,4.324709442412778,-0.0004050748710163545,0.002301836905789766,0.005720908162871983,0.6365268006077989,0.41710783728989137,-0.27794121731105115,0.11309920513636725,-6.043261915532457,7.797203366879082,-0.0037260150508848554,0.004720440027506311,-0.0036382924274026883,-0.4655497712930718,0.27807067409083086,-0.09100907070528443
1.8519298495668357,-6.0588942559352725,7.430435302126984,-0.0020419766755589686,0.0017884267739240584,0.010447576844933217,-0.2725890468618962,-0.4007676927118986,0.9010862231303418,-0.15319238370967994,7.006321026965211,6.850907102018206,-0.008143966600013574,-0.003736395753335198,-0.009795988556155119,0.7600501219819232,0.4167877085746583,0.28541695336358264,2.2313979250606173,-6.79949661074146,6.5760601891858155,-0.004932050927611974,0.005444901639158924,0.004250047033542844,0.295142485773241,0.28224424186690894,-0.48013680515616175,-5.499442918856659,-6.97605354621193,4.3056447894546865,-0.005955547387844624,0.003028097377721323,0.004710623268971349,0.6301685105035787,0.4132133828461374,-0.27749575964066986,0.03440630226359634,-5.997350726749305,7.766991119114733,-0.006206325944251427,0.002169921756813351,-0.00465415876856599,-0.4701992673530705,0.2749149079903586,-0.09127018889149076
1.9780647590631395,-6.084223785025542,7.401212274110976,-0.0072281482044927615,-0.0001232892794128931,0.010230593887329803,-0.2647771961812107,-0.3983533622095624,0.9050096834867315,-0.02131060636791533,7.028174684777489,6.830777819308653,-0.010385106824536708,-0.0009407059565924252,-0.010708170037228243,0.7676315113770551,0.4159225367118725,0.2895683346381977,2.35643669814997,-6.824615528703457,6.5925239891945555,-0.005705919604822725,0.004409791459948816,0.0038121016176201517,0.30202133485077126,0.28643444985594235,-0.47435639250850403,-5.504922159745498,-7.00229817662756,4.374728541687966,-0.0026161279294213565,0.0011939806185339184,0.0016982596796329143,0.6404170109314817,0.41876345999831505,-0.2710831133394812,0.16878887780648075,-6.050753718398178,7.81161294097816,-0.010357626106087297,0.0010137695570157559,-0.006821423878617059,-0.4630997744177224,0.28024546945895434,-0.08855622859508519
1.891159176746307,-6.073793357112275,7.4013711033222105,-0.0021729589177266902,0.002892161360563211,0.013273763076322297,-0.27112282827192336,-0.4024759003870916,0.897179708624439,-0.1028210003375369,6.99854039451927,6.859725394195139,-0.013079022707351673,-0.004094624856581801,-0.009273125163850737,0.7600578395318932,0.4145537641776372,0.28325754352049104,2.2824494647956195,-6.824537082776985,6.583846689164853,-0.008905702733604037,-0.0013152011149594712,0.0008961583832598768,0.2951331281728457,0.28028600715931457,-0.48060326229812395,-5.491283052474909,-6.961620943861214,4.312436047586879,-0.004282694763463316,0.004359937408962141,0.0019950063541092724,0.6338408187391239,0.41711402535883735,-0.27794890554572105,0.1086114140697967,-6.028729445340505,7.753704926304014,-0.004754939763713585,0.003922416553519294,-0.004236631353343504,-0.4692171137619152,0.27663628352874514,-0.09419087332826673
1.8818660426177696,-6.075128229756845,7.472424499708954,-0.0035451558258221944,0.0009523611822610989,0.009218738056217955,-0.26576852725021466,-0.4085944336850172,0.8971816710476602,-0.13330360148474393,7.041534734924006,6.8971309906408855,-0.010677313456367373,0.0027641073171060845,-0.012663769150375287,0.7640086745674499,0.4060148074214954,0.2824175970706755,2.246350816658693,-6.831897709851891,6.587395686452902,-0.0050686167518354175,0.002861695131142453,0.002113950614231319,0.29853146969420313,0.27611307532143786,-0.481550715611302,-5.484887666189511,-6.967696006677497,4.313715078094247,-0.0021678740084805147,0.001919410323969924,0.00394131098640951,0.6360160465183333,0.40758818939256797,-0.27800443258674384,0.043294216232447065,-5.997297016315362,7.7859105575702365,-0.00815214899547491,0.0017051739959480748,-0.008179712366527316,-0.46630930427153716,0.2705280977665308,-0.09520119439701052
1.9717947119055397,-6.064655270688294,7.37158485536964,-0.005795875119480273,0.0015766979269864869,0.011682414230219115,-0.258646213312439,-0.3990836321069009,0.8891509628277416,-0.03367474570714292,7.0014179377174095,6.86009060609468,-0.008742923760896502,-0.0037040758771238963,-0.008228130225492318,0.7714893220563427,0.41885207157992466,0.27388372883442813,2.3410070218260106,-6.860467263597425,6.587547699951505,-0.002207057375798718,0.0023147357437155354,0.004326425103558153,0.30804445517237683,0.28453419319481343,-0.4897454384897628,-5.486230691504381,-6.991383187547544,4.374660113810319,-0.003044115809912745,0.002483868261466978,0.005875499586887593,0.6458454114644843,0.4203379811694417,-0.2898567549077804,0.17194821585388798,-6.039774856979024,7.796169449467454,-0.008687633246027365,-0.00037957656854554014,-0.00567301958494162,-0.4577299543342054,0.2800750399119397,-0.10564749136411902
1.9044311137999967,-6.08612776333492,7.405957621607107,0.0007612146872599412,0.001050233962946176,0.00973077313593191,-0.2696430465727321,-0.39613468873790403,0.8991435871703136,-0.11565595122979715,7.035112652768555,6.874980060338351,-0.005659237026734297,-0.00588079914415915,-0.009305403145554553,0.7644171881834779,0.42143747291483896,0.2845973160218132,2.2700097496745393,-6.820743520090139,6.593888249992101,-0.002329821275455051,0.0026762183135467985,0.0011498097071575494,0.29665075648740713,0.29299091968579155,-0.47928512839240395,-5.498481383875358,-6.986578037771748,4.3350700352291405,-0.002695400142729102,0.004658110670747331,0.007725651561496012,0.6343435697551668,0.42540420251652705,-0.276428650925604,0.08489176054967915,-6.012795879561087,7.772599331598664,-0.0023714462993601492,0.003506918071505308,-0.004633935917662278,-0.4682152694391559,0.2834566266017832,-0.09195671524992556
1.877097655002843,-6.064602803670864,7.441787204491158,-0.0060590890691196156,-0.0005888028307083689,0.011103144098813857,-0.2677172316569807,-0.3981084105413769,0.9108636143952293,-0.1363561039822255,6.995870991814084,6.82764397859767,-0.00817334637589581,-0.004005807554668996,-0.010692488478113391,0.7649473412910486,0.41668223472245397,0.29200207350712065,2.2462850906755905,-6.80500088201763,6.581110807333199,-0.003467588042100879,0.0030957358704934387,0.00045959394079907314,0.2981444943876239,0.2857909152278129,-0.4674942641793556,-5.481624185530307,-7.006173433589278,4.304944683733932,-0.0004714499853405857,0.00027036511783165736,0.005963547234187237,0.6389352042026036,0.41630055873144356,-0.26719725331010613,0.0765330497648342,-6.032591240547265,7.778527750565148,-0.007975132680556354,0.0005982910417522098,-0.007221728363548513,-0.4677465535630841,0.2780055331988925,-0.07758219309645976
1.951731821780031,-6.081037291661562,7.383212971538788,-0.0037225681056924417,-0.0002836023619891764,0.008034819562302288,-0.26573596322187143,-0.3985819719731674,0.8952416042826234,-0.042045529266720734,7.019283880622746,6.845351647627342,-0.0093781910251899,-0.002682833442684613,-0.0100224781273825,0.7656528536315327,0.41747972290572183,0.2812435778439263,2.3346133199279864,-6.788318149376397,6.6071874102131245,-0.004577394303418442,0.00015177802418109694,2.8245750265798864e-05,0.30318958211785263,0.28364754120771984,-0.4831209721053483,-5.470239167529432,-6.959925847062687,4.345682426867113,-8.922728955774617e-05,0.0029581552080342388,0.005255062060145255,0.6380034332561942,0.4171329638351916,-0.28233091623904305,0.1403819732192929,-6.029513260323473,7.759298260050612,-0.007742104955783554,5.6544078090932185e-05,-0.0074256849933770136,-0.4640866486821716,0.27761193416448704,-0.09735968507756768
1.92181066570966,-6.070840666682562,7.426606250747096,-0.0036102537285224194,0.0011941693368776364,0.011836936115843119,-0.2645478965766152,-0.4088410255698451,0.8964515935168422,-0.082226827516345,7.01985859596167,6.8611382250668616,-0.01005011403127257,-0.0031618761722603723,-0.010275061850408019,0.7691254706517286,0.4082559611340967,0.2833466260629052,2.2838528363254267,-6.805698091986084,6.547958247748016,-0.006232702372958026,0.0017559314127949287,0.0042138325789812065,0.3051238235578333,0.2787550620617507,-0.48332045107195465,-5.460846633011778,-6.9447943982803055,4.308785664582587,-0.005474787615605942,0.004269064048591218,0.004397047499519849,0.6404319041505319,0.41029625404442815,-0.2831012910518671,0.12074106636915312,-6.030429696475369,7.803688225086458,-0.006128296151602478,0.0030211719540294986,-0.0064015503827151,-0.4606899602173659,0.27174497162298267,-0.09836869994843966
1.8918752176038471,-6.063491976827284,7.416545706273006,-0.004561731994244422,0.0008683685087282707,0.009942765075457423,-0.26794946690773697,-0.4005355023653136,0.9006060403610591,-0.1056260524944049,7.009369939551166,6.823777833418372,-0.010887464484048927,-0.0025391517255541965,-0.010734052572220258,0.7624756807998451,0.4189686417992077,0.2836659063365563,2.2654001167714504,-6.810403296279538,6.574452224188316,-0.004817223158118071,0.00560807511509231,0.0036666612262892975,0.2990607042631155,0.28564776463018665,-0.4801929893661785,-5.478068046355142,-6.976937846911611,4.313412749792922,-0.0036353655190597385,0.002189728687397977,0.0050258692599805905,0.6350632145832649,0.4171143775430579,-0.27843339834875686,0.08203652388369384,-6.005374433451645,7.768022720382286,-0.007813710080598087,0.001810438642244082,-0.0066171211035486776,-0.46871047059263576,0.28174943840775074,-0.09196600436980538
1.931639940761501,-6.081313911943364,7.418660809559701,-0.005180309305538802,0.0012240304819213428,0.01081808882743507,-0.2643083487232505,-0.40543379768479637,0.9042684355240275,-0.057400182646761444,7.023172679833164,6.859812947129111,-0.011384739360844423,0.0007651614915608142,-0.01135225469135855,0.7688812341490431,0.41004210673938185,0.287956460160514,2.3168230209673144,-6.821450944667745,6.616219533057258,-0.005812216011331743,0.0028272577584654924,0.002648927444233912,0.3034570510173024,0.2786139473988161,-0.47452128764864926,-5.515426939695836,-7.004186202992107,4.3542415556567855,-0.0032309267136915922,0.000892274693689631,0.004178596348267576,0.6404091146551332,0.41194503675273536,-0.2738124288384587,0.1483870871370547,-6.044669540263715,7.790314065352694,-0.008499203157189146,0.001115656260510285,-0.005651879846671396,-0.46483269114503384,0.27365848607899257,-0.08834806863661178
1.9036930408260715,-6.079384961511899,7.3768208658189165,-0.002572983752449777,0.0024504983698485855,0.013133460067666818,-0.26820638005678105,-0.40468640354957386,0.9010892307917951,-0.0828136921328293,6.993425102467398,6.86172316661108,-0.01048346994287963,-0.002986711123835382,-0.010952281799675232,0.7634885073995522,0.4128926579381227,0.2849882457025136,2.28673073610122,-6.829175919075039,6.584924277587067,-0.009882935908556269,-0.0016739379967088788,0.0026009035757873387,0.29804335569343493,0.2763588426677952,-0.4815510812866206,-5.490996521963051,-7.001785655072719,4.321847601898587,-0.00503584466561486,0.0034851489460141953,0.000992140276319079,0.6360247015445877,0.4107642793829099,-0.2784718194326974,0.1289422379352629,-6.032846609962428,7.771934468849765,-0.005830458438608541,0.005162369220404364,-0.0046078684256259,-0.46679191960132993,0.2719699050542913,-0.0907982704607598
1.89677293314702,-6.0697306590955025,7.440139735009412,-0.003988341542112361,0.0025469718994527344,0.011293980471333344,-0.26772089832827967,-0.4066386094249492,0.8993786070133326,-0.12445776740423405,7.018574213720658,6.850835581986347,-0.010613254135924788,-0.000381630756160154,-0.012698502101123109,0.7644542691879979,0.4148548041253347,0.28519706981028803,2.269961515684901,-6.846582023651444,6.578093450177141,-0.004083867729745313,0.0018059981315959176,-0.0013444043716891586,0.2980810733706534,0.28201373108837985,-0.47795118082583515,-5.456991138035147,-6.984672599544689,4.298534850936711,0.0007870093494484074,0.0023926908082573866,0.003321866941941144,0.6370110543041251,0.4139407010904944,-0.2791803971414485,0.08228597037474245,-6.0161855551476675,7.787853138762187,-0.004896347567835045,0.002995379550696708,-0.005424694999926153,-0.4672765316908606,0.27320993809932936,-0.09396555749699355
1.9402788573494296,-6.088512115470123,7.380070317917664,-0.0027082146645112217,-0.0008197257052915055,0.009725996920573783,-0.26528325708160827,-0.40567371339603725,0.9032903342285044,-0.0781692296656828,7.000546387746859,6.88510856456279,-0.0064550480211159125,-0.005010254560473628,-0.008847548377055689,0.769122555992123,0.4105313578662709,0.2879476793353604,2.321459152525413,-6.8459813279809385,6.589789160440061,-0.002035654503601961,0.005002841377748981,0.0019238749676233466,0.30394680510206695,0.28006902037381465,-0.4752716852591767,-5.485542049471508,-6.967867088488333,4.3444538594548385,-0.0014372801267060926,0.0027886041410724355,0.008278159806488963,0.6423649125215412,0.4119468741766582,-0.2747838141016925,0.13479717313113448,-6.047464500908291,7.770891763164051,-0.005553833146998713,0.0025836733217588052,-0.0050419213145119785,-0.46239434990447836,0.27291232000504834,-0.08737515436253548
1.9090981004913825,-6.084826790352837,7.400942852467623,-1.3088511951363898e-05,0.0013352748928576348,0.011435722174456623,-0.2630689275357107,-0.40030784896694943,0.9023242997618234,-0.07937616165092341,7.010062934649708,6.842821222730642,-0.006791940432231528,-0.00644818053781419,-0.01113781176518857,0.772979915368018,0.4183146499804395,0.28487752502153274,2.300654767160626,-6.825213298962649,6.569615949954645,-0.0015082276828905514,0.002765970519079882,0.0045731359420143605,0.3054270065399851,0.28784561860069846,-0.4780504779324095,-5.477998773289703,-6.991744895257749,4.330746347414811,-0.005389851985649541,0.003318642684070592,0.008895240711091207,0.6443385617792795,0.4197615200405033,-0.27570347307659293,0.11556520199769252,-6.033251497069383,7.786890688290372,-0.0009510602902406121,0.004978331226939647,-0.0036309299799369634,-0.45968715614212435,0.2787827136914507,-0.09124928560704933
1.8657456030353234,-6.069261223115235,7.397854256201668,-0.004254555474123069,0.0003814798334707988,0.01071470484214402,-0.26651654475555914,-0.4054352835918548,0.9103683939726545,-0.1180963968820134,7.00635592452111,6.822056270682647,-0.008734582340871464,-0.002481009075545071,-0.010655262281971261,0.7676696160507506,0.4119058029206134,0.29744959352774064,2.261782311264045,-6.80565476963394,6.589816435915789,-0.004621167463632885,0.000571538591617715,0.0008068958491357144,0.3032368982064837,0.27939879962950315,-0.46988953045338583,-5.510834082588208,-6.98722998571448,4.314147738524679,-0.000834431834784998,0.0025863397820078825,0.005025500576569538,0.6367231549938214,0.409713776381974,-0.2672463407692159,0.0769753106385024,-5.999975130716674,7.745652867176178,-0.007076824482626138,0.002585083980188393,-0.004652884810252307,-0.4619160120257717,0.2701913721215739,-0.08128688823093361
1.9729427408891556,-6.10937178377752,7.390914496457721,-0.00228852306415501,0.0007912636948874729,0.011896845167941945,-0.26844124200254854,-0.40029323070900225,0.9030474550535419,-0.025094067478149455,6.9963675994317205,6.862533814708487,-0.011686217823666755,-0.0016765033835192,-0.010269056937365871,0.7632212562086004,0.41933677571261,0.29073922378536793,2.327868545861552,-6.819544633852856,6.548469824099302,-0.0071293277593684245,0.0010843036692067744,0.0005992497412961862,0.2995595036661442,0.2854288407418606,-0.47775179447705995,-5.4258713790253035,-6.968382282868973,4.341500129566951,4.2809959896925546e-05,0.002021879540687691,0.0030913148384275188,0.6362722337063086,0.4178150437108961,-0.2740302643874332,0.15869106135871042,-6.090389697099452,7.815614315789302,-0.006049896095929056,0.003384103802330393,-0.0040525403987517914,-0.4709153988747082,0.2795484974336521,-0.08978092379933417
1.8790922984488643,-6.058300835422201,7.459045016453167,-0.0015831430304219063,0.0013661347466487437,0.01041787617507645,-0.26502112309537035,-0.40420069350091514,0.895724691218037,-0.14131283144821122,7.033194782314018,6.908051906301006,-0.009502814996289691,-9.833209175061391e-05,-0.011745355845866216,0.768605751440602,0.4138591278287327,0.28276445088848834,2.2635910407574444,-6.812848709272354,6.560944801478187,-0.00467544443963461,0.002407754844623749,0.003340147885959644,0.30221446850925987,0.28195832431835527,-0.48163262343953694,-5.471458171168868,-6.912274402996829,4.2973917696075,-0.0029797527830175505,0.004516312203544552,0.005637861157585713,0.6387353339509676,0.41542865240608234,-0.2833168893246787,0.057211488678657954,-5.994192522292531,7.783348214400372,-0.0036539742820434333,0.005574695605660979,-0.00538266754039197,-0.4650670749846742,0.27639450346409994,-0.0973662998425693
1.9411590082493217,-6.019591597715916,7.426743698991736,-0.0024450169610540275,0.0013477596076141558,0.010317269604902347,-0.2676876578768452,-0.39979322214733237,0.8920624543979322,-0.08734488139104557,7.070930251074445,6.87237300315001,-0.0058797764733235225,-0.0078091939661470025,-0.006409812573144746,0.7678508114758253,0.41519972233849184,0.27566214238983894,2.379118288823233,-6.694332274855241,6.543222345598707,-0.0008010728414428035,0.016671918398299315,0.016246688469443594,0.3009707012470703,0.2823943719018901,-0.4867588325166619,-5.400805351131714,-6.689777282739264,4.629725528862994,-0.018524349919436064,-0.016695837049336044,0.010746683129426806,0.6375198349042616,0.4144719033407365,-0.2860116598702756,0.13276978655122404,-6.0061907536266705,7.793570885942248,-0.004619718676087145,0.00041769452161715906,-0.0058607424137580594,-0.4662951460543443,0.2744419917587778,-0.09664490294181384
1.9596562185592659,-6.089219072292705,7.433385125781845,-0.005005921096548846,0.002464975681967152,0.012023008228494138,-0.2625792762192992,-0.40128311822675256,0.8998829383671874,-0.0682036506367304,6.954615018249419,6.7599783668497375,-0.013367475475399088,-0.01510634027716059,-0.009472665878475795,0.7705429358295497,0.41629064844777647,0.2814981815165211,2.199116360538278,-6.697121971727771,6.539530446621607,-0.019889283052028625,0.024128894470403426,0.047197299332826466,0.3049339247126281,0.28735406930467794,-0.47853074723302325,-5.463025352511484,-6.952424934100016,3.912998941199341,-0.05234103106228567,-0.01604152756728566,-0.002193697026679073,0.6418998913017061,0.4158855768977495,-0.27964272808940316,0.144910973637646,-6.025774925724712,7.770739718202363,-0.008411385684002761,0.004081711131200235,-0.004239708612203143,-0.4623651661953534,0.28099308038712584,-0.09172621560763057
1.8433296345606263,-6.077654558899711,7.400320303595863,-0.01574155453570259,0.001191721621010174,0.01304965897552568,-0.27234646099382487,-0.4012563971860744,0.90108604001138,-0.08457484436905531,7.081940226606372,6.686862576061172,-0.03295541976003181,0.022385953957891905,-0.015033374798602226,0.7629890921759169,0.41433303633148105,0.283743596146073,2.2939087128870312,-6.781508148870329,6.619464272505614,-0.014890157972088647,0.01351222696890574,-0.0031975213692829697,0.2970957416203759,0.2810279423194683,-0.4791557113754614,-5.541870143029755,-7.254277303446878,4.787754302767828,-0.001815865064674136,0.002092888597905171,-0.003956749851033613,0.6318839265154647,0.4154095652081647,-0.27796559146045835,0.04421936407331607,-5.999078319695632,7.74604325238491,-0.01882486891791069,-0.00039768895039451937,-0.008627008561617069,-0.46946020785021175,0.2768745151459625,-0.09296855423703344
1.976627287602269,-6.0555883140228755,7.370887389984986,-0.013463502668851726,0.00735188300752934,0.014036768079918674,-0.2677032826241722,-0.3993171582262357,0.90134106135212,-0.11812150894264509,7.012022415676579,7.346334685755565,-0.02902317437211109,-0.003816825848497606,0.0031723352294917703,0.7683349262145429,0.41976244514143973,0.2853501537721204,2.449207376384898,-6.692688795060154,5.930415682060413,-0.04674357026296881,0.06179954279974685,0.05115393437276506,0.3059225926112865,0.2864094704569598,-0.47535086519070596,-5.0628746167769565,-6.141962598140822,7.721121761346912,-0.09254084448709259,-0.2630670236657725,-0.02090603143228342,0.6372764200184976,0.4217608732501839,-0.2803499416811956,0.2113016026605336,-6.078134241595299,7.77848370583855,-0.018612068242536403,0.0008902944645173996,-0.00508794560717954,-0.4623749026956457,0.27830181766660655,-0.09076385643886611
1.85161085320179,-6.0968105373273636,7.443608980455944,0.010363848376638124,-0.002365818697404426,0.017657032811802413,-0.26768981656310376,-0.39760219999904145,0.8967042802548308,-0.2726693888896909,6.85925643061696,7.504562916253911,0.022378653000481908,-0.11027871902080781,-0.014196133382500482,0.7639419610444814,0.4174538324072415,0.280270240164772,2.139497818960333,-7.641575014202386,5.856317372202241,-0.05352733431135448,0.16976963841473533,0.18713001112608987,0.30539865958578993,0.28608573654336156,-0.48266932374001675,-4.907885130483991,-6.561767021591138,5.974088884367148,-0.27297630453450694,-0.8475410166851383,0.005197592616426045,0.6261154189177442,0.4253424261739244,-0.301599359486948,0.08203303745319876,-6.046589435008813,7.771903342044792,0.004440972754277506,0.008222412220712442,0.002688747713796062,-0.46626588835039634,0.28249382768344583,-0.0958680456647122
1.7864636128323037,-6.247743446737625,7.334238939726345,0.07259130070379231,-0.008180597324922583,0.001868783973355801,-0.26915895005924806,-0.3927284858020351,0.9072058775474527,-0.00031328469029251113,7.07638583471192,6.743617423150959,0.1316529466902388,-0.12549288310266477,0.001630515059133925,0.7627142578838713,0.42096825429696677,0.2863178814182234,2.264308428272932,-7.83546656625752,6.690190770089276,0.17126408043699948,0.21611449798487276,0.11747631556111811,0.31130197314886116,0.2871352550019178,-0.4741635119045005,-4.866379933603994,-7.66472120260178,1.4383083978201967,-0.07462542969008658,-0.7322394760376152,0.18585368270962138,0.6219810365169403,0.42466017963043984,-0.30796384028414003,0.011261180495735965,-6.089550144795903,7.673604013713507,0.07070694042832186,0.012789621489756821,0.0012775943857473682,-0.46504120535887744,0.28341452766996833,-0.08634190929653535
2.0429596832728727,-6.074704273711169,7.4296077580679105,0.07882771331259668,-0.0026080506505045883,0.0006514005768126633,-0.27112130926457007,-0.40442386656670376,0.8932711960613655,0.0825241611825762,6.846490739258665,6.59220780281989,0.15117062897554448,-0.09248635959858986,-0.0031838524366872654,0.7620252158983487,0.4075305582549397,0.27165219670102453,1.953629460485643,-7.462585263302346,6.88281589743531,0.28075242007699147,0.17402302710570441,-0.030626656279780052,0.30751899534040816,0.27089173053220084,-0.4871517319789549,-5.135980257831592,-7.960007228753398,-0.3996247859427386,0.15818839149923725,-0.10681141798345176,0.2828464885450205,0.6180851806051139,0.40769042838017683,-0.3251755480790825,0.2093477365844697,-6.030953472932834,7.860632875893858,0.07464666718933798,0.0080309413023256,0.0005936112556315763,-0.46728726118564345,0.2703132346820349,-0.1000844220313803
1.7758147615386979,-6.001112912261572,7.505764039231296,0.09210464252525988,-0.011900938638604478,-0.0052281861877957895,-0.2713854667604169,-0.40273175354175744,0.9069449217909606,-0.15667361434059762,7.096011869792494,6.6373732900627544,0.15534159719144297,-0.04799448387586677,-0.02252211791774136,0.7620428791962974,0.4074275044139036,0.27995612377884466,1.8398752033077184,-6.056789745100047,7.424574105476711,0.3159227226316859,0.07853249438610269,-0.12921115222177862,0.3065741262285901,0.2656427675015712,-0.4763467172420554,-6.63842711122608,-7.060244767949558,5.468520886592685,0.3152592095805843,0.3782271174896768,0.31103507068990704,0.6275445673285027,0.400000912280406,-0.30981681860790755,-0.0007790793835892988,-5.99426740252958,7.69986644669767,0.09449550988710352,0.017851839283328105,0.0022928156006416303,-0.46874944631395615,0.2709996908178196,-0.09055952058180168
2.0824684112463303,-5.8619661530190434,7.472638046985168,0.004129134718457872,-0.00361553976180838,0.008956954544241499,-0.2669617015385444,-0.3988262603451038,0.8974370447328239,0.1618077190842153,7.4286915217822775,6.4069791110457714,0.0094641063955555,-0.04808687544000091,-0.014035400655180557,0.7629910823296938,0.4097491081586072,0.27258977462404643,2.3194419341618016,-4.515123197307683,8.205151223910185,-0.041715394384572606,-0.040545027338430475,0.0600868273290036,0.3104664697292722,0.2699524332179604,-0.4827601981600653,-7.50942559582944,-6.323793563668714,7.209846261035654,-0.07429991497576934,-0.030195509764288062,-0.030098382426107736,0.6290419541491045,0.4034708788086068,-0.31833521863388975,0.12287745017870468,-5.801112655421351,8.000939861306408,0.0036122514452603337,-0.002076824211060821,-0.00667246294051651,-0.46336608074768837,0.2741979953174446,-0.0985993049388352
2.127507102395055,-5.768910211575919,7.578050708889436,-0.05690070836945455,0.013685106242327662,0.019111161874425343,-0.2625457793190071,-0.3941940473009979,0.892812100272075,0.1696480134540994,7.3210940891109795,5.430644569906445,-0.12984100291945977,0.07183507752397841,0.014745140080476025,0.7670918987031854,0.4172639053197907,0.26805848576797336,2.187088900858174,-5.506486257115546,6.996147324241651,-0.20269263682659303,-0.14673116255233654,0.04512593119618318,0.3143768312033978,0.2798750318453886,-0.48948050392845377,-5.6922170425826275,-6.8613363094975774,3.904263082891834,-0.12499111202689439,0.07666562912023496,-0.19009216214215388,0.6334663274111774,0.4178564929377546,-0.3170081506759018,0.3038698176556198,-5.877955547053346,7.976179307117647,-0.055764700434384175,0.0016289141012515434,-0.0070573902622808994,-0.460654549940595,0.2815267123143957,-0.10124447674058731
1.9189951276380621,-6.077592464467002,7.511709610028886,-0.15741849109516456,0.023986907372722077,0.03168286038245359,-0.26502140132542645,-0.3998148220793344,0.9028103497474858,0.02298589327170219,6.863776862225278,6.261480182775909,-0.2813436872621457,0.1867213027444236,-0.027749256227244317,0.7661554907366679,0.41581922903126833,0.28395617181159694,2.0497916479612925,-5.854764475828591,6.0563704681193915,-0.35010268637124525,-0.1471415809942638,-0.023736836965906526,0.31029368299664245,0.27907698269781794,-0.47455910948022173,-5.112914079458777,-7.148363143100503,5.962962046116133,-0.1169730630516265,-0.010838925142906844,-0.3289961408102938,0.6251273056441871,0.4180325176185608,-0.30360266477342857,0.0691373702455959,-5.911086341818827,7.900934331284652,-0.16819332847437696,-0.011460848911073416,-0.017590124728036553,-0.463357956896967,0.276341767598708,-0.08882148619388311
1.6621778489891765,-5.985263640942116,7.443646594323647,-0.15868184947535022,0.00694385980941287,0.036033630125613385,-0.26822036085189205,-0.40688873035927225,0.9052363828459946,-0.49490438716645596,6.959445490378781,7.648451330763102,-0.3088772829481247,0.1753662567230861,-0.03938405336575716,0.7673985215946469,0.41473869542879216,0.2917862121320571,1.761724528279069,-7.01192136348557,7.096543703529243,-0.4722279477205475,-0.15618026829173987,0.047440295045035386,0.30838370270711374,0.28523602188062624,-0.4702223754973442,-6.131336363071726,-6.872280301103597,4.2128024219993785,-0.24158978212104723,-0.19708501882307577,-0.4502957309549057,0.6161085453978923,0.42731527602864966,-0.3011273438003468,-0.08270856900092288,-6.0249171137323865,7.594363219888118,-0.1594639134857445,-0.00640949995981485,-0.017026741440338087,-0.4657954600230412,0.2775543225963908,-0.08564079917879142
1.9534372651804088,-6.637061259238635,7.199120466803646,-0.10144232926923069,0.00465028365021881,0.018119745539203588,-0.27454941037923714,-0.4046645570755529,0.898391604231284,0.1431581219574139,6.967148512747694,7.696347635379801,-0.16004568556481447,0.07852538125904002,-0.01668960997779591,0.7590966705415656,0.41340638391862505,0.28791859101148076,2.5548980165487576,-7.504693516872939,6.850877247729777,-0.4722900192281557,-0.2143536813315267,0.1567930966754934,0.2986282520034379,0.29013552272526244,-0.4719386703559159,-5.339581881634333,-6.958435556902757,3.9173712413176753,-0.32681885329666355,-0.03226128601854571,-0.4131859786528138,0.6036848847099276,0.43590617982624963,-0.3037934362688678,0.22291071733178341,-6.375898564944746,7.6067425107140405,-0.10729778813818076,-0.018567331732685724,-0.019379771360428292,-0.4716544398946471,0.27758224133330445,-0.0868615765574506
1.963265449304754,-5.672760679147253,7.352281210289838,-0.036223291659455314,0.005643492389036282,0.011147769014871299,-0.2655238223349439,-0.4083511418369055,0.8971824333367973,-0.30773192365195196,6.884407663772195,6.617457409451695,-0.09689707480220963,0.05125448218921044,-0.010357968589009212,0.7668893673686578,0.4168539430972442,0.2871116251689912,2.0610143920932473,-7.934144487485452,6.044463535304413,-0.29415365734916077,-0.2054465870087382,0.11501739343496473,0.3047466611697982,0.2966860273598932,-0.473749115689164,-4.785882546981333,-7.943250646694676,4.695254462465914,-0.2828426224038877,-0.0023023585846212507,-0.3348981656901686,0.6083367381091512,0.44564125949595246,-0.3007868347361285,0.10829407464813669,-5.86455351276958,7.858515503719457,-0.027451205506641086,0.002011958595356307,-0.009412767916119565,-0.46531199945356105,0.2763688025484484,-0.09248336369026551
1.7642157468943025,-6.293775751969313,7.428296113691235,-0.05449606883419958,0.007089467759060475,0.02580411090333134,-0.26749284403085133,-0.41079275192100595,0.9020586893553287,-0.1279081913889683,7.703487332811099,7.17094088091957,-0.08911434749835664,0.03128642178660992,0.013367141494443681,0.765454646671526,0.41352798078088954,0.29303176876449716,2.9140280198252753,-7.935317279139009,6.651678608631963,-0.21534883853496042,-0.12210294932130046,0.025154284459778666,0.3013690467792457,0.2982429273459293,-0.46642553873099574,-4.572519331920753,-7.56909588990473,5.083472885124432,-0.13885039518403158,-0.13585446947701701,-0.24404079501254802,0.5980896294742806,0.44956704262109426,-0.30005883715405046,0.005072276460582933,-6.138021498525104,7.705150624807287,-0.0678087554158399,-0.0003059860685600669,-0.0056647237779657725,-0.46580702730725504,0.2743963458611428,-0.08858803943665446
1.962648128715189,-6.181586518860769,7.648106353922229,-0.047278198072627155,-0.013435180765983587,0.009273924346832812,-0.2652746031822287,-0.40469363581071227,0.9001176027496728,-0.35338941817654407,5.819515119503878,7.356731436477861,-0.040615518374286015,0.0012979000300125522,0.035561042964178224,0.7673925182751663,0.4164764336966616,0.2934659715411802,0.9731061380032568,-7.793377325585393,5.630071900950542,-0.16259645223472255,-0.09587238695304812,0.009305196269106747,0.30236007582727004,0.3021461013759454,-0.46647320336547143,-5.868967276105321,-7.643635891643354,5.190191933885237,-0.07611565695807301,-0.22237342522732803,-0.15832029427558206,0.5978717891508387,0.45642719443694324,-0.3036770602893736,0.2044792755102517,-6.125361165663395,7.783199705236439,-0.04735337006219195,-0.004570541933650106,-0.013340369829425621,-0.46286818477776714,0.27682665687255653,-0.08857484949069175
1.7891178773732714,-6.27986484417379,6.815132193729441,-0.005850868644785024,0.004840081593759469,0.009198504458183527,-0.26331306417343797,-0.40128225280771845,0.900857594454949,0.1924634129984602,7.041767261157371,6.752318184742199,-0.013750875630122946,0.004420567575566507,-0.06194303766134448,0.7695868070207226,0.4169763196678888,0.2934531685377956,2.873261827545768,-7.273964950457114,6.2512661238952045,-0.04470953240270451,-0.20613084193764858,-0.054732411141915335,0.3018802824490372,0.3060401939344887,-0.4677348144226919,-4.284247843379343,-7.1503453622928514,3.997710977417272,0.0453487737615982,-0.3760364838149655,-0.057920939912924456,0.5930136974045008,0.4642660912022212,-0.3060812558071043,0.07818754619432233,-6.216121203437136,7.427594111461959,-0.016192145060703052,-0.01036821663631424,-0.011426384341321906,-0.46089566173346697,0.2821771540250139,-0.08610370662528519
2.09579384400169,-6.060470338377634,7.614803552418113,0.034584549136273866,-0.005478610270196789,0.013522495795819402,-0.2645469686865498,-0.40542932339582866,0.9013389957322152,-0.20486740369567905,6.921900845086899,7.2632209513794415,0.01816246552712305,-0.0302414230060405,0.004118220191513693,0.7678585950365436,0.4191015028456196,0.289757953550974,2.280947127603543,-7.18125401797796,5.911857809086628,-0.008223665567208884,-0.11600347556290402,-0.009557813084876144,0.2982211562205583,0.3077570749742472,-0.46822421072363285,-4.4404889426460095,-6.566186765774819,3.90472492952284,0.019089510306075336,-0.2324011364382148,-0.013552762615072671,0.5862039280762541,0.46215297956546186,-0.3166128197416139,0.21284971193794758,-6.0895351611489295,7.992986779215128,0.0396070633046212,0.0216278940448065,0.00822329687961905,-0.46432167806206287,0.2800152135970498,-0.09026648931263852
1.844671873796053,-6.224231746577307,7.331074062612242,0.007343374939743402,0.007960152626792396,0.002035728531145232,-0.2694189743728585,-0.40394547337648096,0.897669948483588,-0.11878964731519787,7.00593565967975,6.7683889317668795,0.027405106326070128,-0.020727887683845633,-0.032643815806714015,0.765678848990153,0.4166820789084943,0.2917566015904521,2.404289083981554,-6.7204091516854305,5.616051902567395,0.011708324206797243,-0.06645966492165777,0.0005347408433051533,0.29672851486208807,0.3014014157683297,-0.4693682644082214,-3.9582749754395374,-7.172991651612635,4.53753558114254,0.004469286815143646,-0.27053926959401625,0.01134343571851973,0.5832801246657736,0.4624163910824396,-0.3185725730397579,0.13843734942831615,-6.092571698210326,7.624899912606971,0.0012080401224692913,-0.008417751147788855,-0.011719030833494884,-0.46457456785611106,0.277585786706264,-0.09223274406073019
1.8815900130157723,-5.85545418619193,7.475412551331512,-0.0003082170576496551,-0.0027725075035595105,0.01810691344177908,-0.26623696200416574,-0.40102599776435394,0.8979235474498355,-0.19546122475025074,7.060413584328969,6.5908570568020295,-0.019166350071995745,-0.007372308315801579,-0.0015393855964220182,0.7673727974328566,0.4186067812052962,0.2895232725188311,2.384478897245442,-6.754323376301033,6.179296140675697,-0.003115165526145273,0.03214723771881401,0.014245464850076937,0.2972296718661147,0.3040935150929165,-0.46866721385093274,-4.615654272255517,-6.7114120656674245,4.4087096996963995,-0.008534579082458518,-0.3048640269938263,0.012985432722586687,0.5791514440723633,0.4651473093590995,-0.3241818807442614,-0.0010774814001934278,-5.845680537712496,7.848505783540467,-0.0038649931948324134,0.013234002369420293,-0.0003098804448126342,-0.46335002892583893,0.2785560045359789,-0.09198347558869435
2.012820406768843,-6.42382657936935,7.277696979675698,-0.030987729503391948,0.006162995310005233,0.006768040413108189,-0.26015550920783537,-0.4112926069766585,0.8940154999619168,0.11681810207948196,6.8073822540536115,6.952199775205005,-0.03373242510343285,0.03613011987927477,-0.014135019177579039,0.7727744421614338,0.41174309500651174,0.28621067429525326,2.35779436153916,-7.088339264200477,6.19242547077613,-0.010490164611669912,0.022653274848480953,-0.012345752186855543,0.3025409376897092,0.29715785165658015,-0.4759409021209224,-4.826550653765117,-7.823108524855389,4.50436788379529,0.02056819638627459,-0.29282157279486287,0.0025620125601651398,0.5837973119448264,0.45592318363808754,-0.33399458793415476,0.2868472762110613,-6.292914629366162,7.689330655689975,-0.03446802272367724,-0.0069865549942832875,-0.0123887071493326,-0.46044503903870443,0.27197478272034453,-0.095925415995279
1.8174037819079254,-6.008324443423178,7.284400578271648,0.002165252223326826,0.009684356173704004,0.017362476042034426,-0.2694451466024279,-0.40834987163193515,0.9049882537533723,-0.2762060302077869,6.847234190487493,7.062682425025279,-0.023614164348629885,0.014475839177634136,-0.015507544074390697,0.7669105992221606,0.4172926895590785,0.29858081048228285,2.195314634047161,-7.382452438719339,6.103746802120339,-0.0058542270056273615,0.01234954482175647,-0.021732326218378263,0.2960273672478936,0.2992985099010812,-0.46104018672266867,-4.5924060489288365,-7.110591766267281,3.8389981818286625,0.026953418300630513,-0.23261963993223395,0.00239284782405046,0.5725557777079834,0.4612660883253865,-0.3256910694326804,0.05581834603567024,-6.113529503170303,7.6714157273979175,-0.0010338840698007738,0.008844823577671655,0.0003891858297469119,-0.4665318842399683,0.27633467740859735,-0.08540342607876623
1.834580847632962,-6.2290981603155675,7.594016933704622,0.006593434598195161,-0.009564811900843654,0.005943820110064118,-0.2616009894758874,-0.4000665254473481,0.9011073027152333,-0.23199396126276384,6.97234676465387,7.25040212496661,-2.7580246441371227e-05,0.00461181441404057,-0.030816729874216926,0.7734533984705484,0.4250937445396668,0.2957491077815853,2.3373220902635903,-7.185300097878981,5.929280676029609,0.028572382733757774,0.05539370276111998,0.01323109494064451,0.30286737705310435,0.30751496088464003,-0.46653466914591785,-4.200075382412169,-6.930663068722402,4.070803852879632,0.009868309182755441,-0.18332634831042552,0.043812447478292035,0.5755211455154746,0.4698421457848352,-0.33148705927208916,-0.009947871895737292,-6.008920754136028,7.7990922620058205,0.012950052859174511,0.003906450002572505,-0.0061300143818744275,-0.4611414317670914,0.28169005026375904,-0.08610635546344975
1.9747881709123405,-5.978745590735828,7.172664351874803,0.0007716291320724085,0.002161527572446335,0.011807226856298281,-0.2696674950532641,-0.40102488766344274,0.9047532664606528,-0.11754744759432434,7.039277543712071,6.946461519955036,0.02980284423698408,-0.034798917237406676,-0.0029883492918642094,0.7629854162177916,0.4206930131099019,0.298774839170696,2.4326511396334567,-7.4213061007093115,6.348303439773163,0.09763878142019564,0.10780207767859791,0.025868121964240084,0.2965174335913593,0.30535368931296175,-0.4652594153570211,-4.549027203355684,-7.061580317796152,4.092763267379261,0.024869668516667127,-0.11529115690742624,0.12608195484215146,0.5696575129734603,0.46352996329365986,-0.33496295838028145,0.26933764835287344,-6.122314857890214,7.63670814006575,-0.00729461794592967,-0.0014980035492818343,-0.0037731028861216903,-0.4701788049732709,0.2805018687040977,-0.08611268898609574
1.9181056963924592,-6.319998334196771,7.4135529407363014,0.047391205853358515,0.0027748767487490084,0.007700614247827911,-0.2653160625958215,-0.41422432215186045,0.9076732869664513,-0.03555658296397911,6.854842069849874,7.16649313533427,0.06455854057695687,-0.05422504288942174,0.00299592109605481,0.770368369027617,0.40921828871239135,0.29651376889114506,2.3205458845478044,-7.135953305781259,6.417369496102806,0.12514381183242598,0.09377455580766005,0.0363384431714736,0.30429165217125154,0.29071037844156017,-0.46220640271447444,-4.829961918626346,-7.238340317066762,4.235512088543034,0.02109223468860241,-0.005099721010781364,0.13945212098585344,0.5730358366011715,0.44861776800640835,-0.33309591119787674,0.08694432975820213,-6.142876442287121,7.795063281040432,0.04506936858996988,0.01240204408846137,0.0013958736795633786,-0.46290974773850996,0.26531966332577567,-0.08253342051778813
1.8515021889078576,-6.031898059248699,7.357791057504159,0.035822560860443005,-0.0036825255669269107,0.0021720508393650653,-0.27357460656885724,-0.40588744002299343,0.8976598195442835,-0.17777876913296303,6.962027050299939,6.84499947466079,0.0658894479800802,-0.05358901739288595,0.0026794609057181626,0.7595835325795107,0.41416579295253514,0.2893699546031502,2.2297453250023276,-6.958582158736709,6.231383526305809,0.11647378396416143,0.1042229291585545,0.049823033194304644,0.2969499835909059,0.29481166196302083,-0.4690518447698103,-4.725379576887738,-7.329222626413693,5.032758605263702,0.005201069836134163,-0.005530758331057714,0.1384265770032731,0.5674582917986171,0.45430099355994913,-0.3416203124251232,0.08386745615643787,-6.07132127019813,7.691403443720698,0.03270506157489427,0.004661037221379353,-0.0021431452128334054,-0.47264480933265457,0.2739531142737424,-0.09225240387446004
1.9536807328469092,-6.137610374042926,7.374042761425337,0.03563259909351174,0.007080700571080893,0.0109815681149716,-0.2667528858189377,-0.408353257283565,0.9015751846929746,-0.0480748484392512,6.7471919458541425,6.911453850058072,0.049319408792710684,-0.05483044001868521,-0.01019675667527945,0.7644762568604675,0.41120997038201246,0.2862360484076611,2.1056685791577747,-7.010050541254153,6.151383661264271,0.09146605857564594,0.10095288956660751,0.04848560769742766,0.3025414859722976,0.2898960823916506,-0.47024564902362187,-4.747335573899722,-7.069301730366337,4.496364768585697,-0.004039013119658867,-0.06401003878345322,0.12595238245051196,0.5750157870004533,0.44940226295690894,-0.3418753472326698,0.1859978006734877,-6.077396424040845,7.740848548641368,0.03328223260359009,0.006316309245277615,0.0023869269864294222,-0.4667927869392128,0.27171926133514207,-0.08957861724210457
1.8695367740121422,-6.1285012403502215,7.454178163395888,0.037431845104530764,-0.001394764657015366,0.007275961422517126,-0.26675594063295927,-0.40616286281473324,0.9067050093234102,-0.11496904378516645,7.123650431134229,6.919660326868815,0.05945450210090379,-0.05299713633467704,-0.019954234845197195,0.7664413316981832,0.41158060583119255,0.2930628889101182,2.2658794532588877,-6.910323255085997,6.611906284390749,0.10675884824857117,0.09353929404928892,0.06018875627057946,0.30769322493409434,0.28969145351016523,-0.46489667644093197,-4.930111727888194,-7.102833596055105,4.257283375195052,0.0021356104632596694,-0.005821600635600745,0.14533304444959785,0.5784026268500645,0.4461666236566009,-0.33358538009453303,0.0540421596804059,-5.991689216795248,7.800657150742277,0.03282991250186302,0.008198247919945438,-0.0018838814089874372,-0.46532158813590685,0.27362436460645195,-0.08175614930629327
1.9028343957505778,-5.9803566410138576,7.44314682879701,0.018090589951041625,-0.0009683329486361055,0.006935992180204473,-0.2706610732598863,-0.40493243666366235,0.9081644244983589,-0.11094034530815455,7.130871143194204,6.368042288552511,0.02835417251752636,-0.023547614131693803,-0.006085940399905951,0.7625285707772491,0.41124491273664493,0.2889246785334111,2.13759071791626,-6.589020120221821,6.740516806074017,0.07347063316593326,0.08169705840886789,0.04156298220213385,0.3035257640737193,0.28869844034467895,-0.46779601616411265,-5.264216935626069,-7.532374724554953,4.842946832257645,0.013366956750151019,0.039605784704133895,0.10529099213232529,0.5788976289212877,0.4473959724106789,-0.3350410189887413,0.10307248448118386,-6.041272975274181,7.772136977758352,0.016411812851096663,0.004354807392700653,-0.0029925787396588564,-0.4672639788144067,0.2765760183765448,-0.08442608628561951
2.0012410331562527,-6.053819052399904,7.511412217727678,-0.0384666883312479,0.0019090467472080521,0.014183853684510818,-0.2645450394180469,-0.40445395597890443,0.9018282550498838,-0.017586680373951186,6.900302358889187,6.421233295700892,-0.06871296768749915,0.048892882739435393,-0.009984258560580179,0.7671495882243323,0.41316070201650623,0.28522052907787865,2.040665417772801,-6.276312904827087,6.663583921901046,0.004938600855741443,0.04500242940747147,-0.015512577671464424,0.3110652731321912,0.28594206678314577,-0.4717080826188781,-5.376910086725194,-7.6498466923444335,4.8861827575977745,0.01929098776408874,0.01693311654953001,0.011582623753097198,0.5808661103673315,0.44499803409436034,-0.3423750927971859,0.15926524847021495,-5.977693491627549,7.846121445618171,-0.039498097425021896,-0.0015312011933023657,-0.007976858511288052,-0.4660475045925397,0.2753811883909144,-0.09004769448727955
1.8784585435056962,-6.109022903494465,7.331792292690001,-0.0664800449884058,0.0036088395581163647,0.017521606700965402,-0.26551365441009456,-0.40298393747108135,0.9001193628403404,-0.05444247894780717,7.023071168725977,6.787028225364689,-0.1222627790214776,0.09287079155982586,-0.03301281402723364,0.7681149394744684,0.41767535784517623,0.2919789821340534,2.1695886659704637,-6.744628646283495,6.911769923100348,-0.11121178616813515,-0.02939705205591529,-0.032136692871463764,0.3096324794968122,0.2942532193746931,-0.47130457921315055,-5.490529593752719,-7.429995907577106,4.6382165515494265,-0.0005112979526623565,0.04835133371617418,-0.09688330481187542,0.5816072883191109,0.45132894537326873,-0.34013484177946784,0.1191765141319757,-6.050405886625146,7.688442759868094,-0.07020749490465905,-0.0015406012887999774,-0.012588513211703022,-0.46409361322239845,0.27561377296828676,-0.0890694430226468
1.892098907916971,-6.091524621702983,7.461342173242141,-0.07028898669478319,0.006082408370020251,0.018659796672013867,-0.2603950284444539,-0.4049536661208101,0.9015912324916028,-0.1896168076371749,6.97655455224685,7.101019539836463,-0.1275790954894667,0.08929654641423027,-0.010526402689464025,0.7739748401649504,0.41770726782357964,0.2919669135398732,2.1340596302424637,-7.146531629811966,6.655542670265778,-0.1522208370409982,-0.06535542953009615,-0.021004199353331754,0.3125633042231164,0.2944865152725538,-0.4713211758310415,-5.197422258549598,-7.447090513301773,4.696651483527165,-0.017276988747018725,0.09644208953781036,-0.14252077725165677,0.5852660006516108,0.4532570411772226,-0.3374257410728147,0.08875422388491358,-6.053398008022959,7.767868104448173,-0.072715748268632,-0.004074751425334233,-0.013653290722557656,-0.4606623264002201,0.279257971455797,-0.08807363574833474
1.9092619786419356,-6.177478377937337,7.351116857073419,-0.06006886390798225,0.0003294226153389934,0.016624159393629812,-0.2652640856259614,-0.4032242468424903,0.8967015034476797,-0.15379292672038364,6.859920559823248,7.195293680115709,-0.09712997848149228,0.06371368265096033,-0.02689341674532199,0.7685865390862584,0.4208515162606151,0.2919241321003601,2.215923915487798,-7.556270465657919,6.126695994604603,-0.11432294595390108,-0.07139406024337766,-0.012738629847294264,0.30720469730439687,0.2998606383063947,-0.47281972196239386,-4.543320153607093,-7.034235304324835,4.663970425964848,-0.020679821480889052,0.07440314185212234,-0.11630585195531444,0.5813734778750271,0.455481991753486,-0.34035258346128766,0.14024555792058724,-6.136016857023624,7.737042967740741,-0.061402327107342954,-0.006752321499899778,-0.01173601423673508,-0.4648141112740839,0.2787973400214016,-0.09051711749428717
1.923276543415678,-6.185579517372956,7.224545854383042,-0.010638580393311406,0.00394523467414597,0.013613572770620006,-0.2716421168930754,-0.40663796851044726,0.9076714280385526,-0.1227707450813521,6.933398379702763,7.369497835207109,-0.025775939134819924,0.0067138225395782965,-0.0009434074544486362,0.7639716262549339,0.42103346585346507,0.3041389036457038,2.4962418216729354,-7.492709132087399,5.683922352979769,-0.0202653062571473,0.010214806811361686,0.02481348095512972,0.3023734954402463,0.29781851231988304,-0.46032124157464105,-3.772075732347305,-6.6824146363305275,4.888723025735564,0.01262610972824075,0.034529065853621574,-0.03405457469131994,0.5749862220563144,0.4529786652125087,-0.3286679033914029,0.18098674170160436,-6.157814568986409,7.652446397465648,-0.0123964056517459,0.006833862854638715,-0.0038036550055639234,-0.46921958644053696,0.2758378260945643,-0.08198804035343414
1.8707155571518022,-6.244545048079686,7.40835095401154,0.028326039373060236,0.0008589986173934714,0.008521142165881129,-0.266018822780299,-0.40640489987784,0.903532043623726,-0.1964533470763376,6.749604435570788,7.239279595088219,0.04220848865355182,-0.038090360369142984,-0.017306967860714607,0.7695873188553103,0.4182592871670114,0.29709392108832966,2.120068615282032,-7.72840415735921,5.724635635575332,0.08748154464207476,0.07231764140572204,0.04343217515333625,0.30917897946527023,0.29675589195641616,-0.4659585417394619,-4.093107022081838,-7.052602612712758,3.9748803143467764,-0.0009813950398368143,-0.02015478486418985,0.11282929331895156,0.5811077226192589,0.4542188273098159,-0.333769375221206,0.06393855843592632,-6.138815167420459,7.727360741107837,0.023470304144163606,0.01133728628481566,-0.00022962159434035742,-0.46554520182136816,0.27924245881951565,-0.08196955580294871
1.8780221007461781,-6.107250151562685,7.333743776306647,0.04334055716024629,-0.00018152060066965438,0.003913363810196596,-0.26600701273956096,-0.4037160875290393,0.9013385182247678,-0.13912617916516515,6.921536869287531,6.965636378829307,0.07560643107491354,-0.05105265496322936,0.00201419843108897,0.767151267169292,0.4149647436509228,0.29080571814920253,2.161273096356471,-7.707872451158092,6.105875044826076,0.17592156767570338,0.1636550755993407,-0.0028538202636105422,0.30842669572935244,0.2942925726531289,-0.4681250110308958,-4.253878323428217,-7.192376566530417,4.057750255746364,0.10238345053062996,0.032053804335682806,0.21593791615890853,0.5842728257445938,0.44617845974694326,-0.33747451134014955,0.1467874586942109,-6.111325701359495,7.657457144171228,0.04309923689300526,0.00908298392759368,-0.0005981999763370963,-0.46408560394761544,0.2777987621723725,-0.08686051205280047
1.856636818689036,-6.1314372981532195,7.422732619383431,0.05598831473537111,-0.0066080676445368185,0.005385326925846884,-0.2616052971353205,-0.4020185728296735,0.9003717821776364,-0.1642964005118186,7.062310118610107,6.745567159206197,0.0857026852384983,-0.04844547973717651,-0.011930951091413585,0.7700540856046131,0.4201151845614884,0.2912016393008624,2.2719175778460268,-8.17816782536249,5.706696763468166,0.39518466129303687,0.19490520653027732,-0.0950807014651114,0.3130278996789192,0.28958864846491583,-0.4724896298511406,-3.804682211629318,-7.491086028640901,2.60360466869656,0.27422452416709914,0.14462770294402386,0.3946159903722393,0.5913416424258294,0.4400656300373237,-0.33847084545493084,0.04435585286891261,-5.993280185262985,7.729973585745254,0.057591632098988765,0.014358217666865033,0.0036743702325230517,-0.4621246777511184,0.2800019176338774,-0.0892895804882985
1.985805037040367,-6.276094019931132,7.223799252967914,0.09129863361110721,0.0023743913633472342,-0.002847298965417595,-0.26430578161216967,-0.40470148752277924,0.9040253815453578,0.0012109068115046424,6.636833247715741,7.430016945076951,0.19064407741477,-0.04316659538896465,0.004752480004861319,0.7703210289333694,0.4164799631701663,0.29272804412767156,2.2508186222442492,-7.569767785613765,5.899052987836571,0.6387744360592365,0.30289996374551137,-0.21673399280724823,0.31247762567364035,0.2800056343030516,-0.4782420400497117,-4.133794810463491,-6.803435775468165,3.7130487432650296,0.5094230210874916,0.39107461365439367,0.6052344582987321,0.6027649065366818,0.42049281758327955,-0.33612286766701854,0.23498106447377765,-6.279083354250237,7.744297573892571,0.08183810156496409,0.005673130569795,-0.0009393597716963642,-0.46287880346844895,0.2738923993562155,-0.08761381355421258
1.7914468885001167,-6.2021761788185295,7.36794678528206,0.19760358219552046,-0.007335523159962644,-0.020557621955562967,-0.2616007978608635,-0.4003098952557564,0.9006179888081767,-0.3055261402326236,7.033180355951283,7.902666352996787,0.3322442881762097,-0.16699037198395605,0.004044756846054695,0.7734609120481265,0.4187679362603579,0.2826715624782962,2.1359441690275323,-6.851463782068188,6.711825302324186,0.6277554774173549,0.33657913331312705,-0.0517156935532434,0.3231761659877788,0.2750247221213677,-0.48360987415529905,-5.566866055486546,-6.095316527229697,7.18816579268628,0.35081785329084036,0.2710897140267356,0.61455313178464,0.6166719872405184,0.41048266567769626,-0.3410309029281108,0.018637691263836433,-6.072266552828686,7.6368754751283845,0.19977112090466662,0.027916781682994975,0.013142191406195726,-0.4584778531108343,0.27586929431645546,-0.09492822345973385
2.0585637951588343,-5.906095536222268,7.510083483927636,0.16315805538340852,-0.0070399146339275845,-0.01118247143754913,-0.2603747393200451,-0.39933586848788344,0.8994014900165812,-0.025157153265760665,7.144969380773823,6.904830636966639,0.30278396418094045,-0.27980000695350027,0.01564130741645858,0.7673796273085094,0.41176302381342067,0.27474427217665814,1.7668880974626433,-5.236219163490863,8.346158260934542,0.3093389099936224,0.2841656979632548,0.2042893249169271,0.32558143318910554,0.26573407487955486,-0.48400726252757315,-7.996842665258455,-7.219888183768438,7.372068894868177,-0.07263861680934709,-0.16237405577604525,0.34134544222658453,0.6198350314495298,0.40049250722587687,-0.34523670385532773,0.21302097152223745,-5.913203773763416,7.910672767176747,0.16321367501886433,0.021288693222244713,0.009040590784108456,-0.45945385775957975,0.2758768235662302,-0.09566017853760755
1.862136503112209,-5.705145199756403,7.563744382005153,0.08333682106888844,0.0013434286136333228,0.004125772011653435,-0.26963911847069194,-0.3936958991663053,0.9008557355270501,0.10415542451945686,7.484737968429723,4.622494563449011,0.11628670555088028,-0.12164595105403413,0.009383568526014196,0.7588175179812922,0.4128461275645247,0.2693709420050492,1.7690590501629324,-5.109486168567151,8.63403508766785,0.07357616880586065,-0.004269821265826699,0.07781832572864435,0.3143379120776061,0.26840616763428793,-0.48886616850787057,-7.59420458907186,-8.877973229012419,4.944927989992849,-0.06191935812697368,-0.11217986794864708,0.08297333773066914,0.6066693232067415,0.4042069631226001,-0.34866857912361315,0.015014609998168496,-5.73402536961388,7.895665256409621,0.09508254957562487,0.014774006145723575,0.008286135263496619,-0.46872386495207713,0.2781234135124324,-0.09857784768688929
1.9671649901259565,-5.6625730856519985,7.899045848848476,-0.08909929835899155,0.0013787958339665882,0.02333821661960578,-0.27063340302638056,-0.3978474469406209,0.9042665784287234,-0.11888782540072224,7.142566749356773,5.489834157289956,-0.15000213389373682,0.11740576148405506,-0.02003983734152122,0.7593178249654007,0.41372157597726655,0.277657307432562,1.5779465247776492,-5.0533587079872495,7.2983567741302275,-0.14343672765960894,-0.16780565143906992,-0.16663323947643985,0.3124203072009875,0.2692214070465397,-0.48202946094955856,-6.277276886515613,-7.091765776496958,4.643877794060083,0.08759468521174799,-0.03243992151215916,-0.16064841865371637,0.605927641121182,0.40394407532527304,-0.3454993384117112,0.0046604431136038175,-5.63645484075322,8.144710425172192,-0.09809007124303246,-0.008796433493543221,-0.014075624758087605,-0.4694602004630988,0.27687185774626144,-0.09248056147256632
1.992267211199118,-6.062686545646015,7.301915806715432,-0.15086502470641633,0.0057459722558162625,0.027712422704768758,-0.25647004293956815,-0.39252597762817965,0.9108914482695608,0.0947676676474833,7.240195220914059,7.0399760692701845,-0.2541222638615543,0.16818142919167303,-0.032116722963666106,0.7737108454014939,0.42034593511803275,0.28923724347298757,2.4343458447279134,-5.594355443378483,6.816050880538047,-0.32860573480119704,-0.20125002784860146,-0.07999284618453416,0.3244813173070003,0.28005595282954643,-0.4697544462082809,-4.981658113616018,-5.476543342413597,4.495104117524308,-0.06412414765890835,0.028423909908717886,-0.3230932764613334,0.6147072667471809,0.4148319751552739,-0.3334401553067422,0.2080097359733417,-6.028754551283271,7.7467721821539035,-0.15771444906437787,-0.017545075925423283,-0.0205184583751047,-0.45699145542239183,0.2816736559149061,-0.08586250394354407
1.9072164629635975,-6.2720923170132625,7.410259554341523,-0.13619114577693606,0.011372458327845173,0.028535607765505448,-0.2598716418874363,-0.3939666231645453,0.899653320576906,-0.038816227384522395,6.857092644745426,7.006096923028956,-0.25112023846282433,0.1353412675607446,-0.018935249124983407,0.769782164578776,0.42218201944713585,0.2835969797087979,2.1027573881644765,-6.5440422939720975,6.060807129595704,-0.37208771333683505,-0.15497902534494412,0.07251950601663296,0.31858696446838225,0.28435560355222106,-0.48027226196426737,-4.577003889570334,-5.983287319331295,4.856018759515489,-0.2283423599025989,0.052143384323737385,-0.33890232358509875,0.60914001325898,0.4268535483948006,-0.3404583786891098,0.12320305190561619,-6.198766479539733,7.691343845628651,-0.14342732554292192,-0.010141615496407245,-0.016142294283270825,-0.46137319141660693,0.2851700211617196,-0.0973185680467985
1.8452189681709956,-6.095201071211564,7.339118050392252,-0.10901073365753883,0.0029214133829922437,0.02103963108732667,-0.26111193636299457,-0.4037217559228227,0.894755483351938,-0.15935332524646398,6.8653928320491815,6.99014277050545,-0.22086601835719274,0.13822421822061962,-0.03233364642812093,0.7715173416405797,0.41832739865341523,0.28610136388475954,2.125152206532584,-7.532114966911414,5.665548769502188,-0.33146949142577153,-0.06604405547024328,0.08033174610316776,0.3176153633978805,0.28364332110160867,-0.4787946726876586,-3.977215856229771,-7.097618298250271,4.859091047740143,-0.22378198142204792,-0.07118199226422703,-0.28945584202623675,0.605235705635859,0.42711229135665046,-0.3411999527337826,0.041058009033763894,-6.048415623408223,7.710917113575109,-0.10727172310893875,-0.011117205018730203,-0.01884019415533441,-0.4601895325047877,0.2751531492021187,-0.09688512632587891
1.92446246455023,-6.13055147491002,7.355243139227678,-0.0720504530556486,0.0037651537105343087,0.021247588028099257,-0.2623248628084782,-0.4012772335569676,0.8947564002382882,-0.16610775112088888,6.9362548374386535,7.484712405304525,-0.1256151595843166,0.08281893606318655,-0.027700817261743158,0.7746642566501571,0.4237355380058085,0.28722353662885547,2.204393826899333,-8.63374851534193,6.186608818334412,-0.11911729987843286,0.03071920248369212,0.004166759224795977,0.32129718105401844,0.2865812406954172,-0.47689146481481154,-4.3297767914978635,-7.61744713637238,3.846268560971358,-0.05606264847676657,-0.10298938133290708,-0.08978655094965812,0.6042733075351784,0.4290880800871225,-0.34436398651810696,0.15565344860230557,-6.0750169074852804,7.746853054644523,-0.07836042573213414,-0.008132411434984933,-0.011070262929615333,-0.46089841528889336,0.28147973767987644,-0.09245559853710701
1.8801524048556788,-6.284350407450283,7.330800889467458,0.021459211215578183,0.003171478510442607,0.004967497867438321,-0.2662463918176462,-0.402738128861525,0.900362334071235,-0.21445132692496421,6.932657804278518,7.909408557841749,0.04965672408995818,-0.024801023817285238,-0.007850819337382386,0.7680929537687843,0.4213202085632466,0.2909410033906644,2.178148810978223,-8.804152236770301,6.74735844020826,0.11746597260174589,0.06163626296000022,-0.03664467636712853,0.31835934794595855,0.28729972237456364,-0.47908245858612136,-4.973321513210947,-7.284981858507702,3.607414283692108,0.09649584153327043,0.06209291582118848,0.12153043232708736,0.6001106075557779,0.42566863739970706,-0.34268909977895673,0.13486829759820898,-6.169495969019832,7.688730022597945,0.010840239011022783,0.0017583176104378712,-0.006176680772447596,-0.46530311174508826,0.2788004439266406,-0.09076109680720067
1.7949684375172,-6.243720924068055,7.238134489717763,0.11718654764750508,-0.007689952550948463,-0.003349706587625167,-0.2701336126525488,-0.39686558633418123,0.8993867468402619,-0.1993125074075619,6.836175459105464,7.648265415516458,0.20920473462219033,-0.1523374293593101,0.016825885499911132,0.7658846674773945,0.4217225633187236,0.28654287454921323,2.110780217625623,-7.837352303100026,6.40337783919878,0.3014485070392094,0.0788636057808619,-0.0011722956421185095,0.31224298764683306,0.28196475904674817,-0.4777744245719824,-4.841649068443459,-7.044653931984372,4.871457714549589,0.14393110299554995,0.14678356033942042,0.2903334644328278,0.6010745339686452,0.4246672429736409,-0.33927473540560404,0.06010004975167667,-6.187299887481816,7.570644452478821,0.11630572488826382,0.016183929414404438,0.005909456483050167,-0.4657822726238625,0.28125479824726823,-0.09270075314817151
1.99467644865471,-6.116997501758863,7.41783066589229,0.1563096494663879,-0.005986606777767845,-0.007680683757539294,-0.26600740909626885,-0.40493488323015875,0.8996279455481959,-0.0038554789014372537,6.934814866493583,6.797493388171484,0.2734989003860751,-0.18777927070672445,0.014437700282886217,0.7642234151334948,0.41062024738946434,0.2803857018492801,2.125803241753597,-6.999318273944926,6.012810303397198,0.37548732385017897,0.1313894601933253,-0.00793575906498038,0.31535071359322353,0.2689721051021461,-0.48155271372422437,-4.583827511997454,-7.197486178292372,5.799051611111122,0.1671086487098267,-0.010950172673519987,0.36272891800185414,0.6064130746370898,0.40588006606368715,-0.34304332310996566,0.17923807259280428,-6.118064257161214,7.854063873273544,0.1574008735049436,0.017209793650116,0.010310485992481876,-0.46605732616832435,0.2727228362273562,-0.09494524298741248
1.9234830034266432,-5.963001746214196,7.484506172705402,0.13247795681013566,-0.0044474367865347,-0.005491461321143102,-0.2615803567604902,-0.3920124489606595,0.9025817036910958,-0.042280417856332374,7.0960272958285096,6.5715034232786955,0.23221151875051463,-0.17591088256076284,-0.0016119026871682456,0.767857533948907,0.41525774202790766,0.27907964330776064,2.014573855913588,-5.828601551244905,6.8400627437164605,0.30472419865880457,0.16819042697392594,0.002787122365074,0.32050978155440507,0.27338469087481,-0.47820768852689116,-5.425609129939467,-6.383067838228143,4.8069289311738315,0.11694458220596608,-0.1513762732620916,0.30410930982946344,0.6130201352270627,0.41002844802785543,-0.3449504548410713,0.10092129263924215,-5.911961710235506,7.840509187425413,0.13039810974512508,0.020081699429395982,0.009977528748428579,-0.46041747175098774,0.279511715486942,-0.09002528663089739
1.903850806111248,-5.8399412158044415,7.678011891840106,0.07489598622654259,-0.002674325187061169,0.0003850947252191457,-0.26648139183493663,-0.39932006678770654,0.9008543001792113,-0.032906655743247776,7.429145266423657,5.977452652608867,0.13122356207282698,-0.11291994085588385,-0.0012404821734391866,0.7639654570082629,0.40922091167773156,0.26991043301399487,1.9495345115058658,-4.784067716581556,7.799494004684902,0.1500940088522395,0.09676711510967727,0.07084958061283299,0.32020000376086594,0.26476062389374466,-0.4854359001608106,-6.399677389455834,-6.286507497230714,4.363634444716786,-0.0001708364819729753,-0.011794479862962998,0.1644331491933989,0.6125199653441445,0.3985865150936137,-0.3499092307804073,0.03891114686260479,-5.777384537279952,7.946806540976907,0.07640759822934064,0.012398868614919255,0.0023883967203190757,-0.4619047145225556,0.2734463984008224,-0.09616138372785124
2.0353512350836414,-5.735304453980495,7.578972707543813,-0.04415802797688471,0.0008485334195969284,0.016494044265385446,-0.27304754546378385,-0.3927042911482919,0.8971887427575763,0.12521402238723217,7.194901966467017,5.347903960110041,-0.07262614143206038,0.03217103464600194,-0.004722944790711218,0.7539345354759223,0.4138409768087444,0.27205004966125224,1.8772201039577254,-4.984769421108021,7.351444762443458,-0.08493358573514367,0.004243628087999314,0.03232525218496744,0.3128948502406941,0.26773593411679036,-0.4837245211486217,-6.256453178093012,-7.2636941743115715,5.5229987170083605,-0.06925191759102925,-0.01069620150686202,-0.06435024854878102,0.6022866998801087,0.40642929021246016,-0.35086483026647675,0.1208068062892535,-5.7884947217439775,7.988425417946976,-0.0469747060772481,-0.00580324185036613,-0.009429030224912257,-0.47066885019396904,0.28031815004694244,-0.0968568413089495
1.9814306448983352,-6.0122288936059975,7.495461293724087,-0.11388856451304061,0.007952017456393153,0.029976166758480062,-0.2667119610842585,-0.3946803831689738,0.9008598444853566,0.06371842493292593,7.139265765187491,6.204177348734796,-0.2272625837709222,0.16790008626671654,-0.034208079840787595,0.763697072612633,0.4164227979522301,0.2771147626084382,1.9812353695926848,-5.930413793172124,7.1264354005284964,-0.23887074768815322,-0.1083705977851412,-0.06112231021152422,0.3187742232709425,0.2730878847696638,-0.4835675021039339,-5.7420427717691,-7.049157569296863,4.7576520030914375,-0.04001108963475621,0.04168223927390585,-0.21945429570038577,0.6076560323940327,0.41151370652569297,-0.3461772861217618,0.15306538012211532,-5.987100509283558,7.826715025899795,-0.11595110862824222,0.0002783136734859068,-0.010165879960963846,-0.46554544573233314,0.2793302020190713,-0.09808231689692137
1.8510572843097752,-6.1265519454285275,7.476020791137264,-0.1504010774939695,0.009145418320619577,0.027114645625452342,-0.26820405443157025,-0.40249224043153026,0.9032890627860356,-0.14738167787855386,7.024897203644765,7.226613206719359,-0.2643298504327786,0.18177589476431968,-0.02939101146295969,0.7639790032507042,0.4131724281971438,0.2869358163487727,1.9848008731777773,-6.759177009509856,6.934222106139889,-0.32982472323136824,-0.12742133124599475,-0.0280200505682951,0.3151423820123048,0.27244445639063863,-0.4767065478705111,-5.513266673135428,-6.769384489217794,4.647949081202241,-0.10903050003811864,0.05470446239446614,-0.30681461757805845,0.6030069404417883,0.4119870482113942,-0.3422814944604747,0.011867131165352698,-6.004023427629078,7.8014026343846705,-0.15727117817709405,-0.012781874424442216,-0.02119953721161215,-0.4667786361874138,0.2756381468510156,-0.0917553094733813
1.9002591208385105,-6.140957033206311,7.267419089316991,-0.10436096598789328,0.004424821988011273,0.0219211055252282,-0.2581786483578456,-0.39934286139843767,0.8998935150006495,-0.11878803942119817,6.968945991095734,7.354061336352804,-0.19615894841344741,0.12213786574367522,-0.02745146527802182,0.7742066573574337,0.41837103481245613,0.28780458256147334,2.152797324191257,-7.7571663863678175,6.601567272236133,-0.27510258099496615,-0.13779901495074465,0.017904396820684416,0.32323697196859846,0.2819434767018828,-0.47611770106017526,-5.021334981682385,-7.083933077961953,4.935813574358663,-0.13073996168271534,0.06477194074226138,-0.25947259150377155,0.6091348892687987,0.4224707369986565,-0.34219586394388285,0.15484561733047408,-6.100680654202368,7.642017760782783,-0.10685072124069465,-0.008115713377460561,-0.01589381224622564,-0.45870938730202976,0.27926816006862176,-0.09124665687510466
1.9294730631413857,-6.14519882065895,7.409261636256656,-0.046783696097404216,0.005799228739000241,0.02031159999848558,-0.26721530183906483,-0.39858777682251395,0.9030518998954287,-0.17994823502948068,6.895206331267633,7.466370736451783,-0.09289354112979523,0.03515236745608351,-0.011919741381402692,0.766386481372979,0.4215890151441511,0.29289308176624695,2.1058047043077237,-8.208994650197782,6.1512778911922545,-0.149511983757039,-0.0864324568503331,0.0071566087534674664,0.31567935079204223,0.2851421865401377,-0.47636071036518535,-4.5968646075374835,-7.398461766951978,5.0797074708988,-0.0770852568679869,-0.014393841885342061,-0.14129170649183995,0.6018069095626413,0.4280644694202395,-0.3363205195265847,0.16564448381943855,-6.107596910422891,7.753837592845104,-0.04930836117593383,0.0008824088438165651,-0.006864550223868663,-0.4657760202013215,0.28294647765765,-0.08951749401958917
1.8043229893448074,-6.2107541449032615,7.294893213193581,0.0174637630789009,-0.0006836783103055018,0.007835209511687329,-0.2652473510866293,-0.3941978867190715,0.9018401570532023,-0.18480919763257225,6.905865410746932,7.44120068650695,0.027908955118886077,-0.039400093092884815,-0.010714648778378758,0.7683118427558565,0.42544287320423985,0.28916133182848147,2.1839085319489175,-7.9665967617543005,6.194720856410288,0.017303903307046307,-0.023377116644668565,-0.015194887585038326,0.3144753298315118,0.2876062677317393,-0.47467291878806506,-4.408167905136635,-7.0854968956949165,4.295937543846162,0.011730840081175357,-0.07494244504817557,0.015227061311726386,0.6018166849289814,0.43172955431313187,-0.3367857314891407,0.015149043707455605,-6.084188235521862,7.655623886500834,0.014416839213265047,0.005459553630577281,-0.002162520347583739,-0.46478838207912077,0.2858678820490461,-0.0887695893989939
1.890799849443589,-6.177325040248784,7.372106204538664,0.06714206199825157,-0.003318823158805155,0.004211036625763297,-0.2682110691099345,-0.40615171002885436,0.9013313380708248,-0.12297175474874088,6.923581768417566,7.1619405584086575,0.12274021094635292,-0.098854910698063,0.0033151176031590325,0.7668986292485652,0.4148888279323756,0.28641286225756574,2.1405495152313976,-7.377953015394185,6.199475380720653,0.16564134490865967,0.04324073889048208,-0.01313434105905556,0.3131984921244934,0.2765878764399481,-0.4779638912599818,-4.432281274301167,-6.533266708335863,3.784274031109599,0.08320475528558256,-0.003354265483788879,0.16003667189407117,0.6008240254824552,0.4190671877856244,-0.3415088341924791,0.11269153368198774,-6.136520745782583,7.708011210467417,0.06253133942120763,0.0051891925307798225,0.002553348990683695,-0.46580883220600616,0.27392032005647815,-0.09078766421730089
