# sampling frequency: 40
# units are seconds/meters/radians/a.u.
seg1_acc_x,seg1_acc_y,seg1_acc_z,seg1_gyr_x,seg1_gyr_y,seg1_gyr_z,seg1_mag_x,seg1_mag_y,seg1_mag_z,seg2_acc_x,seg2_acc_y,seg2_acc_z,seg2_gyr_x,seg2_gyr_y,seg2_gyr_z,seg2_mag_x,seg2_mag_y,seg2_mag_z,seg3_acc_x,seg3_acc_y,seg3_acc_z,seg3_gyr_x,seg3_gyr_y,seg3_gyr_z,seg3_mag_x,seg3_mag_y,seg3_mag_z,seg4_acc_x,seg4_acc_y,seg4_acc_z,seg4_gyr_x,seg4_gyr_y,seg4_gyr_z,seg4_mag_x,seg4_mag_y,seg4_mag_z,seg5_acc_x,seg5_acc_y,seg5_acc_z,seg5_gyr_x,seg5_gyr_y,seg5_gyr_z,seg5_mag_x,seg5_mag_y,seg5_mag_z
-5.7483116499650695,-6.819918252323435,3.2761612542584824,0.18649669173914016,0.04039398490829964,0.2617282877577129,0.20836497663485376,0.47631229396963515,-0.2598597599886151,-4.127331067443487,7.769998986266195,4.641763718463931,0.21058158275957126,-0.1667272407175867,-0.055765166647054186,0.1474135690885565,-0.3906144860256468,-0.48937846873916824,-4.528333520036898,6.514549231661072,5.611602879610812,-0.09027135364529332,-0.01705203702680262,0.035620846442538996,0.22636234630131696,-0.32134101534434245,-0.48460341353154923,-4.5257364701547935,6.253429002228479,5.524876454516296,-0.088349498848751,-0.10000422656943848,0.0485727938091166,0.20043794046771787,-0.1879512655791846,-0.6007415970567066,3.9234442405231666,5.843126044319959,5.838244016699661,-0.13541093978602783,0.047275280358097506,-0.07455826643859173,-0.1584025205889648,-0.3874221129088865,-0.5418671026711961
-6.193415418479618,-6.5348723614182935,3.7917254193177317,0.15815691618928973,0.054519722873277325,0.15113171769458267,0.22012134332401834,0.4763251127122402,-0.2693355777870819,-3.8868199113992175,8.389676665859538,4.381056269318229,0.015070195255733877,-0.118813069506831,-0.032989071316407236,0.1571897101334268,-0.389742204169127,-0.4984112183002703,-4.500733482961802,6.817608262971975,5.474722298145247,-0.0007276932717826007,-0.029503921270793543,0.010560391145645064,0.2351835076114026,-0.31674221442516315,-0.49069109751211226,-4.365501169172945,6.342965664004754,5.566275775853939,-0.00021430369670945252,-0.043679266221249166,0.016843189552422033,0.20781189227701372,-0.18657717912971478,-0.6068064744786802,3.98547785321668,6.11244536204046,5.745560965629068,-0.04508707061762142,-0.021671235494708507,-0.14351901031659364,-0.14859207961463483,-0.38501040325176683,-0.5481578997923043
-5.8770383189198805,-6.43114425033377,3.7573085430648714,-0.006158476158668996,0.05246181708014657,0.0020106899443589465,0.22039566125806626,0.4841144385023713,-0.2665873730264684,-3.896497526906342,7.827651097222047,4.504050769706668,-0.19233893952766887,-0.018896201305609577,-0.020455937978729147,0.15493571057956765,-0.37848762144319215,-0.49640613184919385,-4.399825136828095,6.670500155004429,5.453513655289818,0.03865353678518477,-0.06683078053568434,-0.012135281825633957,0.22446312914665797,-0.3076617201428443,-0.4848626161351655,-4.422895525666148,6.391537026150319,5.801117798132865,0.04360872691333473,-0.01568428942324499,-0.011962675548809336,0.19925783733438485,-0.1818384971085384,-0.6005456271126548,4.0837455717880875,6.517696918119279,5.86044594191608,0.002332914576741753,-0.05347018335466373,-0.1434386662674896,-0.1554157772084885,-0.3761996594838649,-0.5442794724816523
-5.651891722410902,-6.592109491721781,3.2868760659501186,-0.19930801116470556,0.0919447787098898,-0.08611150944884775,0.21113744495693848,0.4866167027633748,-0.2680694062547181,-3.9310476694228185,7.277235431826372,4.574009276459795,-0.15577402487747022,0.01984074438834578,0.004564246771332929,0.1498313122729188,-0.38083145909135674,-0.5037003389346917,-4.302349152488574,6.441975305738565,5.547565952795277,0.03778758203410036,-0.05354242781383446,-0.012289934044430932,0.22363723461056653,-0.3310956953570654,-0.48362438640101657,-4.339655630944227,6.474752425843825,5.765899663166154,0.041944845399472096,-0.03150883763053656,-0.014315416151368695,0.20033738642764962,-0.19915923369772529,-0.5972512404074799,4.309515235189673,6.759202558987432,5.899185089950039,-0.018017385062613175,-0.0535965895669815,-0.10571924487667349,-0.15452795607224987,-0.3976893882144807,-0.5433225698144013
-6.144614550292611,-6.874625182951725,3.278723129784569,-0.11495599555121143,0.11424356325825627,-0.07067899132618306,0.20522293958089158,0.4742181847184487,-0.2708760008899219,-3.879765234902452,7.4335219642670705,4.780162838569032,0.05436175862756558,-0.02811536423343861,0.020615491819003018,0.14132527688378163,-0.38823609059173364,-0.5060317068383855,-4.156850246321577,6.49628110306057,5.968458450100026,0.054819170433227794,-0.006412174192145058,-0.0058143457191942695,0.23052979354054587,-0.3142730678881895,-0.47947312774367107,-4.171296741279504,6.503947329566927,5.882395283686674,0.05567271065724577,-0.02433824636740433,-0.005952130528989043,0.20554488989981395,-0.185263208512963,-0.5948665096780587,4.348090585941817,6.69851437557705,5.847915810369602,-0.009361490711271203,-0.062014254179114055,-0.05493915653039295,-0.15133903289916564,-0.3818424335421983,-0.5349852540226853
-6.017481106099164,-6.767958389122056,3.4727404096299757,-0.040721525263527264,0.11533784988247565,-0.0712171584851531,0.2135336866984925,0.4869981065155514,-0.2560934908118862,-3.958634273387041,7.789865712929862,4.724102140192481,0.06638146946191281,-0.069544160170686,0.006967194502172969,0.1537180161847297,-0.380153133519367,-0.49344983147797045,-4.333288154153106,6.433944891910037,5.789428250797145,0.06601599492838758,0.021989032507184425,0.006118842130100297,0.2253865745010732,-0.318159685681343,-0.47899208820065203,-4.320071180217439,6.431392024030778,5.908727268083206,0.06570314925989999,0.0007827374028812734,0.008959847403244878,0.19869967285786364,-0.1849607108478973,-0.5932043990285459,4.247867329232758,6.729412557824988,5.9228953217470695,0.01887700938782377,-0.06639613219534383,0.00834661111292711,-0.15450346750368132,-0.3818281993986021,-0.5367118425732381
-6.235704514481323,-6.858656044076008,3.4954176847292358,-0.15195320424724615,0.12915567782332238,-0.14562123277184835,0.20910303909809164,0.4772863035181605,-0.26009322347556907,-4.025611110344573,7.747925015750124,4.451346328424443,-0.04836104623935979,-0.030431638573575125,-0.004479834189096548,0.14572146712838305,-0.39102606684799285,-0.498896717011989,-4.559798079270005,6.570217704844634,5.434130247761061,0.06650938822555912,0.011244207325917062,0.005098622605532696,0.22099097677030707,-0.32156430708280986,-0.4848588409397708,-4.543963665206864,6.4255312512887475,5.8990116749913675,0.06846387535643961,0.0010470812177737748,0.004610052722180816,0.19478745375800371,-0.19328482839011427,-0.6009885761756855,4.081525197540233,6.75554283714972,5.983095771258661,0.018932996701947074,-0.06727075551451195,0.045758505377588785,-0.16180907053806143,-0.3869189415922422,-0.5435944662896669
-6.355243810409197,-7.146251997769973,3.231409462177499,-0.23726829194851168,0.12971373308014042,-0.1560593216704786,0.20501969869669145,0.48855398292697627,-0.2619751663297603,-3.9841455728859185,7.577000052977734,4.389200399728172,0.00018369276672294992,0.008686432063779734,-0.041527045777045024,0.1432417643481893,-0.3811192047667369,-0.5044385019072075,-4.391886569792747,6.504623608810339,5.458092393668988,0.03737149695562047,-0.006786578020001454,0.006219284530754594,0.22784402271096918,-0.3159741744493318,-0.48265056027932524,-4.447406504193693,6.439767564141821,6.091558491766992,0.039525031895090136,-0.029567216800187902,0.005960769193887125,0.20336865306173618,-0.18576013654294363,-0.5985396898747837,4.201462919021835,6.660301037091762,6.017808547084306,-0.020825907754659166,-0.05073856358433954,0.06769727862028399,-0.15496245006315845,-0.38133163041648566,-0.5415968920362523
-6.112648650786529,-7.459875324441441,2.890194093654666,-0.0004117889935957175,0.13964254408193252,-0.08010886381762182,0.20497790914992678,0.4882296723150224,-0.2517234772854733,-4.086146203915322,7.608906854302167,4.460345770574395,0.08504520695217259,-0.021180711337911676,-0.06355991107358629,0.14372539245038873,-0.3826988730243018,-0.49684217377745926,-4.385305316849845,6.475409776226018,5.674850893930077,-0.035589591234709006,0.01805235862560494,0.005775458665670719,0.22684258248202857,-0.3206065662148168,-0.4792309572323436,-4.459453730850397,6.428158645343727,6.157538716154465,-0.03348261668396879,-0.08428140571736203,0.01445112761343658,0.19942853118585385,-0.1888957262030136,-0.5968358345150608,4.198513346825695,6.585673504478513,6.103150566329918,-0.10449393573317954,0.00308436206120234,0.08512353820574871,-0.15720281098372507,-0.384503674343584,-0.5359979430036074
-6.058349311791898,-7.273022977770339,3.1218581813382085,0.16282875934443375,0.15677622023571725,-0.01813834512722602,0.21035931759764054,0.49112066781998354,-0.250458522302413,-3.9556781166464567,7.857038386823191,4.508064510469451,0.0698591905094641,-0.04191337981665582,-0.05593869592426292,0.1485944642279802,-0.3813729328285002,-0.49197265207386043,-4.429631217434359,6.7496053609027165,5.751852861685295,-0.08183587084105257,0.02607357568798846,-0.0015990095463442509,0.22855927033502324,-0.32012740067845413,-0.48191364323785046,-4.361546694444803,6.552850451747669,6.060365900249009,-0.07892694738409614,-0.10513688116103177,0.00993284638757724,0.20089950613939922,-0.1898946779899752,-0.5987726716309196,4.263784642411536,6.505395557151638,5.9371278951083974,-0.14053000061380122,0.03503324259101843,0.09872182290681164,-0.15517973692237327,-0.38108128493935617,-0.5462368819675877
-6.2653244793699665,-6.9895730514263255,3.173712785816533,0.11802417265753681,0.1353030036652027,-0.013677388847220685,0.21134277302276405,0.4894371908154071,-0.2543739745881467,-4.067497392435674,8.000786424578111,4.467594900642018,0.00871616533296858,-0.011345111474310903,-0.04379982147821856,0.14639647753326399,-0.38044437974906004,-0.4941891442729246,-4.588875071919795,6.838818493803279,5.774724410532882,-0.046880516372650116,-0.005319304404561842,-0.007232015713844499,0.2217315745428359,-0.3183924018752589,-0.4826618078736481,-4.418558625969807,6.673275782424657,5.878441837189374,-0.045220729458048434,-0.06799260933139906,-0.0036671182950289496,0.19725758012877292,-0.1881684937491846,-0.6000290270344459,4.369668411604192,6.298418528826763,5.882050942929108,-0.08978122414257154,0.01963047848839114,0.09132964510375666,-0.16176781002385202,-0.3769084529670022,-0.5440715784923047
-6.510963890525411,-6.846028767176866,3.111229330434196,0.004225677084404975,0.13683079700131623,-0.002653586471723432,0.21251476440220163,0.4806383295449695,-0.2539502511522641,-4.142318234414134,7.920951484053882,4.409458133109527,-0.010425801184192146,-0.01705882365141536,-0.04313263858492324,0.14547678072786618,-0.39241434042406664,-0.49423521188559705,-4.475065240330636,6.76439153080732,5.8554109561637695,-0.008220406722118533,-0.02687341595489688,-0.0015099672970108286,0.2273256052071942,-0.3237852133738023,-0.4826453437490765,-4.422220190383725,6.748989978203084,6.055724464868087,-0.007541071937783136,-0.025480955000973464,-0.002022694308971313,0.1965143900225748,-0.19233194746605164,-0.6026925852961619,4.554677651779357,6.3313736930458635,6.034317463340197,-0.0337645479070214,-0.002316417900529468,0.05006055643662548,-0.16153093815025624,-0.3822775057423801,-0.5465175592793728
-6.331707513975415,-6.9415348871290705,3.1798020492795276,-0.008631661627506683,0.14100097508457055,0.06334982328111527,0.21420628563774952,0.483494167827992,-0.24561987747451625,-3.8415116060298917,8.129025794497489,4.499306838161529,0.02043790571903186,-0.08156477905548704,-0.034116155534431876,0.14593217410999654,-0.38696004255592437,-0.48944212283644606,-4.231590058169461,7.006577272800256,5.862727663614036,-0.03095743079215857,-0.0017997017852842134,-0.011496471599267201,0.23316691947867893,-0.32575723888591496,-0.477993108054131,-4.206505213741621,6.637487232732632,6.180334796634149,-0.029402206804410098,-0.03736406360161351,-0.007615231329728681,0.20378937078697443,-0.19380887868440252,-0.5967748044575472,4.407145566180604,6.4470141342294,6.1232801751230514,-0.05585084348093738,0.017654098177184177,0.04390204936011734,-0.15228335407861376,-0.3810994116960296,-0.5403607200532878
-6.106202346860701,-7.250738214702747,3.2383591701354075,0.040675304568436516,0.1007866312275808,0.08972963153864255,0.2150204848234534,0.48824192675244144,-0.25998402349442673,-3.733285743753278,8.053168732817129,4.59879192480624,-0.014007065552702425,-0.07215891905622071,-0.007661784142096711,0.14690146543142363,-0.38224074997476026,-0.49953098386569883,-4.245591270503634,6.818690831406503,5.722633459210124,-0.055138728096964074,-0.0008610474390375781,-0.0370435585109853,0.22784750695102987,-0.3154867729659305,-0.48338395011703045,-4.1473412566338705,6.555126775291633,6.048437543264484,-0.05549434571148061,-0.04102708619471155,-0.0369997672753003,0.19751185147373065,-0.18645964995702258,-0.5997946086539321,4.375137197558695,6.2169197511839975,6.086008625878095,-0.07063176639682436,0.03373129321692405,0.0690540880728891,-0.15858833506009315,-0.37301671881858234,-0.5423403542801203
-6.054275959845961,-7.22957549564646,3.283703834857293,0.06596613234343301,0.024406746748090537,0.052162805703137305,0.2203061849787778,0.4759650891662011,-0.2546881039567942,-3.7923694572077666,7.845230370234802,4.69578940723753,-0.0681448534365629,0.0029882199161465985,-0.011650177717189809,0.1542542692984777,-0.3908625504926889,-0.49156033162628454,-4.317321743815211,6.6024560037492295,5.57762048318547,-0.023086308575759905,-0.02203735939392377,-0.03497410596838516,0.22757625731012507,-0.3220771765442945,-0.4826461877524478,-4.233363367360605,6.659646970424508,5.9535804984839125,-0.022661051509583894,-0.030789143451558327,-0.03488846004052556,0.20018178375229997,-0.1903962986991328,-0.601460196931117,4.589567605382713,6.176144781647824,6.150010223371823,-0.046682426867965386,0.005339505917940284,0.050801736331245066,-0.15932750132989332,-0.3781380051795197,-0.5447914679524877
-6.217953951285329,-7.20243865910737,3.17000737645148,0.09457418745058029,-0.010068715283399522,0.004035924132629212,0.2178885256861994,0.4813410759508605,-0.25367950560453706,-4.011636813988504,7.767873174464392,4.649007318582499,-0.09872337896247245,0.05058240716592907,-0.024042452153060705,0.15179346845110456,-0.3871882453327405,-0.49016072783193987,-4.427637325702541,6.6036119107016535,5.680192419590985,-0.014349346300218469,-0.02474910879246353,-0.029628010627364285,0.21927715258267363,-0.31764415946360475,-0.47558770021721014,-4.395647100658523,6.483854735377244,6.042072811483277,-0.013761092992602477,-0.04034663488166666,-0.02696766273473521,0.18942866883523277,-0.18711441279494734,-0.5964252477265812,4.3141850092691945,6.3123018406687565,6.219464366175177,-0.05179749230773447,-0.0065364659116878675,0.034431219917620284,-0.16667218075617177,-0.3754303212805386,-0.5392140196982768
-6.193894807044373,-6.681687181576992,3.179513937045165,0.07824911800128681,0.008708414440913952,0.00037537174370643747,0.21936439623078488,0.48232078630112796,-0.25513105641839223,-3.9356282014317108,7.534600342433843,4.457959276638494,-0.02189677033276483,0.041363805654101506,-0.034578747024782,0.15201185884670562,-0.38018992632834264,-0.4951612739768918,-4.295288208727102,6.354652492167669,5.673829390592051,0.0033419919354537608,-0.005262815382275701,-0.0320865936670667,0.2256375422944291,-0.31718483157510585,-0.4804573406151699,-4.236450697574726,6.296523990662164,5.931136406752118,0.005599647890302148,-0.05055220489699271,-0.025968174802190096,0.19334892265599993,-0.18715588764787458,-0.5985963153941898,4.2459264592008426,6.059916685368017,6.115775412258245,-0.05362620424482557,-0.024448090820461024,0.018860936947212914,-0.16371178365167613,-0.37421522736280327,-0.5438342340607037
-6.210250386829748,-6.62177691083296,3.067225287172344,0.03948022621308897,0.0094430535429396,0.02005271739561744,0.22348757603854205,0.47354662913945517,-0.2598216768864295,-3.880770868993199,7.62468646511423,4.434120810074035,0.005227640956728828,0.0115842759763464,-0.04645594700500007,0.15525102233287524,-0.39291688997976854,-0.49787317683745874,-4.245732189421031,6.358991343092162,5.686008996833282,0.020497480083267024,-0.002276107358342234,-0.03148294096061186,0.23145411618640133,-0.3316166712806998,-0.4867810793725246,-4.149323378582589,6.231813014441315,5.967181803015542,0.021819669865833627,-0.04418681147836035,-0.028732692796218644,0.19818841183165534,-0.1996835122951116,-0.605074240927619,4.1763316282416625,6.0665616333367804,6.070347849652977,-0.04324396893483557,-0.03916011688932412,0.012060351610854779,-0.15836015527784097,-0.3852180170989239,-0.5479683969470788
-6.235689999755798,-6.681886024000458,3.2471038582901675,-0.02256078323052649,0.01034353574081553,0.04343656246071582,0.21305056028182442,0.4855606065090254,-0.2592807823888768,-3.939957197317043,7.7132322168691925,4.471768596366072,-0.046355591563012395,-0.02040269703125029,-0.05247427115924702,0.14516286793802063,-0.37706954639275964,-0.4964460173716445,-4.307561831767587,6.486571528874463,5.791165157337794,0.049872626411834466,0.0018648186232901886,-0.03736883445182391,0.22609101894252082,-0.3203523870706249,-0.4701997635566028,-4.160024201544248,6.341809923863533,5.939751384963612,0.0516556748646165,-0.030252636049481085,-0.034074758111227496,0.1947376337676486,-0.18930177246108942,-0.5892956475247948,4.2910095798265395,6.16916173907216,6.016548550044288,-0.016831957331505863,-0.059456601958276276,0.019322524420102672,-0.1642628804258002,-0.3730075811214122,-0.5316286912255324
-6.131987368633655,-6.906357993284203,3.093747328943608,-0.006707681213384798,0.005399116519035846,0.09438342419913298,0.2163774996339177,0.4740079093758266,-0.2515458352335257,-3.9678651439109074,7.483418696661046,4.530084398902382,-0.059025603975955715,-0.04445176054822543,-0.05893035762183077,0.14739558872756678,-0.3857853805832954,-0.492633830828594,-4.331804953050384,6.358776584481784,5.707298218964324,0.09567942443236267,-0.008765329875998689,-0.030769201508273263,0.22419894601205362,-0.31474448743225153,-0.4882754501181618,-4.208752791915319,6.405062860426642,5.916246390354131,0.09590833301656267,0.004413042601653484,-0.032721458387121254,0.19196332985825593,-0.18525882254307924,-0.608628354598011,4.407388916843411,6.194995992129206,6.053478698886364,0.02958986976829968,-0.09039584605852302,0.027952463656337582,-0.16707052878280146,-0.3683354089639966,-0.5504381447007107
-6.253033996217844,-6.792632387712374,3.1181618774099578,0.045808575761073514,-0.01577578434717677,0.1013573042309895,0.22868256560136999,0.48742542885608847,-0.2584723856400009,-4.065283878883311,7.54638502952946,4.623912400940583,0.013343102642564292,-0.05844789497921897,-0.07284548170867004,0.1566328197170403,-0.37533863636214276,-0.4984093491451542,-4.415218172994285,6.514019364303408,5.804150272044499,0.10245958004436587,-0.0020247196826615613,-0.019611987873207313,0.2246617635818453,-0.3164480481456352,-0.4792390438195878,-4.350752038675101,6.537798838442588,6.1413685173470265,0.10199708216499419,0.009895475249332536,-0.01995903949135007,0.19238357723680755,-0.18617701069783063,-0.5993421405334262,4.518458118022189,6.383457925760099,6.080370717546419,0.034735478118380174,-0.09362049986600662,0.022740203730982414,-0.1707913878640604,-0.36955365452017447,-0.5406950756019991
-6.119293163800776,-6.755311770226657,3.139074398082383,-0.0014256052090125247,-0.015525119298573626,0.06925242178114129,0.21645705281485617,0.48044641575368063,-0.26321353594590846,-4.002730597497185,7.849660301661241,4.527270119757751,0.0084555282853784,-0.06146489707877096,-0.07352012030397703,0.143741677058867,-0.3840259957229716,-0.5031688178447513,-4.464865724565001,6.750329909762784,5.711181021473545,0.06571516068738653,-0.00625256762797028,-0.02072096797663241,0.2224719237729301,-0.3132639340634124,-0.47729335419308483,-4.3676508654372705,6.549881928407381,6.192098068103611,0.06581460713812694,-0.0035148000832826197,-0.013740080299203806,0.1914107300746284,-0.18224030898609858,-0.5957123190458202,4.433552445328326,6.414428449583183,6.05986485915116,0.011229444647206292,-0.06535991590795598,0.031298708845897326,-0.17176563671148068,-0.36637790357144473,-0.5389877586733235
-6.093248630611778,-6.864415103945524,3.0549114278674674,-0.05502152817715853,-0.008341476358185294,0.0765762303735042,0.21519848426987062,0.4796539494900422,-0.25467938733936496,-4.100267802173822,7.6192351903833035,4.508746348478182,-0.08742529279288276,-0.04581878215590554,-0.04691964265452576,0.14201605936474393,-0.3824712551515902,-0.49733687723039055,-4.554720365678385,6.671967965671736,5.652388255722506,0.028860070268261897,-0.026062437694664185,-0.025977557093051173,0.23027722829079053,-0.31891464627529464,-0.4838639196848788,-4.451569301530011,6.617031187373475,6.10784459498794,0.03154388640079562,-0.013282443151851182,-0.025434344706548723,0.19848107142000404,-0.189900333835265,-0.602206670250523,4.500186030788038,6.413731459414595,5.9472993601806134,-0.010294508117534407,-0.03388344448758872,0.04028397841914962,-0.16515263272563713,-0.37005790306597197,-0.5453024161464962
-6.273227776367205,-7.194396893021045,2.8303299237922976,-0.01863222445590871,0.010340419453502689,0.05814662490936392,0.22452945165223145,0.48575177115674345,-0.2602109705332098,-4.247239929189213,7.55791679226811,4.788541242202422,-0.08307516865436634,-0.04851122936819373,-0.05149902088617885,0.15078135698890024,-0.3754525201255606,-0.5035448280351524,-4.578957583937369,6.562996424960009,5.881503893113276,-0.012852485007444488,-0.029309953089886192,-0.014656035855649561,0.2236594365172799,-0.3201020580938123,-0.47411223187118723,-4.523286318538307,6.6771844601652575,6.1894005614641525,-0.01410631887501742,-0.02051201248031622,-0.013015046554034251,0.19330355191069584,-0.1883388263669539,-0.5929735738491448,4.607654900456353,6.4408154367806745,6.010009886149134,-0.0327092479210187,0.0031288219996938307,0.016138217817825044,-0.1737286269168749,-0.37003148783298695,-0.5397349323461317
-6.063556465816095,-6.866170449399313,3.1191704571947443,0.022783731375261084,0.024559577005661574,0.020516182099087614,0.2245618296265681,0.48919830393877617,-0.26384598517542956,-4.081815893749082,7.522138848291905,4.553728216847061,-0.01440257940201739,-0.057612797789624734,-0.04652953976153638,0.15101180940167885,-0.37158681955395845,-0.5060505400649276,-4.529289142414084,6.78658844709159,5.761499516944078,-0.03407851690317282,-0.026470424382711896,-0.003625180916767599,0.22538710180086882,-0.31815988363086656,-0.47923608755059155,-4.398914652315163,6.683298822880835,6.092841108382328,-0.03195685286722815,-0.016221183003033518,-0.00041104355539088307,0.19430318719841413,-0.18935310056186969,-0.5975995227408941,4.609347665807067,6.431037812927726,5.933355659342925,-0.03593096342073754,0.027420842720076034,0.012415572446668518,-0.17078930889535893,-0.3707722228198909,-0.5419165038548307
-5.836836149315825,-6.754673869487935,3.058356205418671,-0.01773350576011731,0.041374543209474576,0.023583941457339302,0.21989330674143873,0.4804647382069131,-0.2678389946517833,-3.9708256285827948,7.662581108935901,4.610082465050024,-0.02110942462895937,-0.04601321135851314,-0.009421610706831412,0.14737837723914934,-0.37724710510236953,-0.5076709761885514,-4.372756855958085,6.655053891841282,5.776435542987195,-0.05560294267255368,-0.04981955933970733,-0.0020837500690074227,0.2258549148728086,-0.3264662734463199,-0.4848443528049688,-4.28334219080444,6.624853127758246,6.109454234246821,-0.0529139969780952,-0.0013981443896331853,-0.0001643960701145376,0.19551837856628243,-0.19599346046221433,-0.6036510386115957,4.637224784856609,6.411247301955274,5.974649108096291,-0.02972980451186416,0.04650309524740424,0.024232446638694793,-0.16906296800564224,-0.3785817927912096,-0.5504611535840807
-6.163777320883789,-6.884277558840101,3.002598187133639,-0.053344439893404316,0.07135246024817006,0.042812814179778974,0.21690708844187725,0.48085150035072577,-0.2529541900406546,-4.170735087524884,7.537935222639657,4.729133740057496,-0.10884467135808887,-0.06179692007671193,0.013252101681699685,0.14053299985240983,-0.3781125477061136,-0.49912157185066097,-4.492199126185051,6.507577461144806,5.7635430291494645,-0.08769082582960604,-0.04318296459784125,0.0036435371362575028,0.2292749081385652,-0.32012410998994306,-0.47434407920116317,-4.465809679204327,6.537064563246884,6.0516146322679685,-0.08368043001597715,-0.00904172023127445,0.005459111063214632,0.19648796470181504,-0.18591343522183537,-0.5919915967776525,4.489342573567214,6.375242457183261,6.00581221562911,-0.046698643402468744,0.07281004319779566,0.03232597931856345,-0.16591862399553298,-0.3707936174808565,-0.5396924380115856
-6.2213521297537,-7.005270825585666,3.17214148550556,-0.06955432999920831,0.07927444235274693,0.03470351524013432,0.22060721985942572,0.4828415704359373,-0.26000425447644643,-4.076544118610174,7.477667863516611,4.820446426718453,-0.09190360583273441,-0.07559723682890224,0.002521655959137055,0.14345975197793145,-0.3741167995737591,-0.5091950826020594,-4.442604605592561,6.469063975977843,5.660075175240653,-0.10639365076957533,-0.020041500421378828,0.010439363284296383,0.21999957943916856,-0.3213103698638936,-0.47729216926586676,-4.41192833705554,6.419179336514061,5.930277259388067,-0.10496483708529696,-0.020270041552799985,0.01495770069578978,0.19135809771576978,-0.1898079638747783,-0.5956627880389314,4.38955074627368,6.35268645689286,5.966271983076469,-0.06503475842688188,0.09026112756079972,0.025300353057025875,-0.1742292533001508,-0.37295986613822946,-0.5394971220735342
-5.897480901915161,-7.389466369180338,3.1692554334702483,-0.035464016736771777,0.05736647161694116,0.019342997185458493,0.22176562070276984,0.478361928286618,-0.25002538376377653,-3.9114143614200114,7.32857792286034,5.0530096942553255,-0.012479978170940242,-0.04558203575457111,-0.008402442699706816,0.14689226983972192,-0.3798236374884559,-0.5010356907041378,-4.329037166482144,6.264676433310049,5.765054694696222,-0.08518700170860705,0.0011576505450765653,0.021099022420796303,0.22683887582644657,-0.3242724986975906,-0.48411100418831116,-4.260132228775511,6.357771466087215,5.91341041885175,-0.08236899108485055,-0.015648631707530204,0.02616416546243912,0.19457798539497295,-0.19110554578889258,-0.6039334422760203,4.4285653896266695,6.248108286701137,6.061563354461239,-0.054410064523059846,0.074240805117378,0.034805852426279746,-0.16564867811904596,-0.37566812929165894,-0.5477537491847209
-6.074219784068614,-7.384103314294541,3.186736864974546,-0.011726940102339224,0.013903945380085301,0.005108778592163953,0.22447815620496242,0.48033510807987756,-0.2543933790308089,-3.865373267185945,7.590597398961559,4.8381283117128335,0.02584745109239251,0.0014552607416990072,-0.01915141671522101,0.14712935006817,-0.378126005156315,-0.5017968368334382,-4.336850296413241,6.45078565353511,5.7019376573061535,-0.05348355411319339,0.011921473640556613,0.03253983375278104,0.22882311357710416,-0.318424315832109,-0.48801847097905315,-4.213254607102151,6.346751560450246,5.9098368399731545,-0.05151928237639742,0.0005394068133518131,0.03668359203664134,0.1950997408451406,-0.1867173416738388,-0.604447957479727,4.362707021169789,6.135047851920818,6.055757679265131,-0.02881480230259554,0.049314159208708325,0.03808102823980077,-0.16510681879415487,-0.3659016773533757,-0.5506684043974743
-6.1770654677899435,-7.081843591317291,2.9971049061447945,0.05625386357869934,-0.009043000591256563,0.01321991818339347,0.22549859321994747,0.49008022498491793,-0.25235993397240547,-4.023466498579495,7.801444019520302,4.5477802580022875,0.022849905734149627,0.04549527875042441,-0.007119184810191161,0.14854431851365962,-0.3680869834690921,-0.5004974374099598,-4.501653687223485,6.646258018181625,5.59868865085599,-0.0173131713488729,-0.0017165294943888255,0.020016031008655535,0.22098940178326015,-0.31911916700071064,-0.479733814354637,-4.409425291864229,6.345059681678227,5.968495842574614,-0.0169042942256227,0.012955510013959826,0.024348622979786055,0.19067493097066338,-0.1854284018352815,-0.5986252676659632,4.208139968314172,6.188948039437032,6.122679006726902,-0.0023794500870345787,0.01978213015158797,0.039764477677305725,-0.16833114998090093,-0.370534225360216,-0.544832619243573
-6.328770740990661,-6.761061779703726,3.0786474382493014,0.04398864921779049,-0.0005800984168990888,0.0026193449220924176,0.2198120525619801,0.4771627522556027,-0.25150755223123544,-4.115022385768096,7.765421918593028,4.773138289187984,-0.0012791256235497993,0.04726683326336096,0.01341422572841279,0.14176346670174939,-0.3791326282398358,-0.5020328700211336,-4.459693520611829,6.619266670375581,5.736012592579693,-0.013891138581948778,0.01776416894423109,-0.0013214346816660162,0.23003123293324618,-0.3167127525504082,-0.47898322462081544,-4.458593128119805,6.355808742528651,5.957743541296338,-0.010371093052798652,0.004322706840648821,0.001586449955088219,0.19922491975167683,-0.1840177014346978,-0.5978463644471114,4.208554577858204,6.145190709050593,6.110359116208804,-0.008149570026422966,0.01162540203683262,0.018598579861549547,-0.16051559959906173,-0.3673923783967335,-0.5430765167730466
-6.39061285710804,-6.735615444921763,3.1371986947113877,-0.006312390165445973,-0.019770014626640478,-0.025565784753486497,0.21670673278879277,0.48408019262234225,-0.2597659527954399,-3.9914029283553982,7.614382841252861,4.753023899432859,0.02850702281471754,0.034496714185778724,0.011694006568574616,0.13929695747148899,-0.37377411616492406,-0.5021266919805359,-4.3546629581156475,6.4938920779680975,5.816186496484845,0.018447907431700813,0.042153029042264145,-0.003078338505335964,0.23003512830011394,-0.3196474731832048,-0.48606085421225037,-4.263432454520848,6.436725774743721,5.970517863231646,0.01478256544254258,0.01044826337781206,-0.0038819174804234505,0.19779282048212998,-0.1862527450060488,-0.6051653590444811,4.453482708739561,6.208561641788323,6.171419442910473,0.005727889310644524,-0.011619215593009281,0.01016643905446613,-0.16440697873752547,-0.3693254563798557,-0.547250452075839
-6.258213084742177,-6.920925707947124,2.980489172467397,-0.04083393187686464,-0.048076340564655325,-0.03257416914346173,0.2164706900148406,0.48723812772650643,-0.2575450631793733,-4.009468400933462,7.746108313953758,4.625260024404523,0.016577118104832977,0.035480972272605396,0.0034476634013525264,0.13709029185199428,-0.37090822573509763,-0.5053527854212114,-4.4015276303857,6.561730410881189,5.647181733529499,0.040081308185618496,0.05084621474535951,-0.0013926353428865802,0.22563426491246372,-0.31938379532955746,-0.48289757024890845,-4.340238682737944,6.464585929491314,6.02105088216485,0.04234290892581349,0.01022367946626019,-4.722151453522027e-05,0.1903889684172273,-0.19030145239931037,-0.597374976252552,4.4539733406777495,6.266757239312365,6.192472328843785,0.0158489206829287,-0.03669620326057652,0.01169345754876154,-0.16736283360763998,-0.3710274127559415,-0.5436067956045562
-6.429158999003541,-7.053997656666432,3.041067761996971,-0.010879778056984524,-0.060500113123993254,-0.054313982144699874,0.21570767298801746,0.48041777155069104,-0.25906656133967293,-4.260192848109095,7.825197204647306,4.751981626246263,0.00011463078898681257,0.04442827953537539,0.011399777467510488,0.14078944486546532,-0.37938943101485895,-0.5025182459550057,-4.690160861772589,6.709884494980768,5.815370233768894,0.039091249686385124,0.05696035110697326,-0.006084747630512305,0.22122817453373933,-0.3181403647954729,-0.4750950800642675,-4.637267187099864,6.568171470760289,6.159955971724354,0.03915901325582937,0.0026079060181884283,-0.004565141074498813,0.19085995978507556,-0.18856693780586037,-0.592988123593011,4.404983959233872,6.311718510373612,6.158542061613722,0.007693754425726443,-0.039246022816238804,0.0009090131703546519,-0.17057191408249428,-0.37029114295786814,-0.5367876530418615
-6.576550609559405,-6.875878342070452,3.1391034691837243,-0.00774270031286416,-0.06291557641922407,-0.10028927843843503,0.21571148970972084,0.48187505323132007,-0.25807809306201374,-4.195354545762197,7.7201066341115,4.517120315217327,0.023407256860588675,0.04778893947980045,-0.005408433752796983,0.144202450683798,-0.37792875541894594,-0.5037582492161029,-4.625856605346712,6.56779844465163,5.635337989733609,0.030327505045334095,0.05801848139289116,-0.0011055318122862386,0.22537126076679287,-0.32182126084079343,-0.47850114946594247,-4.520109611683178,6.586599141329114,6.138964248643815,0.03107376154171068,-0.003603500951277126,-0.00018812905954893288,0.19549573335501516,-0.19228335864590756,-0.5963513227467799,4.559960404811326,6.362567295994147,6.140744874586117,-0.0007710483473927945,-0.03287129355957638,-0.034550147816849286,-0.16715557985785315,-0.37493987425432923,-0.5397041411352452
-6.314070602899046,-6.838489486055939,3.1098712108292297,-0.06526623054183348,-0.0861589069939769,-0.09574143380722623,0.20720541051922614,0.48803720732256295,-0.2597724943606475,-3.9187793874585055,7.6869197136412994,4.436302179103007,0.0185798748007232,0.05605947328379886,-0.03547616368116052,0.14076319689047984,-0.3735476811601621,-0.5035932713867788,-4.350313933991726,6.520532131654083,5.6714238970961315,0.004310421704317827,0.03566877637466226,0.0015923823866399625,0.22660312374119193,-0.3201186109665316,-0.4804528738363341,-4.214754281769732,6.42052150091859,6.185803755773198,0.007401388096146635,-0.016597532288197565,0.007746342697845107,0.19138063875549835,-0.18958488665221096,-0.5988372475920363,4.456621079446737,6.401599506713243,6.147504457973557,-0.02168154048062891,-0.012525614915655165,-0.022750397257445126,-0.1695771647808621,-0.371754773639386,-0.5411789040088437
-6.1359296500362115,-6.885121694663944,2.8651083028254622,-0.004859913383837298,-0.07884006783994843,-0.04290642042741306,0.21446112938194026,0.47626482261353625,-0.25788297139229543,-4.010061853921349,7.610671492390922,4.409527613903672,-0.06180502298703837,0.03756804947912184,-0.03591624586320113,0.15010236433921395,-0.3866802312184504,-0.5031138609873749,-4.377894982110482,6.471734699140788,5.80165722745277,-0.0191359725086708,0.011834030478722626,0.0017750500770567824,0.2237225886154809,-0.307411307554202,-0.4804694079387407,-4.24551907512133,6.390009084098878,6.178472429845805,-0.015176916351200661,-0.021399838520429548,0.010479788899028335,0.19315691452440983,-0.1813057316767774,-0.6003452078983875,4.40812682266693,6.371411638241151,6.066913610121673,-0.03353316408799969,0.0048339070276389685,0.016223629744771373,-0.17170635366292553,-0.3597788446044594,-0.5450828369558728
-6.223092363677826,-6.860838195288096,3.0563925233840146,0.0032248121490384626,-0.050427075826573894,0.02876684284353047,0.2115919114516539,0.48968854683556345,-0.25534805887319684,-4.0559252385555284,7.692267360838216,4.567789858302735,-0.048955226066171094,-0.018965749923893695,-0.018268782981753544,0.14489816571628722,-0.3717495788823658,-0.4994649735525394,-4.431377314728436,6.714997318582789,5.947944687096304,-0.024797015457514494,0.01686089856126729,-0.007211285884392736,0.23294213358913549,-0.32380766198024863,-0.4833661897762672,-4.280727407117697,6.394478341269845,6.141526084500517,-0.024383392333326304,-0.010441322017749288,-0.0066346534830952495,0.20117708130647685,-0.19017575078552304,-0.6041402281616164,4.3313693064323395,6.290362245362891,6.046940471671188,-0.027646298311506563,0.01962765393976803,0.047994081671513394,-0.16244917156708763,-0.37079598959701787,-0.5489503182883995
-6.259371187127301,-7.043824622387212,3.092855231396743,0.002229969144164886,-0.03846799771585268,0.08500275435154574,0.21306192402035742,0.4817178925822932,-0.26736814942288395,-4.128565064660793,7.438146042085218,4.640465931006435,-0.036003199894413085,-0.05671198473894361,-0.015946950659381908,0.14666546078154624,-0.3806967073096521,-0.5093236176306041,-4.497580376318754,6.2608950801947705,5.782992577391517,-0.009267438878937573,0.010363113703783983,-0.0075404548926176155,0.2263514647358371,-0.3242711901375026,-0.48484506053248466,-4.3416218814715934,6.378643124620183,5.987664756062144,-0.01040059463479625,0.01730164449819579,-0.01183786272520081,0.19163217805472207,-0.19082361132606065,-0.6012695366709374,4.43721851896653,6.149060414430302,6.050397808650661,0.0027062382649587343,0.015303742386430284,0.059791830323406646,-0.17051965824624882,-0.3715001829620948,-0.5470429369772657
-6.183472189816997,-7.043395171865749,3.2094679410579974,0.026419834281501076,-0.023541890128260405,0.08917940216062752,0.21597404814088467,0.48505145610770806,-0.2585411922275268,-4.154911361349628,7.538498644378043,4.596576654709804,0.00011048915260445069,-0.061502400592027516,-0.05053001187972283,0.14858357763896232,-0.37545483744684255,-0.503059348314661,-4.584989824116346,6.375746692221721,5.625240084135371,0.006212803956205334,0.01082082271653794,0.009875673989101491,0.2263726008084897,-0.31572170158619406,-0.4792359358434198,-4.457277621597989,6.4478118718204005,6.091144612360692,0.006574640959961773,0.022078760973346385,0.011074159657934752,0.19456043790028116,-0.18666247739840477,-0.5966385237457776,4.496570550238737,6.256224867064969,6.1564620869887285,0.011592127973336978,0.0011426908384390474,0.03090821974325804,-0.1710136676563042,-0.366376747470775,-0.5424016353851407
-5.976857043597383,-6.949251558854195,3.177371434958761,0.039124277629786465,-0.02061418384049378,0.04115867945570794,0.21495415469664358,0.4801374799297089,-0.253944536760293,-3.972982581837025,7.888845072373597,4.533618908579482,-0.0321043364281852,-0.012298563954638303,-0.039633645973586276,0.14686220465544117,-0.3748728792503352,-0.49696807310259566,-4.538315708102484,6.875152795193097,5.582761684291815,-0.021276683445724243,-0.0099494697256382,0.0021940972469452575,0.2354566682380671,-0.30721826847793304,-0.4870362239347802,-4.423663740727668,6.530592358999003,6.195423379328415,-0.017146891088178875,0.0031181428003093105,0.01294936892234564,0.20128376741743786,-0.17553324958984395,-0.6049690645798943,4.422548836357682,6.333783642795913,6.1622594031115945,-0.011741972483964035,0.017991476887062343,0.026864177515943666,-0.16167258540157156,-0.3595686186383211,-0.5491779238317043
-6.041801526718209,-6.846928549808829,3.1209481993011825,-0.014228266555281666,-0.02202528622186917,0.0035473960416893633,0.21939972956399878,0.4835991021325706,-0.2624451850193021,-4.043059096790263,7.639334457222836,4.632187664887439,-0.0934456827831533,0.03414666677776877,-0.0030535243831198125,0.15370191693402843,-0.3720905254569267,-0.5077469043618023,-4.491718853039298,6.679266706520401,5.617511391912652,-0.04253407024115489,-0.030449182619452123,-0.01564625809987029,0.22686422813598606,-0.31694736807218593,-0.482651888160999,-4.3770736823501615,6.4853316273217585,5.9940950135812585,-0.03859814374559515,-0.010661499289592999,-0.012291827093332456,0.19603984178049008,-0.18816327121791507,-0.6005250825155046,4.413982731922542,6.184194132073211,6.07233804041869,-0.03251458101039525,0.03341923786434107,0.027159777305512604,-0.17196456947424352,-0.3673427117513486,-0.5477791296660577
-6.322007735738585,-6.921574654922484,3.1382721246297582,-0.0008373904425084313,-0.00566189262855986,-0.0008876931392407209,0.2091289648096271,0.48168684935286776,-0.2607916776359272,-4.16349593361802,7.474205168808837,4.743589002885734,-0.04204139029003804,0.011959655688597446,-0.0027600721532041956,0.14004923076493508,-0.37722897582932097,-0.5045089301280122,-4.454084050579598,6.409733972551457,5.761920771317334,-0.030273412716718656,0.00043238711379516297,-0.009335798458998618,0.22587215514986111,-0.3162038377885649,-0.4743546131922193,-4.381937492886837,6.450888043520941,5.970895058085195,-0.0315909949794184,-0.013674137927323051,-0.010575866543924745,0.19262190059104395,-0.18420647595432307,-0.5964234353747205,4.473720565152752,6.0809843950858715,6.07475962088694,-0.033105264711646994,0.024970796649489615,0.004112279180894501,-0.17249364377367912,-0.3639342385941702,-0.5380119389173076
-6.162796423501791,-6.824495597443689,3.1783801104787996,0.02808236383323344,-0.0007985096983186805,0.007425977295924997,0.21007287323155283,0.4799249621582993,-0.2546975151500204,-4.111272848433778,7.5609478090074695,4.654307913694294,-0.012480662487698123,-0.013828022732862448,-0.012329774051766083,0.14541634075850524,-0.37809328251940744,-0.49935786710545144,-4.519586332108571,6.488388558957148,5.733162330037444,-0.023702273825676932,0.020190197999346744,-0.0015616059809711754,0.229293906059075,-0.31890846671068607,-0.48093604192076445,-4.3844331126344285,6.455717373112371,6.015625772776252,-0.024755989463336656,-0.008798173536189256,-0.00014364928911609202,0.19406805948175015,-0.18714807547479587,-0.5966385579536978,4.51046276037152,6.118557697126524,6.056664207703817,-0.02446371687279631,0.017696624963363893,-0.02298763388593326,-0.16954458374528275,-0.3654051178496066,-0.5426363465728719
-6.065230284952475,-6.8798900497015785,3.0852710715801828,-0.02111168957100297,0.0008331163239885759,-0.02030266237832635,0.21570322711076073,0.47847633421549235,-0.26054684351131185,-3.990840553515875,7.779150568080152,4.624225278622282,-0.03901684108384546,0.002982488025440027,-0.006949335077261423,0.15349289281576184,-0.37871948493261653,-0.5098335318291869,-4.470327919911327,6.531891115962269,5.662185299303392,-0.012025050418492063,0.01405768963603013,-0.0015503956042813626,0.22783461421254653,-0.31988332263884234,-0.4853334163903763,-4.323051112612322,6.379869392914707,5.976108169366873,-0.010202795532837974,-0.0008518894846397177,0.00354374344741006,0.19459166174706347,-0.18890703789359314,-0.6037038317542676,4.380551367469632,6.20398390494014,6.048002012030886,-0.01061661874230972,0.005057209996486796,-0.03731767895424194,-0.17001955005571195,-0.3690595151706543,-0.5475263224648246
-6.292793529874519,-6.920751239560859,3.1673711124622277,-0.021856343576142162,-0.01577807068798511,-0.04381362763851648,0.20442813407792265,0.47844563982529315,-0.24911618911380431,-3.9355424256879163,7.648094582169147,4.611687534741639,-0.12054363657862052,0.02683517264631103,-0.0033238494918001226,0.1378371359072427,-0.37615633931455494,-0.4981826488943203,-4.403767634753392,6.5150424770474915,5.605720658727064,-0.00028571660980688916,0.003437932814492003,-0.015204447046240107,0.2273551802372283,-0.31646166796712294,-0.48314022251595223,-4.251587856706969,6.343506066500696,5.981353506392655,0.0019684979471544313,0.010147377005245544,-0.0125894898524707,0.19166453444326798,-0.18593922591609505,-0.6010575054679617,4.338134758046264,6.255067868162011,6.051186987473783,0.002254077467515679,0.0014132723029966973,-0.015959089390313614,-0.17246246702041335,-0.36709910750303626,-0.5458285799989838
-6.322355492520609,-6.940367453847136,3.1208008708739983,0.03449968262301392,-0.041573286390821855,-0.006155588564712343,0.2076983180419825,0.48586733211136784,-0.263694694985533,-4.029252008617201,7.327115983403991,4.547626103380972,-0.14981618260941837,0.013927025843223036,-0.03967214740222157,0.14343698480588532,-0.3690069386954006,-0.5102578438450946,-4.34554455840662,6.181193955352534,5.6030133161538105,0.010937072057415393,0.0007549257930603042,-0.0018599816821344576,0.22809276382814034,-0.3171996799886901,-0.48704404022461123,-4.23306603082145,6.400204097456513,6.018827134420908,0.011214901204114018,0.0034416298244965378,-0.0009980521695271457,0.19583170734770747,-0.18672240074368612,-0.6044431154830007,4.577015699993635,6.3152648940582905,6.143563529645372,-0.0009208121743877166,-0.010706841696004247,0.007836533598231065,-0.16755152120425354,-0.36686825422816455,-0.5506831105588035
-5.872013456727782,-6.9738221786487475,2.9996423396951317,0.08368394835868788,-0.032520121135685594,0.03669129021199438,0.21352126859973758,0.4826243423431401,-0.25881390507352997,-3.9755384949968215,7.312543586163884,4.616288528842281,-0.15313856786367985,-0.0021367800353208903,-0.06757956790141359,0.15076235734553936,-0.3696833553103242,-0.5090132480398879,-4.356490232055465,6.267660650727296,5.591045482250347,0.00669865079125289,0.0020982137016476404,0.02152383134665074,0.22639720340271227,-0.3115749040106383,-0.48314625725984095,-4.234079838527689,6.353997082039894,6.009818611721642,0.009467633083041242,-0.011382004956041676,0.025418308499692614,0.19368526620831988,-0.18061253533589777,-0.60571753814988,4.493907991284457,6.359555455894317,6.16025578070266,-0.015369266300047962,-0.011098981897053911,0.037135292367868604,-0.17241517718769703,-0.3590397594224622,-0.548747971919893
-5.995366429076943,-6.83249590645197,3.1994677280935773,0.10827461800656753,-0.006903643333610346,0.06684326079908266,0.21575309821666233,0.48872222415970473,-0.2594893478262692,-3.970130296222806,7.717985165483411,4.6684760475312315,-0.3114931108987883,-0.002104698879546423,-0.05778611105812177,0.15314320170355294,-0.35673872589989736,-0.5094701622217956,-4.385236406349513,6.498473992179734,5.6914193757188025,0.016712050552322985,-0.004948133599682302,0.02488519638693446,0.22831063588870365,-0.31914628992103167,-0.47800896609450394,-4.218970900656191,6.368946127460129,6.0045381153037845,0.020552835028209065,-0.01133585898203399,0.03095506516618341,0.19600899067807062,-0.18911609226105827,-0.5968568467993569,4.449109682611478,6.191013229069807,6.091464413453012,-0.013689216524183692,-0.023705850720241117,0.06350635706434167,-0.17004595363382682,-0.3702850585042451,-0.5436208344814153
-6.303172435780122,-7.003464653457644,3.2445451684573734,0.09183790942094924,0.0008203027564039139,0.13566647520141945,0.2106283215740358,0.4822302178147705,-0.26883880743527994,-3.94036656058229,7.995439148795574,4.5512151424736,-0.6302023050653349,-0.007150287535507218,-0.04359869213059006,0.14363792501725337,-0.3546298326969202,-0.526613596812779,-4.373770405833213,6.679478060702867,5.6843002926154105,0.03960558483560545,-0.02731137226199828,0.015021787110600737,0.23049630974769625,-0.3223292116027794,-0.4784896617882405,-4.179827967576259,6.382657778719721,6.067068594325101,0.044096752754219724,0.008155005767406276,0.018840751218218058,0.19698746139451945,-0.18937005622568495,-0.5973377660875157,4.401366848147738,6.204901024403045,6.056205835714395,0.010965728427192852,-0.040730147241015285,0.0847588087444973,-0.1695505469995203,-0.3690653808010154,-0.544105669058286
-6.347630579012489,-6.949064010786235,3.270359649263075,0.08257921619822842,0.010723277421212207,0.23918045193207987,0.21454357846231367,0.48270907071659147,-0.2702836438956484,-4.055440753710248,7.458932035662374,4.831587601993841,-0.950180724372797,-0.008961170046476011,-0.05822461876891065,0.1433437279582154,-0.34157573802031965,-0.5344017979057658,-4.425467435398397,6.45838988030811,5.482853397181719,0.02315067613998277,-0.07233714689159276,0.006936733442028941,0.22760571227335993,-0.31817655529638644,-0.4892413061202641,-4.350007250513621,6.305283926582533,6.118429805977257,0.027973363913876434,0.0071792703386186815,0.0006854777508174081,0.19778187936050862,-0.18968346038342349,-0.6070959043796914,4.32092390592562,6.257967662017491,6.134184103410886,0.006571997765749855,-0.02866623438720672,0.11433693886677528,-0.17120483668596212,-0.36612070861927415,-0.5519235522356821
-6.194790547214743,-7.06649043108387,3.4904181277912767,0.11005029177302783,0.014134053381730096,0.2518401877156897,0.2247043040316289,0.4747420234992527,-0.25736641166340307,-4.167862774382931,6.740456006509563,5.5251703233347635,-0.6479123024512303,-0.030167924972874457,-0.07934651860148882,0.15381981572471243,-0.3394460920975264,-0.5268511005636536,-4.383085504653234,6.370783804934211,5.975653372239445,-0.015191781506530232,-0.008688612699280597,0.0003762193771537819,0.22809214973704864,-0.3120649956093451,-0.47752618180228734,-4.371868544008409,6.352390475996625,6.125514045529417,-0.01375425049277447,-0.04640096338670517,0.006187718736954636,0.19508190429922392,-0.18301206410219248,-0.5978802099225592,4.458137762999674,6.173131244672569,6.159778821790647,-0.06003875709168689,0.000620332235386353,0.12374122160300165,-0.1697560009871236,-0.35905552091719295,-0.544095144552626
-6.211138677811023,-6.840184388457745,3.3038480576757587,0.0010248533908331558,-0.0017153227068484904,0.1903369374912255,0.22766604792815726,0.47551400629779655,-0.2644289352669126,-4.134452976680619,6.957055829227563,5.320692191797375,-0.34842314838110516,-0.002219054151551718,-0.09399928336360251,0.15527279523426693,-0.33304434030492575,-0.5386765846776654,-4.536612544621244,6.42567518380756,5.665682232898951,0.0038169452804783723,-0.001374549420981665,0.009122388098251074,0.22102065414906322,-0.31448515483552936,-0.4858405225139143,-4.3547589181585185,6.43515299050934,5.931425592970257,0.0036753818542293423,-0.01947291395431248,0.009554894261766794,0.1868199612604782,-0.1825021132399176,-0.6033090802785896,4.547115088620953,6.081160650608358,6.035270871250285,-0.027847167714621514,-0.014798365273712501,0.106565788959213,-0.18266403983126347,-0.359486781706628,-0.550026442330488
-6.226554628573346,-6.539760632067979,3.338660767966052,0.04363925903686982,-0.01622778094866446,0.11769882212322746,0.22716751013323314,0.4733215876829673,-0.2646920886145683,-4.196653179161656,6.852064862059005,5.65778250003291,-0.30577666525264646,0.01683275740523401,-0.11631410189700786,0.15402370491158343,-0.32835053988044105,-0.5350937447508916,-4.382366010727958,6.333136217042128,5.8592071591820885,0.024228394432737076,0.001996597295999647,0.02107779550734189,0.22270387117642373,-0.3196165875993995,-0.4831477148288608,-4.3503656970095275,6.427443065474162,5.970231945374057,0.029207244383770155,-0.013403936731677734,0.023652231323913333,0.19092534149798127,-0.18961529651179956,-0.6039672602282524,4.578276765707545,6.111558488712322,6.092077304290535,-0.013972965101970153,-0.02788177017229194,0.09803447041382238,-0.18220173797992645,-0.3651044714723868,-0.5492984095743982
-6.02576368684167,-6.889245281094975,3.0026375328617165,0.14538383516224324,-0.029239409740973197,0.02690337275356326,0.22131279501068823,0.47287979470738406,-0.26667175596050535,-4.248954368867095,7.0376842309694245,5.590213092675046,-0.3295128432157939,-0.001696715746532013,-0.11218339076939629,0.14938150868397065,-0.3255422993810478,-0.5410092738465774,-4.5184986881681715,6.406951864479461,5.815598967160793,0.03401876442554218,0.05728715750000054,0.03259312831763158,0.2239239050853355,-0.31986633787483654,-0.483144875634498,-4.384707186789933,6.352256818034433,5.983578441415871,0.03591098661019928,-0.005859275465254475,0.03464402246714944,0.1889913896188387,-0.19035889972605546,-0.6076372229513477,4.462229440415507,6.029629197647611,6.101746376645095,-0.005435028987211396,-0.037241661574020854,0.0786036746285711,-0.18217617154394328,-0.3633915019843164,-0.5527143262727812
-6.235445921801627,-6.668503463645746,3.2996586732009328,0.22449218255755965,-0.004694984422649533,-0.010767278663357707,0.22890509404497184,0.47312787226070185,-0.272255032319558,-4.287371232849513,6.842140573752625,5.5975354215419255,-0.19476890726466406,-0.0109092546023747,-0.0740962992392282,0.1591186652732864,-0.31894139367618995,-0.5433010686521216,-4.553523729479546,6.869751477582918,5.818805829556782,0.05584621658275955,0.06113934788364106,0.01908113769549991,0.23100615266986446,-0.3216052469628736,-0.4872781707286058,-4.4772625799859656,6.482203784830735,6.067974663877357,0.05727701603306012,0.004141298219491048,0.025432072908157036,0.1977588612051339,-0.1911355223344609,-0.6051334008115743,4.473737652158825,6.033451210346515,6.0307196109690455,0.014268950026883555,-0.056448973375558674,0.055250362885466815,-0.17632564452265148,-0.3617082449406577,-0.5499938231395156
-6.399694496861477,-6.624726428845914,3.5589686612383074,0.12515448742299445,-0.019364011922465656,-0.055980382234798405,0.2276640308742934,0.4672966090235576,-0.27499171813738876,-4.222940222677087,7.144574543296028,5.290374519903419,0.2897017127293734,-0.031890298228055405,-0.02262394230883081,0.16011261562556464,-0.3228257843044024,-0.5422582296690273,-4.593322749074003,7.099956552929808,6.012224578466634,0.03629347011475486,0.12682985920043977,-0.012235493133749132,0.22683361406337316,-0.3206031994503796,-0.4750809682887,-4.390427851731274,6.694486570580823,6.216490480638117,0.03459907151931678,0.0007369404038217636,-0.013212140093202821,0.18744664933588676,-0.1892849366902458,-0.5944708785894551,4.584304427387094,6.069714970869384,5.997679500718604,0.0013337645168084728,-0.02820846968373267,0.026208956375934497,-0.18442663013479596,-0.3614428480979094,-0.5417373790121878
-6.2818036666733,-6.334536623931026,3.2968524416753024,-0.13710082070130103,0.03038738978771101,0.008705714095892932,0.22844662978872982,0.4751216068243149,-0.277124413698707,-4.266727777491866,7.37302152718072,4.943751432273166,0.004947403333875271,-0.005453723700551139,-0.021810590020675886,0.15964337104130247,-0.3239480534110545,-0.5507854173984252,-4.603597015777076,6.221217587305618,5.258625260662113,0.05464413423198316,0.021489235233885913,0.006027672029873831,0.22074255436209034,-0.3186284380252903,-0.4775367400674668,-4.387572921904391,6.6328709545152424,6.020769839055419,0.05749698155950952,0.042653981563870916,-0.006584686043721575,0.18651701240651244,-0.1856372764972649,-0.597675164203455,4.945521832317345,6.136651971708151,6.084169339261438,0.05226181760742141,-0.04306597790656424,0.00959726134477639,-0.19002302166616816,-0.35873350491567413,-0.5432303315728745
-6.355610766688539,-6.819982061528814,3.3523093982166845,-0.29147649591334124,0.06088085271301492,-0.0007386880371057484,0.21986644124732288,0.47533796672353706,-0.2678792612939103,-4.173572568513919,7.188282227837985,5.54053647414388,-0.06778616203572903,-0.024409325052720192,-0.034993073170793886,0.14938568062919455,-0.3248870983794244,-0.5456598979167797,-4.4785934679042185,6.918071846587344,5.899457772779057,0.00477933329019217,0.05364345045067798,0.005774824590142752,0.22955101014848228,-0.31377988273922663,-0.4777666385171411,-4.410068490620497,6.518972915647849,6.287349247351147,0.006289703614731556,-0.0038169943618837766,0.018323267625622357,0.1914215737795593,-0.183234959921127,-0.5983908085327345,4.544185483008043,6.255430320754948,6.20044135370085,-0.009913128144791061,-0.00803095978466614,-0.004157490267219699,-0.1812186583074345,-0.3543737250725875,-0.542932340688443
-6.287397634733177,-6.99342974522058,2.9863121581167063,-0.15647381378009104,0.0028971786684630647,-0.07348332267172182,0.22766735068914376,0.4750336810710896,-0.26540973034204435,-4.182788026695988,7.880111766128199,5.196054640359219,-0.07579323731790105,0.02734829515321374,0.03787425955824134,0.16084712065799467,-0.32238340877549837,-0.5451938412320174,-4.767042949437078,7.25672977337867,5.619308925887221,0.0011174208587398206,0.029014650819948522,-0.037650224161629026,0.22460590170947967,-0.32767340411990087,-0.47361504277920446,-4.4462008978945535,6.648580679186838,6.100722625967694,0.0007306519001207215,0.012118637348112197,-0.029005323849696802,0.19033472660070352,-0.19786749261593842,-0.5970804558530759,4.500838365647751,6.084810272490001,5.973424077372329,0.002419482797250964,0.002454185794772058,-0.003776761321363278,-0.18420125465914874,-0.3712057265930203,-0.5451655600728491
-6.6536263981764785,-7.063625330657148,3.007002221166592,-0.01211305014477514,0.004667053107866576,-0.061800676092406276,0.22377139315552452,0.47531546756557175,-0.26762000006942216,-4.529159912898288,7.220823071931542,5.025016565828643,-0.4212921225419219,0.0767001670034564,0.06302003240053251,0.1571748128409818,-0.3197398623796759,-0.5467093882455543,-4.855153565522687,6.511038557639367,5.428228959893256,0.006542511979592918,-0.05510460606770094,-0.045706278344669234,0.2310023682963912,-0.3176921475935659,-0.4784923300742096,-4.70976070758594,6.6155723882714454,6.105805006048427,0.006030420318932675,0.0325090068602944,-0.05615706677466636,0.19483206510539627,-0.18570912650316895,-0.5998171600464567,4.707217159948933,6.342367305981709,6.165013684153965,0.025156560847818334,0.002081278703671194,-0.030442328857491482,-0.1812186010053003,-0.363155541246283,-0.5490456732238229
-6.648681177113671,-6.932012331794713,3.2301992971668776,-0.009736163316093354,0.03487692587253519,0.002246818765286426,0.22202718028240448,0.47114788655488554,-0.26424140643114463,-4.532847684523649,6.13739053417118,5.683849659975849,-0.19534415162276575,0.023545822631457002,-0.000587848101014415,0.15301603096491515,-0.3175794031421226,-0.5477295780270016,-4.626536593071866,6.263616526145051,5.829443810590045,-0.04689358136395345,-0.029652361032835348,-0.01584532625226335,0.22466736091489922,-0.31596043846823113,-0.48094843185990066,-4.6209482759909,6.567291956380245,6.242008523108652,-0.04636913033015361,-0.01646895642011836,-0.016147769284253193,0.18947659013106447,-0.18347510610998308,-0.5998670667808286,4.779529012863782,6.44795864932839,6.285565349805105,-0.03611027628818293,0.037103231927766475,-0.05467222018452758,-0.18269680428999152,-0.36095746049677424,-0.5451452596473202
-6.4502848720559856,-7.074718787773116,3.2280981842373953,0.0032140856954216744,0.006511436924175599,0.01158814930543132,0.22158788071593002,0.47752777225003623,-0.2680993156327338,-4.268950824537222,6.517704738835237,5.7556304349929075,0.39546003784181905,-0.028753423948844885,-0.04617023550259403,0.15401028568729902,-0.3210126482655073,-0.5488906057914292,-4.49580640969477,6.483906056755151,6.042221179891323,-0.0414523456794871,0.038428606925974294,0.004852255805011466,0.22879788608563922,-0.31988197525394524,-0.47898331887277373,-4.312948652390845,6.486576426281676,6.048444413929984,-0.04404171764261714,-0.02459485740025581,0.010691235735361366,0.19261859739745307,-0.18862862610361922,-0.6005444913250798,4.692153017213827,6.344738921045708,6.16788681826928,-0.0475633943246407,0.034758524031978696,-0.04389539722382174,-0.1807645303547021,-0.3663359498295079,-0.5451407945972823
-6.433345675953305,-6.983350154048985,3.1177925692045223,0.01351738263633613,-0.02541125940814335,0.010223746131185202,0.22281397712081824,0.47705057309784427,-0.27029529413332704,-4.2507741692518035,7.030303736851425,5.369988504149754,0.6997365085230011,-0.040639267198207506,-0.05494016595017517,0.1554949762433213,-0.32724638841984566,-0.5424358466447958,-4.54810313452956,6.533378878742024,5.868835565608565,0.007420393151241991,0.038035350199402254,0.008648202107364972,0.22736216816858631,-0.31059577173780073,-0.47581994672909567,-4.35533627627764,6.457012650808969,6.028089919265882,0.007307772556066473,0.01932128729590199,0.012411206770415928,0.18920735681303263,-0.18394047234739966,-0.5966916309547514,4.574784943517407,6.242930544462345,6.120267464396595,0.010648125199038799,-0.0036281079757913928,-0.020157406263247114,-0.18197514164511433,-0.36047384826921913,-0.5429436519982719
-6.277941109951622,-6.737134313495527,3.1100018883368166,0.1264546258448569,-0.014681639533083124,0.05568772965436692,0.2181231139373437,0.4740715699927395,-0.2608157968315869,-4.209988354739999,7.681284718209398,5.011950364395317,0.49766488147638943,-0.07207881126225438,-0.05976789727865251,0.1520910985594206,-0.33530389442886577,-0.5269233323860546,-4.552496973653466,6.579283779567447,5.581645063908105,0.009262363474680808,0.038016426293775794,0.0077121955831534455,0.22829753154084967,-0.3242758243676905,-0.4811788414290568,-4.390462969184754,6.438661527890405,6.154361574513752,0.011682863483089839,0.02015376250074376,0.012390460358642875,0.1906464491091985,-0.19277459417344553,-0.6019951856047664,4.532882507399502,6.211566637575041,6.134592389986258,0.015256322821901846,-0.006823046991773729,-0.009061354021445383,-0.17807490829341746,-0.3682967299129976,-0.5473251749743323
-6.116865695953474,-6.684665557408141,3.3782205766975792,0.09549324328945098,0.0040555861672526144,0.08138817022087247,0.23257884205400897,0.475547550386834,-0.2719775537942385,-3.931643927760588,7.818813301189754,4.924996362981242,-0.03459490124850522,-0.040919443684906735,-0.04128668660868679,0.16356788398050826,-0.3317838286362649,-0.5386840025716381,-4.446347935627314,6.71892526397308,5.322200480900264,-0.022563686616183826,-0.005047183819333925,-0.007476686885278842,0.23464912534919155,-0.32039059675169645,-0.4762852541491823,-4.224491234915351,6.381026679151056,6.104099544755706,-0.02067866678535204,0.0016553639693352856,-0.00451094758442225,0.19551516603453375,-0.1876316989478302,-0.594428768605995,4.45660360146089,6.122880238360472,6.097852739781573,-0.013685339789715551,0.015302388616811123,0.0028918628010536256,-0.17662972280545075,-0.3614761089488268,-0.5390090647316477
-6.288540761442561,-6.954985665161803,3.680701504655635,0.0025550414639506015,-0.02418483129457654,0.03697107285933645,0.2264460826530395,0.47407371674229565,-0.2666421222729792,-4.070507964121294,7.249141999121617,5.433367227073203,-0.08648507265938851,0.030330616082659637,-0.011503324960488495,0.15745999670793415,-0.33339909045326266,-0.5313409947187159,-4.428106890424079,6.940110808368045,5.81522377361025,-0.05384106119679098,-0.02809255325143629,-0.03733966289374644,0.23027207103750388,-0.31548974099875093,-0.4753216865898713,-4.361112838278535,6.429091588054041,6.132300497357,-0.0529420154383683,-0.024450291245569824,-0.028933900589626416,0.19362630957302285,-0.17956961559227202,-0.5957153657596685,4.453063191904382,6.144667988107169,6.076838127171594,-0.04995296191548044,0.041554996657762834,0.019117265119359534,-0.178311963590162,-0.3580487001379865,-0.5414554540681246
-6.594046057665838,-6.605317863140647,3.281614183987312,-0.033111830660835694,-0.06999663188164573,-0.00967448549089396,0.22304350422177738,0.4770206018889601,-0.2666324811382967,-4.02695061825052,7.831098456408495,4.918460381179889,-0.03458658833159004,0.06522934979567535,0.004591184031875237,0.15744031232816377,-0.3290180322109908,-0.5321475095685572,-4.535883748856001,6.881609675025454,5.528328556629941,-0.03202091815613387,-0.042944534511753854,-0.06586353519973671,0.22879927625521101,-0.3157254622283772,-0.4721506697133545,-4.194217871689251,6.4820258258460335,5.903647103593552,-0.03503427089185206,0.0028707351223031786,-0.06356881947884435,0.19234753120086676,-0.18392861932188223,-0.5915438577157891,4.5176178661107,5.972647996349515,5.894013287921526,-0.019658922635665904,0.034895325664645906,0.02920093912125444,-0.1795602128300955,-0.3597575326721192,-0.5375583163742144
-6.340923669268246,-6.50372848623446,3.0730269482759374,0.021057011236181127,-0.07624388065172218,-0.00010904570274129901,0.21641649590131637,0.47070289092869877,-0.26597612533301,-4.207437715630733,7.086241943099262,4.910087138732861,-0.17635370658493946,0.0795338227991704,0.005810792261236201,0.15038300512238972,-0.3329981762343287,-0.5345338426460668,-4.507531044431765,6.347829582288044,5.514036829579913,-0.026411880426440798,-0.09514422909850742,-0.07886910038532281,0.23221806806268153,-0.32014046491313886,-0.4804407218163705,-4.384752165518491,6.4431589688964275,6.1341855761027,-0.027375288739826604,0.021124322908967364,-0.0849567322173399,0.1977449932185089,-0.18964645473619873,-0.6014811474842772,4.644686355030605,6.044459606161958,6.138944743738777,0.004751240160781936,0.030611589076924253,0.0205293970958746,-0.1751284677186555,-0.36366935325904026,-0.5470594114670428
-6.308944926884236,-6.23060583488321,3.2424922305180544,0.024809750200959296,-0.042173476535650886,-0.011383773665305548,0.2129928006141816,0.4699841167004789,-0.2655072637439474,-4.200921631296326,6.698239615355875,5.417151442658566,-0.19211805514630337,0.02626147716876047,-0.02607961061282556,0.15234259200616343,-0.33421782382670184,-0.5349982487133833,-4.296915260780824,6.200578214364108,5.749316071151774,-0.06155503899664592,-0.061977389999329086,-0.05304088542805884,0.23420262582630716,-0.3138026912524807,-0.4836155831533585,-4.285663655250412,6.394187351157249,6.0174112013715115,-0.06230832282495927,-0.021145081630896095,-0.0460589542929863,0.2000194874265175,-0.18236372223876923,-0.6054203732290929,4.733693702456334,6.102785241289042,6.123026865228822,-0.0471444574639946,0.051380346529499646,0.00640711120038807,-0.17217494092537686,-0.36001669263404157,-0.5487477760129776
-6.517857436404609,-6.356660366244773,3.455714666671282,-0.07999494319477453,-0.06412952322054946,0.01233009605679552,0.21720417830287106,0.47950676175154616,-0.2683451422111466,-4.060322281480076,7.0612890359340135,5.468885982186089,-0.013022811501201707,-0.0591100830131665,-0.05772777330523612,0.15669972419666534,-0.32568172225543707,-0.5368432690491902,-4.240999344029456,6.275627611832704,6.006562709204547,-0.048980850524269835,8.685461231228113e-05,-0.042185033639852126,0.22738306410722692,-0.3101149066450188,-0.4846103151014844,-4.07901091794991,6.336517702440941,5.888479237157249,-0.04983378351539849,-0.016370381820246836,-0.03471598291276987,0.1900222139819939,-0.17960223030885655,-0.6045282084480968,4.646478737819486,6.0097036818037175,5.980317640105941,-0.043152055921376574,0.04082158134740562,0.023517257919569073,-0.18045537385670163,-0.3536375793844656,-0.5480543254964182
-6.483222008996312,-6.634395676227769,3.2141056521149256,-0.07959331814168362,-0.07543544882764076,0.06215503884134518,0.2062284948050948,0.475476964079336,-0.27647738350599815,-4.11478762922425,7.057563461202885,5.143238357290668,-0.21660012330514805,-0.10917188533137218,-0.11175309541747994,0.1423170046875762,-0.325267124146463,-0.5517690669149964,-4.387318045309103,6.15358400970231,5.587586398924509,0.00591266978128973,0.00866776927120002,-0.020273308238140705,0.23103743009481706,-0.30963759771964344,-0.48020779327660934,-4.195384200096719,6.2855316838351065,5.8684599125656325,0.007035025977433707,0.02658964119791088,-0.018433822486483734,0.198078779465453,-0.1772009250388297,-0.6020490015969294,4.602784010176055,6.020051507293315,5.974847902470247,0.019419562070716635,-0.00113955581269349,0.04783431127894851,-0.17632895440928184,-0.35658612299972603,-0.5458378052296796
-6.009901310921369,-6.808883267053637,3.24321395015232,-0.019186502441682827,-0.06449912179467092,0.10157887452502859,0.22029455811508747,0.4662779346386877,-0.2647744193383455,-4.2359422505329585,6.731542064245247,5.238208591618762,-0.36696346522267154,-0.1138350482853348,-0.1392951045609451,0.15574558002218353,-0.3284732089061319,-0.542902953956287,-4.54848348887184,6.244349121840258,5.495224229018145,0.017020064326101623,-0.005747755787645836,-0.004281566972610233,0.2310182158140749,-0.3128079976764605,-0.4770312542912938,-4.443760346999219,6.282338762763689,5.980590173948987,0.02015246283637101,0.02829848316935427,-0.0043783048023702635,0.19776904292884373,-0.18131204378922025,-0.5964086978020903,4.511155902563504,6.133103547570195,6.100983723526669,0.023666239365026157,-0.010599605254951957,0.05088492441535589,-0.1768519128114094,-0.36073919039518515,-0.5424274951677617
-5.882400469632372,-7.010761525918896,3.400736386281684,-0.03451720050831211,-0.06144239678302738,0.06665890679891175,0.2218062735188088,0.4733690259487929,-0.26715499270833476,-4.295305061075897,6.532297634966117,5.643659695279459,-0.15079252025456105,-0.08733378794738976,-0.14053025843581923,0.15668006641273693,-0.3192093052772712,-0.5440337111101684,-4.593547860389779,6.331231437708811,5.6810088520686275,0.013709892397504113,0.012235743854485602,0.005020714867055961,0.22246907350351655,-0.3139959282782732,-0.4772927665072585,-4.517769870541526,6.319729957933396,5.948776185471879,0.015441769794236702,0.008507997379208494,0.010542824821516313,0.18776285310293772,-0.1834584638672164,-0.5991454031235873,4.535313016266428,6.133849442110948,6.090950615539706,0.005050286420276296,-0.013327537749284987,0.042958212469963834,-0.18831312115998605,-0.35849609869513277,-0.5432205568398109
-5.9419239108449435,-7.253373227014426,3.3432855905800896,-0.06769924607241803,-0.07575463909215303,0.029031254317439144,0.22592108302984976,0.4752101791509373,-0.2556488712256595,-4.267296043992278,7.306638249916647,5.541356813081326,0.02732537773613085,-0.05262270086367388,-0.08491266276822357,0.1647190189909698,-0.3180589954956487,-0.5359815650700603,-4.669830527472139,6.994495462703705,5.7828371863394645,0.018733802529919793,0.04905308575681011,-0.017881357904393148,0.23220677667440823,-0.3208692903130859,-0.4765341445368401,-4.52867072216695,6.430912519681562,6.06439183260909,0.017959316495336042,0.008447555364926135,-0.0025868069848479966,0.19649862691153958,-0.18739928665699054,-0.5951558712331843,4.412215257170315,6.155441564937382,6.033696091889921,0.0008603805740748476,-0.015411906799491856,0.02904328574854318,-0.18004401269204703,-0.3643897724483775,-0.5417164691310073
-6.045180773438586,-7.059307888441428,3.323980055470558,-0.03424086348498864,-0.054137203576381084,0.018871382401187305,0.2159656088433444,0.476337427606254,-0.26813085322539854,-4.196770395961673,7.6393691024722745,5.157517742228099,-0.15419085900164284,0.019792195451836622,-0.006839941705291774,0.1527697615506404,-0.3168609395829618,-0.5484741218401858,-4.747194545325687,6.964459870687065,5.479423556270271,0.02779470401744599,-0.0013660951876343337,-0.04839895451888289,0.22906468800073107,-0.31769029017130995,-0.4855765379072558,-4.526859338511102,6.579440182623034,6.103428550803573,0.028479851823759648,0.028578492737782964,-0.04702129204874298,0.19511029888332643,-0.1842700140701199,-0.603486975623548,4.624916897465583,6.125162354305904,6.0370163411632465,0.02515894441815243,-0.018814042207941088,0.028659284735703512,-0.1812088883486763,-0.3616896988954321,-0.5497769227480985
-6.061288772440497,-6.878752599652997,3.2810920894115303,-0.04491355415172242,-0.04367262634350857,0.006751721833767945,0.21842152304645343,0.48263302390040586,-0.26318864575018786,-4.278843637816154,6.777299206954738,5.312709044303564,-0.3798994362193152,0.09638451615953784,0.03291044762591682,0.15954874051853135,-0.30509876748854586,-0.5479278318309087,-4.689456224512017,6.598678317932176,5.5730403289973856,0.00023240142933624315,-0.07592521159664872,-0.058176057021594035,0.24056080615163625,-0.3118754040767734,-0.4848244094820559,-4.553689411467344,6.614214024122423,6.253725628544752,0.00035661659086972514,0.025372731379109947,-0.06141453522555264,0.20538137038453702,-0.18042540555497888,-0.6019797753772888,4.800355970430924,6.1948154289299895,6.193696541726285,0.018231056749723678,0.003012847467119958,0.007563900179684001,-0.17217597410337082,-0.3578217021494319,-0.5470361961273118
-5.991455957306121,-6.909510629954604,3.0970719661141755,-0.03718817071682593,-0.03834413411453589,-0.0068385410536674785,0.221840555258621,0.47754369567683275,-0.2702952771578874,-4.472809842768197,5.687340451538816,5.83990970325391,-0.08574330834535553,0.0884083377889771,0.017467392947529782,0.15931609022616233,-0.30592177448728297,-0.5532861919645214,-4.498898439590441,5.926677067607376,5.894466166516228,-0.04854975159239491,-0.048040146096897426,-0.02342900811612602,0.22614106237032486,-0.3140139444961206,-0.48192382882360996,-4.556568883694497,6.445205253008202,6.1873996930507555,-0.04866848765521722,-0.021123407240612412,-0.025961624003540545,0.19532947503915596,-0.18203457880265805,-0.5973970047715895,4.857800680736687,6.267067012194325,6.29464645548397,-0.04303014757264471,0.037795424390509105,-0.005415057619058947,-0.18344146351819493,-0.3604684819643337,-0.5427077868518487
-6.341545122597535,-6.685607002011886,3.0755309012229204,0.06277878571355339,0.0006796289460186576,0.004130505880334747,0.21744825146851052,0.4766062026865605,-0.2722730497202847,-4.50577257091532,6.531326298695749,5.54402143890249,0.35816484419285954,-0.014359159748444756,-0.026508069858502604,0.15715678920525708,-0.31514346121202563,-0.5492287491674108,-4.603244851935915,6.150722815933377,5.991212163646193,-0.03880230124696327,0.03695801746686726,0.01698520808994248,0.23294828501388054,-0.31598561237095385,-0.47214149236075953,-4.486151079627876,6.337748338492733,5.959235598848249,-0.04089382086474853,-0.03748130689082334,0.027197557718254353,0.19991996175667415,-0.18250956541328192,-0.5905274210566898,4.654901295734816,6.115913572908632,6.161088113775302,-0.05798141920398007,0.030744033035665773,-0.018976542883102375,-0.17736858195184427,-0.35903572000342104,-0.5360802776180233
-6.342048341470386,-6.503153587163539,3.322079592898507,0.05572653736608566,0.03845610638116786,0.02541437347617603,0.21498386097199518,0.4756057820120202,-0.26765244457002163,-4.322157647753151,7.662269559765053,5.200266314636569,0.2203256050890709,-0.06374090036955835,-0.00954521645709534,0.1503241162628364,-0.31706751289749774,-0.5455442845423204,-4.7350725453173474,6.956658194601475,5.774106867041434,0.021504858825357995,0.04256027858951879,0.008317967737613032,0.23124425451663252,-0.31769230464813414,-0.47751480461070944,-4.50304867870947,6.408785668265094,6.033733648930721,0.02195161710553776,0.008499519271034425,0.019068014385697753,0.19723804666219538,-0.18470720505079913,-0.5934596825473518,4.435284429698775,6.120708736298777,6.094124728492226,0.004289232342724186,-0.014633078067071911,-0.026589656564030832,-0.18200070808109747,-0.3621868177572895,-0.5395277352998891
-6.325537023004095,-6.561510827469182,3.242388635021128,0.009030266272734677,0.04356296988348278,0.04515665098270999,0.22085970140472094,0.4782665143948095,-0.26834041506090167,-4.246679184403994,7.422991098905043,5.088708227511901,-0.2176964866580301,-0.025917334112603982,0.035440700306932145,0.1586096130573921,-0.31338681914895544,-0.5468134269286775,-4.657418995155052,6.611862340567962,5.34219425272519,0.016673851064903496,-0.028461966127397285,-0.01222690900548074,0.23224415194031495,-0.3157488672233895,-0.4845952392808561,-4.5397257687507135,6.468822908263999,6.16122855388547,0.017648633550085426,0.018905429933550044,-0.0210385694105476,0.1968229035694342,-0.18305605691236482,-0.6027516939032145,4.61624053198963,6.320963150967388,6.1610483323060805,0.017714553464998194,-0.01802939263945742,-0.015979870793845587,-0.1785302081578719,-0.3612137665150328,-0.5482964651145676
-6.403332248269636,-6.856353801704758,3.4583950386317692,-0.02270468779223432,0.06305430425623564,0.03978674671318616,0.22156448210661336,0.4750658489444653,-0.26543359018877516,-4.3069751054497285,6.2737504058187685,5.5006209840767175,-0.22525909389143103,-0.0136957206691177,0.006834494901962641,0.15960117486419456,-0.3151563002647734,-0.550688705984959,-4.5290076903084655,6.167326406840567,5.5957770714762045,-0.043114171125615705,-0.02783633732926263,0.0024964168807763754,0.2317494020696517,-0.31598878689985194,-0.4819101066743868,-4.508283651964536,6.443668248417175,6.180045700348067,-0.0417563537338681,-0.042394963294701854,-0.0018989847532200218,0.1970610319046564,-0.1815777160328845,-0.6003177672116269,4.765010752999198,6.297458803797519,6.226185355963004,-0.0592173022747094,0.02602713433413114,-0.010028760773833873,-0.1770828539149186,-0.35805170234633626,-0.5429136537776871
-6.33187690686504,-6.753826637053332,3.5670016347771796,0.01609443589096099,0.042349900473512433,0.01128775412716534,0.22305635847868985,0.4772875422480167,-0.26956045204197493,-4.169185903101013,6.692571458813096,5.6589269858764855,0.1299494512119315,-0.017871055593120886,-0.04860109613687145,0.15740334534527764,-0.3144707318579702,-0.5529021283046646,-4.411463201761613,6.163582074333638,5.812994709091883,-0.05232003562895951,0.010118540915270435,0.025828792974709566,0.2319888763675008,-0.31280942401869855,-0.474100147664852,-4.319749731649218,6.236736471515643,5.93280129910931,-0.051034615283584515,-0.0638774345523569,0.032171119624064756,0.1923867728743799,-0.18200145086724925,-0.5954624705875241,4.617255352377329,6.119245565402712,6.10125792317938,-0.08631758732324549,0.029880429629404685,0.00015636129983390265,-0.17831916161290687,-0.3578064094400624,-0.5399901880833397
-6.14443682714452,-6.7582811318274105,3.2839693783934356,0.002638845095845625,0.03026266881844644,-0.016953173907713,0.21354992852169022,0.48098999827747746,-0.26834796087806073,-4.128238770371703,7.333717903473694,5.424211270394281,0.14279464257354568,-0.007564775006334359,-0.044981976306037,0.15128331419071192,-0.3113059512067474,-0.5517440660883781,-4.526151669408005,6.698662631262914,5.736707562624223,-0.0071794076323253315,0.012347327658441275,0.01404350525132525,0.23493726414015592,-0.311361984569631,-0.480441967165858,-4.308050867740031,6.31917034668361,5.931651821390389,-0.004684979259580012,-0.031041554279660634,0.027851008495926814,0.19973176552093144,-0.18084400272363457,-0.5973759307561577,4.4495591711773015,5.995560383861496,5.992482533848687,-0.04137782634709538,-0.004787622745305867,0.01340779703151303,-0.17439659310846375,-0.35586678769630326,-0.5414311623437232
-6.204720798753408,-6.802443205435026,3.346867702391254,-0.006494980151559188,0.03908829021074418,-0.007195751123509839,0.21302533237603688,0.4794712654417111,-0.26103764860993356,-4.133152933574634,7.233778396188807,5.377120145076774,-0.037956441896891215,0.012913030513189455,-0.004323516449992936,0.1517509491653742,-0.3101683037007547,-0.5422390000874193,-4.496202057333145,6.717766210332133,5.647084548770016,0.022801433120497167,-0.011635252542917432,-0.006696303152787242,0.22640067856936819,-0.3135320479494971,-0.4882716756355256,-4.304992812227057,6.384720284220226,5.987454319671606,0.022553730552858815,-0.0027048241583873507,-0.0077693499355639024,0.19222675137196346,-0.1806088492016176,-0.6067041864583173,4.513051084380089,5.978378135533624,6.02081764133479,-0.00246144074663089,-0.027070326586810186,0.02071511324937092,-0.1804703244296597,-0.3599835361722394,-0.5497708318110224
-6.337562677040893,-6.725310415149709,3.4789991578697053,0.006666432348804952,0.031861251640614756,-0.00162515003376017,0.21843450017300003,0.47855205474106577,-0.2720099009508212,-4.137540225785345,6.845070525673661,5.617830551348789,-0.05192543278963006,0.015405206697819218,-0.005026409972045343,0.15786089994785285,-0.3083417851469585,-0.551538819462457,-4.379829746912505,6.385379321842368,5.726638903839079,0.01079715608196815,0.00157735868798216,-0.011971978203750013,0.2354170701897863,-0.31453805122112816,-0.4819033575243818,-4.296602521597926,6.354593686950565,6.069676546436091,0.013244910961865277,-0.010250628961096082,-0.015745116275029513,0.1963056776870871,-0.18400711332382996,-0.5993306756207667,4.641824362729994,6.018372242016256,6.096117754187784,-0.014099018075069462,-0.016965488198847956,0.023289288277953353,-0.176349421662659,-0.3604932298944389,-0.5448654566271576
-6.236453217759456,-6.678505893739734,3.304148515522019,-0.007876635817809018,0.000882723622357345,-0.018641921499677562,0.2223333294057395,0.4790003243231151,-0.26954989160211035,-4.214306983822841,6.753927650139347,5.507470547335792,0.0770451165308614,0.003147476946345902,-0.024313975767410213,0.15860219590052885,-0.31214965958574337,-0.5458580221971961,-4.465429174737851,6.308982065202813,5.689320797202709,-0.00466397114599365,0.042588702168336864,-0.008463652566477247,0.2283472769967194,-0.3123141066107615,-0.4826524420171366,-4.354403204578742,6.292632430336659,6.029887474182808,-0.004352907193101046,-0.0303929699823686,-0.007006593724420623,0.18975633276523418,-0.18228319871330181,-0.604023264299759,4.5950655444259265,5.977450819851216,6.090336242032841,-0.04243804428536753,-0.0028306577778348515,0.023631353215124343,-0.18485856480240476,-0.35533018609433786,-0.5475927488274096
-6.151792138703865,-6.766145088490561,3.1902761138411475,-0.03976014364648059,0.0009010833188095343,-0.02224388005865417,0.21911865584818577,0.4757963815946986,-0.26348345558815683,-4.1946379076827895,7.003191655670311,5.396792999800368,0.07443549534874294,0.00823779329201564,-0.028614138181418107,0.15593091850108862,-0.3153319201747811,-0.5455640977193168,-4.526332781086693,6.382283175291109,5.701008744821046,0.004261157653628412,0.037758454478701096,-0.0065414410362535,0.2266348010580686,-0.3152404035914751,-0.4863167785382832,-4.324963610985544,6.283607698720243,5.92926098999838,0.005653973377215732,-0.021625352371949052,-0.0018404156701064313,0.19221052785382509,-0.18108395570521313,-0.6047480771546994,4.556355385153744,5.860435184768731,5.988164204143969,-0.02693614442879805,-0.013128834841974614,0.011331261183252509,-0.18580319937659445,-0.35361202641448053,-0.552234068341918
-6.174397344717291,-6.823544687961102,3.3668129785117085,-0.011838868283695608,-0.007846199315343751,-0.01809492951257908,0.21595736125394666,0.4722133864504815,-0.27158132297932536,-4.171429233615542,6.74885112678365,5.578816442086502,0.025874801229785395,0.0007444823732308771,-0.02803272597010581,0.15620179195749612,-0.31907805331971684,-0.5506286324492824,-4.446307021619209,6.35835952928046,5.80955738336253,0.0440799390694985,0.036117220350115956,-0.0055130558504761845,0.23686336737784172,-0.31649357828013475,-0.4767716318530978,-4.264392154362362,6.268579277506694,5.942632520627823,0.044911778140126826,0.013463003738389484,-0.005846945923483212,0.1991899221648724,-0.18742428240777387,-0.5961150683306732,4.542132926148944,5.889826760426374,6.002848693008679,0.01920837919086729,-0.04170597881996432,0.003098141302223568,-0.17586428848377977,-0.3590331195856504,-0.5431520326618415
-6.0299705215317365,-6.920445185359814,3.2891925459477824,-0.007554751205131529,-0.012890966819353412,-0.008788162475221604,0.22398110221084797,0.47113950392191056,-0.26447776173362786,-4.2035314836791695,6.734236215227224,5.424585363914656,0.15852036426268498,-0.009827181584343233,-0.03524375147645349,0.16450914062584218,-0.3239928632210727,-0.5402771472062816,-4.484156956050045,6.319505518117233,5.676176752890525,0.06833886295456498,0.06308638504443799,0.002472511294635427,0.23099169834028194,-0.3198893376129791,-0.47751356801393785,-4.337337653295135,6.347624975728743,5.952378797406037,0.06540422141006756,0.028042161421973192,-0.002331258356951918,0.19382549204080501,-0.18763919769986032,-0.5973699463571067,4.701522390898893,6.069848246401095,6.069610919478274,0.03669497828186826,-0.05377288658789009,0.006027257576968717,-0.18271349521148236,-0.3607171614795142,-0.5419710211881865
-5.98759122161425,-6.881878718261006,3.1858270962993602,0.0037422186465077578,-0.004001557700533736,0.0065916933007406225,0.21256303041208224,0.4792843127529185,-0.2681212120907161,-4.2243132601341165,7.036750392726145,5.182565683901796,0.20579485548726992,0.008709981548148206,-0.013306045934258805,0.15350297890452613,-0.3187283688022562,-0.5435579421828822,-4.64842538534683,6.660135433234925,5.546131069381683,0.056716066045455274,0.05284071444568829,0.005154712814190991,0.23077040749694985,-0.315006812998286,-0.4792270118413137,-4.46408676749895,6.550571980496514,6.133631480802278,0.05665177202650267,0.020147603275574664,0.005603617537557534,0.1909716563352497,-0.18179561234209163,-0.6027984409856543,4.76667316235366,6.141923596450052,6.127216734220965,0.02747728310955546,-0.04821639304713097,0.009435586968594971,-0.18657890159904167,-0.35581458200669114,-0.545893841853431
-6.3340771172598,-6.730820920871798,3.279351080301452,0.0244825207240417,0.014501339373248897,0.003949467986796454,0.22156827462800205,0.4772474449764246,-0.26346241049881264,-4.3233394967047545,7.256678447351144,5.241928565414743,0.09620375257811355,0.03232922158844428,0.014554455516245833,0.16009995756049636,-0.321535454049627,-0.5381282745110383,-4.694857726011173,6.706666237880405,5.558136009093094,0.019710093101317855,0.029215526343593545,0.0012988966102711913,0.23002479650378221,-0.3164659815629214,-0.4755654296222659,-4.525237761704904,6.609814028073714,6.213246779159341,0.022091200987509167,-0.003124777905139045,0.0030558479957335503,0.19117814952401221,-0.1817586852907286,-0.5969370740839945,4.79920754297,6.225772483014125,6.157986665028108,-0.0036304112070386185,-0.022737484203927433,-0.0006076738796089368,-0.18586559627591775,-0.35679652777066445,-0.5432049807501723
-6.595308781094444,-6.633974911716693,3.48538556130624,-0.031634162340001555,0.011202548960310693,-0.009840605715009084,0.2233205231328122,0.481673401981718,-0.2685480141763208,-4.201889881019799,7.182761055973936,5.316673494058534,0.07072643673028431,0.02687665131949224,-4.435411509362021e-05,0.16423323063379228,-0.316235369028149,-0.543581982833517,-4.533107369933505,6.564326881536062,5.773112610262211,-0.002851885507107932,0.02833961266486021,0.0028448534338419555,0.23881930668484544,-0.3160125792473572,-0.47725579645092053,-4.319991282468163,6.51995118703601,6.130075727353113,0.0004861420933441283,-0.01373443008066219,0.0054359456605526,0.1975250540946548,-0.18131035743260446,-0.596410311800999,4.823805789927523,6.123672344121237,6.107087491688362,-0.023851136243474742,-0.004755879726267004,0.005630063403238743,-0.17950991710026085,-0.35584416754149883,-0.5439005784859539
-6.328277859733656,-6.698642961673198,3.3122123122923353,-0.03297161351381623,-0.03283847696098985,0.00430167306731576,0.22134068789789105,0.4758345266454932,-0.26982262205743196,-4.139193659633361,7.160256551878807,5.258227585225707,0.08926105589985506,0.020204694705875048,-0.021357044142046828,0.16183062384625946,-0.32407113262636766,-0.5441878115694926,-4.4683856151721395,6.491956617858854,5.759813154450007,0.014293950431240232,0.013464718272257077,0.009054990774042437,0.23126865889743223,-0.3106111729056182,-0.47605649268545774,-4.229992362692057,6.469370171469792,6.0789200888816435,0.0137969380109713,0.005025039806803691,0.009436926112959326,0.18999305661550014,-0.17613128653065196,-0.5964939273890026,4.809167697168348,6.094148532763712,6.122201018354867,0.0023725926760073766,-0.016080655060389797,0.02476283725307979,-0.18438473962361937,-0.3502122236278328,-0.5414800539314251
-6.17821666878798,-6.7090825376982535,3.1615585935284685,-0.015795454413749837,-0.02369424890791174,0.014637557977786939,0.214716763234258,0.47411253692292865,-0.26375904683765483,-4.303176366392741,7.18085564048456,5.118248115254285,0.0190062715821219,0.014168792655868777,-0.011324510418628446,0.15622212951292433,-0.32811242716202826,-0.5360712418637001,-4.644682981835373,6.682845726573124,5.611754907645309,0.016951850316447786,-0.0019358772115423432,0.0026722116814691544,0.23075288437624314,-0.3172004288705278,-0.4750752590373417,-4.460980652528205,6.473362507518183,6.158788823630903,0.018101457905235444,0.009562548241557093,0.006570174870799313,0.1948069703304049,-0.18420879574353424,-0.5944559807112766,4.664966838975481,6.114271907470063,6.119711444723068,0.0031313706774922755,-0.013589354239009253,0.03554612905854677,-0.18611961119947404,-0.3572862899879032,-0.541741938922617
-6.4229260509708235,-6.785442945441472,3.2484310060078116,-0.016540569112215995,0.011502420728440202,0.031164952315541176,0.2164381150923586,0.47920060764336353,-0.2600492476349395,-4.4641943865889235,7.069148802874991,5.328448808106072,-0.022632323153647826,-0.011158088424017767,0.004072078755458583,0.15646063013892272,-0.3273589236446779,-0.5348622956693891,-4.6977193765824525,6.477677551501299,5.7486831038502135,-0.006489222403903077,0.0018860968063420477,-0.00023155437760642706,0.23173461822496408,-0.3184287872937442,-0.4794671526192024,-4.5646003495616485,6.46041859421676,6.108068234427479,-0.0023253657160870315,-0.005316688734645129,0.0018918457086519029,0.1928795309918667,-0.18471223437479112,-0.5988595152167409,4.677185786319362,6.007764919006335,6.1349404379988846,-0.012713883569852901,-5.480534804471852e-05,0.014122542403761804,-0.18806463938014079,-0.35873989924621835,-0.5441964764555451
-6.500714364032025,-6.81357569177808,3.3459760687924147,-0.0003127328253477507,0.002582808081602411,0.03640839724010876,0.2242308213946617,0.4733236442992972,-0.26299460930009144,-4.3322764827231595,7.130131469659404,5.34063203056665,0.004758606296575211,-0.035887027202564536,-0.022872395385629966,0.1632914469162172,-0.32657699909672633,-0.5338879768528085,-4.64759167444126,6.462429215604504,5.771068863194549,0.0012448442972739678,0.01557687700786187,0.008222075063965833,0.2288241923787939,-0.31231184656482347,-0.47752439954358655,-4.427725316915859,6.427132948613662,6.042333918921812,0.000960704875900281,0.006956200922791215,0.012156992591228311,0.18999758279884085,-0.17687390818465212,-0.5979540666264298,4.699527237399059,5.9695087624102525,6.079176054812575,-0.001885829914235215,0.0003374840999896289,-0.018722383369027294,-0.18926952919213658,-0.3538537992314999,-0.5437084670426059
-6.131441440169942,-6.7871363086042855,3.3181940090642885,-0.013819156088575889,-0.014940417870014582,0.02714141742556797,0.21320141886622623,0.4701541434446901,-0.256226750539864,-4.161119822836013,6.997478968481449,5.271798296943461,0.00947793746456744,-0.028459868333356755,-0.03674394967699779,0.15404114152143897,-0.33387165551498466,-0.5293854473589686,-4.515911922904512,6.480598336342995,5.586368199549801,0.0004987691634647824,0.004464594484051711,0.011834487416637514,0.23320759200610647,-0.3135477603938814,-0.4748289168939635,-4.323427682526089,6.435524916887826,6.116733986443176,0.0025223617425059607,0.011363267633596252,0.014254297489782025,0.19188096879941338,-0.18247157657605975,-0.593265599845841,4.731524350748297,6.104287007493547,6.091513057835334,0.003286116115185933,-0.0010801715941550912,-0.021478351547655976,-0.18561720813293603,-0.3546013398178745,-0.5424690308997396
-5.933604504327388,-6.859286547674702,3.2690915573484034,-0.0411223805220926,-0.009639167973323388,0.024219962468556313,0.22033314785295985,0.4774672733602678,-0.25955941801467547,-4.196312067160439,6.933473016449557,5.295917507894506,-0.022676237400551948,-0.009249272392318115,-0.026622306315691565,0.16133383058700307,-0.32561048672195414,-0.5339073968684235,-4.523236529600636,6.482339534433656,5.609615019955099,-0.01684114149100165,-0.004801484388149751,0.014918540241941133,0.22809784077373865,-0.3142673261282339,-0.48411640037966946,-4.342112552393351,6.459124616122969,6.080167124559029,-0.012825018599840369,-0.0007771256360046909,0.019208702992644062,0.19290961892651695,-0.18154742606626756,-0.6001012289866928,4.743679826252425,6.1769473636450885,6.096929343389077,-0.014283699691451133,0.013500580602502006,-0.002081640823914031,-0.18850384191175276,-0.35214194582563746,-0.5485852974585108
-6.158734064510162,-6.916506130066933,3.2540303355928746,-0.00845071719793539,0.002394012083574763,0.030733548834851746,0.2193523129593718,0.47746477777148544,-0.2585872751838339,-4.271692594129377,7.159884222637887,5.179309932616439,0.008085512689559905,-0.004189520268426061,-0.0034219774206462775,0.1586516985024952,-0.32659099449674045,-0.5334063330153697,-4.623862605073984,6.649166538184066,5.684182417653373,-0.027085901388721693,0.003237934977360231,0.016742883384973792,0.23100237736979595,-0.3152476021713057,-0.4741003015362303,-4.421529814872647,6.500706303879552,6.073517083535941,-0.026517018516180504,-0.007925567345482254,0.023588058700638456,0.19261425570842056,-0.18321604113680026,-0.5942329182147766,4.754936881783943,6.075161759834989,6.061903686610457,-0.026325392293440334,0.02335488031363949,0.003941053048621266,-0.18565248722554323,-0.3577801516567958,-0.5383218646770812
-6.340113554684695,-6.726691504891031,3.2578837521753647,0.004296737009303655,0.005205945224472996,0.0339670616685145,0.22400779495713322,0.47095097375284617,-0.2715594056015902,-4.281455338939545,7.312813068978037,5.177583523382707,-0.056122839412757614,0.011063794017615,0.019874891652172755,0.16407048333319219,-0.3314652893495706,-0.548943960203788,-4.663692897437336,6.78049400246065,5.589936548884854,-0.03931193512499706,-0.02388530280974371,0.003503431091783053,0.22732941594383063,-0.3215854483880459,-0.48045011426546275,-4.452869317088861,6.453924912302448,6.087236114257885,-0.03736516482821405,-0.0016888341746630201,0.005711917759464485,0.1862834977176267,-0.18761263548543292,-0.6013258376698086,4.613019903847826,6.121411589166919,6.040845948027041,-0.019226242081748283,0.030613375056887278,-0.0009221328756547932,-0.1883185606668335,-0.36166864996733256,-0.5444453040941573
-6.281516068109981,-6.64304256178937,3.2977030263036204,-0.022104963382094382,0.012824179200728768,0.030459295210228717,0.22474852911935622,0.47990321400109276,-0.26171997592103513,-4.31421813210969,6.953435845773646,5.283888868505102,-0.08524139885232344,0.0066374737335874075,0.023922525517491848,0.16328427155968508,-0.3241813341483247,-0.5366134940457938,-4.579261408453663,6.34368335140009,5.665369582504419,-0.04671360431069924,-0.0178319409545211,-0.0033554935699378,0.22348005502864474,-0.3108338767088815,-0.487303173653242,-4.40255213554003,6.331807981788818,5.995189484836099,-0.044268194144867934,-0.008206979623589239,-0.0011417686325481675,0.18517386387444687,-0.17763648315285654,-0.607746152877904,4.6204175147424715,6.121940257716676,6.065998060395906,-0.03112709566886506,0.03906323797671504,0.0016316506966413324,-0.1909052394695972,-0.3506604288711981,-0.5547010083152214
-6.345128069931399,-6.776702895140171,3.2816221061239608,-0.016823082967912135,0.0232185333600256,0.04171901682763057,0.21934027413783858,0.47116013270599655,-0.26400791681236674,-4.217747701434999,6.756513481126279,5.281666590365547,0.013719981180905562,-0.013323749940669333,0.001852038043375755,0.15550508700097884,-0.3310659357901033,-0.5372441301021735,-4.478927496427699,6.25877102757747,5.659177280783025,-0.028329494844478015,-0.0075660141517945815,0.005898931912773499,0.23029804392174277,-0.31207652204551267,-0.4811844151173182,-4.287698022810587,6.332835923518031,5.889251624904281,-0.025667431063299145,0.0004874921461054632,0.009467582216081976,0.19219344752108475,-0.17959166535334584,-0.6006068449989326,4.694563930121952,6.141564048665866,6.033020256418744,-0.014923015793927777,0.028240054085711713,0.02497242122522883,-0.18484761416978937,-0.3545964858806061,-0.5490558565062955
-6.584921670107121,-6.732334220217416,3.403195968427355,0.0339205693234425,0.006551839118144628,0.06668189965757935,0.21469945786008604,0.47190315927324467,-0.2623113659594564,-4.235737799655879,7.126803236303861,5.325006909371402,0.1520860265035361,-0.03937814030975871,-0.029148629163490286,0.1520922404974943,-0.3336891862131113,-0.5325661705083076,-4.5296740734094625,6.515445194371046,5.714655530272877,0.0007443527915111887,0.008197470791310583,0.01781700571216666,0.233688244064487,-0.3150136614767407,-0.4736056856754089,-4.350930470219744,6.411645808851696,5.984981985659595,0.003108673667936888,0.019699515207862117,0.019746446860169173,0.1909024106199689,-0.18246321615674554,-0.5930280730203431,4.692077085105219,6.087158567412504,6.095891050945716,0.008355931712827135,0.0010634360672253107,0.04330735114205779,-0.18417394361661057,-0.35461154372746234,-0.5385539629033766
-6.41450042379135,-6.727419969040119,3.3833279897293185,0.005054348234178969,-0.009326912153557292,0.05207791321287247,0.22740097553627658,0.4703999965140726,-0.2659350994541905,-4.327646245736641,7.424402114875093,5.407838135139011,0.08869535282558097,-0.04179534650701239,-0.03842410008711291,0.1640586058546795,-0.33227450695452354,-0.5389190085932645,-4.656488128667954,6.589527521787762,5.582566024317943,0.01646463556098257,0.024229922261373476,0.011011953507522,0.23222325600167434,-0.3162297323161715,-0.4758048709084674,-4.499949514119834,6.427332720712762,5.96799592754224,0.01726398380915508,0.020481347333772944,0.012601974148147716,0.19388208638974033,-0.1822877461940666,-0.6003339716371618,4.627974226949644,6.012945898498511,6.0915934247465,0.013515236904261058,-0.01089332987186779,0.0389280042478981,-0.18562212944704448,-0.35728618057627226,-0.5434482029391248
-6.321643015198452,-6.890443472557359,3.383921875556717,-0.04777290239925128,-0.008543314278891987,0.01658597815878498,0.21887944051764593,0.4772558685328586,-0.26274093966039824,-4.3230243911651165,7.1596634835383615,5.310582484828741,-0.04672251874152708,-0.015907875682953886,-0.04137957916295591,0.1535140112340146,-0.3239513676514699,-0.5346801990401223,-4.671535161972412,6.5117461674488695,5.541051497668322,0.017136840402646826,0.033110914469917305,0.007947193151045986,0.23564882239838641,-0.31551282434872324,-0.4779960554803203,-4.513571967493052,6.419125735999828,6.046019904927503,0.01856181545136263,0.01178336484985067,0.007932621758590231,0.19436789340629096,-0.1795843231514403,-0.597174460378238,4.634493162085469,5.9555288062930485,6.145961596541809,0.006925063290043093,-0.016907261658047304,0.006284863694243575,-0.1812182425136942,-0.3546174387325308,-0.5431766263390093
-6.330380761602648,-6.900304361579154,3.299661870041195,-0.03752300063119034,-0.02627859280705236,-0.009289446577316937,0.22476203278138718,0.47992998783020296,-0.2651378443815214,-4.24668402585507,7.144992480140541,5.198385301951318,-0.007976492855381448,0.014823392306844894,-0.04296949355351328,0.1608392693842353,-0.32323252191127183,-0.5376105605936553,-4.618272701752856,6.627009485221406,5.5358210778546555,0.006136715525804279,0.033024546713449544,0.002716477300943592,0.22762495681107597,-0.30889229099240845,-0.4814367757704193,-4.434806126461221,6.418798055314355,6.06574834840176,0.007706051154140137,-0.00768815918899354,0.005467528225301598,0.18880446549438298,-0.17541823178389868,-0.6006566151114884,4.632430637471257,5.956124492480658,6.108264226989257,-0.011233308116996105,-0.010763645431497737,-0.022065296525848623,-0.19019035029158943,-0.3470078269280413,-0.5490766900002595
-6.246319409692925,-6.8259146826501125,3.387282055574801,-0.009474963609108858,-0.03629689275906367,-0.027766822101981604,0.21838671477115687,0.47435061118391575,-0.26545174804078225,-4.221304109571643,7.359144350498474,5.3080703955814235,0.016699612090688386,0.038063641583163915,-0.025100427873822564,0.15793634712016583,-0.32815740836467583,-0.5392421079419872,-4.599027265230216,6.714686012984441,5.676286913506857,0.0006411552815131256,0.035359716618981255,-0.01502934068847762,0.23614757257443655,-0.3172302457493745,-0.486049605815078,-4.395658862421178,6.369782801822051,6.030489023560458,0.001334280555864671,-0.017473404071800355,-0.009370482086949013,0.1936675304494622,-0.18502020616071432,-0.6076416892205911,4.5617174046650995,5.9584759459872165,6.026407861650277,-0.02399490087267397,-0.007368959235158804,-0.037669477855435125,-0.1833762479954804,-0.35655198655035253,-0.5517360057020906
-6.255766147710275,-6.748302713834746,3.3229812082752974,-0.048156721677195445,-0.03422853820712763,-0.03420569003116788,0.21742212970758948,0.47945383930822877,-0.26175244197526637,-4.272421926726837,7.230580667567101,5.229755941421227,-0.05813774216904888,0.05133386070570591,-0.007309673284927119,0.16011111895156233,-0.3242047019052041,-0.5371074105098871,-4.621981010688276,6.522694652579433,5.684731088024275,0.022201426079441786,0.018964781501036646,-0.026057476233454002,0.2324847723803267,-0.3152598396263075,-0.4821531095109339,-4.36853565489567,6.388867678331101,5.9775671316142835,0.02292654438746263,0.011386482775166957,-0.031565799854597884,0.1882768732083844,-0.18250419129264428,-0.6020784425342697,4.66788118987039,6.0509915501158975,6.011540143311878,0.01053989299744015,-0.019831099235623928,-0.03930419891957281,-0.18874222217073353,-0.35701784309617507,-0.5529873748839194
-6.294072599153707,-6.801983246777449,3.1934733954654155,-0.045016942121338645,-0.03472850236282426,-0.028922998559612667,0.21203782407118754,0.47655610995582354,-0.26228543298271295,-4.258585629369959,6.911105437120266,5.229542898248312,-0.05629176114034363,0.044782613069280795,-0.012802692349876245,0.1533003909705769,-0.3293717876306821,-0.5375201797851286,-4.555777404734314,6.412902708093065,5.620843058843566,0.03276498728627362,0.021699481976379123,-0.02504686357784395,0.23781906893990717,-0.324557472641514,-0.481890038172723,-4.355642791262922,6.434694482068663,6.050048944281646,0.032847832402674075,0.020600264765263457,-0.024635048123494305,0.1989724429297037,-0.1894157288019749,-0.6022066361125578,4.770523273011384,6.261677070816449,6.105033324494329,0.02240180882303668,-0.027247956594267684,-0.02403470783872815,-0.17758172733694816,-0.3643949237871097,-0.5453648567603273
-6.42869747250749,-6.666204942128104,3.219471103499557,0.018347794697162245,-0.037909591357333336,-0.023331363223583448,0.2169177446051027,0.47942390375197413,-0.2576045095347774,-4.39471703437842,7.022006796420365,5.213837736109299,0.019695011757657095,0.021436647336608265,-0.026277203196528248,0.15816744726819407,-0.3280253997453061,-0.5314298309726272,-4.64860581790588,6.47466807846206,5.667459466526163,0.028894097575326814,0.031060524548436177,-0.015211796938017776,0.2287797311553501,-0.3218309992059962,-0.4740997639142586,-4.484129278202657,6.46274839577066,6.070532886526394,0.02842763888178371,0.011653030884265933,-0.01433167250593047,0.19184040990419512,-0.18783911548788654,-0.5927424688813169,4.73913226743483,6.314271558752616,6.078754829148797,0.009531235659420611,-0.02436987638230292,0.007564663701438637,-0.18858816379832255,-0.3599652626096019,-0.5388297260597057
-6.393808604827203,-6.651939451797902,3.2246058825236674,-0.018736603207549656,-0.029724738442713998,-0.01316636972574751,0.22177680774272268,0.46920390487425956,-0.2652336613463574,-4.407498402031313,7.10571692863859,5.132916313519671,0.018662724244790523,-0.003804284093502853,-0.035838559378117155,0.16284029494332927,-0.3330040458463934,-0.5384197315874508,-4.741296869767249,6.546561435338013,5.6087526739384215,0.02173707651184792,0.03664906784170208,-0.014425795439156492,0.23172565412885165,-0.31720264701086,-0.4731201498106581,-4.525058561862648,6.447020834096825,6.059151172952611,0.022154100083253175,0.011287382211497545,-0.014524483271799043,0.1923634791915881,-0.18419031027322774,-0.594228144493981,4.701048218208382,6.346679824693787,6.0658148459492764,0.005944311463618922,-0.015456341531506516,0.02976648507440735,-0.1900271813076438,-0.3562953694897659,-0.5407864738965121
-6.162030314346815,-6.879834558766379,3.09300537122597,-0.04286474538601957,-0.012830006928995219,0.01872287283494838,0.2135050742784096,0.47534465212106763,-0.26448621051440835,-4.412816360173699,6.8808973848333554,5.150753040641032,-0.04411858517223884,-0.01595725564219782,-0.04052933355940425,0.15867324069807157,-0.3298299423481663,-0.5372596014656017,-4.708466571105379,6.3698967855138475,5.560899817322778,0.008470314516620336,0.026597997513791393,-0.004024283942004822,0.23880929057893877,-0.31356427035034423,-0.4682247802720828,-4.514527812771607,6.478341798000065,6.108163052948726,0.00866769941663767,0.004942954086719137,-0.002137729103372456,0.1974839103421385,-0.1797949326308371,-0.5886072316487888,4.806284624922648,6.2012433725018505,6.105459543333577,-0.0017313191819972825,-0.009492954555456104,0.03921795162547495,-0.18200505114572182,-0.35486970533174816,-0.5336601375043872
-6.162646872440592,-6.968916865036376,3.2526172796624513,0.024956951657957048,0.003389209706526917,0.03643654921239906,0.22011132155634897,0.47823786492099035,-0.26419343654513855,-4.3710172128487805,6.813769817346732,5.229947414931372,0.0047871512925821876,-0.025640466838644363,-0.05123095959279219,0.1645129328899752,-0.3251932470870649,-0.5390368628868619,-4.664895611410295,6.345937472657342,5.623842582115036,-0.013560051267614765,0.03184579133347896,0.009639886045186218,0.23490179553746598,-0.31477163880890846,-0.47018525034482805,-4.46202667660722,6.400311119588387,6.079132948366386,-0.011982089236359727,-0.013210068611682882,0.014851991038461583,0.19457514242285195,-0.18176138986475304,-0.593740602289889,4.71701705303669,6.12663035283991,6.139286283399868,-0.026109283491151807,0.009038586430641513,0.03793611668205499,-0.18685874113454484,-0.35606474867902055,-0.5397915895257716
-6.1569485477502575,-6.848348303080298,3.2918277372543647,0.04268762703907799,0.01315036955514602,0.038011120245734234,0.2218458324795791,0.4845612759231402,-0.2621839741406421,-4.394551784040691,7.1333655382098105,5.073281217767396,0.058929756488250544,-0.014827100240299648,-0.045902920982216336,0.16204148945750807,-0.32024905936191556,-0.5347281310434308,-4.790951764833693,6.630546209906466,5.576074145228785,-0.0077903852629634925,0.020576174501907466,0.010808500465913593,0.24319614290355485,-0.32286919248122825,-0.48163578693900366,-4.519815211023764,6.415769008856926,6.099651336225803,-0.006711300220182347,-0.007843120852852157,0.017504359960939332,0.20190608577320546,-0.18796461338378204,-0.601220885276974,4.6116944408715375,5.967228737980715,6.079355520005856,-0.019129639904198522,0.004177117698423181,0.0249210109519902,-0.17707869427344297,-0.36048983777224447,-0.5453575114540492
-6.098030885931608,-6.699084424334504,3.2154377780608683,0.015256637536462302,0.03557840965974708,0.022820845693449325,0.21547617871139094,0.48189355665617345,-0.2602769623981348,-4.3294791061998215,7.282332044054526,5.054031212571686,-0.0181742851031001,0.020193816781767425,-0.011150758125600343,0.159617030663885,-0.32437739696572876,-0.5327097113182585,-4.7487827163765495,6.808110763992167,5.54163313097884,-0.014412504386415266,-0.026374309011430123,-0.0015197537567502905,0.2346786956283639,-0.31428882324883023,-0.4789751475891367,-4.500983736706251,6.557248032271462,6.194770745232052,-0.012056491424347601,0.00034610741144100763,0.0012595718297811927,0.19339646425287588,-0.18032019937897734,-0.5986410556113003,4.739174277680794,5.971429584509768,6.147872625275448,-0.014092614851857466,0.01063820594306711,-0.001562906891052069,-0.18902093560806307,-0.35336517445155086,-0.544195524589901
-6.287721280957563,-6.593325837747445,3.2905736770306993,0.027981284390055417,0.05844094958824128,0.009553693532214746,0.21966913849549746,0.48316529675644737,-0.26952779129971016,-4.306731004164322,7.0576461533440895,5.272184393924698,-0.08281970944226731,0.016409957461616668,0.016669839381540198,0.16399968564408887,-0.31843420250525817,-0.5435455400327375,-4.5636151938614065,6.645812064851792,5.644505231880618,-0.04689304703275792,-0.029435197692572683,-0.006922477503229431,0.23976962468429233,-0.3238310993236621,-0.4794454056663616,-4.4144545086466955,6.592768228019083,6.17862837965361,-0.046771688997757556,-0.02753020404018845,-0.007063121321528893,0.19749807413483658,-0.18890475476153493,-0.6002666051368465,4.878512394415764,6.047758130967568,6.200569402476635,-0.04691426910661448,0.032657179606540195,-0.022132889968061866,-0.18098294017819602,-0.36145062537201095,-0.5463573339899792
-6.407447617783951,-6.664009900085091,3.3448500756546116,0.0014490289898810823,0.05430391387317321,0.013103601682036529,0.2159323060959897,0.4714393470356078,-0.2662162786902927,-4.331260292604364,6.882178839115169,5.344818682789635,-0.01038625288861831,-0.01700523715742381,-0.0016275936696363942,0.15965788417373028,-0.3299029412366065,-0.5418954100669278,-4.5641919105058095,6.271996199360398,5.753919542109366,-0.05300706545439104,-0.001956078686050797,0.006897053580180688,0.23540863598326658,-0.3120903361726857,-0.4736043393953627,-4.359281165579094,6.480946650000059,6.051692289340095,-0.051071342268393306,-0.041348921322060986,0.006384287775988319,0.19361469970122086,-0.1805417402045553,-0.5949760032308169,4.898047808581785,6.0725524133978315,6.1792484669171825,-0.06277698927256047,0.034286701977706606,-0.02417913574478539,-0.18488025250750295,-0.35216432549669,-0.5414850814068873
-6.371042618056066,-6.7362890507507345,3.2166537931232315,-0.023729783764301796,0.04181264147112857,0.007075048035620538,0.2218010716656151,0.4752913346442353,-0.2632328045154825,-4.266067573492556,7.202878551620301,5.192325048604678,-0.01022885046856957,-0.03271541289259124,-0.029175141325431794,0.16403822392674958,-0.32927952209521044,-0.5350616520801199,-4.623452092580626,6.429379307653566,5.631999472237991,-0.028440558035397204,0.002747817484434696,0.02124136548594366,0.235144775022695,-0.318683513478185,-0.47628556792194077,-4.334448085630339,6.371361220927851,5.986032802985735,-0.022251046409987613,-0.022500860521175066,0.0300114193344334,0.19092081174452746,-0.18469390545460923,-0.5981404721298622,4.677951292305232,5.995802718508564,6.076089801419178,-0.0367794288840347,0.012704900018463422,-0.022054845737050206,-0.1861211681248581,-0.3555790111825025,-0.5402749342680189
