# sampling frequency: 40
# units are seconds/meters/radians/a.u.
seg1_acc_x,seg1_acc_y,seg1_acc_z,seg1_gyr_x,seg1_gyr_y,seg1_gyr_z,seg1_mag_x,seg1_mag_y,seg1_mag_z,seg2_acc_x,seg2_acc_y,seg2_acc_z,seg2_gyr_x,seg2_gyr_y,seg2_gyr_z,seg2_mag_x,seg2_mag_y,seg2_mag_z,seg3_acc_x,seg3_acc_y,seg3_acc_z,seg3_gyr_x,seg3_gyr_y,seg3_gyr_z,seg3_mag_x,seg3_mag_y,seg3_mag_z,seg4_acc_x,seg4_acc_y,seg4_acc_z,seg4_gyr_x,seg4_gyr_y,seg4_gyr_z,seg4_mag_x,seg4_mag_y,seg4_mag_z,seg5_acc_x,seg5_acc_y,seg5_acc_z,seg5_gyr_x,seg5_gyr_y,seg5_gyr_z,seg5_mag_x,seg5_mag_y,seg5_mag_z
2.1080373607062337,-6.207974288899466,7.245923197853732,-0.0017682452205561394,0.0015738290593606762,0.011942768855332178,-0.5390833263284068,-0.26026079391253587,0.2835692108951834,0.004289180707247521,7.533363752791572,6.285235657951732,-0.00808396957225937,-0.0028342103572037,-0.01105394086314487,0.5458260703308611,0.2138211904000396,0.5137045968113192,-1.3131669869635396,-6.030500694613627,7.529957401652061,-0.0042382104929522,-0.0004938729794560427,0.0013878149363633027,0.6069400257819738,0.16331443573715465,-0.4677787730643961,-0.6684822019373321,-6.125554547986006,7.745871307639637,-0.0038547233868507073,0.0038766140205378522,0.0071177069584688266,0.15216126515938558,0.42221864755103544,-0.7751743166219258,0.21646097980844337,-6.158513995070695,7.678527065774253,-0.006383971380109865,0.003627436251190234,-0.0019255922884892022,-0.3054101452805727,0.40696541541079223,-0.3730155141280597
2.0569240866528165,-6.216801081181859,7.234880762137656,-0.003447000299165003,0.0019823160819529705,0.011295475460943952,-0.5349471043073242,-0.26247462581958814,0.2750213894955735,0.004874291700975614,7.521222509309861,6.278514906740534,-0.009917000854849813,-0.0034043486472977104,-0.011262247481411082,0.5455683084219893,0.21499272652481174,0.5107556412493127,-1.3120024361663023,-6.011116583035073,7.537417186149672,-0.004659919023821016,0.004303821230257434,0.0023344094562472066,0.6201567240495319,0.1712797349757144,-0.4692268203510982,-0.6921324322638004,-6.145258638110954,7.731405273633977,-0.0016955656930777718,0.004390575763048398,0.00433012245200868,0.16559856050829885,0.4258661654936883,-0.7748555634821768,0.21213675011480349,-6.139565704088617,7.68478447357742,-0.006490713203227638,0.0035251090925012387,-0.006008312991132494,-0.29439105628177875,0.41002777756225217,-0.3728493103676857
2.090973816987538,-6.210551744084701,7.250499386500219,-0.0023443241780631177,0.0017199361988352074,0.012273016850802617,-0.5378261445862189,-0.2539146699535904,0.2774716081888072,0.011799895928755414,7.5378960453854305,6.293367000627151,-0.007903107902144177,-0.0034314224587698385,-0.01103465973179582,0.5413926194655071,0.22278711361427536,0.5103967086117391,-1.288320331868318,-6.026497638941516,7.532539473855749,-0.0031656120754357934,0.004596619840268288,0.0037214529732225595,0.6183937425508536,0.168523418640572,-0.47429791712555874,-0.6715922504817147,-6.137898359419304,7.7267145599420015,-0.0007056500196191703,0.005218834666805742,0.006229901425412609,0.16529241053407362,0.427584867397849,-0.7797306508616928,0.24042053221251453,-6.160669990123905,7.676855246427822,-0.005959426720415477,0.00295990290859635,-0.0035949200179810517,-0.2934205973954223,0.4124740169501483,-0.3765092862428791
2.1036020619956117,-6.206508917195156,7.232239403894607,-0.001511073385196968,0.0024667535061812713,0.011464512042136455,-0.5395161409246113,-0.2507317330704184,0.27869579084428114,-0.005894808334219841,7.523480101276058,6.250814388046002,-0.010385605492924083,-0.0023045857131162657,-0.01192396432551882,0.5263241654159774,0.20870506065668837,0.5180067560529137,-1.3026475300287088,-6.016666514477406,7.556248974517807,-0.002132022017905843,0.004994966960745114,0.00377122409520164,0.614304732602845,0.17736420921013174,-0.47245077047456674,-0.6729017448586214,-6.127898499981184,7.766624594979506,-0.0018660260417948196,0.0020399892201439737,0.0052518942100008015,0.16042538685819657,0.4329597219334596,-0.7789243176430553,0.22043194151048284,-6.155883928386044,7.68763474733408,-0.0047747693481458384,0.0028766511729553758,-0.005243065963836563,-0.3004455421803554,0.41914287826951246,-0.3778889704356306
2.065363160562841,-6.216925425295838,7.252357935481262,-0.004634594677741662,0.0006736774712515105,0.011993551802438543,-0.543466825280951,-0.25802581399375246,0.27112109285687414,0.008478739368265943,7.534843078848194,6.297027489176952,-0.010202308584958623,-0.004070461446120074,-0.010486120405227551,0.5370378349118655,0.21800995075198373,0.5175718132436247,-1.331333208909513,-6.026220471676048,7.560604327889683,-0.004475129212513006,0.0033378318315878475,0.002598080097947644,0.603540118762168,0.16530094292991623,-0.4668072122429439,-0.6898364363863149,-6.151594703379985,7.734274142720773,-0.0024292791108647257,0.003270255436723022,0.005439681367515914,0.14754983684183137,0.4227088874930172,-0.7731596782743941,0.21642950012991252,-6.1507490804471425,7.6927561465217495,-0.008577640625779835,0.00324926492920642,-0.003825223224179281,-0.31464142388481847,0.4080163931533517,-0.36854113851626324
2.07619272242315,-6.2178442002738725,7.246595902901218,-0.002473921462257659,0.0004521722848705307,0.01171791307457842,-0.5375675492084117,-0.25147602274270425,0.2784497294550183,0.014149029412182943,7.547850678288923,6.259678159616606,-0.010280157840041953,-0.0010463233926335986,-0.012723292621874722,0.5407057385772572,0.20665396637789793,0.5094452944565347,-1.3015034712385227,-6.030533654393769,7.550034416285346,-0.004945120228942889,0.001740425307874052,0.0022985958037487443,0.6099872451507651,0.17657591463919226,-0.4619053586869428,-0.6684637452685103,-6.146366415651242,7.750974262924184,-0.0052773871616021125,0.003783202605197439,0.00502701111940132,0.156899342118821,0.4339198499890668,-0.7686212841765097,0.21682507037527743,-6.149497106951284,7.657863614762838,-0.006863131993717109,0.0017773278911606043,-0.0034423975371997944,-0.30182475237556033,0.41666003171349225,-0.36445937531080635
2.0826974989626463,-6.180054013383483,7.269190267994328,-0.0026604394801603586,0.003030396237754407,0.008260247781671445,-0.533917533237029,-0.2534488499930571,0.27649422490403486,-0.002628277741949188,7.5366812924127045,6.269853152776506,-0.010810263758288198,-0.005011449322906702,-0.011572600190111929,0.5367803284617892,0.21521841191504004,0.5112710559597734,-1.3135451610574318,-6.023293027307389,7.520024422171699,-0.005599882679081858,0.0011110235057317235,0.0017364094419895833,0.6144750824300553,0.16224037479142994,-0.4714830807453359,-0.6777622517307684,-6.127967065899177,7.743156179254095,-0.0027264822034887663,0.003510672982282782,0.004872996511955325,0.15913493724234312,0.42222656771793776,-0.7833225293676961,0.212815310111532,-6.146859150044805,7.696876148581944,-0.004156095423524007,0.0012156184213330565,-0.005810064000015708,-0.30033253789599346,0.40595619265912436,-0.3777006073699902
2.0827547781931277,-6.200346918701697,7.254817162455308,-0.003235304428044113,0.002906051310093207,0.012455256080907518,-0.5261309401087115,-0.2578873387760754,0.27477967809013293,0.0025380974501205203,7.5167156048492405,6.285511597287151,-0.008944337156584187,-0.003660891551653137,-0.010144165164092223,0.5338394059830093,0.21490900511019279,0.5078677630833198,-1.2980952657510516,-6.037723410848127,7.525433352924545,-0.005364376776175542,0.0019102395811236204,0.0018871397791200182,0.6106190974686664,0.16936726867761479,-0.46985504711159154,-0.6789221434404162,-6.140577931596845,7.723944319490469,-0.00710339408908007,0.003079480342892376,0.005934691502762528,0.1577660158225832,0.4307603844777978,-0.77669647800541,0.22530884464407025,-6.167459863794703,7.67732121892523,-0.011051824790326268,0.004961413621636015,-0.003847796990353615,-0.3028865483356976,0.41475039016587834,-0.3725159187693041
2.081006526270881,-6.236273024995654,7.234348488566372,-0.0018958427309426662,-0.0013325574469279123,0.009794203438267392,-0.5417209040313772,-0.25193713922453187,0.2757651653740667,0.007408631500956515,7.530332883946635,6.269779996795042,-0.009487913343081411,-0.0018732742542892345,-0.010202938692474578,0.5360390129466852,0.21294668580824705,0.5069156185761367,-1.309922802406627,-6.017353021356112,7.521841938912678,-0.0030222617741498515,0.0035673957336723695,0.0030612913039906485,0.6054620897758847,0.17005845445334308,-0.47422145431660817,-0.6748627893411194,-6.1319332286493315,7.701973837651288,-0.0003168722893928802,0.001635988174338431,0.006962934772467694,0.15136425522109026,0.4271128154383975,-0.7805258631132284,0.20946931929341606,-6.152939392499402,7.6490783791241705,-0.0033935393585887022,0.0026233649448114873,-0.005405469173720594,-0.3075689214787131,0.41285629731395634,-0.3754154401121925
2.079104622572217,-6.17834857070386,7.255465515992575,-0.0011130851177595048,0.0010807100936521105,0.012218195661148202,-0.5414749704227549,-0.25169675872234626,0.27820633043901394,-0.0027574986106760624,7.534358668824664,6.262312007529571,-0.009733150940954621,-0.004005667185029418,-0.011249909518008253,0.5483030148143365,0.21177344407582416,0.522276282527527,-1.3033285046110197,-6.026503969888738,7.528831521341986,-0.0042800653198481866,0.004074792039310759,0.0018239549594774803,0.6105999237232395,0.1724674880273945,-0.474542959477532,-0.6609907037251006,-6.158443047386179,7.734475390355757,-0.0014013776772956706,0.004148163402494077,0.0048958429296481875,0.15601467361002458,0.42710590749416644,-0.7796098204896742,0.22510104120518334,-6.157267048654909,7.693522905820636,-0.00562268463732886,0.0025667068443599567,-0.0026662782008375985,-0.30441552234084157,0.41160751242205235,-0.3764225663063821
2.0770356369233816,-6.214232891925291,7.235117944887845,-0.003014574938188147,0.0021971287842393597,0.012014578937587235,-0.538824637572859,-0.25732096992513526,0.27087677314466213,0.01606553175317243,7.534243410406753,6.2564056409291355,-0.009987984897854402,-0.0027226305801839935,-0.01066821739580139,0.5374983960861913,0.22060297875850726,0.5119114525517529,-1.3088849549891377,-6.021851579493465,7.551039470545041,-0.003061709135808249,0.003504134574567287,0.0021364437860684387,0.624118421190177,0.16871377537078042,-0.4601831856795929,-0.6772262331295208,-6.1236586015575165,7.76344726330783,-0.0013722254949858795,0.004896596694430728,0.006217024127587155,0.16984405085648005,0.4256025087472646,-0.7675861448793198,0.2173134110429085,-6.141555012214399,7.654285406889796,-0.006770023832658021,0.003973417915718376,-0.004893111318199355,-0.29161978144203415,0.41118323278624247,-0.3638338972885222
2.093973018530554,-6.191905500633362,7.246449392517784,-0.0027079211047320874,0.0030602179438908215,0.009899284743173881,-0.5431867759000716,-0.2519245794982138,0.27137047404044096,-0.0025806258828069834,7.53375827009033,6.275000169271839,-0.01095622510395232,-0.003638860745375504,-0.010374676618926017,0.5402030178507953,0.2172380382547192,0.5146443523882629,-1.3040323285808195,-6.011409229030176,7.544623970272801,-0.006163452728184805,0.002314097959168237,0.0019870599142463464,0.6103732823989337,0.1746779286899059,-0.4738435670357419,-0.6785410426013541,-6.1358049663948435,7.744585365596007,-0.003758411749574186,0.0026307732175898085,0.00541488378437385,0.15722684460847822,0.4336989316608715,-0.7808340834547889,0.22112118195816494,-6.167033119420778,7.696630204514028,-0.006100011321012698,0.0023615751909698895,-0.003420240561848309,-0.3033736708985429,0.41843531583324683,-0.3768918126705243
2.0877118679821853,-6.202305311648983,7.271797411802336,-0.002792834075398572,0.0014902021062875447,0.01157190336589918,-0.542955043147334,-0.2541260263892629,0.2747864659194123,0.001528346831240101,7.524089155869376,6.277275674142711,-0.0088344580738252,-0.0035723198624118195,-0.009526920769190995,0.5326395934898992,0.22045764631701292,0.5187674744895615,-1.3013645232101594,-6.025037534884153,7.538849924979014,-0.006019128611916314,0.0012828375062789545,0.0013249221432576255,0.6125928553052491,0.1693985424064051,-0.46718545239395826,-0.676420209328504,-6.150319429306745,7.716496992314383,-0.0044843490606635925,0.0036070319870060096,0.0046582313968759675,0.1585117314190054,0.42782823706700374,-0.7754908284665195,0.23281146180698814,-6.147491248257835,7.69745930312526,-0.006911193213851235,0.004196589540036452,-0.0043360021440577365,-0.30116027035699583,0.4154611005458839,-0.3713060980817634
2.070837593540806,-6.2175734133393075,7.234024232443815,-0.004335968976612501,0.0015318085652919512,0.009884254830443829,-0.5373564290715677,-0.2570934505324957,0.2796656798299506,0.02244787653434156,7.536903231751426,6.2668462087062595,-0.010703827112726995,-0.0037552665806301296,-0.012376898119046345,0.5389648203763804,0.2176423816971976,0.5097581899477707,-1.3139753877479248,-6.021584111201199,7.517747765030892,-0.006202887019443377,0.0022518522593162026,0.001063196607515927,0.6060488120201433,0.17363325154271586,-0.46402621308464587,-0.6779600847260321,-6.139234816135172,7.73427020104541,-0.0031260186969165205,0.002200587186028327,0.004104638003919014,0.15052464236750596,0.4324654994136316,-0.7704936103992379,0.2211799291637468,-6.1406584750395234,7.679987455927086,-0.00696439858658567,0.0025024394040823955,-0.007142713654911505,-0.30964118840717264,0.417232599991015,-0.36561384459636026
2.07515612685304,-6.206563608378582,7.231681163140969,-0.0014299979699297111,0.002118729008049905,0.012071185534008032,-0.5417327246175684,-0.253888798655984,0.2742984275865375,0.015285968545279242,7.5436341320536515,6.268105354479278,-0.0070068711746957045,-0.0018305273722438536,-0.010737216207224497,0.5384910165644963,0.213002574763947,0.5098367174588984,-1.2943076253464854,-6.031982269295093,7.535630959694455,-0.0039002222302735555,0.0038437631210664226,0.0013135317368109856,0.6113162366612218,0.17073950557815507,-0.4754987164707053,-0.6741371769392426,-6.118746330198932,7.7307963557560795,-0.002995560379166368,0.004498528772369429,0.0056255042350826685,0.15698332218962227,0.4283272650386982,-0.7803532346929677,0.21360958713466052,-6.1553469459814085,7.672108356489206,-0.006859271718698309,0.0034232761347136095,-0.0026775671783478734,-0.3009733653918351,0.4149960169602484,-0.37765783208063103
2.083629634620915,-6.2006620615519505,7.258160704322054,-0.00010881775436600171,0.0030544945036166857,0.010337749127528207,-0.5378068217473628,-0.25074333806287685,0.2804044321976495,-0.008670475040138577,7.5278657599713386,6.282061681131103,-0.010955223147151711,-0.0036429068943579046,-0.010377613413263717,0.5382449171899144,0.21225275166555868,0.508872848474568,-1.2923602501570466,-6.005198070793313,7.525071523606822,-0.003584816341069147,0.00477049595053005,0.003313933793360998,0.6091170388953694,0.17050746912425277,-0.4754780217677564,-0.6719033031901723,-6.122709650576278,7.743213469054255,-0.0009123057400043141,0.0021158282180481873,0.005827576442095479,0.15746352413406167,0.42710668383806044,-0.7808499404662441,0.20933114679411774,-6.136139173879764,7.678629476036009,-0.0030557790597476645,0.0022311546194629683,-0.004475831587767432,-0.3017086783088706,0.4142693938387263,-0.3771667865091102
2.0793638277351265,-6.204346728341506,7.2343062810789105,-0.0036331073228359338,0.0007394217076922128,0.01238540607808034,-0.5302856435814718,-0.2585982323738262,0.2774658938942171,0.00918062583007118,7.528073224514118,6.298051428476982,-0.009805134245597575,-0.003321919258012531,-0.010653909370229087,0.5401831336803369,0.21763793998513253,0.5092650226692573,-1.3107625335056972,-6.039465512208375,7.541287266526012,-0.0032172942188159227,0.0028334663081043855,0.0038373692277927788,0.6130682539356633,0.17178324961001565,-0.4706448589464248,-0.681237970290062,-6.153773190396367,7.736337278467891,-0.003923122062942536,0.0023767718025722476,0.0044684706643046196,0.15869696864843594,0.426859473723656,-0.7798895198348037,0.21787453793252495,-6.16501486285944,7.681287597140331,-0.007337448844805232,0.0015731660208790526,-0.004196380597683906,-0.30024782741405776,0.4115566779865097,-0.3742599188877251
2.081786603727283,-6.222005434433981,7.243405050316091,-0.0030135692475951534,0.0005595120732964204,0.010421118396303936,-0.5297868193996834,-0.2568910591646502,0.2762463132000705,0.004311065854267382,7.533986336474328,6.255797049584517,-0.0089128690003716,-0.0017178543043499014,-0.010345503214983863,0.5487464141501764,0.21304548495859643,0.5105330019372689,-1.3116080569017172,-6.040101363495229,7.540631647484352,-0.004371215658487264,0.0022473462931845087,0.0010130396366902917,0.6125730876026243,0.17273992302271962,-0.47212115880893585,-0.6889776150088308,-6.150097260103835,7.753865492584329,-0.0014034059632427802,0.0041461694395507126,0.004893865515200671,0.16139184348164223,0.42929761762387914,-0.7794321272734777,0.21380027366588375,-6.144759449728871,7.670683661522104,-0.006149045942233701,0.004781838534512968,-0.004311832931613435,-0.30170958385860436,0.41377939364629224,-0.37667979165144305
2.0820770730938203,-6.183522614049828,7.2503152950894805,-0.0026632538639004937,0.0011163517143266903,0.010537543248136112,-0.5349253511734945,-0.25881334434486114,0.27575764880043113,-0.007044184902822805,7.538347461703672,6.2701817023776005,-0.010594951442416999,-0.0036667144661001517,-0.011760650107749904,0.5365332806789213,0.2211537097281047,0.5158121875657953,-1.283844067659998,-6.015467058917469,7.552097663242051,-0.0056924172375741496,0.003915545296502742,0.0022894735255957754,0.6220823134081168,0.17000642679463657,-0.4719073178605365,-0.6757739127630178,-6.1239188861078375,7.741920808246537,-0.003566554919997537,0.0008398575103099236,0.005778934448928918,0.16822864412363558,0.43344068271863295,-0.779757858147469,0.23370390542838992,-6.15290281958579,7.675142572940373,-0.004718781331455562,0.002108288962826002,-0.0035826437717323394,-0.291209562298662,0.4141628493545137,-0.3770094611231554
2.0673321995131366,-6.208842260105639,7.253888738904359,-0.0032847973952899053,0.0012952713822014222,0.012503830457837576,-0.5458000114952528,-0.23995530448139907,0.2818796806848996,0.0030940891485192364,7.533807432319796,6.290203107059925,-0.00959480257863444,-0.0019710179615456546,-0.010831042870947116,0.5406590955977479,0.22550290181315338,0.5123074849446108,-1.286435337687141,-6.036610526961026,7.542931133869518,-0.005599848379885639,0.0011160384195800974,0.001737331104974912,0.6089602178893814,0.17527281475445067,-0.46749291098600554,-0.6828242228659507,-6.14390581939251,7.722485959460745,-0.0038949709012165022,0.0031242061789752956,0.005789663067047104,0.15631658554194588,0.4322250753654385,-0.7756975373338815,0.21755577930768355,-6.154699422986484,7.679660949309199,-0.007476354605849731,0.00426179125216482,-0.0024910112666467255,-0.3057836443926499,0.41721764587062526,-0.3715048417573087
2.0993725328298276,-6.2294013860484,7.244611867749434,-0.0023139382585987793,0.0016731963631976528,0.010654968308989708,-0.5366233920209725,-0.2570979921167868,0.27990952620877735,-0.0016604883858723392,7.529624444739332,6.2832687126111555,-0.010878259557512785,-0.004333837691958554,-0.010985513272448453,0.5394931812479042,0.2138749713752285,0.5181210153229272,-1.292387197974492,-6.005151930873263,7.533640313598584,-0.004474066360733312,0.0033438879681104367,0.002601977989238349,0.6123531139167915,0.1776187764089788,-0.4724395880992471,-0.6721197737395416,-6.129200164219657,7.722760957346733,-0.002802690513915295,0.0027076100490169013,0.005990541687165854,0.16093554194031187,0.43564135391802855,-0.7774606968958913,0.22175445779436392,-6.162383953847145,7.672462270651486,-0.006432553837484728,0.0011147422361503362,-0.005113754381548164,-0.30041901423110323,0.4193747061276981,-0.37495810228573406
2.1015907720232248,-6.197296843881038,7.21983202045158,-0.0038143940982484636,0.001411560040704566,0.011198041699990825,-0.5390428049801399,-0.25317548008441904,0.2774725154806633,-0.0065186207164181845,7.5491149352861555,6.280224894695608,-0.008473193953424982,-0.0035981904395925215,-0.010913927239452687,0.5428868717341065,0.2159979516655249,0.5129464741286884,-1.3135490935303682,-6.036300668610657,7.519200189643117,-0.003911485653014366,0.0021428186697588537,0.002351303922251583,0.6128167003801822,0.16718047006564435,-0.46837377830614757,-0.6776471891060939,-6.114121062356433,7.727999114977437,-0.001772776131387188,0.0035855139167045896,0.0054476769123270865,0.16000543427136898,0.42782240278725636,-0.7733132491338611,0.20968491734899458,-6.158235359459186,7.68878831466226,-0.006238747436259303,0.0034072117909511824,-0.00247972241151529,-0.2990066955839016,0.41055326643353185,-0.3706121225617875
2.0699029961052013,-6.219291279992798,7.2366638931784895,-0.002004065354903192,0.0006282135196054181,0.010807973668873446,-0.5390766278056383,-0.2587873335584416,0.2740495188983431,0.0125722876958861,7.525601680024839,6.270182788491768,-0.009953079183078849,-0.0019512866823773924,-0.009452946157602884,0.5414355450860834,0.2098661405304492,0.5115878685330503,-1.2999267384678213,-6.017510628030432,7.538051255303801,-0.0013856126386574575,0.002827991669532294,0.0037892275905055724,0.6169933257844601,0.17397398601475386,-0.4697323574468437,-0.6808154780363597,-6.138938283831229,7.743454052069684,-0.0005791775935549527,0.004717424149544403,0.005849238558002158,0.16283622094099734,0.42905386756253244,-0.7809166829856357,0.21745219128934856,-6.129376880868592,7.66220113395479,-0.005335854132193541,0.0029478040211395186,-0.003396083793563816,-0.2965691648874987,0.41470177142443654,-0.3762301684359801
2.1061588614685047,-6.184648239895937,7.240809370666707,-0.003422641947154894,0.0035692153936385347,0.011278884943796062,-0.531256610624771,-0.25761222808464906,0.27380496948328603,-0.008226831264362112,7.535640858419455,6.297315491944217,-0.011452306822056797,-0.0044973860873416685,-0.010850818579022366,0.5460588797773517,0.22219052241125548,0.5177156712867761,-1.2926228565170352,-6.023018793273211,7.53602714979587,-0.005731840914434524,0.0038552993239483703,0.0013655789447621252,0.6142422507092489,0.16347295423317143,-0.4707683875876924,-0.6655593514786358,-6.1412118149775266,7.759931907682037,-0.00501744164398239,0.0027933758987378483,0.004264618557102359,0.15969730687624897,0.42197117945619966,-0.7777149096203678,0.22961313551449847,-6.152361503716965,7.676612482679696,-0.0060964066214075465,0.001542045572996174,-0.0038026869128632095,-0.2980802954432894,0.40713375094937126,-0.3725870044906782
2.0805401407166095,-6.205572925342056,7.236817948987978,-0.002317741847115281,-0.00023883783995747878,0.012927265767219882,-0.5461526226333497,-0.258260928480119,0.27893443495613923,0.008521245356889692,7.532692292992815,6.260763795302152,-0.008730024830175544,-0.002316159696790286,-0.01033221160853197,0.5360408286823364,0.21567986316574192,0.5098007291867687,-1.3078596019906699,-6.033878429922385,7.551246107881744,-0.004043127827492612,0.00024807095090680976,0.000612611764391654,0.6187639805948332,0.17746981319569874,-0.4641847810513833,-0.6714142823805705,-6.1249139581122,7.74308877769587,-0.0038366461313495636,0.0018277163164692137,0.006530455384528145,0.16860238529467905,0.43488652899580815,-0.7699941072248039,0.22153723072482465,-6.139463685141684,7.671055100487759,-0.007049336334554961,0.004420722648683373,-0.0037769137540776703,-0.293774524268697,0.4197720993557998,-0.3691517849707967
2.087244032881712,-6.202814563975486,7.239221039791525,-0.0031087294382503012,0.0008926042741472932,0.009831434477711275,-0.5412212354307101,-0.25023801157082504,0.28357858111277634,0.013622347326621664,7.51270580543959,6.27632579414482,-0.0109841511348534,-0.004428545677268613,-0.011611670897465369,0.5372608173661734,0.21989058546349427,0.5131452487849352,-1.291926593722567,-6.004693616307701,7.542637955594246,-0.006306703378275401,0.003353414275877772,0.002653064302422541,0.6117997309487974,0.1702451180299102,-0.4757387960950432,-0.6763810331789248,-6.1217668939719925,7.729775868779917,-0.0029070237412882624,0.001157108871224133,0.005788894283688449,0.1579714783736503,0.4297897866492713,-0.7796303094585388,0.22565147664861646,-6.147111463246968,7.663881268908269,-0.006572299954538867,0.0021593889478539203,-0.0041732320423689285,-0.30096424992636955,0.41450095451221547,-0.3759508888827369
2.081219716842419,-6.211266172240308,7.227983731929021,-0.0027574140719778804,0.0014494380159990367,0.00994785912010394,-0.5336431916089046,-0.24832381650487517,0.2769877372302155,0.0073894216017448885,7.542621915845794,6.259898984348879,-0.007505970487809681,-0.002681029709259481,-0.011211480532659284,0.5409397952982756,0.21849747585818194,0.5168182693406482,-1.3080481724879869,-6.028520518016947,7.53136899543599,-0.005324871430522902,0.0019815308406277883,0.002813861897116117,0.6106747363195045,0.17455068070781593,-0.46627377400786946,-0.676532895290691,-6.147427791643606,7.714149857145919,-0.003824843019434782,0.003925287213588384,0.0046661933272765885,0.15416069678853828,0.4324653143132912,-0.7724945005044234,0.21747804385636918,-6.164606039727692,7.6896979064149384,-0.0069984349276230136,0.0036454194142205173,-0.0021184786659889676,-0.30453457523701016,0.41939920438595757,-0.3707740184622429
2.09447271393782,-6.196238580981379,7.228536420759932,-0.0011241481727891944,-0.0005688436356183688,0.010633726947962843,-0.5408041233239926,-0.2619520653186303,0.2750230511885719,0.0014517406333453657,7.53888317463615,6.2746283794445645,-0.011424824203924532,-0.0025522616948957895,-0.011046176720937786,0.5389921182826456,0.21232374564876888,0.5130207082095843,-1.3032112721919835,-6.01797857587008,7.525049078561646,-0.003061643783809125,0.0035092118708325284,0.0021413648420273938,0.6162949802999099,0.17308205632438123,-0.4645852447599444,-0.682357490403028,-6.120761481734347,7.737697935636543,-0.002143160442505151,0.003023861412386785,0.006000499602229745,0.16004847816486445,0.4319667257947831,-0.7703755401570364,0.22103590248078003,-6.144556533215007,7.6849746755708495,-0.004716319678735184,0.0029327496708239933,-0.0031982267049502637,-0.30083907926290543,0.41811816520436734,-0.36519445233927184
2.0885673432707974,-6.206671356069481,7.253732337953917,-0.00443592622644472,-4.61302296448348e-05,0.01156986946838437,-0.5429843419667401,-0.25925707005741416,0.2794209003460395,0.00539149480561002,7.529100637992805,6.277031361526012,-0.010118373396931947,-0.0047736844105695465,-0.011112843108248453,0.5343447694800811,0.21449940377501112,0.5125114864258591,-1.3015608494021247,-6.034756792260141,7.528619474251618,-0.004095225682942505,0.0031138487456979815,0.00209054696065006,0.611122536377797,0.16890994470782733,-0.4676544892160952,-0.6820647007928355,-6.147906886454069,7.743956143195157,-0.002968401847867403,0.002452609718465738,0.00504413977190014,0.15901034712153433,0.4258728242632073,-0.7745240683370457,0.2294220139357164,-6.15836836517121,7.671800923991326,-0.006905993731842555,0.0025565504683959083,-0.005100882401927729,-0.30198021331841535,0.4086419937145347,-0.3735257522356049
2.075948838656464,-6.227405920492424,7.244336429030942,-0.00280691315560854,0.001476270682547331,0.011587893829713964,-0.5392866512658275,-0.25317469314415253,0.2782045662778635,0.006743741109816322,7.5401468803638165,6.252671177692271,-0.01006740178423446,-0.000875299613297459,-0.011494679286598393,0.5384930247531605,0.20929657974354643,0.5072117532922964,-1.2846462870973925,-6.028865249637967,7.54240137243621,-0.00451347696719386,0.0032846574548091134,0.0016790676195964898,0.6052480350647217,0.16722155298746716,-0.46831565313018647,-0.6843587999274461,-6.134772276696157,7.740290327915039,-0.0005208287935066798,0.00341893042382583,0.006592026860146468,0.15313394037474592,0.42417252945038764,-0.7756713452416325,0.20540460437625602,-6.146034205094289,7.671756379069988,-0.0051922130118665045,0.0035500930456817386,-0.0035687718344559823,-0.3066117029041408,0.41089359143472437,-0.3754314473643579
2.0868698069176386,-6.193214822793429,7.259035681099542,-0.0011718548192299059,0.001368032394023717,0.010004462836731884,-0.5381150858431765,-0.26147979005221866,0.27599992349317526,-0.006758510330789318,7.531589282028408,6.27144390700275,-0.00850313722596091,-0.004378832933667961,-0.01214806406204308,0.5428931655906735,0.21726632025201467,0.5158548486775003,-1.2963910395984004,-6.00862239059213,7.538741294248456,-0.005324860816124705,0.0019835305679254513,0.0028138306230128854,0.6142269724479605,0.16730707350119348,-0.4754677775495188,-0.6798108155750417,-6.127372526099367,7.740410969680605,-0.0027345646733010895,0.0035066932525627858,0.004867094357002372,0.15744610826783997,0.4229585836076045,-0.7818348212537996,0.23708480888322891,-6.148502708704796,7.693843852042722,-0.005049446975803206,0.002507416057948975,-0.004509310806641241,-0.30250535455270217,0.40915614028891717,-0.3786455221507576
2.08057383844283,-6.212799137633001,7.228824497769047,-0.005809806489420758,0.000956007108512049,0.012677043699694298,-0.5434745144499996,-0.2597452291658012,0.28283856674601976,0.009852298867649935,7.542441798744955,6.273808530797382,-0.00908729605483291,-0.0023004579938367825,-0.008956051832722424,0.5413883337976045,0.21781275000738504,0.5048633698963254,-1.3036373770710143,-6.024503917364515,7.55243830963908,-0.005926862744702397,0.003123369625678049,0.0021416255944610237,0.6157839635655142,0.17086415722425816,-0.46601190466294895,-0.6841709971946505,-6.137733329386176,7.730308258485283,-0.005287531748035286,0.003782234702441464,0.005016141412397226,0.1631626376529007,0.4302627958916311,-0.774815091437089,0.22132425084587565,-6.148915484636642,7.681479072085873,-0.007331552138277593,0.003221085742207804,-0.0034295587012125694,-0.2964937724629808,0.4163812926780831,-0.36914351863929373
2.0893149995881513,-6.21847309828166,7.23589365849639,-0.001525181541013699,0.0008092087034484669,0.009890036832146499,-0.5393440092333337,-0.26294060767453614,0.27941687376724295,-0.0022631420373616234,7.53349699487602,6.270881822847573,-0.010666933507546094,-0.0029890485518562315,-0.01116954987008145,0.539954219029728,0.2154799899830165,0.5117439244162219,-1.3069138116714372,-6.009180754363294,7.547430011230726,-0.0037681586413306025,0.0011135477763502839,0.001688142708289452,0.6110599679670639,0.1733731579437959,-0.4789563251202417,-0.6796718225169955,-6.119101168693119,7.748489853798347,-0.0028368969668056726,0.001957189908292896,0.004665422624222292,0.1602993242303475,0.42907067382020797,-0.7882080017709581,0.23323275994986975,-6.1431570833026985,7.6811901378419245,-0.00614483628920567,0.003142809456319326,-0.005076700867702459,-0.3024879124077087,0.41528206983461996,-0.3839924729615154
2.076589252844463,-6.215061960004476,7.228025294087603,-0.0032544224706490873,0.002885139702112334,0.012482241356496414,-0.5478373536290323,-0.2543501386496268,0.28479726723874005,0.005631722266676426,7.549775093759847,6.2641580628615845,-0.008362329664885445,-0.0035127313322483762,-0.010303635628418613,0.5458085707210893,0.2162142858072979,0.5107345711994066,-1.3002328188433785,-6.0311902500058,7.528178475177882,-0.0033488996380963225,0.0009427492350561012,0.002100614218213201,0.6130698613292838,0.16961320206113975,-0.46890176369604303,-0.6871546222647877,-6.137260015533661,7.707383309424535,-0.002897247808021461,0.003253685802944264,0.0039226567316850165,0.1604434868046585,0.4290494262159587,-0.7772229682393077,0.22103479480506344,-6.154231943697868,7.71321773354553,-0.006428225399053405,0.00358416305322855,-0.00396249459644251,-0.2997359598891304,0.41522163695849273,-0.37595798790004614
2.063830077705475,-6.224718413116794,7.23763329617244,-0.0030276310380865324,0.0005485823788392125,0.01043511153130824,-0.5366588972124582,-0.26320306014530603,0.28234609279898787,-0.0065933819351611175,7.540921109910331,6.261119209089729,-0.010199780868879595,-0.002919211285571081,-0.01193041527764362,0.5365427982439165,0.21277702268054213,0.5113123355100989,-1.3035721220701268,-6.015501327818401,7.523450003061272,-0.002642358639775196,0.0033404442480444423,0.0025558047743347253,0.6194177613612087,0.17368631184068495,-0.47169999097567195,-0.6779273571735824,-6.135417556752663,7.741934828675893,-0.0020408066364540818,0.001781008307821618,0.004300603176308569,0.16528522455854117,0.42978327967011953,-0.7804593688063642,0.2174360049261029,-6.14472080674731,7.667901840369793,-0.005667511477988389,0.0033469370194572534,-0.0043217426155032004,-0.2963060408367288,0.41419918974077347,-0.3733042912367196
2.0834762111220226,-6.197913406084944,7.236027176375663,-0.0036898302726185157,0.0010347338500020042,0.010169679956563432,-0.54393857821699,-0.25533972376385133,0.273076584213073,0.006966506749770403,7.5254369800648995,6.250829935267829,-0.010374195834821133,-0.003496683102137863,-0.010533047852545026,0.5424237157752498,0.21314376681684627,0.5176340324917758,-1.3059886117897936,-6.023412625571968,7.540841783541981,-0.004656756609281579,0.004319958721319106,0.0023441347077357406,0.6118152049168555,0.16786156196575508,-0.4720391817846939,-0.6665599322998432,-6.13231062831271,7.723959088512858,-0.0030455969491887617,0.001649545933148661,0.006162697983637104,0.15509398528880777,0.42490147066367423,-0.7752076151019686,0.21743864028143048,-6.176117949099508,7.698458833647449,-0.005048995240284451,0.0033308969302538543,-0.004124881295699356,-0.303904867409674,0.41085545498398607,-0.3727677266175416
2.0752316009743486,-6.211099361965141,7.237554107296929,-0.0025901949864194705,0.0007653700063270289,0.011149215743079978,-0.5424763795473255,-0.25609144607210416,0.2855276208213922,0.0031052639217868556,7.534519426093442,6.26121311782242,-0.009517854136589619,-0.0026660807739106096,-0.011446875335286398,0.5379982008520642,0.21397292461822862,0.5095782859711195,-1.2852014411838775,-6.026492468212038,7.540707420180381,-0.0049450254897507985,0.0017524860540768974,0.002302407552102984,0.6152891217985589,0.16674783005682967,-0.4639905597452354,-0.6703616873140409,-6.144111169332809,7.735795194901575,-0.0028691108759843547,0.004000122115864905,0.005242847302704586,0.16368814834825976,0.4236636734345622,-0.7714164515171107,0.2134238963840847,-6.138897089248176,7.655629440827025,-0.0051911847096986425,0.003552078725431917,-0.0035677719991788984,-0.29947058743184607,0.4105460143825981,-0.3676782180368978
2.0776490788061093,-6.204950709911822,7.247885098530115,-0.004927090988176308,0.0016699873994059742,0.010233498838620987,-0.5419713053563611,-0.25316015965973515,0.2796701280104464,-0.005072421668456197,7.541333953758231,6.284493508027332,-0.009832084247941115,-0.004111717197335431,-0.011897906119587775,0.5409482396027052,0.21878593912931274,0.519498843651301,-1.3032387240556185,-6.0212221640348025,7.551633911816961,-0.005547022111129393,0.002893324975478326,0.0016301868864995064,0.6076579079646093,0.16859315550928353,-0.4734825365359287,-0.6827572018759692,-6.123471913075854,7.737107886756047,-0.003769532219110653,0.002627802533632067,0.005406023186532186,0.1589433802260739,0.4290562043179229,-0.7798885046412766,0.21758241921994437,-6.162991088326654,7.681113386640614,-0.006618566487231241,0.002118152334345378,-0.006214109537383995,-0.30488114452714454,0.4128282836206107,-0.37519362421645563
2.088394141544786,-6.205956043073417,7.242185006076823,-0.002461643246226081,0.0020251328311479944,0.011712312604456732,-0.5429793321981425,-0.25802651703722235,0.2686799916709452,-5.262793144598932e-05,7.5315750138310635,6.26475523152365,-0.008436295833521363,-0.0028289065452806765,-0.00970262925022791,0.5321267062686514,0.22083082070891874,0.5119260658939939,-1.2881042083156484,-6.035584326739002,7.557077232198372,-0.004291247468992577,0.0023819244752149265,0.0028666012897221867,0.6128751273069519,0.17430139449229753,-0.46579889624979576,-0.6776705202718638,-6.12824378063776,7.718471268735867,-0.004064734377866309,0.0028692179127147058,0.004839314001668921,0.158310526290064,0.4317288246843316,-0.7725503855176364,0.22551284370222532,-6.164667192208435,7.6857894897520005,-0.0071386163523021375,0.0038665769548395517,-0.0015603859224397694,-0.30333612046978803,0.415963053456699,-0.3693330594197027
2.099128749374382,-6.219704344192046,7.254238564891392,-0.0026793384002590922,0.0011014303240654162,0.010555533239875955,-0.5419640585973575,-0.2516890925477231,0.2728354348910415,0.007032188692409664,7.524495220676818,6.275836898920726,-0.011378797394223329,-0.004024821273903727,-0.01288719351039428,0.5350962388337959,0.21483864225282961,0.5181200951718491,-1.2993444893794952,-6.0114157862567845,7.544580673329425,-0.003021157255169055,0.003575513979909489,0.0030691573141517496,0.6069875568466073,0.17403592882015295,-0.4691675609780511,-0.6791632257335122,-6.117118383668687,7.7363299448818,-0.0028389110230638546,0.001956194008831937,0.004664447041497693,0.15531913647291487,0.4339384336049885,-0.7773902835929691,0.2288996717957979,-6.12945932490321,7.6653918979754625,-0.0052406079514105315,0.00515184442169769,-0.0048397818498600855,-0.30970325436819296,0.4194720179088676,-0.37585847637137704
2.0801400663534517,-6.204510882826523,7.2495539826405375,-0.0032960950377183755,0.0031893738926202482,0.010254520109463957,-0.5346369088204976,-0.2509947412877853,0.2677075555559475,-0.005573426686750368,7.539195129408929,6.27688657991051,-0.007136305058736061,-0.0038746952029686437,-0.01118896032671266,0.5335972178077352,0.2176424332788135,0.5107527047351992,-1.298663311670017,-6.031872342158611,7.557105318257068,-0.004617283106823532,0.004385250798930286,0.003270950648041533,0.6094520224917753,0.16803092319268498,-0.46201195551814306,-0.6725023820368827,-6.136625733308305,7.743063402632966,-0.001747619641255738,0.0015375970317336948,0.004866334858751594,0.15638860415138944,0.42781975448688453,-0.7698474879087168,0.2291769654215036,-6.159634885297638,7.678911982632276,-0.007661091163634232,0.001976230810138741,-0.005125089069230295,-0.30383823897173096,0.41106702552099683,-0.3649550651914253
2.0779364816182344,-6.229464889844988,7.2479391894534135,-0.0021557818673822076,0.0009781727285271388,0.011866317021444854,-0.5366088921147817,-0.25440616511335684,0.2733209198207523,0.012127377635760151,7.526349699294055,6.253293496167598,-0.009885552577088574,-0.0014786570167634335,-0.011484300965770347,0.5440851700529692,0.21787341519265185,0.5080275863786552,-1.2890172351146485,-6.013611752976445,7.554310224733027,-0.0026413403063940736,0.0033424541431590553,0.002556765669101673,0.6054730540001216,0.17177102675662495,-0.47400421506642804,-0.6801143836605406,-6.14454874887599,7.742242894500374,-0.002548786862033532,0.0045031482347083485,0.007128782680666339,0.1523485092106618,0.4317502760929495,-0.7802857886216759,0.20932410739587493,-6.139971867225356,7.673843427857653,-0.005046408756433717,0.0025103815733922654,-0.004508323415523965,-0.30922680280595977,0.4165281693115637,-0.3736775127437579
2.0890361967134945,-6.182485918573491,7.244999795965651,-0.00276847611892079,0.001438491515344083,0.009960851627207806,-0.5427198892491578,-0.2555915697696821,0.27380911120167567,0.003851020762526171,7.533105650764234,6.27661820123839,-0.009830092206725148,-0.004114793631753623,-0.011902862663047128,0.532376358221393,0.21565672220923854,0.509080553002071,-1.3115837417322382,-6.011984819753049,7.552963835723533,-0.004748943263704858,0.002491456156914423,0.001529243308399768,0.6144989812248083,0.17098248128065371,-0.47455007014516765,-0.6728743124463467,-6.1277047473004735,7.751631290728557,-0.002871138054632334,0.0039991281504658666,0.00524087180795271,0.16161849039625195,0.4310091828172274,-0.7808969200113819,0.2256118176218444,-6.15564897252381,7.683161985635337,-0.007326397470936454,0.0015790592370121567,-0.004197446964985086,-0.3012193489510332,0.41499948224200967,-0.37789980745215995
2.0910126564317992,-6.224054307934769,7.25285234420753,-0.003528662147780483,0.0019803041675054965,0.012973491043315272,-0.5307094108584977,-0.24785624382583146,0.2816255569009609,-0.005107970191031035,7.5267914292532545,6.282419342574744,-0.00854319351847321,-0.0029216178162228467,-0.010328816526681389,0.5333548050607725,0.21740077931168625,0.5110015750232644,-1.3108759273716724,-6.0456045373054605,7.538934531588007,-0.00635839003846294,0.0015951976795411577,0.002764902978761055,0.6057099638564815,0.1707890302641946,-0.4742347744054584,-0.6710835265069264,-6.130233506583157,7.74213506515155,-0.002974456031732617,0.002450623951689107,0.0050402150313947035,0.15257901579638725,0.42735643752633634,-0.7810293767902743,0.23754817493313796,-6.149904847684918,7.6828717633544095,-0.006376324076727365,0.0028088497661810977,-0.0023040677636674,-0.3068689809350564,0.4123751402430988,-0.37884133096108263
2.0827731763291846,-6.200366201755556,7.238161134547298,-0.0018875477680580007,0.0002434310993601624,0.00978360647834752,-0.536848569530229,-0.2536727387416056,0.2733216224902084,0.003703159559829309,7.542989986774999,6.253818631731686,-0.00940896965296871,-0.002581544664771447,-0.010831560931523394,0.536548914511381,0.21354937297639565,0.5137408623499274,-1.29073746126077,-6.0124238317497225,7.542903321771867,-0.003675903783710728,0.002949111768713655,0.0025069240412377417,0.6062423219039974,0.17401324907282553,-0.47087068032483054,-0.6791654137779101,-6.124942366451303,7.737874977447736,-0.0028409370944127038,0.0019562000409772237,0.004662473466441456,0.15141929602406443,0.43052325259904434,-0.7766136452149912,0.20957978715821274,-6.14507336653998,7.687766749178446,-0.006139211585985449,0.0023252596149010273,-0.005459155596409792,-0.30853096785738543,0.41384102180736493,-0.3749144306937532
2.0832027450610155,-6.209746721985041,7.242451687417134,-0.004540108224272153,0.00028300800430032286,0.010988183870931463,-0.5380930337827738,-0.2578198134960795,0.278200182185953,0.008504327380539614,7.546718173056762,6.273198186128159,-0.007969156886800588,-0.0027591355700660914,-0.010467494085002142,0.5345955764898128,0.21255145702631328,0.5127869502312983,-1.308200038821381,-6.043412689843994,7.549726212651311,-0.006541122349408155,0.0025662379232972354,0.002505138186029711,0.6103982555375627,0.16772454783935525,-0.46567707941317477,-0.6624552359801195,-6.152495503048612,7.739211528088835,-0.0039332415118952455,0.002374800034148108,0.004459598861659436,0.15386483759118388,0.4261252045337144,-0.7759211817440858,0.23372942658351903,-6.159714316269267,7.685922556224293,-0.006710577992786392,0.0040274981804981165,-0.0028462885322495532,-0.30728311129550556,0.41160556391264785,-0.3688306986975259
2.062158735390885,-6.210149959792073,7.231640620343324,-0.0014898071118537054,0.002399049310142414,0.009866446684443966,-0.5405218715381422,-0.2558550599797704,0.2811324306028249,-0.006891919466842315,7.535293119830896,6.261283525881193,-0.010663937542191464,-0.003000220286182921,-0.01118037652901797,0.5419105392848614,0.21550202780027677,0.5127130014998248,-1.3090590101389434,-6.004230579862107,7.544047950624705,-0.002498031672309234,0.002311167926848606,0.0018926358809993665,0.607910291789027,0.16522760295269806,-0.47001348156460965,-0.6778090672054863,-6.129597590222127,7.749705216186622,-0.0005550112162157235,0.002666506419889334,0.005268903781866178,0.1528824759758257,0.42319673968241484,-0.776157975475789,0.20187267289268668,-6.145670937829257,7.6632425369943125,-0.006281411141813083,0.002545441469216785,-0.004902050366356709,-0.30832712499260523,0.40846079529805596,-0.37322935835257387
2.079556845238546,-6.187875423506255,7.243124926851793,-0.0025151196708036038,0.0004173817946046537,0.011754890492006695,-0.5434593725647455,-0.2570572303595185,0.2794229581412856,-0.005228842363522258,7.536179202701618,6.272143703489991,-0.01044815464579452,-0.002820940044254718,-0.009936908259830249,0.5387080033006546,0.22377210640764206,0.5113667128614346,-1.304634945436531,-6.037188868114448,7.551829791087245,-0.004526737450301596,0.001585707990769524,0.0027158240414369046,0.614752946833163,0.170034748330688,-0.47258396289343335,-0.6728020472542234,-6.133893074851139,7.731436597245673,-0.0025206130804618816,0.0024592261598206655,0.006548408844403208,0.15922363199203765,0.4270972802358758,-0.7769667138567662,0.2456825525834036,-6.16893548101689,7.6834770081204775,-0.007278229424279039,0.0032662434522937205,-0.0013867228122112951,-0.29828998432792403,0.41153501033396883,-0.3737880704343934
2.085816710112932,-6.209310608857916,7.244107543101579,-0.0051212430383604,0.0020577431328802154,0.012925885228529978,-0.5405081192763016,-0.2534112743173161,0.27796060470733874,0.004642687080391988,7.541850617905078,6.257013755769397,-0.009496365337084034,-0.0007229741094385056,-0.011642179513377657,0.538274379891887,0.2106613292722089,0.5159801396403456,-1.3087713931446596,-6.025377902933477,7.555948329038001,-0.0038576361388737443,0.003920146584682466,0.00224715156913317,0.6111550076463981,0.18032626897552553,-0.47149536865074043,-0.6832403292588252,-6.141696590022574,7.761157094562535,-0.004469370684602469,0.004351505579720442,0.005966589802666001,0.15654381534187178,0.43735510407640016,-0.7773997470867424,0.20176311095521698,-6.133108760695496,7.645455809137793,-0.007324377467321385,0.0015810390135675735,-0.0041974553426775175,-0.30404186915814546,0.4208642784929397,-0.3719930379784526
2.088111659134342,-6.201276695702839,7.217921224490407,-0.0032119342342116675,0.001217733114752806,0.009253745108675382,-0.5446870999206932,-0.2582719640187422,0.2816191270046944,-0.0014094687099522364,7.537981146673135,6.271781714791366,-0.009904059467097348,-0.0034340181375562277,-0.01130480616831329,0.5433927005499062,0.209892222103014,0.5128009106765891,-1.305846007006153,-6.0349127672172065,7.5413651075478265,-0.004094144453563885,0.00312192020512245,0.002095413426080941,0.6111165591243083,0.16672466025363147,-0.4668882456995219,-0.6826994111672233,-6.129398396810688,7.7263797224314885,-0.0038017224011445885,0.001880378287457672,0.004081883545704505,0.15926844290432257,0.4241612048937963,-0.7733106588014131,0.22181312994728464,-6.15812210682637,7.682252887360865,-0.005661876688354725,0.0025303871189012598,-0.004704193277743157,-0.304139379821476,0.4083998322019259,-0.36862581429580693
2.0756490448721703,-6.199979439123182,7.246330937338636,-0.0037523797738069444,0.0010526326699951236,0.011821709372809987,-0.5429637791719418,-0.25584087167224057,0.28137694195209184,0.00476158050836516,7.51785215251281,6.265320259255754,-0.008833940241718487,-0.0024201089931297115,-0.01097322497113403,0.5353101159411008,0.21692277165577345,0.5112478391947514,-1.3016090082614022,-6.028176109032684,7.5440015527192426,-0.005743041045981993,0.002163384836688718,0.0024052100932249946,0.6181592578177669,0.16395591809791837,-0.46982918568332493,-0.6830710720131594,-6.143430220139843,7.7290886994109025,-0.0037745864896912393,0.0026258156848447114,0.005402085321527592,0.16505502055315177,0.4219672575550993,-0.778762315355993,0.21780582715573163,-6.1528988203404955,7.68752569985737,-0.006088906918529496,0.002369451691268263,-0.0034172989655910416,-0.2971145839234812,0.40811001056900204,-0.3750319894426949
2.082140815603408,-6.208267215934362,7.229852217719045,-0.002421200549204884,0.0019883427391279743,0.010084270873607424,-0.5398047892348102,-0.2580478526497162,0.27160932568494855,-0.00471098272235692,7.534980288009275,6.275384264236611,-0.01066194244190116,-0.0030042965787569057,-0.011185316510159929,0.5441292855443735,0.21759083208437213,0.5204849024062084,-1.2954404297169149,-6.010365936742079,7.519603201797112,-0.003439364021021838,0.0037503689304285983,0.002660614969621938,0.6106288631641095,0.1715601637866685,-0.4701333646853824,-0.6730668995347714,-6.1152916498005245,7.726182586838769,-0.0018580439020284634,0.0027754684749726195,0.006561327122051453,0.15798984960839912,0.42612449033013017,-0.7779284897293596,0.21783510124616212,-6.140277549072806,7.6878158422620615,-0.005945147308552432,0.0013277728905928782,-0.004359842041934365,-0.30317319466837644,0.4123211035611014,-0.37472073768971764
2.0931288069725547,-6.187240389301765,7.262123729636435,-0.0029111411232289977,0.0017974037108459174,0.011012201108810281,-0.5422380947065403,-0.25706573906642477,0.2808877018031475,-0.005310375522823433,7.533297086650893,6.2553913483297725,-0.008649098787759551,-0.003016392092603472,-0.010958973578910368,0.5396551344690786,0.22239640360298593,0.5018629091311875,-1.3135763787035584,-6.0448934409209585,7.535523888168348,-0.005363231860407737,0.0019303094043340667,0.0018918185999315111,0.6160416342584368,0.1692007608523166,-0.4630575149926751,-0.6796266808437259,-6.148386692141035,7.710151248664475,-0.0035387494885556715,0.0036798970549203123,0.005225013657631508,0.1646998933383675,0.4270758860193933,-0.7689809143379831,0.21797208812665048,-6.156652792346201,7.702544393458011,-0.006089467057284834,0.0031909385850432933,-0.0030318693746143937,-0.2958035182070836,0.41124217098013305,-0.36794946200919837
2.078264595087336,-6.210304820610929,7.229218192725209,-0.002116339561308407,0.0009413903183613109,0.010236275500871228,-0.5271226782828524,-0.26032200852067233,0.273068709759422,0.013371754764939528,7.533469267673127,6.249474698888862,-0.011497777487333301,-0.0018896795187706762,-0.010459823859325267,0.5460657638049256,0.2157827333631756,0.5141593332649519,-1.2986528789078393,-6.019141816913144,7.536183522011716,-0.0027845835884797894,0.004378817655734747,0.0032258165131629347,0.6130025041105736,0.17599870638384463,-0.4821858425331249,-0.6778034666018212,-6.140896631590463,7.7408535109390515,-0.002210596054846895,0.004314376500218782,0.0052518145908490785,0.1571694844096484,0.4368818959798063,-0.7854665822353584,0.2260818448173439,-6.126233582696479,7.659212166643502,-0.0062295464202077,0.0017681365992243934,-0.003245631581828199,-0.3036497128075299,0.42115299755265606,-0.38395856779126186
2.0915534360229113,-6.1846160426945875,7.248635384843377,-0.003181335512810772,0.0009005524591850453,0.01149445708257614,-0.5344220624276433,-0.2561278768147909,0.27307393857329454,-0.002044303186657801,7.535351220387031,6.276756185307597,-0.006761653374295373,-0.005068411978029881,-0.011170456913969241,0.5355524038357842,0.21914445503014107,0.5126743946826832,-1.2927352904581133,-6.032166532169447,7.552073122240542,-0.0059642101484052076,0.0030731582208501085,0.0012205588290949815,0.6160312436889132,0.17183589430164448,-0.46627301880083627,-0.6764887605343246,-6.131686269729474,7.7498158607060335,-0.0032455624933573277,0.0034364857788323887,0.005790745340074532,0.1663059497293234,0.42684514828802955,-0.7768161251818849,0.22603050193064494,-6.159235329834378,7.7065046538138136,-0.004709666673347099,0.0021171855091558726,-0.0035796815983805117,-0.2967814187110538,0.41395201612589083,-0.37134832930439365
2.07634809208087,-6.220700334833385,7.233302319838424,-0.002121412911793082,0.002567017469521499,0.011844726192227874,-0.536634421041081,-0.25880282767589713,0.27527000693657816,-0.005600599218105937,7.531515480791279,6.2474537312586556,-0.007937230602494122,-0.001987701241484736,-0.009246213286390859,0.5392386713792381,0.2148146733759006,0.5159079961461726,-1.2921206165309247,-6.025743612281906,7.53316331139851,-0.004329647505272731,0.0023246882614239993,0.0019436519666038677,0.6104019094027634,0.17618461872837066,-0.4711808829345683,-0.6843190056379108,-6.128243897448287,7.767165796316735,-0.004441195795731688,0.002308583502377085,0.005386217886098511,0.15828597898674127,0.43270859951052254,-0.7745013400839608,0.2259851537870644,-6.1437309008505245,7.673046943485245,-0.008280367918672907,0.00610368502649732,-0.0033948026789085797,-0.3038621726444131,0.4186852295686366,-0.3771307732721833
2.076393689995046,-6.206060590562195,7.239197361950603,-0.0018165521280814232,0.0015200659400926694,0.011995730819909766,-0.5356780538307998,-0.26222891768418294,0.27795175897847607,0.02501089952244836,7.528769698501437,6.259527182607537,-0.011527719668132945,-0.0026672727200758107,-0.011691010798458799,0.5501879991775815,0.2129365913665173,0.5036928925964493,-1.317797341347231,-6.0117001061912685,7.536573145469236,-0.004329642198073631,0.002325688125072831,0.0019436363295522521,0.6135640277065405,0.16865653407622297,-0.4674254561541588,-0.6703677435681695,-6.125795348198312,7.71820415077421,-0.003853807662361448,0.001822757931672921,0.006518669958208319,0.15801443832776346,0.42807418022237753,-0.7762158909091599,0.21364807265097652,-6.139850217465542,7.689273069162902,-0.005799927833715638,0.0011095607602479409,-0.004916963904993471,-0.3009715637807476,0.410578977987357,-0.3720609379002703
2.0872936255341044,-6.207087835048701,7.233494218342967,-0.004905450801598775,-0.00027875197344261714,0.010881757705922136,-0.5353669547677012,-0.2510032569114134,0.28211270305255876,0.001747062042627416,7.535865933838195,6.255988703448658,-0.008540209789415925,-0.002928790117926363,-0.010339709434887486,0.5389747431612413,0.21273579521786337,0.5083742735271892,-1.2980213264740263,-6.031234240022849,7.5191456221746105,-0.005127692053501046,0.002731571993836277,0.002045517207688935,0.6249490620869963,0.1655171638421592,-0.4769873311632412,-0.684083338871611,-6.141531364984261,7.7167275678322245,-0.002953375411443612,0.0031930755847551897,0.006356490147016714,0.16989305749799002,0.4251430488371757,-0.7824819870153021,0.226271139128561,-6.161543017965684,7.686616259579296,-0.007322917602461656,0.002404505683898021,-0.0038120341293933014,-0.29130091894723625,0.4093014078961739,-0.382155100627619
2.0854383607332445,-6.221292281851476,7.250501943309752,-0.0026944176672316395,0.0010875056908415618,0.010570523913548336,-0.5393190844679125,-0.25854233347434685,0.2745377869862953,-0.002985825258177841,7.531890770256385,6.2488567622475735,-0.009980020224333901,-0.0027542319326343814,-0.010705726308062586,0.5401827106896402,0.20946070387369872,0.5020755140352169,-1.3028328196352992,-6.0231383942430385,7.532268706669826,-0.003477787742100014,0.00369011753008696,0.0017367127094150593,0.6113174429532165,0.17025919836798742,-0.4750021597984909,-0.6858361758530682,-6.130255932456654,7.734717959290774,-0.002392122168942962,0.0019628115321975873,0.006168729238499919,0.15844873551357713,0.42881367869461917,-0.7803715252727615,0.21041027894958902,-6.148280522297144,7.675370094898611,-0.005943687443692701,0.0021512395609233257,-0.003974420828650148,-0.30295328217659023,0.4123308084426767,-0.37765262791809073
2.0731427142635956,-6.194006322511504,7.243831772113244,-0.0031012375035944,0.0005565382457311575,0.01209613434644879,-0.5385666747573657,-0.25537576065435574,0.27795845727195106,-0.0013058793505364916,7.532929719635778,6.259523320967913,-0.009035302298706804,-0.0037792473016319155,-0.010811987939509153,0.5438811443428928,0.2153408092773377,0.5173485917851198,-1.2961178307733734,-6.032442982359004,7.539195738759868,-0.004511353719636097,0.003297753995898907,0.001685847916882878,0.615418699952999,0.16603393313296608,-0.4783866167291456,-0.6738918744102222,-6.140569016051183,7.720044984547569,-0.003191238483928029,0.002139000246824875,0.006531588235856563,0.16059239657114302,0.42710986015966534,-0.7843092969357993,0.22236563237901805,-6.157658525180627,7.690828635848352,-0.006562753733738536,0.0029897664847640605,-0.0037858484910099684,-0.3008054379339874,0.40865301833266654,-0.379150594211513
2.088007954963804,-6.211441886448474,7.247829197550277,-0.001987810193457078,0.0021971478663454914,0.010805368799268335,-0.5339592008788614,-0.2605291598505782,0.27697692266569746,0.010817868906495673,7.5413692974363045,6.275058178925068,-0.010535546395233741,-0.0009704677907739732,-0.01075339348396345,0.540921410438154,0.21840846352317986,0.5114480384516514,-1.3129035736850816,-6.0196173226202845,7.5322139664083325,-0.0035162245335780156,0.0036288506704922736,0.00081182623801639,0.6142977931323009,0.16793207672728586,-0.4666877422194051,-0.6878503311264803,-6.14440546568102,7.737181240449547,-0.0013581709807052133,0.0028387052745679725,0.005628807862355066,0.1634183138218899,0.42635417998327485,-0.7736048995607511,0.2262986613406408,-6.136142441264594,7.66931569783177,-0.0059452392838952465,0.002972732357893118,-0.0035879830247039844,-0.29851089673510434,0.4115253155049782,-0.37085617195070664
2.086088592836638,-6.2014810049023605,7.266499475771265,-0.002259004565616615,0.0013003025138631453,0.011287624982473703,-0.5361473767565014,-0.25880157155880956,0.27063090666960526,0.005250704025009958,7.524156553013843,6.250649002748282,-0.009887636317513458,-0.004616902920245496,-0.009902057840551,0.5404396032355222,0.21472123890354483,0.510045594362267,-1.284433631419531,-6.031310601168556,7.539786461452157,-0.005704556884907946,0.002230682069384827,0.0033320024388007836,0.6122958932820165,0.17001754477215794,-0.4745179134833845,-0.6697956320117526,-6.135489551626823,7.741408935501797,-0.004335824698240421,0.0010697252078951305,0.003687289677489699,0.15652072235301004,0.42808001643618687,-0.7783944701538456,0.22250798913627318,-6.175148229896206,7.7046574805041965,-0.00518195343440671,0.0019160033562920429,-0.0043336689700896784,-0.30002737188871775,0.4113213747939782,-0.3769488199214062
2.0838868820352032,-6.2243135100501945,7.22840055792284,-0.0023441250642486752,0.0016403418377107129,0.010690945203237035,-0.5329279324111031,-0.251255129313143,0.27478697747502984,8.964929528122723e-05,7.54374897579544,6.247716548379677,-0.008367814612493899,-0.002349390880005955,-0.011741102465436472,0.5416544512163546,0.2166816680084256,0.5102529759144929,-1.3063359439207884,-6.026275976364704,7.529151361538113,-0.004929594389489256,0.003470562432307702,0.0012743373017260768,0.6137702109432375,0.16930434576047418,-0.47280897679539846,-0.6646919299010258,-6.140253439536618,7.7227731096347245,-0.0035166547252931113,0.004423345669458077,0.006542277480477277,0.16090978745031512,0.42685473699055454,-0.7786984616861773,0.22682591382175912,-6.151955958418681,7.666429628352614,-0.005660380222774339,0.0033558453721766472,-0.00431676401621234,-0.2999959116832918,0.41204217373383084,-0.3740159632689628
2.0886613178786813,-6.202466037049177,7.244971063462695,-0.0037119138877044168,0.0010198442894605551,0.010191671203267978,-0.5331802715957354,-0.25271996965009236,0.27625072394322203,0.0027325347708633957,7.53438837139224,6.27154404496597,-0.009885564153918672,-0.00149190376430337,-0.011499083507689457,0.5451216524473539,0.20974645969785458,0.5184142119919964,-1.3092009899649033,-5.998167943822272,7.550574492816212,-0.004527695343686849,0.001590743928009382,0.002717753232038868,0.6135110602013634,0.1692752119255316,-0.47475980664770423,-0.6863696485533395,-6.124922643111493,7.732798105744574,-0.001013910652665305,0.0026539173678817693,0.003756768264461799,0.16310389714818121,0.4292952965564443,-0.7792105785078832,0.2065239986533629,-6.133713586351621,7.678351586743002,-0.0057506514684275475,0.0011517671568649986,-0.0028761071094518045,-0.2968125968378515,0.4144582238350208,-0.37574115876609904
2.0845998251802325,-6.208398115320396,7.257253610407224,-0.0038495507074190125,0.0013837322481089899,0.011237024090770343,-0.5400653223918146,-0.26097962518246903,0.27526876721205307,-0.00638820262011798,7.527857508998817,6.277519355237657,-0.010473110787361614,-0.003608732263378636,-0.011180945080220182,0.5333565646366142,0.21765789239853683,0.5117304122921132,-1.295233726494323,-6.029032265518914,7.5386165952021,-0.005727633630518472,0.003878446028368812,0.0013761869057595283,0.6140248978534587,0.1642528737882136,-0.4678484204262773,-0.6800104139662628,-6.144640314778426,7.739352098764218,-0.005299689283427512,0.003781270897768857,0.005004298042364173,0.15926203917810158,0.4241621487160131,-0.7737986158707235,0.22272381888006065,-6.16316348174504,7.686406664268346,-0.006706515216182158,0.004030441195187305,-0.0028423095234780984,-0.3002482148956356,0.40812166015133616,-0.3701239938011335
2.0760712578397196,-6.232431759978781,7.239873922448207,-0.0021253904569247624,0.0009324346577676973,0.010246269370585901,-0.5397428017196579,-0.2478005633041213,0.2789424498906077,0.0036458728748812556,7.533669277651538,6.262379523663696,-0.00921915242873652,-0.0031880765003669148,-0.010833158990965182,0.5397036044730094,0.21098876435381891,0.5059583858335486,-1.3075522908238613,-6.012416520955095,7.544058920022333,-0.003926719511691004,0.00044887937953795446,0.0033879975175803746,0.6096631748527376,0.17279390547712198,-0.46965703651435237,-0.6798256498167684,-6.120369522141382,7.723236197673103,-0.0004014017713990269,0.0029115332975593604,0.006208444609974453,0.15557080023583034,0.42929829140529424,-0.7764254754684949,0.2062323203483841,-6.1514511858568675,7.691997960201099,-0.006895961047269371,0.004211396370303727,-0.004326065400191738,-0.3070446709151756,0.41455116017491017,-0.37321462044007264
2.098187251225782,-6.189951771116601,7.244701272737617,-0.0017710867374597199,0.0014872498463411356,0.010363691604006391,-0.5421872920629666,-0.24827232560005225,0.2757685271918626,0.004159279288206374,7.534796839680301,6.294852729522158,-0.009698729567007484,-0.002088214005425017,-0.011486838775468283,0.5377728873017169,0.2125771767895965,0.5137527863966673,-1.3039410916143308,-6.009133492892327,7.555937487402625,-0.0034777485309005394,0.0036931639078461053,0.0017396653429904328,0.6142410318779704,0.16854214405808773,-0.4745100030186814,-0.6705610210315069,-6.130146019015978,7.739496145684468,-0.0028490184569258973,0.0019532203088015523,0.0046565732311841445,0.1606121623414704,0.42759602555812826,-0.7828434870846724,0.22194343237151432,-6.153427453930417,7.702494154106421,-0.005943219280280178,0.002974712134448535,-0.003587991402396416,-0.2993353576332553,0.41035326908602016,-0.3806206766191078
2.0788614174130955,-6.222322815324686,7.237374362179774,-0.0031933918471535204,0.0008906127312488976,0.011506450689655381,-0.5424680923209465,-0.25437464162856904,0.2767391457076688,0.0074792354534014595,7.535654085951237,6.261884437453989,-0.009203640480703032,-0.0012377733944871055,-0.011015560127649628,0.5389573354050952,0.215375899912284,0.5056441883320856,-1.3182036168060807,-6.012403304428763,7.553183787042948,-0.003713277723409034,0.0028939010456415577,0.0015859354611297777,0.6120849390838254,0.16670414142354328,-0.4678715926533572,-0.6687788784042255,-6.132637815068911,7.730024107145346,-0.0027205666095397813,0.004245164073898148,0.006177454193172274,0.15822846403153662,0.4241717030265541,-0.7781794198073947,0.23030693613577305,-6.150413681517451,7.656766025731994,-0.0063728397392387994,0.0036322838831728474,-0.0019156631880425973,-0.30219875516468064,0.4093672828975259,-0.37132285435724854
2.089919568463011,-6.212458639197859,7.250589902111846,-0.003715930699364419,0.0010168643742159878,0.01019566936900032,-0.5341899807230527,-0.2583308470021971,0.2781989297377546,-0.007944134361333531,7.537230651768086,6.289388041813836,-0.011137607534632278,-0.005044711410249394,-0.010259740454407308,0.5397207275586047,0.21453980631920794,0.5139576220945918,-1.287520160987769,-6.0130593296094,7.5337368651269205,-0.005363179183612593,0.0019373396410843206,0.001893708837057015,0.6117774953704821,0.1692349875661861,-0.477920200923431,-0.6705069686470713,-6.121411380460316,7.747999077745921,-0.0029282265072063086,0.0011501606215678418,0.0057741577798921485,0.16087374329074666,0.4261279317443624,-0.781384630696621,0.22595928534369236,-6.1467934258706,7.678851694153881,-0.005986893711722142,0.002115972434834824,-0.006015298690801734,-0.30198739398110347,0.4123260635250992,-0.3788816334020396
2.0900905392921625,-6.209107688145675,7.237220848442216,-0.004649380249748398,0.0022347689861091633,0.012019946292391417,-0.5390283987363257,-0.2507335235460449,0.27747468914828566,0.006427989044413048,7.54560501236853,6.2612040240317,-0.007313221027094248,-0.0032858511325298133,-0.011231119558784827,0.5406717764083975,0.2166463714961726,0.5083036454196745,-1.3071214440240209,-6.027885482599367,7.5363486529917365,-0.004841100530935171,0.000669937042447342,0.0007132426014590793,0.6120987853557786,0.17107949992740853,-0.4691611322004077,-0.6807113648501374,-6.150739750063108,7.719138722003606,-0.0027205666095397813,0.004245164073898148,0.006177454193172274,0.16043920421759703,0.42807390052380534,-0.7774688203969078,0.22614437816895133,-6.147926650129384,7.67793943299317,-0.006086420623968462,0.003193899951096749,-0.0030298820258411936,-0.30218743290422295,0.41328723452014493,-0.3747248260036244
2.096591129153841,-6.206405261040741,7.2397729309629755,-0.00018557488379849308,0.0013978452580840782,0.01041928820011017,-0.5454232679170324,-0.2587509797958296,0.2752718477004202,0.007092445450967053,7.533575501464832,6.254391136310507,-0.01168160802340314,-0.001310589879213404,-0.010485795446987642,0.5436121755052128,0.21596776590034053,0.5109902115544928,-1.297657946301199,-6.013581160753027,7.542526038876275,-0.004852670980935581,0.0035981422565538844,0.0031270316039955577,0.612318230595317,0.17175296463561762,-0.47283589655661357,-0.6774514809114178,-6.116925407114214,7.712434753802558,-0.00380881365086556,0.0018803993999661742,0.00407497603300768,0.15625034635736554,0.4302815241857242,-0.7805838569286541,0.21840966276612786,-6.147208893993622,7.654405947280957,-0.006559725600782491,0.0029917320593450454,-0.0037848651663600686,-0.30145146967821745,0.4159778648440033,-0.37764983054897144
2.0752068731043387,-6.219513478823728,7.246668616335957,-0.003992215711727219,0.0017426444436108243,0.012288373572372816,-0.5365931023511016,-0.25172099452201907,0.2730783098894269,0.01584505585404168,7.539489082600754,6.261091131256838,-0.00820895194259883,-0.0037203881806838084,-0.012966100446515564,0.5314238522371404,0.21180903282881913,0.5128101143411256,-1.3165354734475132,-6.020850719680462,7.527129625565352,-0.0040546133623074404,0.003192273983394655,0.003026150574102282,0.6152196924985848,0.1670910830971389,-0.4732737827805084,-0.6770336206961105,-6.144032952980777,7.718694393483294,-0.0004295387034361333,0.0021650969846387187,0.004888254038954884,0.16284366397512773,0.4270994566251393,-0.7801884965472552,0.22968132081337309,-6.144603143319723,7.687779587931798,-0.008273173074889817,0.004465638179581699,-0.004162691187438776,-0.2985610346668882,0.4115506433805315,-0.3769599134824654
2.0880520167054373,-6.21779941141294,7.264851528967833,-0.0006795265743046857,0.0012049271880977344,0.011350217491581235,-0.5390357451375202,-0.2522041556851943,0.2838213824717172,-0.008307750386414913,7.5335758051326005,6.239985783136146,-0.010442165410247502,-0.0028412672238288693,-0.00995759484553506,0.5431379094336757,0.2170230873362634,0.5158580424225767,-1.321399466037048,-6.0126358344499495,7.540364278063187,-0.003295010912756226,0.0027231235277388587,0.0019994144986701613,0.6047339308877541,0.16548117122933584,-0.4704818484656048,-0.6690175200972608,-6.128863907033247,7.750009295817978,-0.003892091092393401,0.0038617063114415678,0.007091166144766621,0.15167091726363918,0.4229526456833675,-0.7754104832640878,0.2175984417030537,-6.123873410007124,7.671639168352558,-0.004846257953848281,0.0015198258208330019,-0.003407031012346609,-0.3085575336817913,0.4082101588590849,-0.3712754230385454
2.0780568266815513,-6.185587709393174,7.2455692732809,-0.0034477586472802294,0.0019097221473971277,0.009719410251133825,-0.5402590577536356,-0.2524326845123723,0.27454342467819376,0.010869900567669798,7.523452953601895,6.26908306860697,-0.009898092008982777,-0.0034483627409632595,-0.011326591984725486,0.5392155559984796,0.22015254491546368,0.5138663196031583,-1.3095091956549563,-6.014459019889701,7.550734979008303,-0.005544880090776861,0.00291140523920806,0.0016358891502844097,0.6150512038129757,0.16965971269525,-0.46525531724460134,-0.680380934480084,-6.133352630874146,7.736098505730985,-0.003998683776262751,0.003671314877286532,0.0037098992074270213,0.16146791591320112,0.4285532877551012,-0.7735750498425741,0.22618587146501623,-6.168166530822084,7.689562601186549,-0.007033020491183077,0.0027905641084556474,-0.004539844240411568,-0.29729482501967663,0.413233085493962,-0.37354518835966793
2.0797727317657877,-6.227079553272971,7.2534139429486695,-0.0018316484805877419,0.0015031386862479762,0.01201371882197454,-0.5329998961109904,-0.26346212954483766,0.2750201117052583,0.010995520128898538,7.53496590934584,6.266543473410133,-0.009017810034065024,-0.001836136072166962,-0.011006278368004484,0.5424068237434042,0.21256682370181698,0.5122718840136673,-1.3168504824047191,-6.030389433509609,7.56434348049658,-0.005506430228899035,0.0029736875580557947,0.00256175983287487,0.6111550279488825,0.17573740195638107,-0.4682493100437224,-0.6772042967784179,-6.15117383262139,7.751538711662138,-0.0036511738789342394,0.00212941807164677,0.005016471865956436,0.15703303999032647,0.43271464362482376,-0.7769271002410961,0.2181796970126505,-6.140095068044503,7.668401946892198,-0.007316869550496451,0.002408440982449827,-0.003811067437749426,-0.3006479727880926,0.4166700438805044,-0.369840227618669
2.0911287529306937,-6.193056172641298,7.268278956762807,-0.0015583748063140751,0.000775374567308159,0.009923013465848833,-0.5409994910265206,-0.2538985575807994,0.2804022717248118,0.002068939253829321,7.5283917515800125,6.27252583762095,-0.011507286871786144,-0.003861259944077505,-0.010295093175619193,0.5414422832793184,0.21237557127445297,0.5156968456488056,-1.2958996924374455,-6.002531720184626,7.524061264345402,-0.004054600291907616,0.0031932894426477034,0.0030271347852940727,0.617722122085955,0.16913435806563093,-0.46673308315712037,-0.6767260155893494,-6.1268994363198495,7.73545996916467,-0.0019496003489816165,0.0033225409804121375,0.004493404712768782,0.16264399710002958,0.4266051112104835,-0.776768531671705,0.21877899456838298,-6.155049924627363,7.666170876291393,-0.00550799875994199,0.001499602992475429,-0.005645774218425339,-0.2985222883958245,0.4107953836960105,-0.37134712794091684
2.0846695081508053,-6.212349562953257,7.238117066103501,-0.003996232319202405,0.0017396636370284242,0.01229337173768707,-0.5387800410167286,-0.24975288713058952,0.2706395096580455,0.013053344111780597,7.547337974900979,6.274876583415095,-0.00793425102424746,-0.001996922977802763,-0.009260072640371212,0.5408923886498632,0.22124093150127605,0.5055403499960146,-1.3159989951126374,-6.057241382955511,7.531423646804018,-0.005544867020377036,0.0029124206984611086,0.001636873361476201,0.6142798512885523,0.16596412171140235,-0.4676330549431647,-0.68090777659996,-6.136980744046164,7.7255174713206936,-0.0036521737922188668,0.0021294191536574934,0.005016484990455594,0.15947799867212972,0.42489813204188037,-0.775997219755234,0.21809941509226974,-6.145658473639944,7.700096863676974,-0.007941061397029004,0.004886969633422588,-0.0028486152233359392,-0.30049637746108565,0.40910814651167765,-0.3718269341999641
2.093121448449687,-6.2180659650269705,7.245351248124695,-0.002081998264869631,0.00252522712630294,0.010223680217302557,-0.539580957507686,-0.2614672312172384,0.27160623215913143,-0.008649410990640326,7.530845913499607,6.245210942722574,-0.011336894005039379,-0.0032788339900418307,-0.011694529233117874,0.5343142970393914,0.2155897642642644,0.50468039905348,-1.304175795625451,-6.019112936649972,7.536987069061197,-0.0034767040567197684,0.003697204721466815,0.0017425946601409628,0.6162380005803235,0.17683141173850525,-0.47465480400005683,-0.6696578623066296,-6.123903994730212,7.747826099353822,-0.0009676983766887271,0.004137808572179036,0.006393263726122652,0.16181869763332554,0.43199152703351396,-0.7843159480754596,0.2144541240605789,-6.135975748094957,7.654754063307844,-0.005321114770864855,0.0021391507260510906,-0.0037755763489193198,-0.2974928218646025,0.4195922791279822,-0.3757142670983115
2.0850542417912004,-6.183313682008885,7.249762873194905,-0.0027956959356333455,0.003038220388357579,0.011601283769792529,-0.5469045808017385,-0.2614251130658685,0.2728277655840266,0.008071620285945437,7.53122781332012,6.2829287788027965,-0.009137236449682742,-0.0038782078760726192,-0.011454090916897657,0.5399402769606181,0.21615624029141473,0.5083142736848644,-1.3071972752320562,-6.030853409976497,7.563340624514987,-0.004291124132999211,0.002395031871879254,0.00287339694575503,0.6071661212086981,0.1712471643199494,-0.47571844888206805,-0.6708416014793415,-6.1359174919672395,7.728957738091992,-0.0035729777570291227,0.002933480772497449,0.0038979024494159562,0.15524938272089556,0.4288208902195847,-0.7822826963017038,0.23812175596155702,-6.155064877222516,7.703513515072104,-0.006270266393676108,0.0025573177329643775,-0.004899092504229937,-0.3065953429845597,0.41751052532520133,-0.3815073827855164
2.0696660233847677,-6.2193707595774,7.234277869723995,-0.0035597403064206467,0.00032785867048203756,0.011400023843967782,-0.54131212299232,-0.2656180853673594,0.28283289051721977,0.005078989940356632,7.5403714960962205,6.271368831056171,-0.008150051035576563,-0.002176286083569173,-0.010508540193574015,0.5414177077050258,0.21597331846871712,0.5117307372076113,-1.3068497221505848,-6.024307599667938,7.544459975260793,-0.005847752797397618,0.0032730759550619404,0.004002959157039165,0.6118226675264948,0.1717403764904839,-0.47380900075628674,-0.6881591697380297,-6.137935069387156,7.754872363633572,-0.003151341129042923,0.00498001326641747,0.0059845112544558285,0.16260319970111756,0.43027371284144533,-0.7801792010554984,0.2065968249696075,-6.139393490982188,7.664047814732958,-0.006083392491012417,0.003195865525677735,-0.003028898701191294,-0.3004608728468928,0.415224951549133,-0.3749749781253455
2.100228087336139,-6.197295204761914,7.240503308794518,-0.001562397517336819,0.0007713946698611455,0.009927010741463392,-0.5431965027751442,-0.253885378707808,0.2801577319658438,0.01031809982607789,7.520348160212073,6.286612922655082,-0.011029637527770628,-0.0018361352908520684,-0.011238425165461636,0.5311916080405448,0.2143430266340787,0.5183857124281521,-1.2930730032237812,-6.015047402409194,7.527772072955798,-0.0032949872279582036,0.00272613871428957,0.0020003674357587215,0.6132840250075167,0.16858551044835374,-0.47206187838825525,-0.6811406161991298,-6.119414232509708,7.742598004074698,-0.0020308235628193404,0.0025174853961731428,0.005610011759056545,0.15871004628186566,0.4271015854800379,-0.7789131372904464,0.2303604351656833,-6.156910105442809,7.695989290971336,-0.005175885209614618,0.001921938536568458,-0.00433269414551105,-0.29851279366272804,0.41373534323254096,-0.3737771097872703
2.0811026382125646,-6.194891835284648,7.253424361537129,-0.0037835936214678065,0.002653385121925171,0.013462143243270526,-0.5431848316522394,-0.2519330668170619,0.280892470059413,0.01570317249991481,7.534282728849485,6.24942723037718,-0.00873260565941586,-0.0042961820112315365,-0.010195368729158778,0.5294190911898312,0.220966562562632,0.5058282112110667,-1.3100329004039952,-6.033167208392831,7.561004368584478,-0.004746804094549798,0.00250755228895071,0.0015359766945313095,0.6038461329421777,0.1709785902911161,-0.4627465179964519,-0.682275764348017,-6.13154659595104,7.7236317666774825,-0.004001475268449565,0.0023122182774944215,0.0068855866353715435,0.15124495759430143,0.42685066391059967,-0.7710019668174513,0.2106520651840413,-6.164758337164449,7.688502292072568,-0.007035097741886863,0.00443453129189327,-0.0037649729060536073,-0.31021878985759865,0.4111480492432457,-0.3690524929881394
2.0830012847971195,-6.210433062092638,7.226180109988416,-0.00137232330512866,0.0020082539668012872,0.008850073940427144,-0.538806305584468,-0.2543955919610383,0.2760063790462278,0.016482135920357733,7.535275801740381,6.281943762299004,-0.010576035386665007,-0.003709678983306983,-0.011822011602972651,0.5416641250244808,0.21573717320541907,0.5122218776348766,-1.3068818023306032,-6.0027702471570725,7.5415979019415325,-0.004092018750004495,0.0031340324781676298,0.0021032092086623513,0.603293283023928,0.177130371702946,-0.4755361077642652,-0.6833460499617249,-6.133909986195496,7.744765099596298,-0.0035498710653912684,0.0036759263734182446,0.005216151140094202,0.14892286362374052,0.4361498512598029,-0.781208408079532,0.23041423115472537,-6.143915024375402,7.678565032937116,-0.0053165329252397074,0.001320627593914424,-0.004162026719404132,-0.3109314289160692,0.42096034658964354,-0.3785273255649301
2.0983567735891895,-6.2039763455274946,7.231584732006096,-0.0033726774323016213,0.001562733917877199,0.010325085890178325,-0.5400299106585208,-0.2551244285103435,0.279423980677072,-0.004484262568750633,7.531853749461874,6.26972149268166,-0.007991187637857304,-0.0035452505224001568,-0.011731571585681862,0.5365328576882246,0.21297647361667088,0.5086226789317548,-1.2970022578291316,-6.0248661053364145,7.543426080751674,-0.006721668121602265,0.003559404672191024,0.002254012653607028,0.6154849347682168,0.1654419081712642,-0.469343525587618,-0.6783631195014705,-6.138545901007387,7.726213113425401,-0.0031241519237678434,0.002938090334567242,0.005405154294110413,0.16214138211381676,0.4278289957888802,-0.7779796756410154,0.23068393175133567,-6.160418115161061,7.693170958348007,-0.007314859633294825,0.002409420818142939,-0.003811079881909234,-0.29926780721768476,0.41105483151668537,-0.37329301013534677
2.0814013371202065,-6.209880090586905,7.249184939175893,-0.0030173794254367402,0.002116542333731831,0.010443507023623438,-0.5385612600318207,-0.2543972547462086,0.27625032763153484,-0.01160690900314481,7.538425482685748,6.271206174197953,-0.010359233418535296,-0.0035343620265229736,-0.01057648084410755,0.5463081265102276,0.21354632334334692,0.5117542227597385,-1.301898218686046,-6.0170082308090365,7.55639650912546,-0.004092013442805397,0.003135032341816461,0.0021031935716107355,0.61277659908342,0.16951554114126793,-0.47524592672987825,-0.6729024766498508,-6.144848250901347,7.729488555756011,-0.0027517557709899583,0.0034987387432573545,0.004853303347541075,0.15670753925232545,0.4256457847792937,-0.7825519953415876,0.21106104419648697,-6.153126415130774,7.669970413404448,-0.006697335097038092,0.002393386632134302,-0.003613210349135874,-0.3014975215897123,0.41281114385427586,-0.37937166515039744
2.0884625858543533,-6.183381705631154,7.253038118000105,-0.0027165187762209467,0.00106961529235494,0.010593512489481453,-0.5415219472485787,-0.25975500947867464,0.2808851585271839,0.008533614100572682,7.528191668901918,6.278573891113422,-0.01133489657349893,-0.0032859430026184783,-0.01170141924091368,0.541673173847762,0.21305659781241806,0.5125103125170162,-1.2981544803501628,-6.0230339844912875,7.532602810152134,-0.006341864243227108,0.0033253293761875413,0.0017406367973651596,0.6191489591981605,0.1676006896816756,-0.470626832397029,-0.6785466492314699,-6.128101248539468,7.712969557306949,-0.0025638997018509503,0.0017068273664760387,0.005217404590397133,0.16432293718182375,0.42563051358738846,-0.7789896437073309,0.23461730738118394,-6.141794450545875,7.687456684688512,-0.00674409490852482,0.003178628317932645,-0.005266638005525564,-0.2956187821617614,0.41176110841394015,-0.37576215696890036
2.096299003047651,-6.224057916234897,7.239845256161497,-0.004801078043215102,0.0025877236849490568,0.013083292313225732,-0.5422468869404274,-0.258530059642377,0.2801533980870557,0.022653919954482037,7.536666595730211,6.250530088717043,-0.008426352594596098,-0.002853502886753114,-0.009740261045107328,0.5345869720031998,0.2164730945768283,0.5136991179161025,-1.2994638363050293,-6.0276518568829704,7.54077623382631,-0.0038064794648201192,0.0010683411175537677,0.0007670054370385593,0.6169730987013908,0.16910406766344566,-0.4689241284466823,-0.6858745693159407,-6.1379878576510345,7.733649415079928,-0.004380216713258447,0.005893048152580087,0.006155417940015427,0.1602491429318304,0.42757813937582434,-0.7733169199173919,0.23090635101219503,-6.148884041177567,7.674571203187906,-0.005941708259272581,0.003799157998692112,-0.003197566334365205,-0.2992414540716446,0.41226866800233136,-0.37157911734470656
2.084169077810308,-6.185963562388389,7.252071692958603,-0.002882748248633355,0.001751671199078696,0.009399153873903733,-0.5380513659367566,-0.25073950452989635,0.2777184844238723,0.005635846885026306,7.525085057360039,6.282298828682345,-0.011423362100496333,-0.004555401321286629,-0.010916965655481564,0.5465214674272387,0.21414238130161448,0.503441423798888,-1.3060078897988903,-5.99975568630495,7.540752975462031,-0.005450536679991288,0.00475208245907479,0.00246257572517542,0.6069661312347441,0.16964633327461662,-0.46885488880186066,-0.6787142884538949,-6.119694880111764,7.721219741362396,-0.0030959616979090057,0.0008971663182506166,0.00482578612896148,0.1536123632853052,0.4300333485309623,-0.7768873950857687,0.21491165076795898,-6.150736181184074,7.679086088733889,-0.00517386520599955,0.0019239183131238753,-0.004332702523203482,-0.3063102717618207,0.41478778725338805,-0.37321967111158233
2.079973071064267,-6.202670249842616,7.245492655666267,-0.003569773894896175,0.0003219106383499559,0.011408020594311483,-0.5383582840462532,-0.26148183221823496,0.27990597296336606,0.011838182955302645,7.552156399244603,6.262587128455311,-0.007389202322249388,-0.0026061643642138147,-0.010638038839352217,0.5438338830127533,0.2208093547673176,0.5084678529312467,-1.3069919726137735,-6.040696629587215,7.5445526904739575,-0.005562200441813416,0.001208400053701127,0.0026677395966071644,0.6190752564661042,0.16431290025499984,-0.4779000889299121,-0.6854230410442929,-6.141424503970746,7.7233029330549545,-0.005816761995632907,0.0037140815131072955,0.005922034059354547,0.164231881620232,0.42442373783059395,-0.7858273843544684,0.21470263971244827,-6.15358258333079,7.694908664699826,-0.00826810029647805,0.004469571082548596,-0.004158716367513536,-0.29567549685992134,0.40933546034488755,-0.3796779218862714
2.0779839541637766,-6.214544584600844,7.226234469718319,-0.0012131394763687945,0.0013182332573428116,0.010051426898212562,-0.5349268404390989,-0.25905712251582674,0.2755134317137058,-0.0002701811596722524,7.543257883426288,6.259434596823366,-0.01054606982500696,-0.002943133940018501,-0.010593642048756832,0.5379821583767525,0.21810714422894167,0.5085326756950694,-1.3095010630920434,-6.021589947585288,7.530660080501418,-0.003911283499426206,0.0021649872216795312,0.002361958237793513,0.6162415986227072,0.17538945905314504,-0.473167118042849,-0.684172798542684,-6.132402887809012,7.732169755288288,-0.001264914591702565,0.004378228051800715,0.005825578958534785,0.16649466323886727,0.4310048431810813,-0.7814489640100801,0.22248293296024918,-6.139938151862642,7.684063914638657,-0.0054612961955439795,0.0023603082666701254,-0.0032174836053701222,-0.29484834544707345,0.41786853251490425,-0.3786722664375668
2.093793064664985,-6.184299314483913,7.232980203311814,-0.0036528885290099708,0.0006629381460429172,0.010811341286313579,-0.5466396234850178,-0.2580120948630437,0.2767367552703142,-0.011523188324729653,7.547141106091628,6.27405185311429,-0.0097862131634332,-0.0033699327843012537,-0.010718187624273911,0.5428776418987364,0.21818249219512204,0.5121771916807627,-1.2850515096168658,-6.02442140034463,7.552255709205766,-0.004054537395910119,0.0031993510069575595,0.003031040355958006,0.6128086056643773,0.17271956657769458,-0.47334285511233287,-0.6794104930284727,-6.136892738772686,7.713711955026249,-0.003979630334621726,0.004412772544953575,0.005024198828297157,0.15918975038767028,0.4283234701937516,-0.7796491337016245,0.22323513977049614,-6.16852137992641,7.680608986800163,-0.006121998613056383,0.002343071058925036,-0.005455222909704391,-0.29903329293341624,0.4135114583889977,-0.37743591834827
2.0934253659407114,-6.217742263330152,7.2358144706097205,-0.0037915424168360997,0.0010238293832490395,0.011859691711647845,-0.5322035470590368,-0.252478684998223,0.27283273814802295,-0.005120375552788957,7.527183389285927,6.267381735835644,-0.008909923572568623,-0.0017556521158975957,-0.010393893812182722,0.5446026098418392,0.2115763222046212,0.5110596096247715,-1.2985941969149069,-6.02396586848074,7.5404629498819915,-0.0033323926156552585,0.0026678972090625444,0.0010774260703187905,0.6157684949046554,0.17324871315206208,-0.46971153461035,-0.6808737211681174,-6.1274413993506895,7.753459932289774,-0.0015047906131460346,0.003324156811953769,0.0059997033843456745,0.16215184076945222,0.43149004297398386,-0.7774846886462702,0.20702346009222752,-6.1415089450425,7.670693813949844,-0.007173719112416559,0.003834191886152677,-0.0035923180087946496,-0.29897949807444335,0.4154471187758736,-0.3732771523077446
2.0981096275367697,-6.206948607080541,7.233457133963224,-0.0027225528427550624,0.0010636454461844197,0.010599508402903291,-0.5390180237786422,-0.24877555344273333,0.2718614298958734,0.000806852566729948,7.530631322712645,6.265226996662542,-0.011125632418167731,-0.005066103300155358,-0.010285430600999176,0.5343367160476725,0.2129739221016708,0.5088742746081986,-1.3117367303529393,-6.010977208823457,7.554988616377456,-0.005268806780829898,0.0037820319111505933,0.0027213327119849696,0.6203453815393914,0.16367998442258053,-0.47106304089386025,-0.6726540519441966,-6.1339718637904435,7.726032027356103,-0.003792787301157142,0.002620864184244901,0.005387313283625097,0.16580379116570376,0.4226971022336365,-0.7775496227671687,0.21918651578649073,-6.149386286993207,7.669266160641138,-0.005789359652227769,0.0019429322165502346,-0.004530576367201897,-0.2944453098950585,0.407846115063602,-0.37676408306701703
2.079121580588461,-6.204312149234048,7.2464963664602875,-0.0009975069344484691,0.0022309379538393665,0.011219196885777797,-0.5361143951139965,-0.2534363253620353,0.2769836848381908,0.01091268729778097,7.536749824988455,6.249994822809491,-0.007309287197722491,-0.0032892033001105125,-0.011253080614291902,0.539470666963011,0.21624378767789215,0.5136861994945968,-1.306082484581765,-6.036938911217764,7.544298987546266,-0.005599634426311746,0.0011491118980126193,0.0017418143234886293,0.6067028796138755,0.1720236030640069,-0.473040555287925,-0.67415114026305,-6.134601996997859,7.725401398537808,-0.0036884585029806948,0.004167365371860367,0.00558895300831994,0.1508512109801929,0.4276061194817349,-0.7824713478157406,0.2309676511210592,-6.144972209655452,7.686075418521393,-0.005791905066344081,0.0027634268264626477,-0.004142134459097671,-0.3061177233687579,0.41088564427069224,-0.3747025069955988
2.077145753626022,-6.2054491514189785,7.246089756271092,-0.005245404934969369,0.0007513786983202129,0.010761745263660055,-0.5385942352861416,-0.26001280816357697,0.27697832931373395,0.005045359886464269,7.53278876742228,6.264633648513961,-0.01086978353394634,-0.003212244889738681,-0.012470342805773095,0.5357944079398949,0.21591599185627233,0.5093085889027001,-1.3067652157658871,-5.997701791477649,7.538872537635859,-0.0030573980790852876,0.0035294681535359943,0.0021590186518834916,0.6093908657678927,0.16887352567591074,-0.4705709205204308,-0.6866393248840255,-6.113714940272552,7.726871799580473,-0.001348152969097601,0.0035711765705564356,0.006941208502402309,0.15804191620590985,0.42684893408671837,-0.7740214281336121,0.21933243164200772,-6.15319817484954,7.684313782264965,-0.00626420825529746,0.0025622529723784886,-0.004898121746118685,-0.3029008579631383,0.41353147476498625,-0.37276486952754856
2.083762805232104,-6.214019439767747,7.229349759148589,-0.003738014314450321,0.0010019748136745386,0.010217660615704867,-0.5395110810502821,-0.2497527038481167,0.27527866102825854,-0.012744195652569821,7.531647716257723,6.261526007292153,-0.00994607225202682,-0.0020080532183427294,-0.009500036106761152,0.5341145365312244,0.21332640270171435,0.5154621369086011,-1.3066628825244593,-6.022024005952364,7.560273310541381,-0.005088102978250358,0.002809955872507567,0.0029781289557841645,0.6086457407337094,0.1676462546101162,-0.47127810325105746,-0.6636409405259605,-6.147112365337849,7.732016865753678,-0.004296962194612812,0.00391474510186151,0.0031372337632888563,0.15728790561635245,0.42807402951402107,-0.7757183135819667,0.2235628011577767,-6.160835635980346,7.677020034583871,-0.008266072078916095,0.004471546709714178,-0.004157724787550045,-0.3070636307201618,0.4140702803413336,-0.37492553251012595
2.077837654729665,-6.211418272768582,7.237027290702799,-0.0015744656504050498,0.000759454977520105,0.009939002568307072,-0.5376348895446517,-0.26295134182993146,0.2801485155290826,0.0018521702143811138,7.529605918931067,6.268459875271497,-0.009893124176418674,-0.0034616939153905542,-0.011347391033453828,0.5319188923280757,0.21704197747302836,0.5190705919314543,-1.3113872048302335,-6.022818829821517,7.538032006897749,-0.0028208480971940444,0.00432975664281054,0.002314724913806117,0.6075062671951821,0.17240447174693405,-0.4640183628470286,-0.6689170853622983,-6.13208958714147,7.737278619256874,-0.0007066775333429845,0.003144969186704227,0.005636851752401266,0.15220647271538124,0.4283169657601744,-0.7722328565598199,0.2113892587656075,-6.140164961191752,7.660872114333563,-0.005791905066344081,0.0027634268264626477,-0.004142134459097671,-0.3067943274710071,0.4125826568262407,-0.3700517109051288
2.076552268621392,-6.188465269085461,7.238137012503658,-0.0027265696544150645,0.0010606655309398525,0.010603506568635632,-0.5386106232308854,-0.2629466725551842,0.2813697194315584,0.012680193820191593,7.54868477109291,6.270815959093973,-0.008727636007291276,-0.004304431031041657,-0.010211251305459017,0.5458301789257273,0.20665722607732423,0.5086955921894099,-1.3111834065160328,-6.007120941999496,7.554776147758789,-0.004746743654553928,0.0025145981213051806,0.0015388667799002202,0.6072452478420144,0.16778366542906692,-0.46296711270075924,-0.6833565501754091,-6.134121678930677,7.732629760378487,-0.0035036284184751638,0.002375461109235061,0.005951093800618921,0.1544249392389496,0.43050874978678605,-0.7707926023931893,0.22351527282678568,-6.149633472088259,7.676276875655663,-0.007162054821717491,0.0013746635784118257,-0.004756668663771024,-0.30990751250329135,0.4160191914337709,-0.36683774375439304
2.091133376337407,-6.219086943024905,7.259605749982147,-0.0026464722577531443,0.0007166539914994645,0.011202183833762543,-0.536883925462613,-0.259778458338081,0.276489188774797,0.020015336158047056,7.528906847595202,6.242223531582441,-0.009233640340582338,-0.002023763207461982,-0.01227061113151638,0.5438701909894093,0.21504019816752568,0.5139351224378569,-1.3047342756070601,-6.029210143718168,7.535209606956934,-0.004328500528699143,0.0023408054168517706,0.0019513928803520438,0.615183412485545,0.16025601519372726,-0.4731668878956638,-0.6812202108064986,-6.13841357465481,7.7448815035276874,-0.0025991451321587594,0.00374476670048243,0.005792859219844149,0.16481556618610008,0.42025758000618463,-0.7782734367567099,0.21165966829821561,-6.1441904426826515,7.675753820064128,-0.005650220834604243,0.0033667192994770254,-0.004310802092271582,-0.297149973048311,0.4042022166585999,-0.3745598937281757
2.0983765092222573,-6.192609654538479,7.263484872875144,-0.0028086843059510974,0.0014016871394542877,0.010006827051198219,-0.5457027192405813,-0.264854825019882,0.2779514652922755,-0.0076232953726359486,7.533171470373343,6.251857841244855,-0.011796029897564723,-0.0033779911554158775,-0.010954208296800428,0.5379969713483675,0.21520588269236599,0.5102899585613884,-1.2910279532213638,-6.010979623899966,7.5540607468380525,-0.0040919505468079,0.0031410939061263174,0.0021070991422746685,0.6176960927584864,0.16811561708340014,-0.4694023982912391,-0.6674273269412956,-6.114227878823484,7.754826159420961,-0.0037968274287641744,0.002619874316929229,0.005384364125844261,0.16463049481401734,0.42806327146676987,-0.7743495662938401,0.23946907596708233,-6.154318319979292,7.70275051370559,-0.006118958521220336,0.0023470406646204653,-0.005455231409775663,-0.2960896104689195,0.41126589773245903,-0.37307423061460304
2.0833463669094443,-6.204632642783451,7.249377219359485,-0.0030859861822406143,0.0021244695960689784,0.01210352879198453,-0.53663833441766,-0.25978686176013255,0.2843021344050402,0.002190122178043836,7.551979414571635,6.276266045541975,-0.009184219398426462,-0.0024358790624291623,-0.009626571779963327,0.5394343941641051,0.23142619893317162,0.5163650926913523,-1.3235446555708963,-6.024712789593103,7.545372038973428,-0.006634184042836886,0.0007627217822963879,0.0016888636915331685,0.6093865797965267,0.16983136582367436,-0.4718060127768156,-0.6873992837638286,-6.147509342978133,7.712370135838887,-0.0049713899113419365,0.0022374256002349034,0.0062951176345498955,0.15678793790158566,0.42880844531619594,-0.7766874176598174,0.2199311764007783,-6.145422843009481,7.662695211671819,-0.008221877854372561,0.004504799752103639,-0.0021158633559908795,-0.30244481633808806,0.4125607721423284,-0.3754587573230194
2.0703478113865335,-6.2248690279556325,7.240061832116815,-0.00247595037624302,0.002278631584676649,0.007881539877187456,-0.534430100548545,-0.25784576869048254,0.28308241317695143,-0.003682009243879042,7.5113817568774355,6.2690849330022465,-0.011218468375065356,-0.0012580770919367215,-0.011265362681618488,0.5367613717175578,0.21587038311884357,0.5063766150119983,-1.3090069831990032,-6.002848521878791,7.555184682772345,-0.0026401365314137775,0.003357696199771731,0.0025725210058487186,0.6122177441323502,0.1821858504292175,-0.4615211065237202,-0.6799413611233458,-6.130839732430672,7.721836342897921,-0.0009468468775504994,0.00623236200232104,0.004532877437400856,0.15836085637703531,0.44246513343811483,-0.7696010218191782,0.2077932980319903,-6.139999944219732,7.6621663908887205,-0.004739689889264167,0.00209677021484285,-0.005616605951974456,-0.3027089950703037,0.42815632214322313,-0.36733453134345456
2.0778040130749997,-6.185220311079271,7.226582644439547,-0.001498504064422387,0.002030054189780469,0.012158120519038473,-0.5356456704498102,-0.25686105986755725,0.2813745383720576,0.015935976948909965,7.548440790617346,6.263334786742911,-0.008914472413762942,-0.0037132029445371842,-0.010228412510108295,0.5369932959136985,0.2217576073877991,0.5079874842103709,-1.297696212170533,-6.017147163943706,7.539282457681465,-0.004490137627999306,0.0016661078801002772,0.003648427553548586,0.61104871691547,0.16948673276420925,-0.4776744320914313,-0.6686459675632734,-6.129276947684246,7.725853496263107,-0.0014266098282289753,0.004126221451777716,0.004880130216386637,0.15891453721329984,0.4290604553860223,-0.7820863112772284,0.2398679494064211,-6.171791886802105,7.69844955061948,-0.007453033013238882,0.002630554104202946,-0.0032520036913312963,-0.30076684876380894,0.41427680248397586,-0.3813246679672598
2.079233480407058,-6.215764199306143,7.253446138872158,-0.002017008202700242,0.0021622848032616326,0.010844343702586327,-0.5346760839782628,-0.2580859317062368,0.2803972482140175,-0.003468283451854723,7.5344677447505,6.264197902900994,-0.00901683873636472,-0.0018494626816014075,-0.0110260636671369,0.5389531206087588,0.21758573597739922,0.5063406793950633,-1.3078303065193198,-6.016660221097322,7.548880993163206,-0.004414876842090408,0.005150559084415033,0.0025213301225987055,0.6098917787601215,0.1759004111016665,-0.4738588967045778,-0.682235539364355,-6.1348005955755855,7.764756563253201,-0.002280781880644388,0.001459436590627646,0.005778260278912798,0.15550386274132083,0.4354121381100543,-0.7820292655111823,0.20794486960181993,-6.142423697392654,7.660219006330919,-0.00607831971260065,0.0031997984286446313,-0.003024923881266055,-0.30238760875540066,0.42062944923274537,-0.37835486976956967
2.0775525372828185,-6.203759201946043,7.235620175150747,-0.002572391433721934,0.00036967344383372845,0.011805859683082724,-0.539775839082621,-0.25316659199666675,0.27234567093391765,-0.002794492543166934,7.535258522595797,6.296778156540442,-0.010845358865236025,-0.004400171238727899,-0.01107153887922172,0.5385045112378636,0.21108626215619053,0.5120657490609948,-1.3254883048981265,-6.007520364028858,7.550856834002475,-0.00432847684390112,0.002343820603402482,0.0019523458174406036,0.612794132062342,0.17317322090025547,-0.4755481524325294,-0.6807645922076897,-6.1236331703944336,7.752240758353569,-0.0006805013637423292,0.0011030492709266427,0.005056508004527733,0.15937663921127734,0.43175016990288534,-0.7842843664542524,0.2276997375323892,-6.152187906906332,7.68146012481886,-0.00573960009455877,0.0011576603729981025,-0.002877173476752985,-0.30194260731218,0.4169658016364511,-0.3791067587279266
2.075456836626754,-6.207018027707497,7.271717713438235,-0.002791148413387906,0.001073575346939959,0.01225653195275421,-0.5353885582340597,-0.25466519173677216,0.28210944344124306,0.015399238394112506,7.546453317486333,6.255935502366885,-0.00997105862042518,-0.0027848304249852773,-0.010743255255839407,0.5394340891797149,0.22126890026896212,0.5074981585677089,-1.3095981915383779,-6.018171671202807,7.547370060293083,-0.0045275769196967365,0.001605819860762938,0.002722517917481667,0.6132603927376359,0.16660612385457924,-0.47374007987443195,-0.6718043713269045,-6.143482908583161,7.728157669564826,-0.003828058976244546,0.0046588073863751325,0.0059607680890175615,0.1591795193896819,0.42197595769348095,-0.7799052984642042,0.20782073165433324,-6.146251928018986,7.675282779033718,-0.005839125300837622,0.004375130214008535,-0.0054041124462382885,-0.3010544467353221,0.4059584847460602,-0.3764736161825578
2.092750730226485,-6.206997554279349,7.245321189500414,-0.002813706795366786,0.0013977122498479671,0.0100118245358342,-0.5449185397266723,-0.2558215166083624,0.27258835466202225,-0.004246958111217822,7.508580556496687,6.274454059300275,-0.011411838454062354,-0.0026202738231949287,-0.011109103032642339,0.5409202910749801,0.21295325678871552,0.5064107288293153,-1.3071488274710115,-6.0314632634966685,7.5416924741898805,-0.004908362376255168,0.001841915907455567,0.003236870027236938,0.6113663910118999,0.1773610805618917,-0.4736480924473388,-0.677479398322045,-6.116918008057453,7.751832600391835,-0.0021985729832109642,0.0022634930293735115,0.004660638276402961,0.1584507129344719,0.43638360392983666,-0.7808449521657709,0.23582698977019229,-6.154852977250547,7.68537947554615,-0.006876674568569636,0.002583232450385833,-0.005095012265467201,-0.300952285894446,0.4176848954697585,-0.37837887855339464
2.0866255686388726,-6.204564133680816,7.252912612339138,-0.0037265008938805796,0.0006698940307324157,0.012472363211336346,-0.5380349281709174,-0.24780585762472035,0.2735710942040345,0.0007869366197480916,7.55920629778978,6.2594296682523005,-0.008255998472436363,-0.002274308525931799,-0.011153645410896045,0.5460550415051916,0.21845622110372337,0.5133829517006234,-1.3154963599826068,-6.0238027852223155,7.533131508790111,-0.006776401228340755,0.0018011107855909088,0.002359875278604784,0.6132416331642345,0.16801761832490378,-0.4771804694510133,-0.6754585303159799,-6.1312073304417565,7.723728972987183,-0.0052948194485275615,0.004521770792908578,0.0063047807181450186,0.15794341761018774,0.427596569267317,-0.7815873552191299,0.23571968334331822,-6.156252431474091,7.684261502734786,-0.00793496406138249,0.004890880035635385,-0.002841648785756521,-0.2990813490479509,0.4103457498503901,-0.37940174261774134
2.0734949818788864,-6.224969609334351,7.2434471012757315,-0.002954366139341545,0.001757613520533029,0.011062174489093525,-0.5332233788862616,-0.2600442742736725,0.2767322045165641,0.01122546409586273,7.518471168338396,6.256876665567343,-0.008340461346421293,-0.003545771125904386,-0.010370172450425067,0.5438646966477154,0.2160049283198224,0.513187045873955,-1.2931638952841018,-6.019641006191037,7.5150164828507195,-0.003891813760032239,0.0038831198667823538,0.0013388565111407287,0.6191602180129551,0.1714871304568665,-0.471907725577596,-0.6871431710211688,-6.123897217893752,7.7283358468867105,-0.001751736068727403,0.0022661028263141806,0.006168912442731728,0.16482475787617906,0.42855855962163164,-0.7782575013632,0.20751610423261335,-6.120990144145928,7.658015371043957,-0.00544914731353862,0.0007242442336748128,-0.003993404918780917,-0.29414141579539155,0.4119853005429202,-0.3745523104873901
2.07443715196375,-6.186717860799528,7.250608007123446,-0.003451317573396207,0.0015647122567444308,0.01199410440846503,-0.5410050993412697,-0.25487519266968095,0.28113340266381714,0.0008926117632439522,7.535245168395369,6.289011644807433,-0.010735457641132496,-0.004316565694730266,-0.01045221195912749,0.5433942142080876,0.21411042700803648,0.5168825826487204,-1.3052867437709557,-6.030116761044934,7.551809554274642,-0.002260319582638796,0.003124636363021297,0.002060129360798642,0.6189128617642545,0.16520223682424903,-0.4679011805681254,-0.6681019167641161,-6.1301109710212325,7.757847558568498,-0.0021492627698937307,0.0009650148439372098,0.005400544962957865,0.16310092294271775,0.4266093031523856,-0.779215734810373,0.2275711920633806,-6.161547178213533,7.710235563888674,-0.006689268913924378,0.0023982976169893847,-0.0036112561439958822,-0.2958914009456278,0.40932373056107274,-0.3762580523218075
2.077722864097466,-6.223719369881847,7.245515353256807,-0.0026576417091746444,0.0023252990135325564,0.01283062064139221,-0.5339036752294498,-0.2510045002126007,0.2738113996942218,0.0002724941618449696,7.5338465627706,6.269056088652145,-0.00901684667407387,-0.001852545119906995,-0.011031013264199795,0.535305542179661,0.21813953813592513,0.510982651688474,-1.3138128602488208,-6.02222591397415,7.543401405708439,-0.006919628984025018,0.002837505489375034,0.00303092581915286,0.6187087506088215,0.1705966764223936,-0.46651851572869457,-0.6922232949065231,-6.135731018446701,7.740002649309931,-0.0008462550837246316,0.003633407340462176,0.006010660898066517,0.16246463524993524,0.42708392999837735,-0.771881822053251,0.2282985161250583,-6.144051739481663,7.660133063539004,-0.00568832032004847,0.0033403930794466147,-0.006349684717472894,-0.2984851752741166,0.41347616259656256,-0.3701162570693172
2.0930265923681297,-6.204399645642126,7.233536443860755,-0.0011698101354556414,0.002900017008272811,0.01003882794945275,-0.5422468369151472,-0.25853027802014616,0.2803983979846243,-0.0013446768551663851,7.532334476011046,6.27087194369408,-0.010270345113269576,-0.0042347527072306304,-0.011214269024904949,0.5350609972717326,0.21194261538839287,0.5054703995852841,-1.3097257359677124,-6.015703920475966,7.54594634832477,-0.00488792943627685,0.003556012478967363,0.0022118234729305757,0.6096648709109433,0.1713481318687286,-0.46841431337677913,-0.6776447090413298,-6.1248298084540345,7.7533766035818354,-0.00395853135848386,0.0023718696411454514,0.004437923150451399,0.1572791399709351,0.431737910099837,-0.7766881977071804,0.22851419363319342,-6.145208182723826,7.6591984538663915,-0.006689268913924378,0.0023982976169893847,-0.0036112561439958822,-0.3060837048894491,0.41405844411652803,-0.3744456103601011
2.099086188140609,-6.214862482053655,7.253648889070122,-0.004486432880905347,0.0034487514253620844,0.010983994656371348,-0.5432019177853257,-0.25461257830449635,0.2747860826451751,0.015857974812647765,7.543623924843142,6.251685214356765,-0.008719118959083312,-0.002359197947849626,-0.010396544888577938,0.5453507511691261,0.21239944470521865,0.5164161743731355,-1.3081038273043961,-6.0327304282444665,7.549234794842053,-0.004328453159103098,0.002346835789953193,0.0019532987545291636,0.6081041824720225,0.1685067271632439,-0.4788574688336451,-0.6889236805961702,-6.12933139903069,7.739347670124681,-0.004838187219668274,0.005887469605743596,0.00463728326381772,0.15349108329775063,0.42467936019060115,-0.7856859325787783,0.2161641526501869,-6.156931293238079,7.690917595809209,-0.007309328777883977,0.0032358263537727405,-0.0034206797021976393,-0.30838207969119985,0.4102061632189955,-0.38201103659774194
2.0845304241885794,-6.202971096692538,7.240949455068317,-0.0018072964234727015,0.001450428113102068,0.010402666193165383,-0.5280451669471771,-0.2512832825425929,0.2740539550879488,0.002850279782770561,7.5344665657510905,6.270386180226712,-0.009888151465219755,-0.003470942793356468,-0.011363257047436673,0.5360232402780135,0.21782494942768213,0.5065907797203644,-1.2971340997091216,-6.011086438678723,7.537484300334864,-0.0061794644306731785,0.0006562215705094038,0.0030271976480638293,0.6221194236900931,0.1688731625970915,-0.46627407713378477,-0.6745076632216445,-6.118737538528676,7.752476141654956,-0.0030017403335946004,0.0024406938058356975,0.005019552043342776,0.16562956607627397,0.42781490962965685,-0.7726540076806395,0.2201818182047095,-6.135101262831301,7.669704277965666,-0.003978424516931874,0.0026879998613489465,-0.005585404381820839,-0.2936368889627066,0.40902726933115996,-0.36895349159182356
2.0718501014655093,-6.199318209807489,7.233067296858548,-0.0033959083006893406,0.0031604356644203643,0.0119695154130971,-0.5375417647884511,-0.2473307548329147,0.28480142167991046,-0.00013689864458264756,7.543651009226257,6.258991561975335,-0.008149647339578457,-0.0041421687958570885,-0.0103639407518149,0.5494513651649031,0.2186092869636136,0.5072639131780269,-1.3044376215429874,-6.026933409428529,7.551133213437271,-0.0036736575953554428,0.0029723473067297147,0.002522546602198635,0.6089004781595486,0.17249580634858244,-0.47330902072348613,-0.6714650217570263,-6.146337473542185,7.727731658104719,-0.0035338132374441926,0.0016330346867608463,0.004626937509271126,0.1552587312516291,0.42857547315138217,-0.781550229191447,0.2242733536452256,-6.159542379096725,7.694886320901837,-0.008400683701455981,0.003872167034497505,-0.003985098845078078,-0.3068613073878408,0.4143340994538987,-0.38029732715856923
2.092393396559865,-6.229017520287074,7.23372963038745,-0.0023843509493672067,0.0016005375152135786,0.010736917956874106,-0.5429472915850072,-0.252907442253496,0.2774735516302408,-0.007469400220738859,7.526566492478748,6.277789490561746,-0.009696779761721917,-0.00211381764783519,-0.011523426365641458,0.5401913681248345,0.2196594565218767,0.513383082052704,-1.2911970531597534,-6.021188369261786,7.543684696512983,-0.0032938667873801107,0.002737256551473184,0.0020081865347649753,0.6213384499576292,0.1736109740190483,-0.4758653588499673,-0.6730046788683108,-6.13519132145169,7.74574500411692,-0.0020962593485918295,0.0038079983199836923,0.004861300498677564,0.16721400684602988,0.4283194754125601,-0.7821966629619466,0.23226086226614115,-6.144166857658406,7.667300342859892,-0.005173852996580072,0.003571840258502514,-0.003551831687667659,-0.29243601472212655,0.41442315893518733,-0.3779743478394012
2.093196049155526,-6.203847726865808,7.258354911582627,-0.004908167627982827,0.0012942765597425765,0.010899160367777067,-0.5378299208675096,-0.2543987438386071,0.2730761756488238,0.0031100369834008053,7.5456567336251945,6.280275255114996,-0.009481514941791178,-0.0038919270718630115,-0.010105491975945083,0.5360584819922306,0.20907765022222594,0.5091769963841041,-1.3093411487372448,-6.015623217033651,7.554818450477956,-0.0037110968870528727,0.002912059287392376,0.001596636966131715,0.6150384214930631,0.1732564916197704,-0.46946195033775595,-0.6652466702688179,-6.129991889604557,7.736884477042461,-0.002075154698121491,0.0045484460898372854,0.0061795715989628455,0.1609851343855922,0.4312393383512952,-0.7733194971253408,0.22419702805600084,-6.161903070350393,7.692998072451744,-0.006257111728337506,0.002570173832405082,-0.0048961470862629725,-0.2986937655054451,0.4173864093376062,-0.37058633848731987
2.080438360326565,-6.2112714887855764,7.231270888105639,-0.002883308043755316,0.0014066471762417532,0.011669847404588759,-0.5405299656641385,-0.25732242803977456,0.2838171254572924,-0.0005687030451967112,7.541976525483884,6.2512676848300055,-0.008611213927006376,-0.002274565404048313,-0.009775227870798615,0.5438961705974266,0.21070651104791624,0.5176693894354479,-1.3059943864208934,-6.025090329173589,7.54023390092277,-0.004385309513399351,0.0005754453622632852,0.002052381082240532,0.6093643567574951,0.16423235274520162,-0.4707423588464287,-0.6702817630358725,-6.128462500770999,7.745318249367046,-0.00412429709355683,0.0049032296422872315,0.005391078051658548,0.15432920333928649,0.4192910547890752,-0.7771616021243754,0.2163519449971817,-6.131661735228611,7.655516407509371,-0.0037965841954120867,0.0033215899138940913,-0.0037131897192392693,-0.30593640004715017,0.40527156500095823,-0.37546032346822505
2.091384839733863,-6.201528857120982,7.24471234259664,-0.0026842223938066327,0.0026454542363178843,0.010591910499250585,-0.5363683732317045,-0.2551442905193185,0.27747021452611575,0.0057771969453205285,7.534814361293917,6.283898332393704,-0.009995065537279567,-0.003561704066289976,-0.011992477018933984,0.5455702098931173,0.21797491288578053,0.513880659152119,-1.3072471260897183,-5.989644983708214,7.543870386473724,-0.00492534258717463,0.003497755378136121,0.001287882259247238,0.6152669748848288,0.1664619735335881,-0.4666723366864317,-0.6987938464627825,-6.10734651186462,7.75137876883015,-0.002422384395075754,0.0019488807740752076,0.006150097769217452,0.16169611420404395,0.425869917982404,-0.7745593207417837,0.23662232871007827,-6.154947213182081,7.675594137301618,-0.005585809923014556,0.00012390546971420284,-0.0038257663204287616,-0.2980483884424366,0.4080985479698837,-0.36989714935470774
2.0788599679924213,-6.197964770393666,7.236697073439549,-0.0034436968828437426,-0.0003869355608337992,0.01263236354174683,-0.5378575869378391,-0.25903635635716815,0.2716080470045156,-0.0031034261667855466,7.551961623269106,6.27236590164841,-0.00814710444768035,-0.002191755560336582,-0.010537298025695238,0.5382285369433167,0.22010105380728134,0.5109401324849917,-1.3094089874169221,-6.046905098209187,7.530071081384793,-0.005522252848846711,0.0046476439114617836,0.0006204817045301146,0.6164918818899353,0.17250040295151106,-0.47043859039450875,-0.6624104976959326,-6.150869395652727,7.742257353957624,-0.004471526790511094,0.002303664326525153,0.005361604221913155,0.16606124428429334,0.43197334353062034,-0.7772910375938532,0.22511856889737003,-6.163429546983032,7.673593347342439,-0.008869956884986756,0.0036739628452464707,-0.0047410986986377406,-0.29674740023174495,0.4171248159717267,-0.371091432668896
2.0785216780741114,-6.220484573837782,7.258490078871787,-0.002746659816262635,0.0010447668638524042,0.010622496507597643,-0.5373362152286225,-0.2536757288509652,0.27991272215051427,-0.007970244419443814,7.52447743649077,6.282364481509027,-0.009207231204453105,-0.003216831998251544,-0.010880730051001633,0.5384824264257279,0.22163133128489984,0.5148214582858249,-1.29822263324689,-6.012666660872745,7.544788503820164,-0.00432842171110435,0.0023498665721081212,0.00195525153986113,0.6118692441372738,0.17521503714043635,-0.4702000040831101,-0.6852653577608286,-6.108548761223535,7.745787425617639,0.000616488183833557,0.003766450205856242,0.005665693176125855,0.15776443615269833,0.43222585279134323,-0.7769376441859522,0.21266105385420436,-6.144512423270646,7.6742441947896936,-0.006405872063670934,0.0036068782953529144,-0.003947583319753028,-0.3026375395343629,0.4174449237524846,-0.3751928967982592
2.0896477295828766,-6.208504534671713,7.2355014757518985,-0.002248849975176344,0.0028512485099088433,0.01131200533609722,-0.5392576390049962,-0.248542957215926,0.2862656921657217,0.003406014562279139,7.520227299738748,6.280170663109552,-0.00855330282911199,-0.0037263405299748334,-0.011631631999344362,0.5443628096502383,0.21630296062285448,0.5163548552405469,-1.2853044953821147,-6.019672463494129,7.51074831162422,-0.004508099417102042,0.0033239681014699774,0.0017004160390722894,0.6111562264776765,0.17525707915060923,-0.4677537532197514,-0.6697190299070817,-6.133947490744554,7.725707531445059,-0.0019426356740862055,0.004054023261136124,0.005801843158508755,0.15680990764315572,0.434177070637165,-0.77545621438923,0.2408114106613148,-6.1822301745185735,7.698487490160413,-0.006119948099661508,0.00399396857233156,-0.0046733564277377,-0.30363489460031323,0.4140298559530492,-0.373489802908398
2.0791910550245865,-6.202201874980537,7.251387235286752,-0.001735244448856269,0.001098456778767653,0.011009338009521412,-0.5336741791824818,-0.2536977675069289,0.2804009549785887,-2.202004767652352e-05,7.529270834055888,6.2689849190677975,-0.011518191986527352,-0.0007686598752769557,-0.011913540546690405,0.5480111520525469,0.2085679861167041,0.505726034934195,-1.309059110887007,-6.01291203976341,7.553686806779451,-0.0036371921186405622,0.0030346716723604174,0.0034504323400223642,0.6150370248014978,0.17228723548971997,-0.4689587469955449,-0.6911980107338173,-6.120333543318126,7.757415506658169,-0.0031192231207136877,0.0036725805741314116,0.006710625011853795,0.16388654825780144,0.4287979512795613,-0.7753154679938963,0.21225386962423362,-6.133143458165679,7.673706690887466,-0.006545556464622588,0.003003565717169344,-0.0037789321972063012,-0.29848953515908705,0.4154412006634708,-0.37303719123273216
2.0922857957966405,-6.198583778772342,7.233094778837687,-0.0036215685317224538,0.0022427829179941738,0.010809743065993346,-0.5414582397101569,-0.2485141112978397,0.2684441597554755,0.011893807218885697,7.537615560369169,6.284749093524771,-0.00958743623427339,-0.003983734919311538,-0.010737698428732276,0.5414273815131522,0.21502882366571058,0.513699638927995,-1.3067744965503505,-6.02623393867115,7.547933960890264,-0.005958900011118297,0.003111344239028406,0.0012339240996751424,0.6202993916537257,0.16455404498449078,-0.47766931791382616,-0.6760749646857872,-6.132781860059923,7.733734897089895,-0.0028712462736090348,0.0019472770068241498,0.00463985194752809,0.16815375361095172,0.42368415072510257,-0.784659176324279,0.21605296164866383,-6.1594684765301855,7.715547024274024,-0.007631352396549447,0.002822389751594491,-0.004733805730041464,-0.29444767379093595,0.40981014482878036,-0.37944202752004247
2.0915503899952563,-6.221125321818522,7.254979846016121,-0.002748812747320139,0.0026563631965752653,0.012245934102715511,-0.5451820950519817,-0.25949093432587156,0.2825951419688921,0.0008550621116857858,7.528879378768375,6.259742080778419,-0.008362491517431393,-0.004320721910848308,-0.01162443356856597,0.5387502356078279,0.2135721628426296,0.5147100883567673,-1.307571069652617,-6.027053225480184,7.5471408017528345,-0.003293848409781187,0.002739271874375064,0.002009155108905151,0.6177082555115175,0.1693478665809101,-0.46868960221708805,-0.689794852251316,-6.148466528610006,7.7320794540485025,-0.004367212222023574,0.0038491674506582123,0.0055622421148850834,0.16119595711895573,0.4273363330690359,-0.7755270064779265,0.23199721050383038,-6.144393917643394,7.693786687860881,-0.0055079623822230335,0.004797450914347151,-0.004085024372074865,-0.2960916146719594,0.4112669101835788,-0.3733182202826485
2.0586015624276133,-6.1839570921546505,7.23341969410173,-0.0013184074969972985,0.0016323669613758,0.009481728153415392,-0.5366063996307145,-0.25441704567428725,0.2855279147171597,-0.004729161351739886,7.524679991793682,6.274491903094207,-0.011110109757842225,-0.003143144392602443,-0.010488381547977304,0.5426694758390302,0.21340061251980338,0.5183620388625743,-1.322597771505577,-5.993962806438179,7.54874963612804,-0.003816851447039331,0.004010788524624154,0.003196565413373699,0.6111352097306397,0.16917775886196884,-0.4661935426171502,-0.6959876232608135,-6.108679585715205,7.752401456196658,-0.003296978537622258,0.002685114979737072,0.004449848881484605,0.15999925820279506,0.4251368812943061,-0.7735623839710062,0.22091882634372056,-6.14919252190078,7.658390275011808,-0.005487780423430973,0.0015203965495020676,-0.005644853971226357,-0.3007311359488288,0.41082354808047716,-0.37279392898288316
2.0964893841009378,-6.206366786570811,7.239914986090913,-0.002376877937908433,0.0012614768882171028,0.012995615157766802,-0.5319728113407631,-0.2546757794866325,0.27136573206851494,0.006736747217513047,7.5202108245062815,6.272583448630835,-0.009777255494200573,-0.0033924329747999533,-0.010749849929771793,0.5431090900034452,0.21341541622384363,0.5044422954656294,-1.3094317970458411,-6.028538143155376,7.545632176197567,-0.006433994184070237,0.001514746379440739,0.0009204646898830717,0.6182207900335915,0.16601144243147997,-0.46326972507283637,-0.6802282946702669,-6.134364155633646,7.732115195957771,-0.0008532993803820662,0.0036284207290013717,0.006007743435000594,0.1644241115083698,0.424395405757533,-0.7711796730669074,0.22480953200132087,-6.160081714971198,7.684778250829614,-0.008396645566692403,0.0038751224973561987,-0.003984119709274394,-0.29656437590942825,0.40758369622981827,-0.3669823518509991
2.0731418064655918,-6.211039817658985,7.241806588853241,-0.003470254582579218,-6.277773522518569e-05,0.010390656961330595,-0.538847717936824,-0.2617272955799722,0.28478885614902655,0.0036077774852228683,7.529400918226119,6.261254231454214,-0.008635226234185247,-0.003047406467194554,-0.011022516169556736,0.539464692590833,0.21819651065615683,0.5136538532887257,-1.3234201908907195,-6.032006112435706,7.542643402417024,-0.003695061499118839,0.0012622712132047279,0.0035485381359151693,0.6193717917780276,0.1699715053834508,-0.4750602093886197,-0.6820221503757011,-6.123056962899325,7.750254200180082,-0.003142340720143079,0.0029321369023611868,0.005391380248539554,0.16575956313873505,0.4290516410933294,-0.7814430948374785,0.22057916167194458,-6.1398347088535825,7.674415572790148,-0.006442969761254511,0.0035815461129900476,-0.00598747009145648,-0.29764036505676733,0.4093611718987127,-0.3811267372247542
2.0739831283070056,-6.196612618021082,7.247529278969544,-0.0027536936611896956,0.0010388020255225768,0.010629492630040904,-0.5373171915205242,-0.25050309115032593,0.28138054677185464,-0.015127666065966505,7.528164826607322,6.27969348852846,-0.008851048750770984,-0.0032228198586407145,-0.01227404954243816,0.5340888233068606,0.21840411725727815,0.5124476414744847,-1.2975009722978126,-6.02764230994771,7.546209671388773,-0.00572131616944448,0.003913673814625999,0.0013925909528515288,0.6157874448776273,0.17328678202195563,-0.467270905048194,-0.6891310687817059,-6.1427465489975575,7.7306726826603125,-0.0034536293040604883,0.002438097155196324,0.0035073438514006943,0.16168924093283996,0.43124279437147234,-0.7755259241071482,0.22852498377946384,-6.156912037683563,7.694623301412346,-0.006974701945147184,0.0028336633751143018,-0.0024950578456011587,-0.2989178712929365,0.4183597380448686,-0.36935940702076125
2.0822266639614253,-6.213252139831652,7.235838759441746,-0.002613169993398327,0.0022934870184863295,0.011200582524209947,-0.5402709281609224,-0.2543841264573931,0.27283268699267793,0.005867606438080684,7.542460839611901,6.24743707847319,-0.008230022087979589,-0.001515840646735023,-0.009929128892560216,0.5426218058660385,0.21539904086878733,0.5063643645167832,-1.3053254032044306,-6.016049081022768,7.528758962346404,-0.004053398577733102,0.0032124841670430537,0.003039828029104436,0.6064871210813059,0.17063245961092016,-0.4683784770873199,-0.6850265912684216,-6.122333759306765,7.727399013712108,-0.002881363370126661,0.004723655919428749,0.0065355211639270255,0.15460367880910297,0.4285649335144445,-0.7756821374902554,0.21195123749868697,-6.129914500366423,7.68484304645503,-0.006263141229402907,0.00421315223958994,-0.004114247093526554,-0.30873365088254395,0.4155402200088585,-0.37197659083029
2.0831780044745067,-6.187806464528795,7.260740256296548,-0.0017578022182806958,0.0014225910076621612,0.00876763059134714,-0.5402865245395833,-0.25707116697665855,0.27405129562583225,-0.01447620650867575,7.527869107568819,6.2703548222052925,-0.012683788565751754,-0.0038420635486381086,-0.012722731794215089,0.5382394371960653,0.21792460078829326,0.512197345052789,-1.3059397641657182,-6.0041518383591885,7.554554101648474,-0.0036736077697577707,0.0029773934117865233,0.002525467961670777,0.6154458082277936,0.17043494466078923,-0.4779673999911623,-0.6696779839751283,-6.126638621152755,7.765871661978678,-0.001250838096639061,0.0023283346782306453,0.005238377962895095,0.16180796879670237,0.42808648044759495,-0.784811403475941,0.2324008838281108,-6.151615889691341,7.6880011603494145,-0.0041130204356586405,0.0020926323977509976,-0.00541576204644714,-0.29737084091529997,0.4122905706968638,-0.3816048161079491
