# sampling frequency: 40
# units are seconds/meters/radians/a.u.
seg1_acc_x,seg1_acc_y,seg1_acc_z,seg1_gyr_x,seg1_gyr_y,seg1_gyr_z,seg1_mag_x,seg1_mag_y,seg1_mag_z,seg2_acc_x,seg2_acc_y,seg2_acc_z,seg2_gyr_x,seg2_gyr_y,seg2_gyr_z,seg2_mag_x,seg2_mag_y,seg2_mag_z,seg3_acc_x,seg3_acc_y,seg3_acc_z,seg3_gyr_x,seg3_gyr_y,seg3_gyr_z,seg3_mag_x,seg3_mag_y,seg3_mag_z,seg4_acc_x,seg4_acc_y,seg4_acc_z,seg4_gyr_x,seg4_gyr_y,seg4_gyr_z,seg4_mag_x,seg4_mag_y,seg4_mag_z,seg5_acc_x,seg5_acc_y,seg5_acc_z,seg5_gyr_x,seg5_gyr_y,seg5_gyr_z,seg5_mag_x,seg5_mag_y,seg5_mag_z
6.173845,0.743721,-0.315564,0.801995,-0.657031,2.196083,-0.656982,0.077637,-0.321777,8.940028,-0.232821,1.769464,1.725554,-1.276305,-0.958968,-0.806641,0.194336,0.078125,9.495898,-0.749301,-0.655558,-1.530938,-1.118322,1.067706,-0.748047,0.167236,0.01709,5.012236,1.512132,0.332844,-0.494385,0.099954,0.684874,-0.663574,0.220215,0.170898,7.56206,-1.047968,-1.611774,-1.956367,0.005387,-0.480821,-0.587891,0.219482,0.273682
8.901221,0.601514,-0.969429,0.533758,-2.300771,2.448656,-0.7146,0.14624,-0.270752,10.551399,-1.653404,1.700954,0.798942,-1.054687,-0.373977,-0.825195,0.176025,0.101074,7.849188,-1.902883,-1.075725,-0.0059,-1.109379,0.556101,-0.755127,0.18457,0.04126,8.240307,-3.254743,-2.297365,-2.386866,-2.275955,0.200411,-0.654541,0.208252,0.226807,6.523885,-4.213369,-3.82596,-0.343265,-1.889574,-0.357026,-0.580566,0.213623,0.300537
8.007665,0.859192,-0.655729,-0.185624,-3.125412,3.004643,-0.75293,0.246338,-0.186768,9.296325,-1.600505,1.503623,1.328672,-0.736352,-0.285475,-0.83374,0.177734,0.121582,9.809021,1.194961,-0.440557,0.172104,-1.432451,0.338635,-0.755127,0.189697,0.075195,12.048926,-5.980528,-4.211683,0.144123,-0.419704,0.236508,-0.668701,0.217773,0.231445,11.499426,-0.664968,-4.451164,0.844976,-1.13881,-0.296534,-0.574951,0.211182,0.318115
12.56528,-0.025327,-1.346371,-0.402462,-4.158479,2.946395,-0.784912,0.340576,-0.071045,9.20568,-0.519911,2.02472,0.610692,-0.735829,-0.05162,-0.841064,0.170898,0.148438,9.67766,0.458722,0.313413,-0.996951,-0.830102,0.487337,-0.770264,0.203857,0.099854,6.191494,-0.990639,-2.482938,1.230324,0.286869,0.241086,-0.667725,0.221191,0.218994,7.912588,-0.178369,-3.454417,-1.010284,-0.122989,0.218372,-0.586914,0.210449,0.328613
12.586821,-0.533262,-1.516115,-0.344619,-4.127769,3.187016,-0.790527,0.447266,0.042236,7.459945,-1.869451,0.43897,0.565625,-0.970282,-0.163681,-0.851807,0.169678,0.176025,9.537176,-2.51508,0.721094,-0.701977,-0.572004,0.073355,-0.768555,0.196777,0.11084,8.202519,0.343239,-0.472374,-0.617687,-1.872982,-0.031952,-0.661377,0.217041,0.258789,7.976138,-4.190814,-5.214461,-0.752278,-1.178146,0.019583,-0.57666,0.196533,0.344238
13.937566,-0.127772,-1.36693,-0.372334,-4.263534,2.536696,-0.77124,0.532471,0.158203,9.959731,0.541187,-0.104638,0.50016,-1.047818,-0.820758,-0.854736,0.157959,0.200928,9.24792,-1.61164,0.03257,0.427153,0.069366,-0.033609,-0.773926,0.196777,0.113037,13.066745,-3.003029,-1.144346,-1.116624,-0.00676,-0.05747,-0.665039,0.21582,0.26416,9.806421,-1.580787,-5.919649,1.213039,-0.52118,-0.308095,-0.572266,0.200439,0.3479
12.189041,-0.511385,-1.393143,-0.206469,-4.19368,2.798187,-0.733154,0.62085,0.265137,7.770347,0.087706,-0.646794,-0.002697,-0.716258,-0.476972,-0.862061,0.148193,0.2229,7.495319,0.055167,1.904076,-0.111769,-0.223512,-0.154534,-0.772705,0.205322,0.127197,7.927439,-3.2971,-0.347565,0.692863,1.495178,0.147125,-0.668701,0.216797,0.22998,9.207647,1.185195,-5.25656,-0.24007,-0.09668,-0.325157,-0.575439,0.200195,0.355957
13.131153,-0.209547,-1.29528,-0.162157,-3.960059,2.25938,-0.678467,0.678467,0.374268,9.893693,0.645944,-2.994809,-0.071453,-0.942754,-0.977805,-0.861084,0.114746,0.256348,8.214,-1.899845,-0.907398,-0.384445,-0.832332,0.460301,-0.768555,0.203613,0.137451,7.513764,-0.436683,-0.326688,0.782776,-0.058877,-0.372555,-0.678467,0.199219,0.223389,9.701921,-1.921596,-6.296416,-0.7765,0.375818,-0.149299,-0.580322,0.186768,0.348145
10.684375,-0.34425,-1.010381,-0.018055,-3.724369,1.748915,-0.633301,0.73584,0.446289,8.058538,0.560352,-1.357428,-0.412781,-0.665637,-0.582638,-0.87207,0.104736,0.265137,7.997129,-1.128278,-1.132952,0.833935,-0.851135,-0.346616,-0.77832,0.189209,0.149658,12.593509,0.22522,-2.102171,-0.950084,0.846219,-0.40189,-0.691895,0.190186,0.214844,8.81114,-0.572089,-6.242063,0.981096,0.9355,-0.269343,-0.597168,0.176025,0.324951
11.526031,0.208331,-0.752451,-0.053053,-3.000172,1.111155,-0.584229,0.765869,0.515869,10.463109,0.363732,-2.953818,-0.244062,-1.00409,-1.024335,-0.872314,0.075195,0.292969,9.43544,1.609995,-1.212642,-0.514571,-1.364176,0.119992,-0.779541,0.189209,0.178711,9.55632,-4.129178,-5.730279,-0.254253,2.367502,-0.139832,-0.705811,0.19043,0.173828,9.500342,1.935052,-5.969192,-0.983135,0.95932,0.209887,-0.609131,0.172363,0.313721
9.979923,-0.446989,-0.729929,0.074165,-2.505716,0.516127,-0.544678,0.790527,0.562744,9.389739,0.366733,-2.112544,-0.336519,-0.652522,-0.769722,-0.869141,0.063232,0.313477,10.526647,-4.342693,-4.054574,-0.621366,-1.105644,0.497357,-0.773193,0.197998,0.203857,8.394855,-1.274269,-4.464887,1.855522,0.973361,-0.267574,-0.709717,0.185303,0.149658,9.188243,-4.37494,-8.132898,-0.697056,1.863188,-0.287118,-0.627686,0.168945,0.290039
9.842758,0.18024,-0.540181,0.271961,-1.643985,-0.077854,-0.5271,0.794922,0.588623,10.238158,0.344548,-2.067965,-0.246809,-0.923768,-1.169651,-0.871094,0.030029,0.330811,10.29,-1.632949,-4.90787,1.938393,-0.260888,-0.629997,-0.776611,0.192383,0.202148,12.863085,-1.938345,-4.79416,-0.822607,0.96089,-0.467571,-0.72168,0.170654,0.139648,7.977937,0.409399,-6.569873,2.358971,1.296722,-0.999689,-0.641113,0.161133,0.260986
10.172755,0.066178,-0.723745,0.131225,-1.682929,-0.421662,-0.514404,0.800537,0.622314,11.264448,-1.374472,-2.517556,0.477314,-0.344188,-0.357381,-0.87207,0.031006,0.343018,9.304094,0.638055,-6.208601,0.374004,-0.51348,0.023127,-0.781006,0.1875,0.212402,11.615492,-4.044295,-7.740578,0.712219,2.371557,-0.518906,-0.718994,0.164307,0.08374,12.706613,3.687961,-6.085631,0.150428,1.126315,0.147169,-0.656982,0.158447,0.242676
9.224811,0.151607,-0.457437,0.206474,-1.020212,-0.859244,-0.508545,0.782715,0.633301,10.518123,2.991036,-1.208197,1.59318,0.361718,-0.547766,-0.873535,0.026123,0.328857,10.658088,-1.208284,-6.732076,-0.37647,-0.576809,-0.345646,-0.769775,0.179199,0.216064,9.091409,1.69342,-6.231527,1.181676,1.355829,-0.504092,-0.724609,0.152832,0.065186,10.384988,1.231848,-7.065768,-0.655766,2.654638,1.159027,-0.653564,0.180176,0.192627
8.761226,-0.324139,-0.479707,0.121004,-0.890459,-0.947862,-0.513184,0.766846,0.645264,8.837998,2.692927,-0.860405,-1.703239,0.725592,-0.021664,-0.880615,0.012451,0.308594,10.456233,-2.247796,-6.488733,-0.772214,0.692348,-0.21333,-0.773193,0.168701,0.217041,12.1903,0.732369,-6.234152,-0.657445,0.900613,-0.209684,-0.739746,0.151611,0.040527,7.684001,-0.294142,-6.004061,-0.986497,1.340692,0.686947,-0.659424,0.189209,0.188721
8.650233,0.129139,-0.444011,0.404893,-0.240404,-1.34388,-0.536621,0.739746,0.649902,9.615775,-4.316137,-3.053842,-0.354286,0.71707,-0.094161,-0.889893,0.001221,0.29248,8.640646,-3.507531,-8.261995,0.853407,0.788839,-0.190223,-0.79248,0.171387,0.187012,10.874814,-3.297866,-6.378366,-0.181245,1.871115,-0.03544,-0.730469,0.148438,0.016602,11.298236,-2.200496,-5.802554,0.52225,1.22768,-0.029735,-0.683105,0.192383,0.1521
9.450637,0.288785,-0.488093,0.037192,-0.370155,-1.553143,-0.56543,0.710693,0.649658,10.6133,0.194726,-2.224241,2.250344,1.601574,0.391157,-0.907715,0.028809,0.249756,9.787433,0.405907,-7.931985,1.355258,1.352944,-0.821302,-0.790527,0.158691,0.163086,9.249679,-3.164144,-6.642333,2.337405,0.693844,-0.03275,-0.743896,0.139893,-0.012451,9.168645,0.864893,-3.280407,1.313342,1.62263,-0.505722,-0.680908,0.186768,0.124756
9.929076,-0.610819,-0.719994,0.264922,0.380803,-2.246201,-0.595703,0.662842,0.650879,9.362934,2.083216,-1.868616,1.105169,1.52281,0.977042,-0.906494,0.059326,0.217041,9.561104,-0.229278,-6.857222,0.834783,1.539266,-0.31658,-0.806885,0.14917,0.125244,9.695818,2.190953,-3.301601,1.94164,0.658365,-0.314734,-0.75415,0.131348,-0.037109,10.721193,0.217968,-3.142675,0.69622,0.478384,-0.186515,-0.698486,0.178467,0.111084
10.147026,-0.001282,-0.40315,0.507489,0.6926,-2.844732,-0.648193,0.599609,0.622314,10.567507,2.063273,-2.339179,0.939797,1.833162,0.97103,-0.913818,0.079346,0.159668,9.125216,-0.061225,-6.243083,0.856613,2.504446,-1.173672,-0.825684,0.127441,0.06543,8.454287,0.839194,-2.79674,-0.904484,0.524342,-0.407667,-0.754639,0.125488,-0.031006,9.418292,0.377988,-2.38438,1.085124,1.40645,-0.145473,-0.711426,0.17627,0.074707
13.074504,-0.909427,-0.884036,0.479543,1.543753,-3.101336,-0.70166,0.522217,0.592773,11.002617,2.636276,-2.91356,0.490551,1.891883,1.262636,-0.913818,0.109863,0.113037,8.381544,0.535072,-5.127425,0.178727,1.986289,-0.669939,-0.82666,0.112793,0.03418,9.676,-3.113337,-3.244634,0.058534,-0.071768,-0.430155,-0.760986,0.125732,-0.0271,7.647927,0.987373,-1.353718,0.225677,0.109271,0.469607,-0.709229,0.18335,0.080322
14.179867,-0.685762,-0.86971,1.071381,2.631652,-3.528823,-0.770996,0.439941,0.525879,13.145462,2.839792,-3.000034,0.415948,2.393195,1.075222,-0.915771,0.129639,0.053711,11.407378,-1.455212,-4.949956,-0.498499,2.123477,-0.738541,-0.831543,0.10498,-0.006836,9.390171,-0.167509,-1.107319,1.870805,0.431686,-0.24336,-0.758789,0.116943,-0.044922,10.989548,-1.026252,-1.845666,0.129422,0.194383,0.162698,-0.710205,0.197266,0.077637
16.262817,-1.55399,-1.655354,1.237234,3.73138,-3.738496,-0.837891,0.336182,0.424561,10.969179,2.569873,-3.173786,0.448234,2.632657,1.027079,-0.915039,0.151611,-0.012695,8.894446,-2.300734,-3.793471,0.733259,2.907943,-0.852061,-0.825195,0.085205,-0.064941,8.506668,0.581939,-0.063795,0.515297,0.075027,-0.355281,-0.769043,0.113037,-0.045166,7.656373,-0.648612,-1.47841,0.681682,0.786559,-0.305123,-0.711182,0.188721,0.063232
18.931117,-1.044677,-2.044439,1.859674,4.809658,-4.552585,-0.879639,0.203125,0.280029,12.614602,1.849712,-3.409422,1.165783,2.427612,0.742117,-0.898193,0.154785,-0.084717,9.150217,-0.280288,-2.752958,1.628247,1.770925,-0.926381,-0.828125,0.069336,-0.101807,9.943232,-0.538179,-0.027241,0.651998,0.153402,-0.703507,-0.773682,0.099609,-0.059814,9.318241,-1.671596,-2.224647,0.767106,-0.437261,-0.136818,-0.722168,0.189697,0.06665
21.300261,-1.68321,-3.073601,1.982233,5.66761,-4.981426,-0.88623,0.055664,0.125488,11.000359,2.583449,-2.324176,1.602872,2.808601,0.607521,-0.884766,0.169922,-0.152832,9.987787,3.623674,-1.357559,1.148551,2.3123,-1.174828,-0.825439,0.041992,-0.160889,9.305371,0.740703,0.495312,0.309055,0.731451,-0.64439,-0.7771,0.082275,-0.069824,10.435735,-0.076617,-2.265413,1.129697,0.808323,-0.245517,-0.726807,0.188232,0.036621
22.285018,-1.529986,-3.431842,2.380938,5.935663,-5.705886,-0.823975,-0.118652,-0.030762,11.104219,0.639629,-1.749284,1.506848,2.286675,0.570684,-0.860107,0.173096,-0.217041,7.638529,1.814331,-0.018137,-1.178912,1.563059,-0.86319,-0.816895,0.025879,-0.188477,9.563277,-0.124046,0.421059,0.415253,0.353678,-0.93534,-0.790283,0.058838,-0.083008,7.596501,-0.164725,-1.559529,-0.575791,0.617453,-0.193758,-0.730225,0.179199,0.033691
21.559762,-1.334411,-3.432581,2.662684,5.531771,-5.833191,-0.721436,-0.287354,-0.117432,13.030996,-0.790774,1.181637,2.100776,2.676946,0.465287,-0.84668,0.168213,-0.26709,10.776664,-1.93503,-1.670166,0.449337,0.735158,-0.571151,-0.818604,0.011719,-0.206055,11.356586,-0.296335,-0.853898,0.849906,0.787396,-0.984519,-0.790771,0.045654,-0.095459,10.650773,-3.568267,-3.353899,0.40279,0.284285,-0.443801,-0.743408,0.167969,0.020996
18.630489,-0.531227,-2.700941,2.537028,4.797776,-5.883751,-0.566895,-0.429688,-0.174316,12.423724,-1.733148,0.847893,2.253768,2.9188,1.121123,-0.801758,0.173828,-0.345215,10.639825,1.817112,0.032572,1.89808,1.795203,-1.771053,-0.808838,-0.027344,-0.234863,9.070919,1.041173,-3.275694,1.539897,1.427649,-1.064161,-0.786377,0.019775,-0.130371,9.987321,-0.84576,-2.508755,1.687712,1.419859,-0.991713,-0.751709,0.151611,-0.008789
17.139631,-0.680886,-2.283119,2.530952,3.256452,-5.327279,-0.429199,-0.528564,-0.165771,9.938874,-1.920743,3.553119,2.243764,2.555281,0.717629,-0.771729,0.163574,-0.399414,10.813135,4.532539,3.933451,1.26401,1.134141,-0.90043,-0.797852,-0.054688,-0.265137,9.836316,3.60402,-0.787922,0.6192,0.10496,-1.06288,-0.792236,-0.001465,-0.13501,7.767153,1.188688,-2.141642,0.953342,0.820797,-0.916575,-0.759033,0.133789,-0.034424
15.503506,-0.097518,-1.555965,2.192951,2.799223,-5.345784,-0.280762,-0.592285,-0.14209,13.190804,-2.865192,1.97851,2.178521,1.402591,0.643093,-0.73877,0.154785,-0.430908,15.26079,3.023684,2.452364,-0.919422,1.825633,-1.332068,-0.781006,-0.073486,-0.301758,14.801546,-0.43214,1.770135,-0.833056,0.510957,-1.201784,-0.799805,-0.0271,-0.131104,10.995331,0.641277,-3.550888,-0.014652,0.348656,-1.51314,-0.766846,0.108154,-0.043945
12.868057,-1.191356,-1.712116,2.633975,1.660915,-3.5835,-0.201904,-0.623047,-0.094971,16.52764,-1.558802,3.977315,2.849357,2.058076,0.326102,-0.714355,0.12793,-0.484863,12.341341,-2.729917,0.150599,-0.133498,3.054892,-0.889309,-0.760986,-0.091553,-0.343262,12.76832,-2.811584,1.233983,0.897451,2.367458,-1.1647,-0.788574,-0.05249,-0.180176,12.624196,-1.941706,-2.240567,0.140567,1.288701,-1.459797,-0.781982,0.068115,-0.056641
10.303505,0.365425,-0.820699,2.340849,0.590126,-2.306412,-0.145508,-0.640625,-0.041016,14.343359,-0.831905,2.642253,2.712419,2.783835,0.547115,-0.66333,0.101562,-0.5354,10.449596,0.055008,2.097069,2.388866,1.760648,-1.76194,-0.734863,-0.141846,-0.37207,8.714968,0.565277,1.939634,1.309261,1.572201,-1.268769,-0.781738,-0.088623,-0.205322,10.34847,0.056032,-1.137969,1.895432,1.596239,-1.669057,-0.782959,0.030518,-0.094727
12.979658,-1.430189,-1.275118,2.454896,-0.34787,-0.698032,-0.134033,-0.634277,0.023438,12.293705,-1.515647,1.933719,3.034573,2.470852,-0.013399,-0.62085,0.064697,-0.578125,12.598699,4.454203,4.240339,0.415021,1.68578,-1.425271,-0.712158,-0.173828,-0.394043,12.152692,0.574099,1.383519,-0.521041,0.822224,-1.557558,-0.783936,-0.108154,-0.22583,10.580503,3.835202,-0.027773,0.321457,1.43332,-1.040452,-0.785889,-0.002441,-0.124023
13.178554,-0.268341,-1.10902,3.17463,0.566929,0.082088,-0.136475,-0.632812,0.090088,11.912814,-1.741462,1.85397,3.992584,2.252182,-0.594143,-0.581055,-0.007568,-0.607422,12.510637,-1.105089,4.686465,-1.656506,1.743466,-0.91079,-0.693848,-0.164307,-0.432373,12.378996,-2.070911,2.386392,-0.243716,2.204299,-1.188208,-0.77417,-0.130859,-0.27124,10.610439,-0.122815,-0.559697,-1.024007,1.870247,-0.340737,-0.787354,0.006836,-0.168213
12.889066,-0.576537,-1.536699,3.049257,0.087452,1.008483,-0.154785,-0.617188,0.153809,12.061424,-0.460756,0.728489,4.1792,1.554439,-1.245549,-0.537109,-0.087402,-0.619873,11.846385,-3.045226,1.54476,1.332659,2.265689,-1.638349,-0.664307,-0.201416,-0.462158,8.611598,-1.922609,3.268849,1.139902,2.099168,-1.648266,-0.754395,-0.17749,-0.307617,9.614449,-0.791556,1.211117,0.961706,1.904476,-0.416926,-0.783936,-0.01123,-0.213379
12.111032,0.178451,-1.304148,3.450543,-0.032499,2.044487,-0.206055,-0.587158,0.222168,12.124805,-1.218184,1.247699,4.227459,1.921541,-1.224497,-0.500488,-0.162109,-0.624756,8.525642,2.513465,2.776962,1.82495,1.996126,-1.950058,-0.630127,-0.25708,-0.482178,10.198731,0.835222,2.42614,1.057073,1.158152,-1.620801,-0.739014,-0.212646,-0.324463,9.740334,1.760789,2.184992,1.096729,1.8949,0.601283,-0.7771,-0.009766,-0.255859
13.46981,0.554861,-1.292971,2.992972,-0.388523,2.210162,-0.241211,-0.556641,0.276123,10.203313,-0.822358,-0.535108,4.945965,1.646532,-1.3539,-0.449951,-0.256592,-0.615234,10.12329,2.36524,3.123133,-0.239674,0.38452,-1.061265,-0.616699,-0.265625,-0.480469,9.957054,-0.222675,0.39375,0.490152,2.249508,-1.81863,-0.716797,-0.244873,-0.370361,8.927892,0.396076,2.156042,-0.116112,2.28864,0.722592,-0.760254,0.009277,-0.299805
11.728171,0.381261,-1.245405,3.028949,-0.43894,2.760437,-0.294189,-0.502441,0.334961,8.94532,-0.960533,-0.288908,4.258977,1.02147,-1.190307,-0.419434,-0.323975,-0.587158,11.658448,-1.983884,1.055199,0.596796,1.262689,-1.497956,-0.59668,-0.285645,-0.50293,5.983473,0.566375,0.646005,1.646473,1.915395,-1.562391,-0.695557,-0.292969,-0.385498,6.47919,-2.098444,2.183073,1.515828,2.151643,1.513705,-0.745605,0.029541,-0.355225
9.737221,1.357358,-0.696899,2.403193,-0.580551,1.655145,-0.318115,-0.474365,0.385254,8.807748,-1.368193,-0.880472,4.691646,0.379062,-1.061273,-0.396729,-0.397217,-0.536133,8.047724,0.515215,1.164899,2.116567,1.791345,-1.978223,-0.564697,-0.338623,-0.501709,6.772665,3.839043,0.625604,1.903811,0.436352,-1.409106,-0.685547,-0.341064,-0.386475,6.681506,3.007469,3.945727,3.066201,1.030768,1.134686,-0.737549,0.022705,-0.373779
8.909377,0.238832,-0.898544,1.95342,-1.2984,1.612635,-0.339355,-0.454102,0.427002,8.1654,0.297796,-0.92781,4.11933,0.139752,-1.137979,-0.379639,-0.460449,-0.489746,8.626633,2.206762,1.26796,0.63251,0.758378,-1.098543,-0.552246,-0.36499,-0.506348,8.688667,6.239007,0.697729,0.764595,0.917628,-1.050968,-0.67627,-0.365234,-0.388184,9.049909,5.524135,4.09864,1.072974,1.196981,1.627425,-0.726807,0.036377,-0.403076
9.269395,0.286288,-0.794746,1.886284,-1.145985,1.096862,-0.345459,-0.427246,0.46875,7.474147,-1.504467,-0.904298,3.127874,-0.507898,-0.957519,-0.373535,-0.496582,-0.436523,8.895908,0.555465,-0.159092,0.184226,1.421401,-1.081778,-0.531738,-0.37915,-0.518066,7.237477,4.280425,2.345328,-0.470271,1.014101,-0.548411,-0.668701,-0.372559,-0.422607,7.824232,1.817609,3.260358,-0.457031,1.040833,1.346304,-0.716797,0.070312,-0.417236
7.530459,0.623121,-0.7009,1.804158,-1.367642,0.795468,-0.34668,-0.412354,0.510498,9.192514,-0.306601,-0.571428,2.7936,-0.382324,-1.520142,-0.364014,-0.53418,-0.391602,6.306198,-1.204418,-1.407745,0.283187,1.238379,-0.531416,-0.519775,-0.386963,-0.540527,7.082534,0.629293,1.781422,0.534357,0.638701,-0.459884,-0.659424,-0.386719,-0.42041,9.704535,-1.445281,3.035341,0.927807,0.276681,0.678149,-0.717773,0.074219,-0.437256
6.764952,0.920362,-0.715224,1.153949,-2.037327,0.670266,-0.341797,-0.414551,0.546631,8.330628,0.353226,-0.352974,1.380935,0.306846,-0.87637,-0.363037,-0.562256,-0.377197,5.338801,0.616873,-1.794333,2.268836,0.17105,-0.340271,-0.519287,-0.420654,-0.511719,7.247044,3.487392,0.755685,2.264381,0.310308,-0.290233,-0.652832,-0.413818,-0.407471,7.670668,1.165729,4.760287,2.07021,0.895518,0.532342,-0.707275,0.057617,-0.449707
5.591283,1.00811,-0.872702,0.73923,-3.095102,0.725312,-0.303955,-0.401855,0.609131,8.420683,-0.538805,-1.677152,0.171703,0.693828,-0.668985,-0.349854,-0.565918,-0.365479,7.605203,5.404832,0.283542,1.399165,-0.351232,-0.533825,-0.518799,-0.44165,-0.49585,6.931923,7.621831,1.509098,0.752503,0.202888,-0.069392,-0.651367,-0.430664,-0.408203,8.268135,2.582516,5.200371,0.717472,-0.341692,0.864163,-0.706299,0.071289,-0.449463
9.286631,1.33864,-0.859281,-0.140118,-4.140796,0.116315,-0.250488,-0.411377,0.642334,6.823081,-3.233662,-0.216456,-0.196116,0.510816,-0.125018,-0.35498,-0.564941,-0.384277,7.581364,4.019132,0.386964,-0.592101,-0.356189,0.511041,-0.530029,-0.4375,-0.502197,6.618713,4.030296,0.389787,-1.236926,-0.183757,0.125224,-0.659668,-0.41748,-0.413818,9.957045,0.745185,3.859295,-0.120355,0.207173,0.743846,-0.70459,0.081299,-0.456299
6.503871,0.368537,-1.249647,-0.141607,-3.495947,-1.401506,-0.181152,-0.431152,0.679443,6.683868,-1.239359,-1.985956,1.279713,0.528931,0.393352,-0.373535,-0.573486,-0.363037,7.613628,-0.127318,1.081506,-0.371843,-0.161211,0.057142,-0.53833,-0.433838,-0.500244,6.79843,0.708725,0.645248,0.441974,-0.392004,0.496861,-0.669922,-0.408936,-0.408447,7.114452,-0.305203,3.909936,0.22355,-0.046737,0.456919,-0.706543,0.087158,-0.454102
10.443648,1.247049,-0.745667,-0.759252,-4.22273,-2.025416,-0.083252,-0.44873,0.706787,5.124029,1.445963,-0.900546,-0.00611,-0.692003,0.410468,-0.400146,-0.564453,-0.361084,7.413238,0.388072,0.377874,1.09381,0.180051,0.550491,-0.544189,-0.436523,-0.497803,7.550166,3.593505,1.795978,2.163511,-0.559433,0.740248,-0.69165,-0.426025,-0.380371,8.830342,0.300462,3.521124,0.395611,-1.210367,0.16829,-0.721191,0.092041,-0.434326
9.018748,-0.495123,-1.214569,-0.27612,-2.835993,-2.819911,0.011719,-0.470459,0.71582,8.123499,-1.394869,-2.299755,-0.049,-0.646529,0.737981,-0.429443,-0.564941,-0.354248,6.073118,2.480609,1.600298,1.403398,-0.016855,0.405835,-0.562012,-0.451904,-0.487061,8.272335,5.527229,3.900435,0.903812,-0.291729,0.675232,-0.698486,-0.422119,-0.367188,8.99705,-1.002648,2.48127,-0.029192,-0.349116,-0.210162,-0.73291,0.084961,-0.430176
11.627631,1.065695,-0.674287,-0.285667,-2.97387,-3.020387,0.106689,-0.473877,0.720703,7.339818,-1.360274,-1.688966,1.161066,-0.634184,0.676387,-0.463135,-0.570312,-0.330811,6.442337,3.745893,0.304931,1.166828,-0.576151,1.013243,-0.581299,-0.454102,-0.464111,7.835947,3.371662,1.736996,0.720307,-0.003471,0.755742,-0.713379,-0.418213,-0.359863,6.680209,-2.268976,2.182723,0.735395,-0.922743,-0.212856,-0.742432,0.072021,-0.408447
9.465453,-1.168661,-1.039351,0.021291,-2.128271,-2.783205,0.184326,-0.476807,0.720947,9.857073,0.976934,-1.009976,2.192521,-0.313458,1.045545,-0.496826,-0.592529,-0.300293,6.612048,3.075765,0.328715,1.175631,-1.157102,0.954967,-0.614014,-0.454346,-0.433838,8.444048,4.187719,0.639887,1.866407,-0.454818,0.93255,-0.723877,-0.417725,-0.333984,9.93719,0.312573,1.625557,2.217778,-1.506388,-0.484517,-0.765137,0.039795,-0.378906
12.315861,0.880371,-0.234599,0.408095,-1.615333,-2.978327,0.246582,-0.445312,0.730469,9.087289,3.367906,-0.746738,1.520942,-0.185578,1.121034,-0.532471,-0.585205,-0.275146,9.817158,3.843626,0.798994,1.493132,-1.740369,1.331955,-0.647461,-0.450684,-0.392578,9.653999,5.480339,0.218928,0.829889,-0.293975,1.03799,-0.735352,-0.424805,-0.328125,10.952381,4.271927,2.104895,1.452214,-0.572834,-0.36309,-0.772461,0.018066,-0.371338
9.739124,-1.401457,-0.792948,0.530232,-0.398761,-2.76124,0.296143,-0.415771,0.74292,9.92263,2.929882,-0.033157,0.764343,-0.643493,1.667863,-0.562744,-0.568115,-0.256104,10.979251,4.642633,1.277788,0.989557,-0.818818,1.116938,-0.670166,-0.458984,-0.375732,8.699458,3.612098,0.422036,-0.208424,-0.168563,1.216268,-0.758789,-0.391602,-0.329346,9.133715,2.31197,1.623983,-0.533558,-0.651429,0.177857,-0.775879,0.013672,-0.35791
10.623617,-0.115279,-0.021493,1.237311,0.756967,-2.928152,0.303223,-0.385986,0.749268,10.276113,2.668139,0.23174,0.721102,-0.768449,1.59597,-0.614746,-0.553955,-0.251465,9.443404,3.49593,0.652707,0.075711,-0.544042,1.336484,-0.704346,-0.433838,-0.371582,9.052004,1.154807,0.232056,0.393853,-0.695119,1.297994,-0.768066,-0.373291,-0.3125,9.876715,-1.375995,0.860289,-0.180143,-0.908938,0.164341,-0.796875,0.025391,-0.34082
8.424102,-2.404249,-0.968777,1.699118,1.875333,-2.070658,0.290283,-0.35791,0.780762,10.819304,2.36121,-0.138139,0.468583,-0.859694,1.696179,-0.654297,-0.532715,-0.236328,9.588544,0.582304,-0.29272,0.195008,-1.037276,1.5858,-0.723145,-0.4104,-0.355713,10.330989,2.061009,0.534521,1.874286,-0.519865,1.425858,-0.789551,-0.353271,-0.285889,9.512099,-0.686842,1.373816,1.061896,-0.77938,-0.163947,-0.793213,0.010498,-0.325684
9.974001,-0.491952,-0.660623,2.740597,2.862845,-1.308701,0.246094,-0.320312,0.83667,12.432133,0.594062,0.135111,1.18224,-0.557751,1.46938,-0.687988,-0.514893,-0.205811,10.618813,1.026632,-1.339321,1.947153,-0.704824,1.280819,-0.753662,-0.397217,-0.322998,9.792009,3.933733,0.04093,1.822191,-0.299253,1.495788,-0.808838,-0.345947,-0.269775,9.443131,0.115873,1.830262,0.681677,-1.137243,-0.125582,-0.809814,0.008301,-0.300293
10.687643,-2.283464,-2.011697,3.089181,3.761871,-0.434661,0.163574,-0.286377,0.872314,12.25978,2.264878,0.757448,2.292329,0.07711,1.538207,-0.72583,-0.508301,-0.196777,10.559261,4.111865,-0.748367,2.227921,-0.875651,1.418893,-0.786865,-0.39624,-0.289307,9.357363,3.171235,-0.606073,1.024694,-0.611028,1.589262,-0.824219,-0.323975,-0.250488,10.185354,-1.516489,1.228726,1.048841,-1.168626,-0.389163,-0.826172,-0.013428,-0.276611
13.795429,-0.386548,-2.263287,4.218486,5.079261,-0.092095,0.049316,-0.224854,0.925781,11.706364,4.295909,1.487076,2.27649,0.301541,1.495481,-0.759277,-0.488525,-0.169678,11.72502,4.223439,-0.30876,1.378444,-0.638107,1.65704,-0.808105,-0.374512,-0.267822,9.876509,1.944944,-0.956211,1.175258,-1.086852,1.52213,-0.840332,-0.293457,-0.222168,9.0447,0.095042,1.509716,1.953648,-1.066912,-0.648703,-0.83252,-0.044434,-0.251465
16.409416,-1.7005,-3.744919,4.344818,6.015511,0.135796,-0.09082,-0.156494,0.94165,12.095319,3.504325,1.34674,1.895038,0.295909,1.725789,-0.786621,-0.461914,-0.168701,11.755197,3.668371,0.056823,1.333868,-0.146692,1.330695,-0.825439,-0.348145,-0.255127,11.166309,3.829756,0.529303,1.218648,-1.180277,1.561989,-0.864258,-0.272217,-0.196289,9.592171,2.791269,1.482795,1.517829,-1.753601,-0.304771,-0.844238,-0.056152,-0.21167
21.25682,-0.874542,-5.199109,5.625869,7.728842,-0.175555,-0.2854,-0.067627,0.921875,12.858367,2.45663,0.764545,3.116369,0.585471,1.319894,-0.821045,-0.447021,-0.15332,12.000924,4.548799,0.770847,0.627051,0.188915,1.39932,-0.846924,-0.327637,-0.26416,10.225066,3.11488,1.099736,-0.076781,-0.60182,1.751654,-0.876465,-0.230957,-0.172607,11.364867,3.498419,0.681488,0.258581,-1.414396,0.061852,-0.854004,-0.061768,-0.184814
23.717578,-1.026765,-7.024757,5.858517,8.623306,-0.785302,-0.477783,0.00293,0.834473,11.456478,3.243499,1.335887,3.536662,0.994638,1.272735,-0.842285,-0.438232,-0.139648,9.917077,2.228733,1.409644,-0.128445,0.36957,1.527579,-0.863525,-0.290771,-0.262451,9.404227,0.160996,0.862005,1.461105,-1.100372,1.473089,-0.895508,-0.206543,-0.156494,8.793976,0.111397,0.362372,-0.457327,-0.833036,-0.039401,-0.856689,-0.058838,-0.154541
23.152183,-0.014128,-7.302579,6.372172,9.025689,-1.655083,-0.662598,0.052979,0.679932,12.298174,0.738006,0.838663,2.754244,0.826655,1.650813,-0.875732,-0.409912,-0.144775,11.079918,1.250476,1.149817,2.225773,-0.174768,1.56234,-0.883789,-0.267822,-0.260742,11.783382,5.552689,2.929053,2.65876,-1.260686,1.646219,-0.904785,-0.181152,-0.125,9.075777,-1.574221,-0.298568,2.173615,-1.817852,-0.058515,-0.871338,-0.066895,-0.124512
18.796936,-0.008187,-5.796245,5.663535,7.609057,-2.477274,-0.772949,0.047119,0.529053,13.428646,-1.538776,0.19936,2.895606,1.395228,2.206785,-0.902832,-0.368164,-0.146729,11.178805,6.893253,3.199466,1.434043,0.80984,1.021464,-0.88623,-0.254639,-0.273438,12.363985,8.245523,3.87213,-1.201198,-0.346782,1.979913,-0.910889,-0.142822,-0.115723,11.194978,7.276262,-0.122453,3.132981,-1.313876,-0.509013,-0.872803,-0.091797,-0.090332
17.494309,-0.345386,-5.047741,5.643745,6.528012,-3.09756,-0.838379,-0.004395,0.382812,12.644763,-2.707986,0.858483,2.050196,1.15885,2.887002,-0.934326,-0.303711,-0.168457,8.225279,4.723306,3.705963,-2.383791,-0.546381,2.18912,-0.90625,-0.19873,-0.272949,11.420473,1.358671,1.796393,-2.750957,0.26701,1.963862,-0.913574,-0.072266,-0.112793,10.869278,8.8899,0.584949,-1.882896,-0.856409,0.052668,-0.873291,-0.093506,-0.068115
11.732468,1.306563,-2.531743,4.641823,4.271481,-3.31786,-0.862549,-0.089844,0.29541,14.83095,-1.6761,0.7753,1.480467,1.180312,2.932728,-0.967285,-0.240234,-0.195801,12.516561,-2.960441,2.077916,-2.406601,-1.670014,2.677244,-0.93042,-0.107178,-0.231934,8.568967,-2.321697,1.199874,-0.395431,0.471425,2.445537,-0.90918,-0.018555,-0.123291,10.652674,-0.568305,-1.887567,-2.708092,-0.262985,-0.161135,-0.877686,-0.078125,-0.057129
13.294341,-0.141641,-2.685888,4.117168,2.460159,-2.940272,-0.865234,-0.170654,0.260498,11.44396,-1.304416,0.0884,0.011956,1.022003,3.736858,-0.993408,-0.140381,-0.236816,10.320007,-4.419335,0.851966,0.350265,0.008241,2.059274,-0.937988,-0.058838,-0.231689,8.008254,1.606414,2.406728,0.295021,-0.172728,2.40888,-0.905273,0.035645,-0.127686,6.30142,0.897242,-0.043961,1.620716,0.097517,-1.386148,-0.87207,-0.120605,-0.054199
12.271564,0.887631,-1.195256,3.386438,0.750187,-2.742754,-0.843994,-0.250977,0.279785,12.092204,-1.671757,0.706641,-0.468402,0.184784,3.002615,-1.003174,-0.053467,-0.249023,7.53042,0.465958,1.300227,-0.35843,-1.700674,2.51475,-0.952637,0.002686,-0.199219,9.215161,-1.439866,-0.044204,-2.842341,0.133031,2.590394,-0.892822,0.113281,-0.128906,6.527059,7.147705,1.612765,-0.418157,-1.300954,-0.588768,-0.872803,-0.132324,-0.030273
14.749661,-1.073444,-2.363007,3.562312,0.941095,-2.342587,-0.828857,-0.328125,0.291504,13.787359,-1.011678,0.690805,-1.298729,0.114728,3.292334,-1.014404,0.039307,-0.275146,12.299018,-3.93182,-2.703338,-1.892914,-2.368507,3.603499,-0.953369,0.105957,-0.151367,6.756343,-6.251091,-2.882417,-1.891191,0.315225,2.275647,-0.880859,0.168701,-0.118652,10.747674,0.044356,-0.074568,-2.931994,-0.546118,-0.438719,-0.868408,-0.135498,-0.036377
11.641879,0.250321,-0.951495,3.415417,-0.50877,-1.042429,-0.817139,-0.35791,0.360596,12.643545,-0.727222,0.832106,-1.743438,0.333634,2.762871,-1.014648,0.135986,-0.282471,10.111055,-2.358649,-2.483707,0.387858,-1.023014,1.756612,-0.956055,0.150146,-0.122314,6.636588,-6.046762,-2.755532,-0.896201,-1.120754,1.886474,-0.875732,0.216553,-0.080811,6.472678,-1.860684,-0.558616,-0.204715,-0.348867,0.422847,-0.870605,-0.129639,-0.018311
14.002844,-1.405966,-1.915757,3.889948,0.40362,-0.611043,-0.811279,-0.366211,0.399658,11.868265,-0.877318,0.107764,-1.952661,0.14771,3.326677,-0.996826,0.245605,-0.294922,9.70953,1.043976,-2.176871,-1.041777,-1.637569,2.464632,-0.953369,0.220215,-0.071533,10.186816,-5.452334,-2.782111,-0.447942,-1.2865,1.549199,-0.871338,0.250488,-0.049316,10.235835,0.193145,-1.863364,-0.621434,-2.292921,0.778343,-0.874756,-0.103271,0.038818
13.201733,0.060042,-1.344804,4.241418,0.030775,0.137234,-0.818848,-0.348633,0.466309,12.117242,0.223903,0.600932,-2.0121,0.460528,2.374743,-0.985596,0.332275,-0.295898,10.208189,-4.44294,-4.414401,-1.922703,-1.604897,2.25392,-0.938965,0.274902,-0.022949,9.252678,-4.847083,-3.34649,-0.337504,-0.564454,1.597156,-0.862549,0.289551,-0.034912,12.246266,-1.999162,-3.489282,-0.452158,-0.32793,1.753082,-0.875977,-0.06958,0.045166
12.660037,-0.725979,-1.843239,4.447062,1.317382,-0.271022,-0.821045,-0.343018,0.500244,10.104483,0.494609,-0.273951,-2.161031,0.3864,2.311254,-0.961426,0.405273,-0.287109,10.60743,-6.329897,-4.067756,0.366019,-1.204625,1.376797,-0.936523,0.322021,-0.000977,8.576786,-4.843795,-4.296639,0.233956,-1.576802,1.569325,-0.84375,0.328857,-0.005127,6.408581,-0.082527,-2.703834,1.181512,-0.852209,1.472711,-0.880615,-0.0271,0.065918
10.976244,0.858135,-1.452049,4.771691,1.12457,-0.498639,-0.814697,-0.322998,0.532471,10.878918,-0.137826,0.223775,-2.220875,0.174962,1.358968,-0.938721,0.464355,-0.277588,11.349654,-1.165672,-2.392452,1.465448,-0.999476,1.325232,-0.917725,0.358398,0.006836,10.333154,-1.269235,-3.482005,1.047011,-1.308173,1.334418,-0.835205,0.351318,0.015381,11.336411,1.841381,-3.726016,0.808034,-1.804369,2.174686,-0.866699,0.0271,0.104492
9.388034,0.043226,-1.351387,3.950126,1.16943,-1.058841,-0.805176,-0.327148,0.562744,8.231293,-0.612431,0.030309,-1.966693,0.189775,1.527721,-0.913086,0.514648,-0.258301,10.40618,1.160756,-1.644598,-0.354033,0.09152,1.102298,-0.910889,0.380859,0.012695,9.315943,1.194882,-2.369828,-0.707107,-0.865705,1.564414,-0.817871,0.386475,0.037354,7.56086,1.227325,-3.944272,-0.059868,0.079531,2.052994,-0.865967,0.064697,0.106934
10.736561,0.227033,-1.510271,4.55785,0.994685,-1.458259,-0.791016,-0.316895,0.593506,10.680039,0.42426,-0.036382,-2.058186,-0.546675,0.594735,-0.907959,0.552734,-0.230225,8.932141,-1.416798,-1.935612,-1.208128,-0.763412,1.794914,-0.892334,0.42627,0.038818,9.217278,-1.831545,-1.589438,-1.971464,-1.146077,1.317918,-0.799316,0.415039,0.083008,5.706933,0.36837,-4.287885,-0.273496,-2.019237,1.798105,-0.854004,0.112793,0.151367
9.96324,-0.113044,-1.346931,3.920986,0.867169,-1.505721,-0.782227,-0.31665,0.621826,10.722757,0.120642,-0.848236,-2.285837,0.34374,1.029068,-0.89624,0.59082,-0.210693,11.283406,-2.341984,-3.718563,-0.468709,-0.138279,1.095386,-0.874268,0.45874,0.046143,10.182279,-5.129935,-3.201432,-0.440487,-1.057502,1.320278,-0.788574,0.439209,0.111816,10.265402,-0.432134,-4.554083,-0.238496,-1.461147,1.347118,-0.837158,0.142578,0.183105
10.38807,0.413257,-1.531178,4.716459,1.21851,-1.89494,-0.752197,-0.300781,0.660156,10.144186,-0.301107,-0.638515,-2.689697,-0.084321,-0.068733,-0.881348,0.611084,-0.164551,9.245985,-0.05607,-1.641869,0.508666,0.070915,1.165894,-0.868408,0.480957,0.044922,8.56897,-2.009552,-2.405541,1.592527,-0.347598,1.132497,-0.765869,0.460693,0.094238,9.179077,-1.839192,-5.045748,0.059309,-0.563641,0.567706,-0.8396,0.148682,0.200439
8.373517,-0.372121,-1.267073,3.831922,0.683619,-1.754438,-0.746582,-0.301025,0.686279,8.855308,-0.37782,-1.399833,-1.940636,0.881386,1.167366,-0.872559,0.637695,-0.159668,8.474767,0.457529,-0.730311,0.117885,-0.148007,0.968524,-0.84668,0.501221,0.037109,7.337032,2.785643,-0.895185,-0.036936,-0.556353,0.977258,-0.754639,0.487549,0.105469,7.096787,0.823946,-5.641412,1.663877,-0.867686,0.688102,-0.825684,0.168457,0.207764
6.464667,0.441532,-1.084633,4.823005,0.7144,-1.609322,-0.719238,-0.265137,0.740723,6.559606,0.740529,-0.659361,-2.825629,-0.059281,0.056576,-0.855713,0.653809,-0.105469,7.233893,2.453516,-0.177762,0.051264,-0.041698,0.796892,-0.836914,0.526611,0.040771,9.857243,-0.295408,-2.709872,-3.479113,-0.389153,0.481775,-0.748047,0.478271,0.166748,8.396037,5.137408,-5.5931,0.016219,-0.875802,0.769354,-0.820068,0.189209,0.225098
9.190959,-0.096333,-1.484288,3.918107,-0.064723,-0.98473,-0.705811,-0.212402,0.786621,9.676839,-0.832562,-2.313293,-2.599243,0.171265,1.246683,-0.8396,0.698975,-0.070312,8.740547,3.356885,-0.187973,-1.992593,-0.52513,0.654143,-0.829102,0.533691,0.085205,9.29822,-6.117866,-4.106338,-2.25137,0.633225,0.534039,-0.741943,0.493164,0.183838,9.139505,1.335315,-6.547971,-2.969902,-0.545044,1.655003,-0.806152,0.206543,0.259277
7.467926,0.10843,-1.408859,4.714621,0.084231,-0.783967,-0.689697,-0.150635,0.82959,6.671117,0.761064,-0.663646,-2.364487,-0.182581,0.624887,-0.822998,0.707275,-0.025635,9.167637,-1.775593,-1.981479,-2.671159,-0.090054,0.952637,-0.815186,0.551514,0.123779,7.928793,-3.706028,-1.691436,0.082857,0.14845,0.103332,-0.748779,0.486816,0.186768,8.688477,-3.766736,-6.998589,-1.715027,-0.280062,0.964771,-0.798828,0.223633,0.276123
9.607846,0.194213,-1.350315,3.994505,-0.609964,-0.050636,-0.67749,-0.074219,0.870361,10.795743,0.074546,-1.607322,-2.590607,-0.547825,1.158509,-0.808105,0.736572,0.025146,8.664841,-1.499886,-2.386274,-0.377112,0.198464,-0.236338,-0.829346,0.543701,0.129883,10.487426,-1.497781,-1.354715,-1.768659,0.207159,-0.327514,-0.748779,0.471436,0.196533,10.156069,-1.073407,-5.920629,-0.333061,-0.536872,0.893296,-0.795898,0.239014,0.294189
7.768845,0.669989,-1.413631,4.647698,-0.287555,0.059946,-0.665527,0.016602,0.908203,9.385604,-0.49894,-1.900239,-1.71024,0.678353,0.789779,-0.790283,0.742676,0.049072,7.70405,1.503823,-2.098914,-1.185081,-0.292383,0.001479,-0.820068,0.533203,0.14209,10.228694,-5.573879,-3.614486,-2.554444,1.258019,-0.506973,-0.766357,0.446777,0.213379,12.243007,-1.023085,-6.147784,-2.455186,0.190336,1.132723,-0.780762,0.241699,0.292236
7.973875,1.409645,-1.060117,3.306459,-1.50151,-0.256135,-0.632812,0.085693,0.945801,8.286062,0.703751,-1.728605,-1.596284,-0.037625,0.342635,-0.789551,0.748291,0.075684,9.851484,-1.163403,-2.033393,-2.428804,-0.916205,-0.093877,-0.824219,0.515869,0.203369,8.726498,-6.792443,-3.807814,-0.523589,0.924107,-0.816708,-0.776123,0.432373,0.19751,9.904488,-6.48548,-6.595546,-2.441438,1.077209,1.088305,-0.78833,0.245117,0.296875
10.678944,-0.913512,-1.665553,3.482038,-1.781174,0.558163,-0.592773,0.179688,0.983398,10.645054,0.407248,-0.322921,-1.21949,0.326435,0.338304,-0.786377,0.750244,0.085449,11.076551,-5.281624,-3.990748,-1.563648,0.091664,-0.323487,-0.824219,0.505127,0.217285,10.165867,-4.193737,-3.814854,0.085252,0.445125,-0.809329,-0.786133,0.416748,0.188965,9.492907,-5.018985,-5.12872,-0.07586,0.279624,0.320511,-0.780518,0.255859,0.286865
9.689383,0.8249,-1.47485,3.758368,-2.035923,1.457091,-0.544678,0.291504,1.01416,8.686144,0.52541,-2.120894,-1.074083,0.604472,-1.041607,-0.805664,0.723877,0.094482,9.260532,-4.361397,-2.678279,0.123055,0.184649,-0.898246,-0.835449,0.481689,0.212646,10.556254,-3.409346,-3.043584,-0.809364,1.047506,-0.982965,-0.802002,0.387207,0.181885,11.741578,-1.805886,-4.112954,-0.318013,0.833395,0.083326,-0.782715,0.256348,0.271973
12.8778,-0.131835,-1.527468,2.698361,-3.151102,2.045577,-0.471924,0.391113,1.058594,9.063347,-0.283447,-0.183879,-1.244953,-0.30543,-0.68561,-0.82959,0.694824,0.121582,11.483537,-0.248512,-2.575793,-0.198409,0.490231,-0.986394,-0.853027,0.451172,0.206299,9.025016,-5.293554,-2.982504,-1.673791,1.07545,-1.061909,-0.813965,0.355713,0.175049,9.89898,-1.919877,-4.356191,-1.281918,1.003159,0.385199,-0.788818,0.250732,0.264893
13.019678,-0.806171,-1.756878,4.316312,-1.293192,2.450952,-0.423584,0.543701,1.041992,12.147988,-0.124989,-0.856725,-1.411902,0.637596,-2.063022,-0.865234,0.653809,0.133301,8.829421,-2.501197,-2.907137,-2.305824,0.992065,-0.906427,-0.864258,0.416748,0.206299,9.604121,-6.421776,-3.968109,0.315538,0.620618,-1.257424,-0.825439,0.328369,0.155518,9.921574,-4.295703,-4.447022,-1.758313,0.696466,0.499042,-0.784912,0.252197,0.257568
13.697869,0.432875,-1.206663,3.145603,-1.85353,2.56283,-0.361084,0.651611,1.024658,10.372081,-2.911174,-1.825243,-1.90315,0.603062,-0.955131,-0.883057,0.611816,0.143311,10.54675,-5.400704,-4.896424,0.212766,0.318685,-1.111365,-0.878418,0.386719,0.193604,10.214339,-2.156807,-1.817029,1.239291,0.936186,-1.448649,-0.851807,0.312256,0.126953,10.372236,-6.168312,-5.153668,-0.139792,1.188547,0.173411,-0.789551,0.250732,0.231201
9.686152,-0.495916,-1.198029,4.482886,0.297406,1.31864,-0.356689,0.770508,0.943848,12.328554,-1.079621,-0.102316,-1.169584,1.047159,-1.958854,-0.912842,0.554932,0.131592,10.903123,0.257293,-3.133386,0.88238,1.409813,-2.047963,-0.90918,0.354492,0.157715,9.521692,-0.766084,-1.977832,-0.680314,0.768511,-1.561029,-0.857666,0.268066,0.113525,8.700005,-1.442545,-2.381073,1.178161,1.057176,-0.059677,-0.800293,0.270508,0.206055
12.997333,-0.089082,-1.735145,3.898825,0.400101,1.380534,-0.358154,0.869141,0.864502,12.172405,-2.312001,-1.905064,-2.864836,1.255628,-0.800317,-0.930664,0.519775,0.137695,9.8682,1.197058,-1.958899,-1.122855,0.874428,-1.333601,-0.915771,0.307373,0.14209,9.989662,-1.95961,-1.199128,-1.805455,0.908435,-1.850626,-0.87915,0.224121,0.114746,10.823318,0.190983,-2.485106,-0.770035,0.761257,0.540692,-0.790771,0.271484,0.192627
8.109107,0.120105,-1.032481,4.731078,1.849299,-0.345553,-0.4104,0.936768,0.736572,11.608412,-2.124703,-1.20691,-2.210248,1.726201,-1.582402,-0.958496,0.457031,0.115723,11.420942,-1.895449,-2.942864,-2.514877,1.035451,-1.524197,-0.932129,0.26123,0.139404,9.772733,-3.95048,-2.323976,-1.452039,1.090413,-1.470562,-0.884277,0.188477,0.097412,8.564832,-1.718759,-3.241657,-2.052881,1.738825,0.897127,-0.795898,0.283936,0.175537
12.255898,-0.444444,-2.104237,4.426822,2.165286,-0.657689,-0.472168,0.983154,0.595459,11.78157,-0.072766,-1.992991,-3.621359,1.78991,-1.13704,-0.973145,0.414551,0.104492,10.101542,-5.855262,-1.797705,-1.895568,1.380253,-1.338773,-0.938965,0.217529,0.118652,9.96214,-4.559686,-2.53131,0.229988,1.149296,-1.455043,-0.901123,0.15625,0.071045,7.710304,-5.741864,-4.190083,-1.876588,0.9844,0.434476,-0.791992,0.290039,0.168457
10.206304,-0.482327,-1.904394,4.875877,2.861883,-2.240628,-0.556885,0.980957,0.438477,11.996044,-2.119808,-2.954383,-4.976921,1.912573,-1.36138,-0.989258,0.352051,0.103271,11.204666,-5.498684,-2.403482,0.649061,1.167234,-1.482735,-0.956299,0.181396,0.084473,9.010685,-2.938574,-1.459135,0.780751,1.532784,-1.296448,-0.904297,0.126709,0.032227,9.654549,-6.476238,-3.974286,0.67003,1.358974,-0.354192,-0.806641,0.28833,0.131348
11.841399,-0.12968,-2.123183,5.020409,3.499273,-3.554073,-0.659668,0.922119,0.258057,11.203151,-1.251391,-2.858088,-4.784438,1.995739,-1.16506,-0.999512,0.302734,0.084473,10.569406,-1.257741,-1.003085,0.807992,2.123657,-1.932047,-0.960693,0.131104,0.030273,7.594814,-1.547656,-0.12284,0.428702,1.211586,-1.466191,-0.906006,0.082764,0.008057,7.162003,-1.871473,-1.412215,1.537983,1.75258,-0.590061,-0.8125,0.276367,0.082764
12.096053,-0.042614,-2.485724,4.85072,2.92383,-4.650565,-0.739014,0.802246,0.096436,12.109306,-0.387266,-3.784174,-6.621925,1.929262,-0.95301,-0.993896,0.251953,0.060547,8.810459,-1.035652,-1.785972,-0.382832,1.563459,-1.301333,-0.957275,0.092041,0.002441,9.043101,-0.047,0.449668,-0.735648,0.642348,-1.458195,-0.912598,0.055176,-0.000977,7.290139,-0.365275,-0.102547,-0.053369,0.957489,0.119499,-0.809814,0.270752,0.068604
14.835631,1.004489,-2.112473,4.306469,2.231921,-6.592562,-0.821533,0.610107,-0.012207,13.441463,-2.838324,-5.179387,-6.577097,2.592214,-0.535801,-0.98999,0.219971,0.030762,10.353306,-1.529747,-1.843157,-1.250589,1.421096,-1.631957,-0.962158,0.053711,-0.027344,10.805343,-1.911406,-1.566374,-1.707441,1.148595,-1.359756,-0.914795,0.033203,-0.03125,9.068406,-1.575108,-0.818135,-1.0776,1.463551,0.207866,-0.813721,0.282715,0.050781
17.577509,0.264355,-2.316442,3.76636,1.028583,-6.868726,-0.862793,0.389648,-0.074707,12.099318,1.169489,-4.048534,-6.725581,3.044404,0.031682,-0.984619,0.213135,-0.02417,10.888831,-2.442332,-1.239415,-0.987823,1.440453,-1.147179,-0.956299,0.032959,-0.067139,8.348002,-3.407534,-1.957962,-0.543282,1.831344,-1.270923,-0.906738,0.001709,-0.072754,7.887265,-4.023816,-2.069983,-1.150154,1.701486,0.490499,-0.809082,0.299316,0.010742
19.904386,0.499793,-2.358795,3.515035,0.811241,-7.72149,-0.858398,0.143799,-0.106689,10.762155,-0.022987,-4.836708,-8.65946,2.614309,0.485659,-0.975586,0.2229,-0.060547,10.341819,-1.309222,-0.493886,-0.504939,1.924094,-1.750336,-0.942871,-0.012451,-0.115479,7.829634,0.03117,-1.24265,1.249811,0.74757,-1.151828,-0.912842,-0.033691,-0.078369,7.132568,-3.996664,-1.989252,0.152091,1.48611,0.289152,-0.799316,0.300537,-0.021484
19.147039,0.003795,-2.009006,3.459962,-0.011088,-7.198943,-0.804688,-0.07959,-0.068359,13.379406,-0.055587,-2.4693,-7.459782,2.671334,0.684422,-0.953613,0.246338,-0.074707,10.484741,-1.807328,-0.7962,-0.767817,1.808661,-1.029511,-0.938965,-0.046631,-0.142578,11.195457,4.610142,-0.163015,0.495775,0.785607,-0.893846,-0.907715,-0.052979,-0.101807,8.657713,-0.555887,-1.212911,1.015602,1.031474,0.071842,-0.803955,0.294189,-0.041748
19.90249,-0.171681,-1.968016,3.444158,0.033856,-6.360031,-0.713867,-0.254639,-0.031006,13.826475,1.133915,-2.259749,-8.151907,3.264438,1.11509,-0.920654,0.287354,-0.110596,11.028324,-1.433292,-0.95564,0.228164,1.896539,-1.096482,-0.925781,-0.066162,-0.188721,10.781594,1.874633,0.892913,-1.817519,1.636798,-0.753679,-0.905029,-0.066162,-0.134766,10.410698,0.792189,-0.158905,-0.018373,1.355679,-0.356426,-0.802246,0.29541,-0.079346
18.129217,-0.766729,-2.484704,3.9375,-0.577438,-5.120533,-0.621094,-0.378906,0.046631,14.505717,-0.321695,0.178987,-7.766597,3.492574,1.613911,-0.891357,0.343506,-0.136719,12.086059,3.207984,-2.336082,0.866219,2.117603,-1.288991,-0.915039,-0.108154,-0.229736,9.491853,-1.413819,-0.962917,-0.466776,1.064778,-0.919975,-0.886475,-0.089111,-0.158447,9.440712,-1.827047,0.020577,-0.574774,1.554983,-0.067969,-0.803711,0.290283,-0.104248
16.442648,1.423631,-1.434016,3.781962,-1.056317,-4.377657,-0.527588,-0.463135,0.145264,7.944174,-3.044884,-3.36319,-7.189471,2.447578,2.817313,-0.848145,0.420898,-0.124023,9.710655,6.92706,-1.668669,0.548053,2.079185,-1.503675,-0.881348,-0.14917,-0.271484,11.331863,4.201641,-2.420953,0.88797,0.366022,-1.562126,-0.885498,-0.114746,-0.161377,9.360522,-2.140693,0.729833,-0.147634,1.389028,0.224464,-0.783691,0.289795,-0.132812
18.882568,-0.21396,-2.343176,3.386911,-1.69693,-4.255694,-0.416992,-0.518555,0.239502,11.558497,-3.507304,1.106751,-4.996467,0.139431,2.340088,-0.805664,0.473877,-0.082764,13.886328,10.043972,2.320278,-1.119654,1.087156,-1.946909,-0.86499,-0.168701,-0.293457,12.559822,7.056701,0.222646,-0.013368,1.395323,-1.342192,-0.877686,-0.154053,-0.185303,11.076631,-2.046331,-0.864636,-0.691544,1.213592,0.746251,-0.773926,0.325684,-0.148438
14.245014,-0.117707,-0.872021,3.780268,-0.932342,-3.806545,-0.332764,-0.537354,0.330566,13.026861,-0.192344,0.143879,-4.821113,0.309585,2.267341,-0.772949,0.520508,-0.041992,13.231834,1.576067,-1.104335,-3.095446,2.508443,-0.623368,-0.840088,-0.17041,-0.353271,10.062194,5.046755,0.441631,-0.696206,1.474646,-1.004683,-0.866699,-0.169922,-0.228027,11.57053,-3.652204,-1.734481,0.780355,1.048449,-0.157172,-0.774414,0.308594,-0.172607
14.820771,-1.530403,-1.803859,4.127136,-0.419159,-2.895552,-0.255371,-0.519775,0.423584,12.025051,-2.092977,1.156733,-5.113164,-0.175691,2.043712,-0.731689,0.553955,0.025391,10.289721,-2.768735,0.473795,0.873815,2.249873,-1.447654,-0.81543,-0.207275,-0.394043,11.155566,3.911656,1.186286,-0.464263,0.781991,-0.858354,-0.852295,-0.174805,-0.246338,12.533487,2.24942,1.005361,2.584267,1.185897,-1.120706,-0.780762,0.271729,-0.226074
11.879648,-0.434976,-1.297912,5.126637,0.299971,-2.157618,-0.221436,-0.477295,0.514404,12.999432,-2.106424,0.614656,-4.582258,0.086535,2.241725,-0.700928,0.578369,0.078369,11.449238,5.926322,0.655995,1.549575,1.695343,-1.359279,-0.779785,-0.238037,-0.420166,11.325676,5.558688,2.163904,-1.129005,1.414979,-0.269384,-0.83667,-0.194336,-0.263672,12.404996,5.841176,2.332877,-0.197557,1.189996,-0.433977,-0.768311,0.276611,-0.25
13.259863,-1.052842,-1.980413,5.173189,1.325266,-1.790162,-0.209717,-0.406738,0.58374,10.070528,-1.030806,1.115141,-4.458239,-0.141708,2.224325,-0.670654,0.610107,0.139404,10.16072,7.730022,2.897257,-2.272973,1.754297,-0.638926,-0.75293,-0.246826,-0.44751,9.194635,3.578047,0.734661,-3.132419,1.284997,-0.35114,-0.830811,-0.157471,-0.300537,12.152754,1.664626,0.89752,-2.297266,2.111611,-0.310081,-0.755615,0.267334,-0.266113
11.181374,0.315185,-1.834637,5.957119,1.597827,-1.966654,-0.19165,-0.332764,0.657715,10.505871,-1.479806,-0.884768,-4.807768,-0.36098,1.656804,-0.630371,0.604004,0.20874,10.494441,1.597092,1.557661,-3.542102,1.136905,-0.414427,-0.743164,-0.196289,-0.486328,10.538079,-0.570221,-1.106056,-1.304858,0.834383,-0.384685,-0.824707,-0.162598,-0.32251,8.45502,-2.327718,0.953235,-1.765956,2.196267,0.251414,-0.740479,0.304932,-0.297852
11.320608,0.05304,-1.778655,5.204849,1.698041,-2.270984,-0.191406,-0.266602,0.701904,8.977137,-1.05021,-0.978521,-4.657614,-0.710711,1.126,-0.605957,0.583252,0.277344,10.834024,-0.437558,0.823987,-0.266868,1.693017,-0.522252,-0.720459,-0.210693,-0.514893,9.220912,3.591653,1.398699,0.619098,1.664514,-0.140984,-0.809082,-0.16333,-0.340088,9.524645,-1.866697,0.954939,0.423513,0.919585,0.399953,-0.733154,0.298828,-0.324707
9.935699,-0.607438,-2.127949,6.017234,1.859812,-2.668588,-0.19873,-0.177979,0.748779,9.751934,-0.126627,-1.318984,-5.071945,-0.705028,0.726106,-0.589111,0.552979,0.360107,8.556638,4.904974,1.867143,-0.087921,2.138098,-1.099413,-0.686035,-0.220947,-0.536133,6.63238,6.398066,1.833459,-1.359703,1.221713,0.017885,-0.790039,-0.145508,-0.376465,10.89371,2.037773,1.691378,0.165501,1.809181,0.434817,-0.712158,0.312744,-0.347168
8.779298,0.197712,-1.699987,5.683342,1.648987,-2.419545,-0.211914,-0.091797,0.771973,6.97628,-0.895574,-1.506597,-5.17393,-0.941429,0.581224,-0.570801,0.507568,0.425781,6.455669,3.412553,1.163089,-2.530025,1.117212,0.265574,-0.666016,-0.179932,-0.573486,7.928879,4.495465,0.700431,-2.510005,0.597278,0.465113,-0.782715,-0.120605,-0.383057,7.525519,0.736042,2.271023,-1.590307,1.786864,0.540356,-0.682129,0.344971,-0.375244
8.83046,-0.486038,-2.314603,6.297557,1.733993,-2.5513,-0.221436,0.001465,0.78125,8.431156,0.388489,-1.993543,-4.839513,-1.096483,0.422476,-0.544922,0.462402,0.489258,8.168893,0.198156,0.06199,-2.360097,0.853926,-0.052177,-0.649902,-0.157227,-0.585449,8.075752,4.263631,0.153251,-1.561255,1.118836,0.974903,-0.772949,-0.080811,-0.409668,10.120692,-0.753537,1.20931,-0.89047,1.009342,-0.111099,-0.672119,0.341553,-0.382568
7.116188,0.844731,-1.771115,5.981566,1.144874,-2.524086,-0.244385,0.081055,0.7854,7.381772,0.52478,-1.874962,-5.086074,-1.138597,0.134655,-0.537598,0.386963,0.547852,7.004974,2.307321,1.665686,-1.431147,1.266423,0.259388,-0.636475,-0.12793,-0.612305,7.047725,5.440834,1.243974,-2.096957,0.853518,1.217902,-0.746826,-0.030273,-0.432373,9.84343,2.536607,2.053913,-0.781563,1.91876,-0.727579,-0.662109,0.341797,-0.409912
7.740537,0.067237,-2.02762,5.926089,0.509128,-2.400009,-0.25415,0.157471,0.779297,9.333578,0.73945,-2.032636,-4.215513,-0.975091,-0.372752,-0.526367,0.319824,0.588135,7.508541,3.390685,2.984679,-2.420892,0.515833,0.88233,-0.615479,-0.07373,-0.626709,7.977954,0.975603,1.766009,-2.925985,0.655226,1.199744,-0.742676,0.030518,-0.427246,7.470876,1.515803,3.517586,-2.698611,1.392803,-0.9992,-0.643066,0.35376,-0.418945
6.651043,0.652608,-1.559173,5.727158,-0.23391,-1.891358,-0.251709,0.239746,0.770508,8.214734,0.892679,-0.479169,-4.47075,-0.439869,-1.037566,-0.524902,0.239258,0.616699,7.875561,0.28006,0.789669,-2.100045,0.826747,1.308277,-0.609619,-0.017578,-0.629883,8.644018,-1.366036,2.436266,-0.76565,0.544643,1.313311,-0.731689,0.056396,-0.437012,7.04075,-3.76632,2.82088,-1.874479,0.878688,-0.856587,-0.649414,0.363037,-0.405273
9.676075,-0.605311,-2.473054,5.957911,-0.673691,-0.786273,-0.244141,0.331787,0.751221,9.195815,-1.052642,-1.429819,-4.00755,-0.844543,-1.430849,-0.517822,0.154541,0.637695,6.583072,0.993966,0.917087,-0.800296,0.466415,0.713239,-0.600586,-0.003906,-0.63623,8.720713,3.152968,2.481099,-0.070976,0.429008,1.377916,-0.724609,0.085205,-0.441895,8.042916,-0.959354,3.384503,0.471815,0.210837,-1.093995,-0.65625,0.331299,-0.417725
10.115022,0.843284,-1.71133,6.110064,-0.371777,-0.562149,-0.242432,0.429688,0.72998,10.304527,1.183699,0.003423,-2.956165,-0.355821,-1.689463,-0.518555,0.089844,0.653564,8.094844,3.773456,3.018348,-1.441696,-0.372594,1.230119,-0.61084,0.04248,-0.625244,8.919541,2.916671,2.329491,-2.639584,0.678585,1.253602,-0.700928,0.141846,-0.436279,9.735756,1.995671,4.05839,-1.699447,0.587524,-0.966535,-0.661133,0.335693,-0.406738
9.462193,0.071926,-2.201762,6.001002,-0.306758,-0.376621,-0.250732,0.521484,0.691895,10.600875,0.129978,-0.567833,-3.932984,-0.25558,-2.040396,-0.524658,-0.000244,0.666016,8.311326,0.09602,1.987656,-3.060683,-0.519053,1.523094,-0.603516,0.111816,-0.605469,7.512162,-2.40922,1.023594,-2.739108,0.617988,1.505274,-0.686279,0.193359,-0.431152,7.494807,-3.11299,2.718282,-2.770467,0.874726,-0.78553,-0.65332,0.358887,-0.392334
9.661331,0.813271,-1.853908,5.892139,-0.804431,0.066402,-0.22876,0.597412,0.63916,11.751817,-1.242045,-1.55866,-3.124525,0.569117,-1.835639,-0.52417,-0.08252,0.644043,8.762959,-2.151997,2.328321,-1.228632,-0.592787,1.269622,-0.609375,0.143799,-0.593506,7.848499,-3.521187,1.68466,-0.98398,-0.202656,1.220364,-0.673828,0.230957,-0.419189,6.856198,-3.330976,2.630052,-0.585859,-0.053273,-1.392728,-0.669434,0.331055,-0.386475
9.851052,0.58771,-2.201911,5.704677,-1.00988,0.071279,-0.224365,0.685547,0.592285,9.828491,0.410856,0.312357,-3.536764,1.089224,-1.484724,-0.548096,-0.147949,0.62793,8.628288,-0.126841,1.831404,-1.370597,-0.375293,1.067153,-0.605469,0.186279,-0.576904,9.61179,-1.800233,2.411085,-0.409128,-0.128161,1.243368,-0.655762,0.255127,-0.415039,8.683938,-0.438419,3.703687,-1.173134,-0.34942,-1.054301,-0.679932,0.330811,-0.367676
8.615913,1.642496,-1.210486,5.17825,-1.204837,-0.402315,-0.207764,0.721924,0.532471,10.702261,-0.811615,-1.594445,-3.634733,1.016133,-1.2273,-0.547607,-0.24292,0.580811,7.768417,-1.310645,0.472583,-1.02551,-0.969363,1.521552,-0.605225,0.217285,-0.560791,8.008669,-1.455357,2.173971,-2.110972,0.415019,0.918286,-0.653564,0.280518,-0.399658,9.080661,-3.05857,2.795962,-1.807084,-0.072943,-0.824631,-0.677002,0.33374,-0.351807
10.036016,-0.277971,-1.96631,4.927652,-1.242269,-0.945578,-0.22168,0.767822,0.487549,8.741286,-0.791686,-1.76195,-3.898281,1.195203,-0.907787,-0.572998,-0.307129,0.545166,8.612598,0.364907,0.673009,-1.263289,-1.230669,0.612019,-0.624756,0.232666,-0.529785,6.891835,-6.039536,-0.309955,-2.751113,-0.404347,0.578574,-0.644531,0.330811,-0.374268,8.118122,-3.584237,2.479054,-1.248136,-0.334571,-0.464644,-0.693604,0.323975,-0.331543
7.984735,1.648759,-1.302231,4.972455,-1.428651,-1.028771,-0.216797,0.806396,0.439209,10.437379,-0.213803,-2.688929,-4.135761,0.672706,-0.65146,-0.56958,-0.372314,0.501221,8.871481,-1.294375,1.257782,-2.00716,-1.433745,1.146836,-0.628418,0.287842,-0.500244,8.497038,-7.101426,-0.760516,-0.166982,-0.94546,0.264622,-0.648926,0.335693,-0.358643,9.162382,-4.144256,2.096594,-1.677196,-0.714018,-0.00085,-0.695312,0.348633,-0.306396
9.647281,0.614872,-1.52125,4.055857,-2.197659,-1.262672,-0.218994,0.824707,0.401367,10.571032,0.285924,-1.296419,-4.466243,1.783763,-0.187145,-0.595703,-0.435059,0.424072,10.17612,-3.456529,0.260809,-1.010405,-1.105175,0.278343,-0.63623,0.300537,-0.481934,8.917376,-3.285151,1.015173,1.016821,-0.755415,0.277538,-0.656006,0.333252,-0.35791,8.666444,-5.916695,1.0803,-0.931682,-0.53187,0.105071,-0.695312,0.359375,-0.287354
9.741469,0.464782,-1.38658,4.286511,-2.006357,-1.4357,-0.225098,0.841797,0.356689,7.770201,-0.254689,-3.695774,-4.672232,1.20628,-0.045962,-0.606201,-0.486572,0.346191,8.664112,-2.623234,-0.8163,0.550886,-0.520069,0.092588,-0.643799,0.299561,-0.479492,8.418078,-1.907008,1.677496,-0.479982,-1.086125,-0.119239,-0.669678,0.33667,-0.340332,8.723048,-5.248853,1.632253,0.340081,-1.073733,-0.237697,-0.705811,0.352783,-0.272217
9.883701,1.210287,-1.398709,3.964286,-2.192759,-1.775038,-0.24292,0.859131,0.329346,10.47382,0.836758,-1.464836,-4.394616,0.871594,0.124703,-0.624023,-0.51416,0.2771,8.802729,0.869459,0.887831,0.587687,-1.35303,-0.223071,-0.666016,0.29126,-0.466797,10.138401,-3.76349,0.57924,-1.080264,-1.36616,-0.402627,-0.681641,0.336426,-0.304932,10.324112,-3.032268,1.866918,0.368781,-1.137039,0.106735,-0.717041,0.35083,-0.255371
10.516064,1.091075,-1.036479,3.282153,-2.60453,-2.424381,-0.254883,0.850342,0.308105,9.706429,0.375132,-1.14164,-4.469198,1.085575,0.152103,-0.624512,-0.562012,0.200684,10.928474,1.073386,1.306408,-1.255576,-1.21565,-0.146118,-0.674805,0.298828,-0.439209,9.926193,-4.08862,0.818924,-0.199492,-0.78749,-0.357367,-0.703125,0.341553,-0.29126,9.702904,-3.442431,0.679079,-0.988416,-0.920336,0.139182,-0.718018,0.354736,-0.226562
12.205245,-0.640508,-1.791467,3.566196,-2.037224,-2.435297,-0.277588,0.845703,0.284912,9.698777,-0.044024,-1.532008,-3.477549,0.708347,0.528701,-0.637451,-0.575928,0.14209,9.204446,-4.345779,0.377576,-1.545237,-1.02072,-0.131954,-0.69751,0.329346,-0.413086,8.274473,-2.50233,1.361194,0.009629,-1.002162,-0.538207,-0.714111,0.322998,-0.278809,9.248647,-5.770549,0.249315,-0.703817,-1.026064,-0.319778,-0.736572,0.367432,-0.200684
9.946263,1.33031,-0.924942,3.696092,-2.525708,-2.203374,-0.292725,0.848633,0.257324,9.565823,0.699113,0.218779,-3.472542,0.75465,0.747082,-0.651367,-0.580078,0.077881,10.00894,-3.943043,1.232952,0.560758,-1.390442,-0.660157,-0.715332,0.301758,-0.402832,10.424766,-5.900364,1.082449,-1.173878,-1.66942,-0.698565,-0.736084,0.32251,-0.235596,8.873916,-4.98888,0.242777,0.189314,-1.134357,-0.849548,-0.747314,0.339844,-0.185547
13.62003,-0.935222,-1.788218,3.329783,-2.006594,-2.409478,-0.319336,0.85376,0.223389,10.351142,-0.65309,-0.267954,-2.88124,0.40631,1.367355,-0.674805,-0.568848,0.019531,10.688492,-2.599354,1.204283,0.464335,-1.07517,-0.450022,-0.731934,0.294922,-0.38623,10.269823,-7.457042,0.343724,1.159258,-0.410578,-0.861567,-0.747559,0.294678,-0.238037,10.959045,-5.64361,-0.398608,5.6e-05,-1.335407,-0.923937,-0.763916,0.322266,-0.153809
9.631447,0.587202,-0.988639,4.281275,-1.805374,-2.144663,-0.343994,0.859131,0.189697,9.90749,0.04838,0.883689,-2.366458,0.731368,1.484697,-0.693848,-0.548828,-0.017578,8.793526,-2.345107,1.248704,0.79799,-1.099403,-0.925593,-0.750732,0.268555,-0.374023,6.400635,-2.629374,1.926584,1.709381,-0.662032,-0.838826,-0.75415,0.268066,-0.241699,9.313128,-5.239055,-0.357649,1.202605,-0.372622,-0.806324,-0.773438,0.293213,-0.154297
11.871004,-0.639754,-1.605638,3.77653,-1.431558,-2.104331,-0.380859,0.859863,0.143555,8.467445,-0.838978,1.205733,-2.025354,0.287533,1.962883,-0.734863,-0.524902,-0.055908,8.769471,-1.992919,0.815795,0.376454,-1.410923,-0.849773,-0.765137,0.251709,-0.354248,7.785046,-1.960379,1.199739,-0.137358,-1.747809,-1.227837,-0.782959,0.248779,-0.210693,7.353823,-2.577964,1.121382,0.784288,-1.033338,-0.781889,-0.779785,0.276123,-0.13916
9.397073,0.232636,-1.020447,4.636641,-1.341019,-2.308751,-0.40918,0.852539,0.084229,9.851167,-0.478597,1.394222,-1.109346,0.190028,2.077196,-0.756592,-0.495361,-0.075684,8.367902,-2.408553,0.605788,0.599476,-1.558815,-0.984216,-0.792969,0.233887,-0.33374,10.847381,-4.71506,0.152608,-0.114066,-1.15339,-1.147077,-0.796143,0.22998,-0.192871,8.830673,-3.437945,0.037063,0.196305,-1.056341,-0.257156,-0.790771,0.272949,-0.123047
12.698047,-0.010624,-1.438527,4.186097,-0.755312,-2.540251,-0.456299,0.82959,0.020996,10.531023,-0.52058,1.60321,-0.888834,-0.02068,2.21479,-0.791748,-0.46875,-0.088867,10.319395,-1.579974,-0.101499,0.307478,-1.765204,-1.247812,-0.812988,0.21582,-0.306885,7.848625,-3.824223,-0.481959,1.790394,-0.285641,-1.043764,-0.817871,0.197266,-0.195068,8.57891,-3.957041,-0.289293,0.504093,-0.839134,-0.606189,-0.794678,0.263672,-0.110352
10.189851,0.338478,-1.249402,4.656299,-0.840789,-2.994131,-0.516602,0.782471,-0.037109,10.396963,-1.513671,1.467424,0.378413,-0.109155,2.313822,-0.831787,-0.440674,-0.080811,9.115294,-3.919789,-0.674874,0.682179,-1.508185,-0.744479,-0.842041,0.195068,-0.277588,6.581758,-0.825545,0.050854,1.965202,-1.532064,-1.130034,-0.837891,0.164551,-0.181396,7.938169,-4.164987,-0.299946,1.071056,-0.783673,-0.791855,-0.812256,0.236084,-0.099365
11.571336,0.817502,-1.197917,4.088275,-0.775509,-3.766319,-0.580811,0.71875,-0.102051,10.991939,0.32243,2.178609,1.052593,-0.197978,2.174409,-0.855469,-0.40918,-0.078125,9.026037,-1.58166,-1.194469,2.498852,-1.866014,-1.497469,-0.865234,0.151855,-0.257568,10.414126,-1.731884,-0.992361,0.352326,-1.878213,-1.210235,-0.846924,0.137207,-0.143555,7.062688,-2.317049,-0.297673,1.874834,-1.075133,-1.107003,-0.824219,0.208984,-0.091797
13.432935,0.242054,-1.606281,4.356751,-1.057935,-4.084968,-0.656738,0.647705,-0.143799,12.216484,-0.01879,1.347134,1.152255,0.003258,2.369317,-0.892822,-0.350098,-0.067139,10.959082,1.38748,-0.797982,1.044322,-1.784455,-0.960842,-0.876953,0.128418,-0.222168,9.495967,-3.634765,-2.002429,1.172023,-0.560501,-1.164974,-0.859619,0.107666,-0.136963,9.182444,-1.402801,-0.691032,1.097915,-1.449108,-0.769937,-0.82373,0.188721,-0.064941
13.025536,1.312927,-1.205022,3.868809,-1.097782,-4.760146,-0.731689,0.523682,-0.168213,10.982563,-0.526103,0.877245,2.011188,0.172498,2.091994,-0.924072,-0.323975,-0.057129,9.729182,-2.453213,-1.484771,0.244033,-1.489032,-0.973813,-0.894043,0.11084,-0.193848,6.885783,-1.813041,-1.265534,2.179852,-1.62506,-0.951981,-0.886719,0.078613,-0.116943,8.086412,-2.575267,-1.161452,1.048603,-0.808249,-0.717269,-0.833252,0.169678,-0.05127
14.741702,0.446016,-1.74167,3.709002,-1.964946,-4.599586,-0.791748,0.395996,-0.157715,11.013247,0.046723,0.209878,2.303009,-0.195359,2.321632,-0.952637,-0.287598,-0.040283,10.111805,-3.365685,-2.279004,1.84978,-1.651904,-1.238835,-0.92334,0.077148,-0.168457,11.742129,-1.314548,-2.470049,1.624209,-2.429373,-1.189589,-0.89502,0.045654,-0.065918,7.256649,-2.169755,-2.207098,1.643266,-1.631392,-0.950754,-0.852783,0.144287,-0.0271
15.850264,0.867472,-1.635644,3.575389,-2.080177,-4.397928,-0.849609,0.275146,-0.120605,12.317454,-0.470758,-0.240391,2.353951,-0.562463,2.196213,-0.983643,-0.238525,-0.008057,11.658883,-1.178151,-1.746525,2.096273,-1.741347,-1.076481,-0.930908,0.04541,-0.129639,12.160024,-1.912622,-2.529831,2.146625,-0.686787,-0.759275,-0.901367,0.025146,-0.068848,10.828635,-1.995125,-3.490938,1.929333,-1.748881,-0.789377,-0.851318,0.118164,0.006104
15.805224,0.080295,-1.975985,3.616413,-2.568717,-3.563133,-0.878174,0.164062,-0.056396,13.54337,-0.749358,-0.700987,2.666612,-0.600577,2.447828,-1.002197,-0.185059,0.018799,11.787243,-1.289985,-2.278236,1.970244,-1.212692,-0.968899,-0.938965,0.022949,-0.11377,7.901838,-0.362547,-1.980866,2.588239,-1.133308,-0.720495,-0.915527,0.000732,-0.036377,9.606077,-0.563327,-3.018656,2.609489,-0.917539,-1.026767,-0.855469,0.099365,0.006592
15.55213,0.305212,-1.87791,3.937751,-2.419598,-2.804573,-0.911133,0.06665,0.019043,11.880916,-0.11413,-0.980895,2.361263,-0.559008,2.601533,-1.032227,-0.12915,0.041016,10.215684,-0.638926,-1.949343,2.307502,-1.318784,-0.973237,-0.960449,-0.006592,-0.076904,11.217585,0.292271,-2.750159,1.900365,-2.440261,-0.725948,-0.925537,-0.02002,0.008545,8.860175,1.428038,-2.758049,2.203615,-1.668327,-0.41008,-0.865234,0.081787,0.049561
15.714062,0.069268,-2.039093,3.943026,-2.745522,-2.33298,-0.926514,0.000977,0.111084,13.631728,-0.95128,0.130788,1.936034,-1.154882,2.674556,-1.053955,-0.053955,0.068359,12.015091,0.587283,-2.995479,2.402472,-1.654082,-0.776761,-0.968994,-0.022461,-0.04248,13.256963,-2.394859,-3.684432,2.694862,-0.903884,-0.857461,-0.93042,-0.029053,0.026611,11.049036,-0.943536,-3.916371,0.932944,-1.572704,-0.436798,-0.87085,0.075439,0.075684
14.881878,0.706497,-2.10526,4.403876,-2.46307,-1.575214,-0.919189,-0.040283,0.206543,15.284571,-0.346137,0.095413,2.065927,0.086294,2.255808,-1.056641,0.009033,0.060059,11.648192,1.573675,-3.986828,3.667895,-0.866942,-1.149502,-0.976562,-0.040039,-0.020996,9.289677,0.707803,-4.30276,5.329382,-0.658417,-0.824075,-0.935303,-0.053711,0.037842,10.427151,-4.667114,-6.1119,3.159054,-0.933471,-0.315583,-0.869385,0.077148,0.087891
14.112371,1.481681,-1.670648,3.572727,-3.210591,-2.260652,-0.915771,-0.095459,0.323975,10.522672,0.051919,-0.568237,1.373653,0.013601,1.516128,-1.077148,0.040527,0.05835,9.946215,3.689745,-3.105765,4.042319,-1.375601,-1.180341,-0.981934,-0.06958,0.019043,11.468821,4.48185,-5.536195,4.996945,-2.171464,-0.634841,-0.942871,-0.057861,0.087158,9.551174,1.950407,-5.603343,6.024005,-1.633394,-0.33069,-0.869629,0.078369,0.111084
15.36711,-1.060802,-2.056289,4.069477,-2.474423,-1.821703,-0.894775,-0.121826,0.433105,15.398848,-1.408815,-0.164248,0.685136,-0.105065,1.15766,-1.081543,0.072754,0.057129,13.394199,1.452167,-3.838202,3.494264,-2.153383,-0.340697,-0.988037,-0.061768,0.072998,14.930054,5.798978,-6.078828,4.725779,-1.111239,-0.319957,-0.943115,-0.063232,0.11084,12.807528,6.002718,-5.301973,4.731872,-1.70636,0.171205,-0.870117,0.096191,0.133545
15.018991,-0.364285,-1.886169,4.808058,-1.888661,-0.980864,-0.883789,-0.092529,0.526367,12.549028,-1.263263,0.071208,0.952171,0.637041,1.52977,-1.088623,0.12207,0.033936,14.466767,0.249656,-5.026442,4.477418,-0.670965,-0.80525,-0.993164,-0.073975,0.096191,11.760749,7.384293,-2.91947,3.525333,-0.499194,0.711665,-0.944824,-0.039795,0.120117,12.526802,7.081667,-6.39943,4.595945,-1.327965,0.345315,-0.867676,0.110107,0.153076
13.919177,-0.55017,-2.361666,5.411409,-1.074727,-0.4475,-0.878418,-0.041504,0.583496,12.363021,-1.271025,0.828692,0.325752,-0.324845,1.624116,-1.089844,0.16626,0.020508,11.8967,4.022813,-4.737138,4.039526,-0.511558,-0.098882,-0.995605,-0.061035,0.11499,11.659426,6.265805,-1.472948,1.791946,-1.338717,0.418137,-0.943115,-0.024414,0.141113,12.982745,8.122605,-3.32313,2.802379,-1.540751,0.228455,-0.861328,0.125244,0.177979
12.948147,1.590499,-1.70759,5.339813,-1.28755,-0.208003,-0.871338,0.036621,0.654785,13.410226,-5.414714,0.474754,0.904518,0.187745,0.524765,-1.091797,0.185547,0.008057,10.858818,6.600805,-3.691785,3.32553,-1.025831,0.442273,-0.995117,-0.035156,0.131836,12.112056,2.565256,-3.77363,1.155421,-0.390306,0.518944,-0.950439,-0.001953,0.158936,12.903232,3.999593,-3.159794,1.058267,-0.862811,0.818514,-0.855469,0.147217,0.181152
10.844196,-0.275028,-1.532939,4.934658,-1.131016,-0.397579,-0.868164,0.12207,0.702393,11.886381,-0.956861,-0.75857,3.858098,0.949215,-0.116254,-1.096436,0.194824,-0.041992,11.508606,4.80451,-2.410996,0.959189,-1.452774,0.572436,-0.999756,-0.008057,0.179688,9.641801,-1.907196,-4.11165,2.407646,-0.52715,0.89255,-0.94751,0.032959,0.173096,9.375666,-0.725287,-4.170042,1.301804,-0.674357,0.56629,-0.858887,0.171143,0.204346
11.280946,-0.318153,-1.782065,5.528233,-0.169066,-1.430886,-0.878418,0.174316,0.710938,12.505834,2.009898,0.786406,-0.005329,0.9897,0.444392,-1.10376,0.195801,-0.082275,12.427722,-3.002705,-2.03749,2.145554,-0.91164,1.194888,-0.995605,0.042236,0.202393,10.611903,-3.581852,-3.919713,4.879373,-0.983459,0.604702,-0.936768,0.056641,0.172363,10.435431,-3.195748,-3.883778,3.063171,-1.509712,-0.00881,-0.851562,0.189209,0.224854
9.827421,-0.814663,-2.266569,6.140848,0.757074,-1.255869,-0.898926,0.249268,0.688965,10.597672,-4.614088,-2.967655,1.030831,1.919913,1.010463,-1.0896,0.216797,-0.139648,11.139543,-2.995926,-2.912275,6.036511,0.467728,-0.340499,-0.997803,0.061035,0.174316,10.355931,0.714523,-2.051062,6.387409,-0.3652,0.950115,-0.937988,0.095947,0.153809,10.178095,-2.418874,-3.893124,5.275269,-0.934131,0.016414,-0.843018,0.209229,0.208496
10.969723,-0.820643,-2.484405,6.554499,1.401653,-1.216826,-0.938965,0.330811,0.626953,8.690757,2.574639,0.007608,1.214191,1.068252,0.581526,-1.086182,0.235596,-0.181152,8.285601,3.255519,-2.13362,5.929674,0.26144,0.322096,-1.0,0.093262,0.151123,8.880732,5.044018,1.845929,3.458662,-0.288576,0.612122,-0.937256,0.126953,0.142334,8.58905,0.060032,-3.314611,5.010401,-1.058698,0.23558,-0.839355,0.231445,0.202148
9.003316,-0.667279,-2.629091,7.479786,2.222015,-1.157298,-0.970215,0.399414,0.516113,8.171003,-1.491635,-1.914409,-1.862158,1.212251,1.014407,-1.061768,0.260498,-0.213379,9.042812,5.297707,-1.851835,2.912237,-0.583415,0.590889,-1.0,0.128906,0.151611,9.902663,-0.572635,0.232375,-1.113424,-0.315459,0.504796,-0.936035,0.137939,0.159424,10.196169,1.056013,-2.204728,2.804964,-0.797649,0.681138,-0.833496,0.261963,0.196289
10.468879,-0.397471,-3.492576,7.613755,2.520394,-0.385,-1.015869,0.471191,0.368896,8.285289,-1.922591,-1.726938,0.489287,-0.005547,-0.14067,-1.078125,0.258057,-0.228271,8.731284,-0.531403,-1.170347,-0.196133,-0.440537,0.716721,-0.997314,0.148438,0.167969,9.176614,-8.757953,-3.362118,1.43386,0.438832,0.359868,-0.936768,0.150635,0.138184,9.214855,-2.458243,-1.840525,0.644894,0.160207,1.231247,-0.826416,0.294922,0.191406
9.692809,-0.087969,-3.557597,8.242543,3.010626,-1.127142,-1.030762,0.487793,0.194824,9.045486,3.271469,-1.108475,-1.158687,0.564344,0.217799,-1.061035,0.268311,-0.243408,8.211141,-5.138414,-2.486272,2.637677,-0.885416,0.55105,-0.991699,0.17749,0.175537,6.874958,-2.147246,-2.637657,5.636272,0.220127,0.514965,-0.931152,0.180908,0.103271,7.23793,-6.479754,-3.625012,2.181768,-0.250297,1.349071,-0.818115,0.33374,0.177002
7.535159,0.22929,-3.363714,8.023572,3.086194,-1.269585,-1.054688,0.458984,0.021729,6.662962,-1.625499,-1.534479,-1.916713,0.142419,-0.208619,-1.072754,0.274658,-0.241699,8.465722,0.073298,-1.419595,3.7997,-0.331251,-0.50547,-0.992432,0.189941,0.166016,7.845898,3.88821,-2.310971,3.23588,-0.170488,0.443585,-0.932617,0.19458,0.078613,7.642738,-3.452552,-2.903528,3.434324,-0.25429,0.71741,-0.807373,0.366211,0.1521
8.609609,-0.155364,-3.548024,8.329992,2.908857,-1.789788,-1.039307,0.37085,-0.128174,7.300584,-0.211232,0.910995,-0.212668,0.079443,0.099671,-1.058594,0.27417,-0.237549,7.608477,1.429317,-0.666449,2.73444,-0.299098,0.722364,-0.989746,0.218506,0.148926,7.790179,2.019994,-3.000143,0.360207,0.520461,0.264781,-0.933105,0.200439,0.075928,7.237802,-3.24587,-2.880519,2.189739,0.002124,0.397987,-0.80542,0.380371,0.123291
5.927274,0.25971,-3.578077,8.418609,3.029157,-2.323426,-1.035889,0.240479,-0.259033,6.101179,0.796367,0.447831,-0.852473,0.095836,-0.004451,-1.068115,0.279785,-0.236328,8.432028,2.499718,-1.387791,1.890421,0.306692,-0.449176,-0.998047,0.217529,0.139648,6.766287,-2.348456,-2.941083,-0.14363,-0.138182,0.355686,-0.923828,0.216553,0.076416,6.42099,-2.68647,-2.792544,1.961229,-0.248533,-0.209791,-0.813477,0.379395,0.123047
7.425923,0.429441,-3.200077,8.083863,1.820066,-2.294158,-1.007812,0.094238,-0.314453,7.971533,-1.42034,0.870088,0.279625,-0.941535,0.118488,-1.067383,0.288574,-0.215088,8.315818,1.356242,-0.9363,-0.047583,0.722196,0.511426,-0.987549,0.23877,0.118164,9.077108,-3.367662,-2.528315,1.801523,-0.293721,0.04062,-0.932617,0.210938,0.062744,8.293711,-2.526094,-2.58337,0.596604,-0.404912,-0.508477,-0.80835,0.376953,0.119629
5.970158,-0.00319,-3.371988,8.40509,1.860193,-2.283061,-0.977295,-0.071289,-0.337646,10.523869,0.900765,1.474814,0.959984,0.80302,-0.046755,-1.058594,0.276855,-0.248047,8.284298,-2.487468,-2.911083,1.223657,0.844383,-0.13471,-1.001709,0.23291,0.080811,8.444163,0.743465,-0.363789,1.495738,0.409005,-0.025539,-0.939697,0.216309,0.041748,7.855153,-5.302919,-3.446732,0.575202,0.140341,-0.760654,-0.824219,0.35376,0.108887
6.314228,0.626915,-2.795402,7.963964,0.647242,-1.153003,-0.976074,-0.188721,-0.297363,6.808128,0.120406,0.448759,0.681132,-0.00059,-0.298874,-1.075195,0.268799,-0.257812,7.981261,2.350843,-0.673148,1.5782,1.280884,-0.794643,-1.010986,0.22168,0.04126,7.970382,-0.153427,-0.554994,-0.208879,0.097285,-0.326045,-0.935791,0.206299,0.041992,7.336484,-3.305967,-3.541999,1.750243,-0.184723,-0.958308,-0.835693,0.339844,0.094727
7.719037,-0.063452,-3.0712,8.234689,0.53682,-0.610903,-0.963867,-0.289551,-0.234131,11.328292,-0.225201,1.710542,1.000799,1.086321,-0.883058,-1.068848,0.232178,-0.30542,7.457321,1.42671,-1.992919,-0.237429,0.231871,0.111076,-1.007324,0.221924,0.036377,10.537613,0.503649,-1.136887,-0.095895,-0.072027,-0.411789,-0.9375,0.203369,0.042725,9.220394,-0.169163,-2.740436,0.751419,-0.024107,-0.636182,-0.839111,0.325439,0.087402
11.230895,-0.063073,-3.578701,8.254197,0.78589,0.066597,-0.968018,-0.341309,-0.146484,8.266937,-0.825541,2.040779,1.315269,0.746851,-1.16247,-1.070801,0.194336,-0.324463,10.93638,1.599035,-1.126856,-0.59566,0.561741,-0.725765,-1.01123,0.208496,0.025635,10.085887,1.098601,-1.447343,-1.855699,1.04989,-0.324973,-0.932617,0.191406,0.029053,9.888901,-0.208242,-2.875777,-1.084808,0.425749,-0.808191,-0.848389,0.311279,0.089355
9.441469,0.272371,-3.508416,8.678193,1.100726,0.604409,-0.96875,-0.367432,-0.056885,10.984609,-0.441069,0.212851,1.67464,1.198503,-1.467566,-1.062988,0.141113,-0.36377,8.530379,-0.417363,0.306314,-2.503861,0.965821,-0.014783,-1.004639,0.202393,0.012451,8.610592,-0.964719,-2.481641,-1.562989,0.743603,-0.195814,-0.940918,0.188721,0.032715,8.724947,-2.337856,-4.532073,-1.691528,0.813175,-0.856181,-0.847656,0.286377,0.080322
11.183361,1.290698,-3.505276,8.455064,1.069628,0.531877,-0.981934,-0.368896,0.031006,5.63403,-1.23069,1.788245,1.580673,0.448924,-1.199072,-1.061279,0.095947,-0.380859,10.531153,-3.13618,-0.13798,-1.470315,0.167566,-0.039429,-1.01416,0.201416,0.025391,10.996604,2.661001,-1.223004,-1.408226,0.553051,0.164102,-0.946777,0.190186,0.020508,8.551494,-0.446389,-4.41083,-0.400136,0.447948,-1.411454,-0.86499,0.252197,0.08252
7.500357,1.347915,-2.918853,7.86515,0.715009,0.362266,-0.989502,-0.352051,0.117676,11.026484,-1.633113,0.980488,2.211567,-0.530347,-0.918237,-1.067139,0.050537,-0.376221,12.122386,0.795496,0.997266,-1.818432,1.810399,-0.169919,-1.019043,0.192627,-0.018311,11.550181,1.467779,-1.580757,-3.920591,1.625843,0.349534,-0.939941,0.202148,0.006836,9.691802,4.01188,-2.818328,-2.373875,0.690173,-2.080184,-0.885742,0.198486,0.073242
12.808072,0.533465,-2.966523,7.360411,-0.00491,-0.073142,-1.001465,-0.331055,0.226562,9.58905,-0.836327,1.250746,1.98694,-0.325828,-0.819142,-1.076904,0.005615,-0.353271,8.238345,0.192566,-0.757685,-2.934229,1.224911,0.636224,-1.013184,0.216064,-0.027832,11.457366,-1.935693,-2.745723,-4.615083,1.552334,0.235069,-0.927246,0.196045,0.008057,9.910021,-0.548866,-4.818403,-4.455887,0.876262,-1.715561,-0.893311,0.154053,0.074951
11.669128,0.058657,-3.368804,7.875486,0.603129,0.994329,-1.018066,-0.258545,0.304443,12.702098,-1.417439,-0.037185,1.896727,-1.293065,-0.41232,-1.088623,-0.024414,-0.324707,13.794836,1.814592,-1.088247,-3.559896,0.186973,0.280551,-1.003174,0.207031,-0.012695,13.662624,-5.832498,-4.285379,-4.336616,1.667772,0.284656,-0.923584,0.208252,0.003418,10.996103,-1.398865,-5.060394,-3.409967,0.625256,-1.858063,-0.894775,0.094482,0.076172
15.523106,1.206025,-3.095715,7.279841,-0.096739,1.297888,-1.025635,-0.156982,0.369385,15.417594,0.004478,1.288917,1.183073,0.024362,-1.067597,-1.08252,-0.05835,-0.32373,12.886798,-2.805884,-4.600807,-4.551828,1.65904,1.076187,-0.996094,0.238525,-0.019775,11.351533,-9.59667,-4.913122,-1.365816,2.591946,-0.008519,-0.920166,0.215332,-0.053955,13.783202,-3.542087,-4.604725,-5.272291,0.866004,-1.519203,-0.902344,0.055664,0.07373
13.092116,-0.332629,-3.009672,7.634917,0.842732,1.824321,-1.0354,-0.03125,0.399902,10.952895,-1.633143,-1.191283,0.801995,-0.233109,-0.576965,-1.077148,-0.084961,-0.306396,11.486475,-5.204377,-5.576946,-0.000974,1.012296,-0.33567,-0.995117,0.233643,-0.047363,8.076708,-3.282405,-3.029552,2.252591,1.761912,-0.407451,-0.909912,0.201172,-0.103027,11.991369,-9.831031,-5.563847,-1.427686,1.996823,-1.552475,-0.906494,0.023682,0.02002
14.088341,1.065723,-3.825118,7.851139,1.314388,1.811617,-1.033691,0.086182,0.384277,11.568058,0.974455,1.070241,0.001302,0.265643,-1.751143,-1.062744,-0.138184,-0.310547,10.809333,3.281188,-4.046251,0.94842,1.904618,-0.96944,-0.987061,0.207031,-0.097168,11.396429,3.312307,-2.479981,-1.124668,0.685512,-0.831925,-0.921143,0.169434,-0.105957,7.960802,2.378504,-2.684082,2.772659,1.326337,-1.785306,-0.901367,-0.019531,-0.005859
11.440356,1.649813,-2.824096,6.950832,0.630411,1.592523,-1.025635,0.200439,0.362549,10.009323,-1.498883,-0.782636,-1.245426,-0.572011,-1.268093,-1.060303,-0.150635,-0.296387,10.624075,3.35324,-2.814242,-3.226383,0.788625,-0.166078,-0.993652,0.195068,-0.085938,12.902739,-0.441842,-5.678492,-3.689747,1.942906,-0.455112,-0.915283,0.186035,-0.136963,12.32131,7.64861,-1.111908,-2.719159,0.217034,-0.283877,-0.910156,-0.03833,-0.007812
13.629083,0.961259,-3.157139,6.864956,0.685597,1.686534,-1.008545,0.294922,0.327881,12.638965,-0.411786,-1.596735,-0.859162,-0.643744,-2.0464,-1.053467,-0.203369,-0.277344,14.343101,-5.16317,-6.212727,-3.371118,1.488271,0.177964,-0.98584,0.217773,-0.117188,9.37545,-4.038526,-3.97222,-2.394815,1.574916,-0.197597,-0.905762,0.190674,-0.156738,10.179056,0.148852,-3.873248,-4.373565,1.871508,-0.262914,-0.906494,-0.022461,-0.061035
13.803123,1.659085,-2.471652,5.993016,-0.501117,1.999625,-0.974121,0.388184,0.318115,11.187777,-0.563724,-0.405492,-2.200494,-1.912847,-1.523811,-1.045654,-0.228271,-0.234131,11.662783,-2.446475,-4.232617,-0.816029,2.479766,-0.968989,-0.979248,0.195068,-0.171875,11.003688,-4.454267,-2.995198,-0.277543,0.618181,-0.293762,-0.903076,0.189453,-0.169922,7.671566,-1.973468,-3.00028,-1.957074,0.076806,-1.17721,-0.905029,-0.04834,-0.062256
17.297721,-0.220142,-3.066692,5.853248,-0.292672,2.413867,-0.931396,0.483398,0.276611,15.652028,-0.501165,-1.848339,-2.026575,-1.380342,-2.4475,-1.026855,-0.281494,-0.209961,12.358985,-1.596396,-3.952887,-1.029446,2.065386,0.090519,-0.964355,0.204102,-0.213623,10.120527,2.243636,-0.229121,1.094658,1.447868,0.011317,-0.886719,0.175293,-0.197998,12.650497,0.500496,-2.125995,-0.027448,0.288983,-1.461288,-0.901855,-0.078613,-0.073975
15.272652,1.1385,-2.430149,5.933234,-0.141133,2.699117,-0.889893,0.581299,0.229004,9.970643,-0.61305,0.248175,-3.121854,-1.673548,-2.098515,-1.016602,-0.311279,-0.181885,9.235609,1.68282,-1.644315,-0.069153,2.693719,-0.987527,-0.943115,0.17041,-0.266846,8.650974,4.493711,1.118368,-3.48484,1.2594,-0.481324,-0.879639,0.187012,-0.204102,6.418924,6.83171,-0.158257,-0.597987,1.366944,-1.673718,-0.885742,-0.123535,-0.097412
17.81394,-0.820071,-3.262717,5.935613,0.860745,2.830464,-0.830078,0.662354,0.137451,16.669649,-0.645294,0.315874,-2.942542,-1.630101,-3.022795,-0.980713,-0.366455,-0.163574,9.458001,4.998002,0.371924,-2.223424,1.650262,-0.470853,-0.931641,0.172607,-0.296631,9.832325,-5.946096,-1.04607,-4.815363,1.046146,-0.408039,-0.877686,0.205566,-0.201416,9.182754,4.109398,-0.341075,-4.565795,-1.230359,-0.852437,-0.889404,-0.131104,-0.081787
15.728148,0.596307,-2.732454,6.59056,2.102417,2.152622,-0.789062,0.700928,-0.00293,12.599689,-0.499647,-0.260478,-3.6378,0.187917,-2.176374,-0.954834,-0.397461,-0.206543,11.345093,0.132555,-1.056608,-3.193412,1.49905,-0.054366,-0.915527,0.193115,-0.316162,8.926452,-7.36608,0.154966,0.162916,1.409249,-0.628156,-0.873291,0.189453,-0.221924,12.845885,-3.813078,-1.913959,-2.966658,0.929403,-0.730516,-0.88501,-0.136475,-0.117676
15.972118,-0.383686,-3.891774,6.652774,3.464267,1.705349,-0.723633,0.702637,-0.156738,13.494691,-0.813575,0.841767,-3.545213,-0.193829,-2.613695,-0.915771,-0.436279,-0.224121,9.823279,-1.644193,-0.019656,-1.327548,2.715029,-1.458954,-0.902588,0.16626,-0.356689,7.429001,1.103078,1.979582,1.78776,0.837777,-0.683257,-0.870361,0.164307,-0.254639,6.243547,1.149612,1.201542,0.353346,0.753955,-1.282122,-0.881348,-0.166504,-0.118164
14.034672,1.03206,-3.304564,6.884956,3.6533,1.026371,-0.666504,0.658936,-0.322266,11.938469,-0.760749,-1.108852,-3.769548,1.302602,-1.981694,-0.881592,-0.442627,-0.292969,8.447491,-1.726203,0.92206,-1.047534,1.500615,-0.489247,-0.88916,0.165527,-0.385254,10.732817,5.162063,2.476683,-1.320539,0.163969,-0.437467,-0.882324,0.1604,-0.253174,9.340885,6.247729,1.172289,-0.365947,-0.242124,-0.397086,-0.878662,-0.169922,-0.118164
15.831567,-0.92175,-4.403394,6.565472,4.344942,0.237181,-0.596191,0.572754,-0.472656,7.576406,-1.001289,0.288101,-3.101454,-0.340483,-2.007071,-0.855713,-0.456055,-0.318359,11.341833,-1.479056,2.066581,-1.020615,1.554933,-0.772194,-0.887939,0.152832,-0.415283,12.04044,-1.415612,1.017117,-4.665018,1.69727,-0.047379,-0.863525,0.189453,-0.261719,7.553704,6.372961,1.197173,-2.067491,0.939503,-0.881852,-0.881592,-0.184082,-0.150635
12.752963,1.065726,-3.490457,7.15517,4.155107,0.358639,-0.515381,0.460449,-0.599609,13.650564,-0.529354,0.867817,-2.70972,-0.195499,-1.618699,-0.828857,-0.467773,-0.348145,10.176927,-1.397609,1.787687,-2.215741,1.912968,-0.275142,-0.859375,0.164307,-0.44458,8.064885,-6.771296,1.666216,-2.486813,1.55673,0.250971,-0.840332,0.213867,-0.273926,7.89226,4.22548,0.996352,-2.662749,-0.569556,-0.737616,-0.878174,-0.190674,-0.148438
11.685203,0.640645,-3.421525,6.328703,4.189262,-0.76069,-0.431641,0.334961,-0.672852,7.090469,0.28895,0.665118,-2.019838,-0.56389,-1.80699,-0.802246,-0.475342,-0.340332,8.820205,-2.2696,0.761526,-2.234258,1.2385,-0.312216,-0.837891,0.180908,-0.455322,9.374629,-3.214708,2.00821,0.165381,0.476917,-0.254794,-0.836914,0.206299,-0.284424,11.79409,3.615376,0.839654,-2.281342,-0.418442,-0.292466,-0.867676,-0.189697,-0.147461
9.127663,0.664915,-2.609503,6.024785,2.878976,-1.092349,-0.373291,0.189209,-0.717041,13.596771,0.010481,1.87496,-2.13488,-1.070325,-2.300892,-0.778564,-0.505859,-0.348389,9.883525,-2.161982,0.907236,-1.625669,1.020878,-0.276171,-0.827393,0.187744,-0.464355,10.03766,0.289487,1.302694,-0.743379,1.103595,0.102864,-0.821045,0.209961,-0.302246,10.57892,3.001445,1.172441,-2.332092,0.760848,-0.150977,-0.867432,-0.177002,-0.173828
8.933337,0.867024,-1.940778,5.403644,2.202375,-1.729486,-0.327148,0.061768,-0.707764,9.2175,-1.446802,1.444749,-0.9628,0.072018,-1.447134,-0.756348,-0.514893,-0.343018,9.661195,-2.060604,2.743759,-0.513021,0.978244,-0.170618,-0.808838,0.185547,-0.482178,8.924545,-0.812723,1.400451,-2.231287,0.819582,-0.207323,-0.818359,0.228027,-0.296143,7.702549,2.46629,1.092242,-1.032933,0.217621,0.33562,-0.862793,-0.165039,-0.178467
7.296555,0.993566,-1.720393,5.069693,1.573348,-2.54143,-0.281982,-0.067871,-0.679932,10.890733,1.412694,0.970579,0.21067,-0.902135,-1.656716,-0.734375,-0.544434,-0.309814,10.837337,2.553058,3.369993,-0.810491,1.244671,-0.843626,-0.797852,0.182129,-0.493408,11.51535,-2.82279,2.737566,-2.448231,0.301936,-0.088295,-0.806152,0.233887,-0.278564,10.497377,5.42303,0.293435,-0.802768,-0.355058,0.334214,-0.866455,-0.145508,-0.168213
7.815654,1.671609,-0.934403,3.836844,-0.449447,-3.049336,-0.270996,-0.178223,-0.632812,11.006743,-0.600053,1.941807,-0.35246,-0.088049,-0.871064,-0.724854,-0.55542,-0.310303,9.119962,1.245277,3.129235,-3.071165,1.150764,-0.066804,-0.774902,0.205078,-0.491211,12.465909,-4.01974,1.853012,-2.022843,1.300012,-0.196428,-0.79834,0.242188,-0.291504,11.333304,5.67435,0.336801,-3.003493,-0.090914,1.154598,-0.864502,-0.11377,-0.169678
10.245112,-0.145992,-1.422522,3.69467,-0.90838,-2.553086,-0.262939,-0.263672,-0.56665,11.141798,-0.909499,1.397243,1.590008,-0.450629,-1.341017,-0.705811,-0.578613,-0.270508,11.479921,-3.827773,1.944765,-2.797672,0.102366,-0.333901,-0.776611,0.223389,-0.476074,8.82936,-3.699961,2.054532,-0.384984,1.466486,-0.27234,-0.789551,0.249756,-0.3125,12.815909,-0.939852,-0.268532,-3.894091,0.285247,1.199108,-0.863525,-0.067627,-0.184814
10.078097,0.867055,-1.301368,3.529177,-1.970997,-1.888593,-0.270508,-0.334229,-0.485596,9.174436,0.738371,0.757626,1.872211,-0.048185,-0.378736,-0.694824,-0.587891,-0.234619,11.184405,-4.861846,1.586361,-0.404779,1.464501,-0.40753,-0.761475,0.227539,-0.497559,9.469613,-0.798707,2.412041,0.395338,-0.02747,-0.159606,-0.790039,0.24292,-0.313721,9.202948,-2.613026,0.286649,0.037893,1.206108,0.64447,-0.860352,-0.041992,-0.206299
10.105527,-0.158756,-1.173459,3.085431,-2.136673,-1.872994,-0.270264,-0.403564,-0.405518,8.389205,0.170021,-0.256902,2.531048,-1.381011,-0.741185,-0.684814,-0.615234,-0.165771,8.038461,-0.451031,3.311055,0.796177,0.710295,-0.734389,-0.754395,0.205811,-0.511963,12.378637,-0.178079,2.543478,-1.945204,1.036205,-0.421342,-0.777832,0.246094,-0.30957,8.895928,5.469922,1.862689,1.059238,-0.123632,0.075041,-0.861084,-0.044434,-0.200439
9.525186,0.344146,-1.554151,3.806105,-2.408687,-0.838434,-0.29126,-0.455811,-0.304932,11.04252,0.440535,-0.625356,3.29716,-0.707478,-0.122164,-0.687012,-0.623779,-0.097656,10.049282,2.475773,2.861487,-1.339566,0.142759,-0.223317,-0.749756,0.207031,-0.500244,7.786011,-4.907815,1.511184,-3.073827,1.985837,-0.234989,-0.762451,0.270996,-0.327881,13.385012,4.474728,1.278891,-3.443684,0.322654,1.11857,-0.856201,-0.004395,-0.202393
10.333233,0.36146,-1.161282,2.838045,-3.189009,-0.330345,-0.317139,-0.489746,-0.205322,7.609469,0.902346,-0.50446,3.402418,-1.008444,0.001966,-0.686279,-0.629639,-0.019775,8.475455,-0.857524,1.889977,-2.283742,0.644184,-0.567705,-0.744385,0.224121,-0.500732,5.976828,-8.671096,1.537022,-1.67731,0.527434,-1.198806,-0.758301,0.265869,-0.32959,9.22058,-5.423989,-0.377242,-4.158017,1.458565,1.048743,-0.846924,0.050781,-0.230957
9.677867,-0.276591,-1.282933,3.585512,-2.830325,0.012322,-0.329346,-0.503174,-0.09668,10.328044,0.895696,-1.928934,3.410849,-0.706132,0.13352,-0.683838,-0.609863,0.051758,8.113898,-3.038342,1.12619,-1.077921,0.114417,-0.950473,-0.734619,0.221191,-0.503174,8.646705,-10.376337,1.060721,-0.169105,0.29134,-1.546832,-0.771973,0.237793,-0.324707,9.949587,-8.148463,0.666074,-0.706856,-0.203171,1.071437,-0.836914,0.082275,-0.231201
11.284025,-0.41385,-1.207919,3.146159,-2.957244,0.833307,-0.345947,-0.508545,0.010254,7.284456,0.412122,-2.372977,3.027046,-0.494619,0.45435,-0.681396,-0.599121,0.113281,8.507197,-3.859106,1.828866,0.284409,0.497923,-1.356516,-0.736816,0.193115,-0.502197,6.322397,-9.042256,1.28279,2.042092,1.012696,-1.894547,-0.779297,0.177979,-0.352295,12.640684,-4.954022,1.987954,0.886867,1.152542,1.996459,-0.824219,0.124268,-0.252441
10.738271,-1.184016,-1.107242,4.114762,-1.842932,0.905926,-0.358154,-0.49707,0.115723,8.059875,1.528484,-2.57884,2.682565,-1.261619,0.823718,-0.682861,-0.567627,0.174316,7.105535,-4.680324,1.200126,1.162264,0.226327,-2.037048,-0.744385,0.13916,-0.506104,5.558665,-2.799947,2.083212,3.034828,-0.134302,-2.112963,-0.786133,0.107666,-0.367676,5.543188,-4.269703,2.464098,0.691843,2.020286,2.958942,-0.800293,0.183594,-0.295898
11.677048,-1.03754,-1.385493,4.716499,-0.39019,0.918112,-0.367676,-0.489258,0.220215,7.396967,1.744072,-1.204015,0.123277,-1.483582,1.794436,-0.698975,-0.542725,0.215088,7.447203,-3.4113,1.354262,1.44554,-0.056515,-1.883065,-0.743408,0.083252,-0.510498,8.007172,1.701526,2.49993,0.489363,-0.325801,-1.851442,-0.801758,0.068359,-0.363525,3.937796,-4.108305,2.368423,1.27307,0.14864,3.344828,-0.771729,0.243164,-0.304199
12.62114,-0.329752,-1.883084,5.461086,0.646215,0.819439,-0.371582,-0.441895,0.317627,9.205411,-1.342102,-1.769228,0.586929,-2.740984,2.013703,-0.693115,-0.491943,0.282227,8.003562,0.275201,1.391186,0.811265,-0.195611,-2.47701,-0.756348,0.032715,-0.505615,6.937241,-0.197442,0.93182,-0.368593,0.55708,-2.019577,-0.794678,0.021973,-0.375244,7.354509,-1.784696,3.361098,0.82344,0.613682,2.682449,-0.751709,0.300293,-0.325439
11.92693,0.282828,-2.041136,5.51334,1.066313,1.366239,-0.391846,-0.388428,0.393066,10.671848,0.816285,0.627665,1.368988,-2.181804,2.323042,-0.69751,-0.437256,0.335449,7.234441,-1.015851,0.531051,0.000981,-0.452785,-1.450157,-0.75415,-0.005859,-0.503418,5.015906,-0.925596,-0.490835,1.2713,-0.143221,-1.67088,-0.799316,-0.019287,-0.37085,3.592289,-2.804855,2.981003,-0.291812,0.963632,2.854634,-0.712646,0.351318,-0.341797
10.982629,0.611153,-2.191474,5.532837,1.10898,1.540927,-0.42041,-0.317871,0.468262,10.838085,-0.176023,0.553212,1.206373,-2.425122,2.230504,-0.698242,-0.38501,0.400635,8.142909,-0.736903,0.034953,1.715069,-0.512604,-1.994042,-0.753662,-0.059326,-0.488037,5.922103,3.808922,-0.23221,1.624486,-0.848294,-1.844615,-0.812988,-0.082275,-0.349854,5.290485,-4.103573,1.919474,1.058495,-0.720451,1.606826,-0.699707,0.375732,-0.336426
6.910674,1.836902,-1.258828,4.838203,0.242239,1.921033,-0.439941,-0.230225,0.537598,12.083962,0.712862,0.860097,2.792268,-0.717252,2.361156,-0.705566,-0.311035,0.442871,7.738881,6.325172,1.910201,1.923997,0.450239,-2.381564,-0.749023,-0.136719,-0.489258,7.28783,3.688953,1.618362,-0.187366,-0.476526,-1.825981,-0.806152,-0.107666,-0.332031,6.54846,-0.97864,1.665276,0.773793,0.269132,1.42904,-0.686035,0.387695,-0.344971
9.181211,0.157575,-1.420261,4.051813,-1.10813,2.869345,-0.44873,-0.129639,0.615479,6.851683,0.593505,1.708774,2.148105,-0.586135,1.77474,-0.708252,-0.248779,0.479004,5.35141,2.98858,0.102725,-1.302143,-0.364466,-1.312371,-0.736328,-0.134277,-0.47583,6.436056,1.745358,1.204008,0.890185,-0.057872,-1.669627,-0.803711,-0.152344,-0.337402,4.583475,-3.762967,1.412134,-0.844535,-0.436143,0.860383,-0.671875,0.418213,-0.31665
11.699853,0.064179,-1.467839,4.386865,-0.941456,3.93884,-0.439697,-0.005127,0.669922,9.504281,-0.963755,0.843876,3.623113,-0.509695,1.578835,-0.69165,-0.180908,0.511719,6.235292,-2.286864,-1.483658,0.907884,-0.813448,-1.473366,-0.736572,-0.177246,-0.46582,6.379414,4.554248,1.377803,1.646947,-0.366976,-1.580686,-0.808105,-0.208008,-0.329834,8.293942,-5.217094,0.025609,1.461343,-0.99555,-0.258164,-0.680908,0.401123,-0.323975
12.293446,0.44203,-1.600035,4.255113,-0.477254,4.228953,-0.440186,0.121582,0.700928,6.581865,1.166299,1.141879,3.818452,0.021508,0.726354,-0.695068,-0.126465,0.524414,5.932857,2.430036,1.290913,2.318752,-0.954338,-1.674463,-0.74292,-0.241211,-0.44043,7.298765,4.240366,0.394567,0.448801,-0.043432,-1.084327,-0.800781,-0.224609,-0.318115,7.920416,0.261617,0.335899,1.972293,-0.034683,-1.06824,-0.698242,0.350342,-0.347412
12.044578,0.982404,-1.549619,4.14448,-0.514134,4.497806,-0.418701,0.268555,0.722168,8.877196,-1.537398,-0.053986,3.706433,-0.762272,1.190932,-0.677734,-0.044678,0.557129,6.626038,2.02591,0.464631,-0.002372,-1.808444,-0.403602,-0.754639,-0.239502,-0.402344,6.325862,3.581826,-0.796605,0.578904,-0.051204,-0.805495,-0.791992,-0.253662,-0.311035,7.507691,0.656135,1.350644,0.18169,-0.783231,-1.392189,-0.717041,0.332031,-0.327881
11.206228,1.326022,-1.227899,3.529117,-0.506932,4.106775,-0.37915,0.391602,0.724121,11.116018,0.132874,-0.032989,5.201797,0.566465,1.297702,-0.677734,0.049316,0.549805,9.468455,0.352047,0.315927,0.701968,-1.625887,-0.721528,-0.758301,-0.270508,-0.366211,8.111889,4.807171,-1.010078,-0.004291,-1.26344,-0.457443,-0.797607,-0.27002,-0.29126,9.518182,-0.354177,1.010864,0.568827,-0.503163,-1.850817,-0.732178,0.280273,-0.319092
11.615555,1.221879,-1.215938,2.988169,-1.115272,3.830395,-0.33252,0.489746,0.731689,10.768559,0.108814,-0.79186,3.549257,0.778015,1.727039,-0.687744,0.122803,0.53833,10.269104,3.244064,1.013511,0.263839,-0.46709,-0.638913,-0.756104,-0.294189,-0.363525,11.996905,2.350501,-0.444912,-1.017657,-0.609217,-0.296765,-0.797119,-0.270752,-0.293701,9.266137,1.954789,0.516063,-0.225021,-0.603929,-2.055733,-0.749512,0.234619,-0.309814
13.443809,0.820277,-0.952419,2.293732,-1.47663,3.027248,-0.274414,0.55542,0.737793,11.657109,-1.225041,-1.901234,4.558273,1.432353,1.536815,-0.696289,0.205566,0.49585,8.764406,1.038611,-1.598398,-0.412117,-0.861888,0.099635,-0.759521,-0.289551,-0.354736,10.264481,-0.975458,0.167888,0.094389,0.184347,-0.393382,-0.792236,-0.280518,-0.290283,10.557371,-1.97753,-0.514941,-1.59992,-0.523345,-1.805018,-0.76416,0.210449,-0.294189
15.880224,-1.590839,-1.86058,2.486684,-0.640424,3.055403,-0.220703,0.636475,0.729004,10.199561,0.165325,1.627592,3.345174,1.351778,0.945515,-0.702637,0.272217,0.469971,10.637432,1.641024,-3.674182,1.423686,-1.392233,-0.621732,-0.762695,-0.313721,-0.313965,10.664412,0.443248,-2.716838,2.062187,-0.844795,-0.721709,-0.795166,-0.30127,-0.265625,8.633943,-5.288204,-1.015558,0.54226,-0.30759,-1.696874,-0.772949,0.166992,-0.287109
13.28942,1.58677,-0.703659,3.020913,-0.165025,2.571313,-0.195801,0.714844,0.688965,10.821725,-1.980089,-1.076189,3.271739,0.406122,0.24176,-0.716553,0.318848,0.438721,11.448936,4.925095,-3.115085,1.450459,-1.244552,-0.49963,-0.768555,-0.329346,-0.287842,12.501808,6.068944,-2.495067,1.282299,-0.707051,-0.567292,-0.793457,-0.333496,-0.244141,10.591482,0.258865,-1.011043,2.494847,-1.393986,-0.843207,-0.790771,0.140137,-0.272705
10.833975,-0.74763,-1.493914,2.685029,1.013717,2.115557,-0.168457,0.769287,0.653809,13.053602,-0.885474,-1.087238,2.758792,0.530607,0.3535,-0.706543,0.349854,0.416016,12.730375,3.983834,-1.773788,-1.021907,-1.315887,-0.270892,-0.773193,-0.334229,-0.269775,10.794076,4.527461,-2.823257,-1.409455,-0.255323,-0.137187,-0.793701,-0.319336,-0.248291,14.344629,4.380986,-0.878335,0.163695,-0.781834,-0.123429,-0.793457,0.12793,-0.256836
8.655904,2.325367,-0.359289,2.724153,0.695885,0.248931,-0.184326,0.80957,0.61499,10.513087,-0.750798,-0.63196,2.058722,0.621778,0.512833,-0.72168,0.383301,0.396973,12.067768,-1.675608,-3.555014,-0.823847,-0.581872,0.061435,-0.779297,-0.321777,-0.267334,10.18313,-0.020178,-4.234284,0.132295,-0.736242,-0.052615,-0.804199,-0.337402,-0.241943,11.426171,-0.135929,-2.406526,-1.909619,0.084994,0.292256,-0.791016,0.15332,-0.248291
8.378988,-0.600526,-0.947653,1.520398,0.474932,-0.24851,-0.192871,0.824463,0.58252,11.174622,-0.736664,0.449015,1.630891,0.44399,0.635805,-0.716797,0.406006,0.369141,10.353386,0.190335,-1.868431,1.70458,-0.304926,-0.630113,-0.779541,-0.358398,-0.257568,11.515932,3.570638,-3.441873,3.125858,-0.60257,0.296318,-0.8125,-0.34375,-0.211182,10.807756,-2.681182,-4.029234,0.711892,-1.19541,0.013996,-0.802002,0.133545,-0.234131
9.705957,1.329247,-0.087332,2.179483,0.543696,-1.498437,-0.226074,0.8479,0.552979,9.737028,-0.526477,-0.23212,1.494153,0.745131,0.329875,-0.726318,0.428711,0.350098,10.956783,4.107978,-1.810973,1.801407,-0.148251,0.164052,-0.789307,-0.365723,-0.243652,10.744896,8.826482,-2.130864,2.797764,0.092477,0.423749,-0.813477,-0.356934,-0.189209,13.483074,1.785676,-3.172869,2.146081,-1.093321,-0.231117,-0.8125,0.119629,-0.221436
11.2002,-1.213905,-1.669556,1.434977,0.407159,-1.152007,-0.255371,0.859863,0.527588,9.650522,-0.428693,0.58687,1.206362,0.261645,0.005982,-0.730225,0.444824,0.335938,9.918985,4.055273,-3.568421,1.836298,0.024638,0.238578,-0.793213,-0.373535,-0.223633,9.06241,9.458535,-1.508364,0.726594,-0.010109,0.677406,-0.820068,-0.341797,-0.19043,12.014618,2.499236,-2.203861,0.88378,-0.800006,-0.101028,-0.818359,0.113525,-0.199951
10.256862,0.621276,-0.643613,2.040245,0.49764,-1.368599,-0.293457,0.869629,0.490723,8.366711,-0.42332,-0.254334,1.579944,0.31683,-0.83859,-0.745605,0.442139,0.311523,9.563092,6.744607,-1.885065,2.009567,0.231863,0.250106,-0.797363,-0.371582,-0.222412,9.114687,7.199807,-3.094105,0.050996,-0.092544,0.860574,-0.82666,-0.324707,-0.189453,12.131536,1.409212,-3.520865,1.048996,-0.899259,-0.657521,-0.825439,0.095459,-0.192139
8.977164,-0.262151,-0.960485,1.506184,0.461308,-1.46156,-0.341553,0.875244,0.463379,8.270719,-0.097053,0.364222,1.755728,-0.554607,-1.072253,-0.763428,0.4375,0.305664,8.288485,6.161561,-1.152973,-0.182525,-0.163179,1.119472,-0.810303,-0.351807,-0.218994,9.765312,7.267132,-2.710842,0.544961,-0.116417,1.413884,-0.828613,-0.296875,-0.186035,11.685662,4.602123,-3.357037,1.471442,-0.521474,-1.175736,-0.829834,0.061523,-0.183105
9.45174,1.136899,-0.660196,1.736351,-0.103342,-1.49827,-0.379395,0.87793,0.442871,11.261424,-0.430095,0.438118,1.787036,-0.351248,-1.436498,-0.784424,0.42627,0.300049,10.949752,1.81079,-2.569443,-0.683809,-0.380224,1.564509,-0.818848,-0.316406,-0.220459,10.149378,5.459399,-1.946746,-0.885352,-0.103058,1.640854,-0.855713,-0.269531,-0.186768,11.29624,5.461419,-0.979143,-0.527008,-0.684174,-1.898028,-0.832764,0.025391,-0.172119
11.56038,0.382407,-1.063725,0.616507,-0.645789,-2.315488,-0.425781,0.848389,0.438232,10.693616,-1.015444,0.618445,1.766167,-0.253373,-1.5046,-0.798096,0.4021,0.282227,11.854065,1.773387,-2.909413,1.346327,0.561588,1.440773,-0.848389,-0.303711,-0.219971,9.457581,1.768592,-0.258879,-1.960328,-0.204972,1.463651,-0.854736,-0.220215,-0.196289,10.196903,1.541278,-0.753753,-0.835228,-0.246484,-2.236226,-0.852539,-0.0354,-0.163574
11.417325,0.670061,-0.834959,0.966412,-0.851484,-2.276063,-0.489746,0.828857,0.447998,11.143017,-0.760401,1.056429,1.501799,-0.406413,-1.991164,-0.834473,0.377441,0.284912,10.230595,7.895859,-1.081447,0.442924,1.066684,0.894162,-0.84375,-0.281494,-0.24707,10.382856,-1.615275,-0.407353,-2.17157,-0.893183,1.30536,-0.860352,-0.17627,-0.188477,8.30658,2.519511,-0.358291,-0.266529,-0.774958,-1.671109,-0.847168,-0.061523,-0.145752
13.660479,0.836158,-1.160448,0.155352,-1.127676,-3.14681,-0.546875,0.771729,0.463135,11.24895,-1.596049,1.461084,0.896199,-0.994005,-1.861659,-0.846924,0.34375,0.293945,9.746381,4.120786,-1.137067,-3.930802,-0.247858,1.882058,-0.855469,-0.2146,-0.266846,11.450743,-1.834971,0.273291,-0.847393,-0.453013,1.216776,-0.881104,-0.145264,-0.17627,11.698696,3.323783,0.878703,-1.651708,-1.310143,-0.621003,-0.848145,-0.068115,-0.122559
12.358009,1.246815,-0.944809,0.030512,-1.227921,-4.06566,-0.617188,0.692627,0.507324,12.272236,-1.624605,0.913188,0.729976,-0.688508,-1.680768,-0.866455,0.31665,0.315186,11.404173,-4.914858,-2.727569,-2.386371,-0.05509,1.546324,-0.879395,-0.165039,-0.270996,9.198857,-0.332318,1.126169,-0.87752,-0.251199,1.249756,-0.882812,-0.112793,-0.176025,10.92379,0.325526,-0.37495,-2.320607,-0.0677,0.161976,-0.860596,-0.05542,-0.117676
14.987046,1.499532,-1.306568,-0.839879,-1.91004,-4.669346,-0.66748,0.572266,0.565918,9.871709,-0.811111,1.041807,0.355413,-1.103372,-1.420479,-0.875244,0.284912,0.344482,9.190857,-1.465404,0.112182,0.621122,0.09266,0.36626,-0.87915,-0.161133,-0.277588,10.508374,-1.606146,0.24141,-0.339617,-1.285937,1.084035,-0.889648,-0.093018,-0.148682,7.977144,-2.281694,0.550629,-1.163664,-0.820585,0.05571,-0.862549,-0.052246,-0.103271
18.026129,0.573944,-1.921718,-1.145211,-1.829431,-5.326172,-0.712158,0.42041,0.614258,14.536618,-0.767298,0.695766,0.219701,-1.100344,-1.232813,-0.891113,0.255371,0.361084,12.060557,2.085357,0.34089,0.061595,-0.871661,1.579723,-0.895996,-0.131592,-0.260742,12.002729,2.814122,0.495468,0.544291,-0.643716,1.286952,-0.892822,-0.065918,-0.141602,11.827956,0.072265,0.169615,1.323888,-1.460561,0.276497,-0.865479,-0.053467,-0.072998
16.235502,1.240553,-1.334922,-1.322422,-1.752664,-5.191333,-0.723145,0.262939,0.665527,10.547699,0.339302,-0.748451,0.604863,0.0617,-1.029996,-0.908691,0.23584,0.367676,11.390124,3.06806,0.970598,-1.296292,0.214949,0.731193,-0.901123,-0.102051,-0.272949,9.689975,8.598887,1.975991,-2.822136,-0.383769,1.551886,-0.902344,-0.019531,-0.127686,10.299371,8.688325,1.318987,0.695789,-0.390901,0.457032,-0.865723,-0.04126,-0.066895
17.230625,-0.087466,-1.871458,-1.620714,-1.994566,-4.830742,-0.696533,0.109375,0.709961,11.947992,1.499457,-1.799065,0.551985,-0.892976,-1.433264,-0.916016,0.207764,0.383789,9.447653,3.918353,2.251083,-3.546027,-0.525705,1.385604,-0.915039,-0.047607,-0.260986,10.613025,1.455971,0.165461,-6.902399,-1.10449,1.559677,-0.9021,0.047607,-0.074463,8.506061,9.047005,0.945817,-5.117173,-1.311427,1.18282,-0.873535,-0.00415,-0.029541
15.513289,-0.502444,-1.322624,-1.192412,-1.702974,-4.085261,-0.662842,-0.025879,0.734375,13.247015,1.115987,-1.491657,0.868508,0.256853,-1.350535,-0.936035,0.173096,0.373779,11.909809,-1.008497,0.317597,-5.072443,-1.265844,1.94452,-0.925537,0.035156,-0.21875,11.602344,-8.710174,-0.86291,-3.590864,-0.573072,1.512747,-0.902588,0.090576,-0.06958,11.117023,-4.026455,-1.968017,-6.793138,-1.275176,0.488319,-0.873291,0.015625,0.016846
14.158918,-1.487601,-1.301135,-0.618659,-1.232832,-2.909631,-0.622314,-0.123535,0.751709,10.314163,2.249717,-2.246132,1.218633,-0.366745,-2.003824,-0.944092,0.124512,0.378418,11.153203,-5.547522,0.197928,-2.002356,-0.368903,1.396098,-0.930664,0.076904,-0.223389,9.705706,-6.897617,0.602901,1.568657,-0.605805,1.222621,-0.897949,0.118896,-0.055908,9.463546,-8.412377,-2.36648,-0.86084,-0.836098,-0.746975,-0.878418,-0.00293,0.02002
12.999592,-0.953095,-0.919942,0.19446,-1.037189,-2.051961,-0.604736,-0.174561,0.791504,13.434693,2.459502,-1.935253,0.378766,-0.424113,-2.054956,-0.968018,0.075195,0.406494,10.287601,-3.034791,1.019389,0.518943,-1.234457,1.09851,-0.936279,0.104004,-0.185303,10.86933,0.165412,2.353528,1.316558,-1.237252,1.007092,-0.894531,0.137451,-0.028809,10.868251,-0.062194,-0.563091,2.238742,-1.727674,-0.925901,-0.876465,-0.019287,0.063477
12.760465,-0.815325,-0.80365,0.421851,-0.451773,-1.258973,-0.583984,-0.208496,0.791504,11.62141,2.139473,-0.860572,-0.419718,-0.007806,-1.999731,-0.974609,0.012451,0.400879,11.994337,-0.575287,1.720493,0.031077,-0.996661,1.388291,-0.937744,0.135498,-0.161377,12.576267,-0.813228,0.44064,-2.69263,-0.39232,1.172406,-0.894775,0.167236,-0.011719,13.011349,4.296245,-0.522831,0.099524,-0.743,0.370586,-0.874023,-0.012695,0.08252
13.025426,-0.469145,-0.966619,0.890473,-0.304843,-1.178034,-0.563232,-0.227051,0.810791,13.942881,1.882781,-2.171481,-1.287857,-0.046838,-1.628216,-0.971924,-0.042969,0.406982,10.324484,-2.345399,1.377568,-1.874799,-1.201187,1.140017,-0.945068,0.175049,-0.123047,10.665092,-7.222321,-0.608737,-2.88549,0.014203,1.035107,-0.897705,0.19165,0.007568,10.476612,0.328605,-1.376344,-2.549194,-0.49249,0.654216,-0.879639,-0.001953,0.095459
12.750678,-1.241183,-1.140099,1.030443,0.695297,-1.014931,-0.564697,-0.251465,0.801514,13.042796,1.069663,-1.825492,-2.361648,0.986497,-1.122025,-0.981934,-0.112793,0.36792,12.386673,-4.496359,-0.801371,-1.339736,-1.766011,1.425871,-0.949463,0.208496,-0.076416,9.909197,-8.085356,-1.602778,0.005559,-0.628698,0.680307,-0.891113,0.2146,0.017822,12.353861,-4.614033,-2.49156,-1.844078,-1.280591,0.940969,-0.879883,0.012451,0.126465
11.77883,-1.187391,-0.985551,1.957968,1.189569,-0.459455,-0.582764,-0.246338,0.793701,11.109328,-2.006712,-2.340513,-1.433574,0.63905,-1.281787,-0.986816,-0.173584,0.345459,11.937447,-3.006344,-0.968896,-0.315303,-0.781574,0.380467,-0.950439,0.225342,-0.057373,9.373827,-2.987229,-1.124876,2.367853,-0.645511,0.72078,-0.88916,0.226562,0.025879,12.130409,-4.728786,-1.155949,-0.028906,-0.200277,0.509449,-0.879395,0.032715,0.124268
10.365531,-0.483555,-0.648425,2.017028,1.817978,0.216127,-0.634033,-0.218506,0.792969,10.523845,-0.43049,-2.38761,-0.403837,0.848141,-1.216042,-1.001221,-0.216064,0.330811,9.131685,-3.021904,-1.148087,0.776582,-0.91806,0.873557,-0.947754,0.248779,-0.026855,9.267817,-0.030321,0.121964,0.395961,-0.893186,0.485358,-0.893799,0.236572,0.039307,8.389322,-2.964541,-0.72516,1.040872,-0.376107,0.264258,-0.882812,0.03833,0.14502
12.728142,-1.15951,-1.518865,2.679066,2.488172,0.371067,-0.683838,-0.1875,0.758789,9.671097,-0.712006,-1.550613,-0.288416,0.408503,-1.245404,-0.994629,-0.271729,0.310303,11.068119,-0.546823,-1.031816,1.142326,-1.158979,0.268994,-0.955078,0.255615,-0.011475,8.11632,-3.556076,-0.744771,-0.711578,-0.584231,0.482194,-0.882324,0.251221,0.070557,10.432377,-2.0533,0.677218,0.919083,-1.23037,0.027154,-0.883545,0.039062,0.166504
9.376945,0.338193,-1.088274,2.770579,3.097142,0.193138,-0.740723,-0.146484,0.713135,9.508963,-1.047384,-1.639375,0.660103,0.887808,-0.962445,-0.998535,-0.292725,0.292236,8.869441,-0.901333,-0.966625,-0.06945,0.042167,0.538954,-0.944336,0.275635,0.006348,5.88228,-4.650279,0.291029,0.450929,-1.105766,0.407685,-0.883789,0.264648,0.083008,8.757384,-2.073675,1.459593,0.54293,-0.169484,-0.262197,-0.875732,0.039551,0.178955
10.040546,-0.494363,-1.536902,2.789085,3.212286,-0.261989,-0.782959,-0.119385,0.67041,6.385617,0.645225,0.306514,0.495034,0.600153,-0.677762,-0.988281,-0.312744,0.290771,5.887487,-3.156549,-0.97827,0.218016,-0.938029,0.468546,-0.945312,0.292725,0.01709,7.286672,-3.900222,0.825909,0.345441,-1.943861,0.163497,-0.869141,0.272217,0.125,5.330841,-1.920905,1.489057,0.740276,-1.408681,-0.422261,-0.874512,0.03418,0.203857
9.284889,0.365521,-1.153238,2.731627,3.248248,-0.83113,-0.831787,-0.115723,0.602295,8.964284,-0.175939,0.263366,-0.251488,0.338125,-0.402587,-0.993408,-0.333252,0.266357,9.264268,-0.900199,-0.798153,0.934726,-0.999516,-0.096108,-0.936523,0.297363,0.036865,7.966802,-4.666661,0.334491,0.210858,-1.315505,-0.135133,-0.872803,0.268066,0.155518,10.917788,-2.283664,0.892035,0.547023,-1.964945,-0.079725,-0.854492,0.033447,0.246338
8.890512,-0.301275,-1.516889,2.678411,3.253346,-0.930889,-0.863281,-0.125488,0.538574,7.68913,-1.864372,0.531465,0.20474,0.707728,-0.179559,-0.98999,-0.349365,0.249756,6.881511,-1.110291,0.340009,-0.038558,-0.419346,-0.03316,-0.942627,0.298096,0.052734,6.348006,-3.903478,0.226812,1.292124,-1.664139,-0.050497,-0.879395,0.281494,0.184814,7.876302,-2.403873,0.465238,1.249875,-0.340148,0.429158,-0.855225,0.05127,0.25708
7.96216,0.729876,-0.906691,2.403409,2.590594,-1.373074,-0.891846,-0.148438,0.49292,9.055888,-0.763923,0.614546,1.018722,0.698571,-0.168086,-1.00293,-0.353271,0.241699,7.609396,-2.819899,-0.039264,0.772715,-1.394162,-0.200359,-0.954834,0.308594,0.083252,9.109714,-1.604715,0.624901,1.069761,-2.381912,-0.412579,-0.861084,0.266357,0.225586,6.020997,0.458169,-0.669123,2.025306,-1.87962,0.599633,-0.852783,0.085205,0.298828
9.223872,-0.156062,-1.191021,2.064251,1.929417,-1.191472,-0.903076,-0.162354,0.459717,10.239942,0.496223,0.871606,0.705589,1.107973,-0.10341,-1.00708,-0.349121,0.219482,9.983575,-0.208063,0.938841,1.198679,-1.003923,-0.65163,-0.940674,0.285156,0.09668,11.351044,-1.36477,-0.412564,1.074004,-1.353968,-0.456521,-0.866699,0.257324,0.253418,11.49634,1.26037,-1.696213,0.671121,-1.720646,1.516273,-0.821045,0.112061,0.329346
9.963357,0.510536,-0.708942,1.864852,1.292644,-0.958836,-0.921387,-0.186279,0.443359,11.054518,-0.767143,0.744286,0.543488,1.424107,0.057965,-1.025635,-0.354248,0.186768,8.935884,-0.112747,0.803726,0.777352,-1.010993,-0.264957,-0.950684,0.280762,0.127197,8.867945,1.60837,-0.215164,2.044044,-0.74964,-0.159255,-0.860596,0.267822,0.249023,8.398859,-1.583204,-2.587877,0.818323,-0.069407,1.406392,-0.818848,0.144775,0.336426
9.99206,-0.31123,-1.079136,1.768383,1.116144,-0.668904,-0.91748,-0.20166,0.433838,10.31816,-0.303291,0.542126,1.459333,1.811029,0.000682,-1.022461,-0.35498,0.155762,9.548161,-0.615232,0.33953,0.851604,-1.444815,-0.238719,-0.948242,0.282227,0.151855,9.732557,3.2419,0.074223,0.578575,-1.622677,-0.125988,-0.854248,0.262939,0.276611,6.499093,1.424158,-2.777526,2.351842,-1.434438,0.722017,-0.803467,0.181641,0.35083
11.322463,0.322817,-0.880558,1.673142,0.448604,-0.471018,-0.927979,-0.208008,0.43457,12.531559,0.729708,-0.211942,1.306558,1.657596,-0.071523,-1.032471,-0.355225,0.12085,10.205275,0.755933,-0.736133,1.665917,-1.413826,-0.053522,-0.941895,0.284668,0.16626,12.675882,0.343171,-2.43765,0.096184,-0.802258,-0.263204,-0.852539,0.265869,0.299316,11.810721,2.827941,-2.989206,0.560758,-1.282111,0.317778,-0.792969,0.188477,0.37085
12.384348,-0.288929,-0.754864,1.494028,0.464373,-0.047705,-0.932861,-0.19873,0.44043,11.113659,-0.30117,0.559219,1.307769,2.562745,-0.279311,-1.035156,-0.361084,0.064697,10.87178,3.214975,0.254415,1.11785,-1.484282,-0.117894,-0.937012,0.299316,0.202637,8.938115,3.027514,-0.915941,0.4046,0.420287,0.132796,-0.853027,0.27002,0.280762,9.660637,0.976399,-4.260714,0.874128,0.202813,0.235005,-0.787109,0.206299,0.370361
11.755029,-0.874876,-1.115446,2.066078,0.849839,0.533094,-0.948486,-0.169922,0.436768,8.192044,-0.376381,-2.009748,2.163227,1.562898,-0.675925,-1.036377,-0.375488,0.051758,9.117456,5.441017,-0.341937,-0.170022,-1.068044,-0.116905,-0.933594,0.295166,0.220703,7.783512,1.944393,-0.966402,-1.62381,-0.78445,-0.643455,-0.842773,0.239502,0.302734,7.52284,4.569343,-3.529452,-0.061908,-0.89537,-0.27732,-0.781982,0.19873,0.380859
11.954859,-0.329104,-1.087383,2.226589,1.367035,0.084601,-0.953857,-0.151367,0.412354,9.530728,0.958089,-0.017276,1.665,1.195833,-1.481845,-1.011719,-0.412842,0.035156,8.257457,2.33312,-1.952727,-1.484308,-1.901484,0.118358,-0.909424,0.283691,0.268311,13.203003,-3.67535,-3.444329,-1.639993,-0.680953,-0.724367,-0.854004,0.217529,0.339111,11.631557,-0.470756,-6.189828,-2.524492,-0.385709,0.661959,-0.764648,0.1875,0.390869
12.436246,0.168126,-1.218143,2.508674,1.725445,0.016547,-0.965576,-0.131104,0.382568,10.009774,-1.934243,-0.305132,1.50347,0.30249,-1.113234,-1.001709,-0.4375,0.046143,12.222094,-0.534596,-2.486814,-0.495974,-2.198712,-0.134748,-0.902588,0.283691,0.33252,10.201343,-5.737449,-4.523332,1.231005,1.416755,-0.608745,-0.867432,0.212158,0.290527,9.729433,-6.099321,-6.222916,-0.232932,0.46918,-0.239992,-0.775879,0.187256,0.395752
9.502334,0.647588,-0.899974,2.108266,1.829793,-0.607621,-0.970459,-0.142334,0.346924,11.036025,-0.578569,0.400889,2.002413,0.528337,-1.726037,-0.977295,-0.482178,0.061523,10.590206,-2.128239,-2.695804,0.829851,-0.468741,-0.798565,-0.907471,0.267334,0.32959,5.77833,0.046214,-3.078305,2.77707,0.12104,-0.912211,-0.875,0.205078,0.268799,9.721104,-0.56947,-5.711349,2.845065,0.153027,-0.219511,-0.778076,0.203613,0.370117
7.390024,0.66331,-0.754574,1.88684,1.090294,-0.963159,-0.970947,-0.147949,0.330078,8.053662,-0.295025,1.283999,0.830354,0.426836,-0.909164,-0.9729,-0.491699,0.061035,7.437976,0.695051,-1.478358,1.330076,-1.223736,-0.973692,-0.907715,0.253174,0.343994,11.647287,4.395671,-3.873839,0.484712,-1.062391,-0.727039,-0.873047,0.193604,0.296387,8.762845,4.559442,-4.531772,1.085066,0.539531,0.595804,-0.781494,0.221436,0.34668
6.642078,1.363493,-1.380113,1.324236,0.40118,-1.249509,-0.949951,-0.177979,0.326904,13.061156,-1.320687,-1.358317,0.340055,0.662966,-0.598902,-0.955078,-0.506348,0.047852,12.086618,-0.708721,-2.458551,-1.249775,-1.230009,-0.052342,-0.894287,0.24292,0.384277,12.4882,0.05268,-4.492569,-2.348342,1.502504,-0.340523,-0.874268,0.163818,0.271484,9.325592,0.814007,-5.302809,-1.376982,0.294588,0.411392,-0.781006,0.222168,0.361572
4.501483,3.369121,0.675312,-0.356665,-2.195124,-2.242501,-0.920166,-0.236328,0.388672,8.588881,2.038984,1.836242,0.2643,1.936682,0.356454,-0.969727,-0.484375,0.00293,9.711185,-4.368102,-3.356612,-0.009786,0.34174,-0.362744,-0.889893,0.22876,0.373047,6.103347,-6.918447,-4.832688,-0.705906,1.235335,-0.307779,-0.876953,0.140625,0.244873,10.151011,-3.377219,-6.241361,-0.481306,0.677073,-0.2202,-0.778564,0.20752,0.344482
15.284215,-2.50903,-2.251847,-0.577114,-0.989813,-2.384853,-0.885986,-0.313965,0.396729,9.169465,-3.069084,-0.704709,-1.628613,1.100433,0.440468,-0.976562,-0.480957,-0.049072,8.194735,-1.131854,-3.248695,1.180551,0.097243,-0.843134,-0.891357,0.209961,0.353271,9.658607,-6.20062,-5.042234,2.882146,-0.615648,-0.580515,-0.880127,0.148926,0.246094,7.927433,-2.902417,-6.747672,0.817951,0.769225,-0.438643,-0.783203,0.196777,0.314697
7.28657,2.409103,0.652467,0.352001,-1.889152,-2.424246,-0.841797,-0.369141,0.451172,6.838984,-0.963807,0.157979,1.180843,1.367739,0.937458,-0.988525,-0.44873,-0.066162,9.165213,-1.370965,-4.980802,1.406598,0.109057,-0.356346,-0.896484,0.218018,0.347168,11.25296,-0.102396,-2.801511,3.166726,1.279033,-0.904227,-0.889404,0.144043,0.197754,9.85925,-2.958654,-5.19302,1.196479,0.324285,-0.237578,-0.788818,0.204834,0.310547
13.651794,-1.492955,-1.075389,-0.872977,-0.239466,-3.188,-0.787354,-0.450928,0.436523,7.741274,3.125205,1.531729,-0.848374,0.084371,0.740056,-0.990967,-0.421387,-0.079102,8.367415,1.263851,-4.54691,2.308051,0.696677,-1.903213,-0.912842,0.193848,0.317871,6.675625,-0.064431,-3.575597,0.583448,1.084311,-1.109025,-0.893311,0.122314,0.172852,9.317638,-2.969101,-4.285122,2.148378,1.378086,0.431655,-0.792236,0.228516,0.266846
9.047754,-0.112581,-0.537461,1.01707,-0.804285,-2.465499,-0.73999,-0.489014,0.467041,8.062364,-3.429874,-2.038991,0.22623,-0.203222,1.090813,-1.000488,-0.379395,-0.067627,8.588025,1.668198,-3.760653,0.727364,0.137197,-0.995589,-0.910645,0.173828,0.304688,9.270111,-1.244026,-4.864862,1.74139,-0.305861,-1.35504,-0.893799,0.105713,0.176514,7.132979,-1.016039,-4.30528,2.074543,0.499887,0.891346,-0.782715,0.262451,0.23877
10.924928,-0.012254,-0.775139,-0.005338,0.301583,-2.501402,-0.699463,-0.540771,0.453613,10.85866,2.527679,0.783075,2.289703,-0.427404,0.700762,-1.004883,-0.36084,-0.038086,10.159022,-0.388575,-4.22717,0.190797,0.873655,-1.629622,-0.919678,0.144287,0.288818,10.780315,4.902604,-2.963403,1.548659,1.061299,-0.950815,-0.911621,0.069336,0.146973,10.056459,0.190651,-4.327881,1.198369,0.528618,0.942471,-0.7771,0.296143,0.224609
8.918718,-0.36191,-0.64318,0.954969,-0.660461,-1.694273,-0.667725,-0.555664,0.473389,8.929813,2.908654,-0.183838,0.588819,0.183786,2.059149,-1.021973,-0.297607,-0.044434,8.273531,-3.146215,-3.655574,-0.836934,1.097416,-0.768336,-0.937988,0.098145,0.266846,7.732181,1.439524,-3.935363,-1.197529,1.012129,-0.408858,-0.917725,0.068359,0.122803,8.297102,0.518655,-4.2105,0.141749,1.133161,0.002842,-0.790771,0.279053,0.20459
8.322987,-0.88543,-0.507581,0.453686,0.448767,-1.229575,-0.656494,-0.555908,0.462402,10.245179,0.499649,-0.402936,1.019653,-0.131181,1.593743,-1.034668,-0.240479,-0.031738,9.677484,-3.834228,-3.207215,1.475568,0.614275,-0.763765,-0.944092,0.099609,0.238037,10.797066,-2.69058,-4.736597,0.958637,0.017006,-0.738328,-0.910645,0.043213,0.124512,8.74661,-2.557293,-4.819624,0.317489,0.415046,-0.58962,-0.802979,0.281738,0.186279
9.891289,-1.54766,-0.924588,1.899526,-0.0946,0.316516,-0.66333,-0.525146,0.492676,11.908963,1.497811,-1.507463,2.528235,0.311565,1.442962,-1.035645,-0.201416,-0.025391,12.301462,2.951814,-3.955628,2.132118,2.109087,-1.499556,-0.950928,0.067383,0.187012,11.913704,3.752703,-0.768407,2.653587,1.15456,-0.305044,-0.896973,0.048584,0.087402,10.736642,-0.927165,-4.979955,1.975738,0.425703,-0.944001,-0.80249,0.259033,0.164795
11.380531,-0.804935,-0.523085,1.947659,1.550697,1.129829,-0.701904,-0.466309,0.47583,9.572257,1.646083,-0.792895,3.035755,-0.033101,1.692178,-1.037598,-0.151611,-0.008301,8.043475,2.957495,-4.41291,-0.792552,1.743837,-0.284345,-0.941406,0.060059,0.147461,9.271974,6.041616,-0.796422,-1.342775,1.267379,-0.692627,-0.911377,0.02417,0.064941,10.498017,2.979602,-2.674424,0.788475,0.965761,-1.235039,-0.800781,0.241699,0.136719
12.169501,-2.308468,-1.673032,3.446374,2.397722,1.458672,-0.737549,-0.382568,0.44873,11.48657,1.341886,-1.602201,4.687638,-0.944607,1.69346,-1.026855,-0.094971,0.017334,10.760213,-0.338663,-4.193415,-0.63116,0.484919,-0.50546,-0.95166,0.039062,0.133301,11.599079,-1.967117,-4.543421,-3.053367,0.446034,-0.570636,-0.895996,0.011719,0.060059,10.274145,0.947338,-3.188334,-1.134546,0.983562,-0.45326,-0.816406,0.223389,0.124268
14.178971,-0.620502,-2.342238,4.440616,3.833029,2.792572,-0.801758,-0.271729,0.396729,12.529557,2.490304,-2.812382,5.685768,-0.630142,1.485671,-1.022461,-0.054199,0.043945,12.853331,1.449811,-3.247722,-0.090843,1.587347,-0.641796,-0.935791,0.023438,0.096191,11.765765,-3.473613,-2.941844,1.011378,1.46584,-0.483871,-0.901611,0.002197,0.023193,10.915323,-1.528485,-3.915807,-0.417914,1.129497,-0.498605,-0.80542,0.21582,0.099121
17.828445,-0.216277,-3.737907,5.260644,4.159525,3.475805,-0.855957,-0.134521,0.321289,12.272608,3.422885,-1.376258,6.502247,-0.634512,1.02176,-1.013916,-0.013184,0.063477,10.134758,0.974862,-3.248377,-1.515806,1.932205,-0.648227,-0.944336,0.003906,0.052246,9.240632,3.976633,-0.70031,1.228637,1.321521,-0.192004,-0.90625,-0.008789,-0.005127,10.145094,0.64461,-2.942413,0.432568,1.135118,-0.144334,-0.815186,0.219238,0.06958
18.487318,1.977675,-3.510008,5.374918,5.441979,3.668221,-0.886719,0.00293,0.182129,14.289375,4.501721,-0.560045,6.201441,0.029587,1.866166,-1.003662,0.047607,0.046631,9.60609,-5.173061,-5.299052,-1.320546,1.026549,0.382099,-0.943604,-0.000244,0.03125,10.591003,2.539245,-2.945333,-3.003973,0.662747,-0.243226,-0.898926,-0.009766,-0.008301,10.495633,0.785169,-2.138538,-0.859457,1.138783,-0.618975,-0.825928,0.196289,0.052246
19.652082,0.297573,-4.679632,5.06648,4.768181,4.036843,-0.873779,0.121338,0.057861,11.878767,0.401051,-2.334586,5.969123,0.855811,1.695075,-0.980957,0.0979,0.017334,11.835686,-0.074533,-3.278056,1.132235,1.170882,-0.86882,-0.938721,-0.021973,0.010498,10.838397,-4.241383,-4.827985,-1.82578,1.443236,-0.162384,-0.88916,-0.006104,-0.04126,9.884306,-1.674096,-2.846468,-1.186112,1.501889,-0.153403,-0.826172,0.192627,0.032959
20.478988,2.403743,-4.370953,5.475366,5.598596,4.134725,-0.84082,0.210938,-0.111816,13.709951,0.183924,-0.65558,7.696288,1.066323,1.137061,-0.973389,0.117432,-0.041504,11.250845,4.406961,-2.470758,-1.494235,2.389255,-0.192326,-0.927246,-0.019775,-0.049072,8.988989,2.254349,-1.464772,1.389479,0.812462,0.198228,-0.887695,-0.014404,-0.054932,8.844244,-0.544672,-3.32159,-0.250713,0.878513,0.005261,-0.81543,0.198486,0.013184
17.547951,2.507928,-3.972263,4.38875,4.945134,3.958337,-0.772217,0.272217,-0.237793,13.936704,0.177312,-2.102452,7.337506,2.077219,1.575634,-0.95166,0.133301,-0.104004,8.318414,0.046175,-3.736829,-2.593068,1.228541,0.271251,-0.920898,-0.022949,-0.068604,12.581122,5.014173,-1.850209,-1.015943,0.832427,-0.29537,-0.885254,-0.013672,-0.070312,11.401104,0.46601,-3.277006,-2.017669,0.997367,-0.704387,-0.820312,0.178467,0.001953
17.078805,2.387949,-2.96716,3.470458,4.355815,2.364809,-0.700439,0.282715,-0.345703,14.062051,-1.325609,-2.221295,7.739971,2.219465,2.042121,-0.931152,0.143066,-0.183105,12.968542,-1.013313,-3.582127,0.776762,1.187954,-0.114941,-0.915771,-0.025146,-0.089355,10.351059,0.220574,-5.35258,-1.173418,2.225593,0.177809,-0.873047,-0.003662,-0.123779,10.099108,-4.83705,-4.256646,-0.954679,1.719801,-0.802342,-0.825684,0.164551,-0.021973
16.038724,0.715429,-2.319194,2.504518,3.603313,1.573669,-0.623047,0.270996,-0.416016,11.574644,-0.764293,1.322528,8.079227,2.235579,1.8679,-0.892578,0.138672,-0.255859,12.030006,7.675294,0.547517,1.975064,2.493377,-1.041013,-0.901123,-0.049561,-0.149658,7.662348,1.038077,-3.366654,1.719855,0.994967,-0.398336,-0.863525,-0.025391,-0.145508,8.07379,-0.766583,-3.358436,1.917822,1.013349,-1.928432,-0.827637,0.123047,-0.05957
15.346867,0.431035,-3.241703,3.304346,4.520279,1.210953,-0.535889,0.22876,-0.484619,14.260406,-2.098296,-3.42259,8.182955,1.352934,1.853197,-0.86377,0.10791,-0.295166,12.491055,6.697227,1.445346,-1.887531,2.651837,-0.12539,-0.881348,-0.052246,-0.210449,12.046014,8.875236,0.854558,1.42984,0.62644,0.304309,-0.861328,-0.022705,-0.16333,9.879399,4.166623,-2.953254,0.554616,0.687445,-1.660338,-0.827148,0.083008,-0.07959
11.945716,2.022917,-1.395155,1.380508,1.882224,1.131082,-0.500488,0.226562,-0.500488,16.072349,1.112294,0.052515,8.859006,2.296313,0.689627,-0.838623,0.050049,-0.35498,12.066509,-2.412017,-1.795156,-2.335632,3.199105,0.573121,-0.861816,-0.026855,-0.276855,12.360233,4.771532,1.867655,-3.827327,2.145219,0.38334,-0.85083,0.001709,-0.204346,8.090697,2.426106,-1.58979,-1.600641,1.433392,-3.428596,-0.835938,0.01416,-0.108154
11.392137,0.578455,-1.851405,1.839333,1.373965,1.851237,-0.469482,0.213623,-0.494385,15.984573,-0.625735,-3.349597,8.552428,2.576759,0.558779,-0.807129,-0.024902,-0.385742,11.690794,-0.953663,0.362793,1.191642,2.882032,-0.374945,-0.841553,-0.044189,-0.332275,10.115469,-8.318384,0.685185,-3.611906,2.147961,0.317643,-0.829102,0.038574,-0.23584,8.567222,-1.059719,0.003007,-1.160357,0.841697,-3.996005,-0.8396,-0.077393,-0.128174
14.78253,2.209993,-1.152831,-0.172139,-0.956079,1.607503,-0.485352,0.226807,-0.454346,14.969243,1.490176,-4.357558,10.372584,3.583729,-0.717994,-0.769775,-0.143066,-0.41626,11.940913,4.581607,1.09709,0.099398,2.823151,0.007169,-0.805176,-0.043701,-0.384521,9.505376,-8.52617,-0.492014,1.631327,1.620665,-0.021397,-0.812012,0.015869,-0.271484,10.779873,0.675856,-0.328857,0.048145,0.775677,-3.5569,-0.823486,-0.149902,-0.141846
14.01199,-1.245045,-1.790296,0.088741,-1.118379,1.763923,-0.492188,0.246094,-0.419189,11.173,1.110274,-5.405712,10.040489,2.958129,-0.705038,-0.731445,-0.257568,-0.412598,10.104022,1.462888,2.151138,-2.285898,2.470784,-0.347739,-0.778809,-0.039551,-0.429688,9.508058,-1.052679,1.560154,1.33541,1.807051,-0.689466,-0.797607,0.005615,-0.306152,11.225944,2.598571,0.127885,-1.301029,1.519606,-2.622516,-0.804443,-0.215088,-0.17749
16.841844,0.692234,-0.99887,-0.064729,-1.044979,1.73163,-0.501709,0.26709,-0.368164,10.238593,-0.749819,-6.982052,11.299184,2.592117,-1.5295,-0.69165,-0.385986,-0.34082,12.579985,-3.936817,2.486281,-0.502355,2.210586,-0.233333,-0.750244,-0.026855,-0.460693,9.581709,-2.151507,0.92526,-0.464823,1.329876,-0.701419,-0.795166,-0.012451,-0.338867,10.996715,-0.232147,0.536384,-1.233863,1.315305,-0.907204,-0.794189,-0.212158,-0.20752
15.099456,-2.436607,-1.91631,0.630543,-0.575525,2.482785,-0.504883,0.300537,-0.341553,9.541964,1.102168,-7.868227,11.857109,1.064989,-1.108101,-0.669678,-0.476562,-0.213623,12.566677,-3.258012,2.082301,0.762219,3.326566,-1.393828,-0.715088,-0.065186,-0.527588,11.730627,-2.427073,0.863471,1.760391,1.111298,-0.542166,-0.776855,-0.038574,-0.357422,9.292857,0.969539,-0.494434,1.045064,1.912299,-0.761344,-0.785645,-0.243408,-0.255127
16.610225,0.677244,-1.033664,1.181447,0.316754,2.666785,-0.491943,0.31665,-0.337646,10.351592,-1.083169,-4.424982,10.601158,-0.257524,-1.639437,-0.64502,-0.550049,-0.06665,10.897089,-2.159199,1.049218,1.0397,2.653061,-0.348393,-0.670898,-0.081787,-0.559814,13.287545,4.197625,3.364956,2.063028,1.385536,-0.286565,-0.772217,-0.055176,-0.391357,8.216425,5.742324,0.952516,0.96294,1.216151,-1.153174,-0.764648,-0.27417,-0.270996
14.606687,-0.954547,-1.801471,1.2437,0.020621,3.371512,-0.490234,0.363525,-0.325928,10.408799,-1.342746,-4.700583,11.855076,-0.798375,-1.535481,-0.626709,-0.556152,0.127197,10.914253,-0.084171,0.124793,0.281029,2.219904,-0.637665,-0.645264,-0.089355,-0.599365,12.024455,3.652625,2.267267,-2.050778,2.346217,-0.084558,-0.744873,-0.040039,-0.42334,10.339366,6.958204,1.129668,-0.60076,1.202272,-1.485953,-0.752441,-0.293701,-0.305908
13.116171,1.526653,-0.461462,1.351487,1.3308,2.074737,-0.470947,0.386963,-0.347168,10.309919,1.273084,-3.312062,10.571765,-1.749384,-1.544878,-0.595215,-0.520508,0.294678,9.92366,-0.185531,0.594454,-0.397664,1.359522,0.125082,-0.626465,-0.086914,-0.606934,9.127598,-4.694348,0.135915,-2.158068,2.158828,-0.047835,-0.711426,-0.013184,-0.459473,9.708079,5.010938,1.146825,-1.697542,1.6693,-1.646051,-0.730469,-0.320312,-0.343262
11.25958,-1.097716,-1.193581,1.132727,1.275566,1.379483,-0.455322,0.393066,-0.364502,10.965209,-0.98374,-3.821546,10.847772,-1.678544,-1.44768,-0.559814,-0.436279,0.453857,9.259326,-0.254221,-0.78417,0.150397,0.842383,-0.126968,-0.607178,-0.08667,-0.615967,8.153442,-4.280487,-1.810242,1.619761,1.419015,-0.233146,-0.698975,-0.043213,-0.48291,9.119092,3.259508,1.167991,-0.986444,1.17169,-1.161859,-0.703369,-0.330322,-0.37207
