# sampling frequency: 40
# units are seconds/meters/radians/a.u.
seg1_acc_x,seg1_acc_y,seg1_acc_z,seg1_gyr_x,seg1_gyr_y,seg1_gyr_z,seg1_mag_x,seg1_mag_y,seg1_mag_z,seg2_acc_x,seg2_acc_y,seg2_acc_z,seg2_gyr_x,seg2_gyr_y,seg2_gyr_z,seg2_mag_x,seg2_mag_y,seg2_mag_z,seg3_acc_x,seg3_acc_y,seg3_acc_z,seg3_gyr_x,seg3_gyr_y,seg3_gyr_z,seg3_mag_x,seg3_mag_y,seg3_mag_z,seg4_acc_x,seg4_acc_y,seg4_acc_z,seg4_gyr_x,seg4_gyr_y,seg4_gyr_z,seg4_mag_x,seg4_mag_y,seg4_mag_z,seg5_acc_x,seg5_acc_y,seg5_acc_z,seg5_gyr_x,seg5_gyr_y,seg5_gyr_z,seg5_mag_x,seg5_mag_y,seg5_mag_z
1.829118,-7.325345,6.245688,0.004901,-0.003021,0.001258,-0.339355,0.378418,0.015137,-0.056296,8.320427,5.138731,-0.018545,0.003156,0.007977,0.134766,0.336426,0.562988,-1.6101,-6.993828,6.743479,-0.005313,0.004038,-0.001495,0.640381,0.121582,-0.272461,2.177667,-7.155827,6.42842,0.000433,0.00392,0.008341,0.079102,0.311035,-0.607422,0.567918,-5.815503,7.872723,-0.018924,-0.004733,0.002871,-0.252686,0.383789,-0.428955
1.830571,-7.332129,6.28035,-0.002859,0.002324,-0.001837,-0.344482,0.370361,0.030273,-0.026626,8.340623,5.133155,0.00188,0.005958,0.005934,0.130615,0.339111,0.570068,-1.5386,-7.028847,6.734887,-0.013793,-0.001139,0.000326,0.636475,0.111572,-0.255371,2.1625,-7.184449,6.407926,-0.017535,-0.002981,0.014515,0.074219,0.303467,-0.59375,0.534522,-5.88651,7.820498,-0.000135,0.004849,-0.004452,-0.25708,0.375732,-0.415771
1.823988,-7.333679,6.244043,-0.002163,0.001668,-0.000601,-0.335205,0.375,0.022705,-0.058317,8.356541,5.173856,-0.017631,0.008358,0.009504,0.132568,0.332275,0.560791,-1.55982,-7.02405,6.723474,0.000995,0.008786,-0.003287,0.644531,0.117676,-0.264404,2.18954,-7.191355,6.349302,0.003821,-0.003499,0.004948,0.080322,0.307617,-0.600342,0.55756,-5.845407,7.874732,0.003344,-0.008352,-0.006714,-0.249512,0.37915,-0.42334
1.843487,-7.338643,6.267249,0.002169,0.002356,0.001247,-0.341553,0.376953,0.023682,-0.033748,8.31521,5.154984,-0.015856,0.00031,0.008626,0.133545,0.338135,0.567627,-1.569719,-7.003087,6.736982,-0.006947,-0.003284,-0.001962,0.637207,0.120117,-0.263428,2.198454,-7.122433,6.394312,-0.009528,0.005668,0.012036,0.074707,0.311035,-0.599854,0.589153,-5.86883,7.831542,0.00355,0.004489,-0.00012,-0.255127,0.380859,-0.421387
1.826697,-7.326431,6.259751,0.002814,0.001022,-0.001023,-0.338623,0.376221,0.01709,-0.036622,8.348332,5.148148,0.00217,0.008666,0.007591,0.124023,0.330811,0.562744,-1.534998,-7.036291,6.701771,-0.003353,0.008088,-0.000328,0.642334,0.116455,-0.270752,2.155639,-7.197235,6.356444,-0.009461,0.002769,0.011846,0.082031,0.310303,-0.606934,0.529467,-5.822421,7.869913,0.005979,6.5e-05,-0.007708,-0.251709,0.380859,-0.427979
1.829733,-7.331903,6.280858,-0.000636,0.001208,6.7e-05,-0.348389,0.373779,0.021484,-0.045425,8.354276,5.17027,-0.014559,0.002199,0.00707,0.126709,0.33667,0.562012,-1.5871,-7.009082,6.718226,0.000547,0.007106,0.000483,0.631836,0.117432,-0.266357,2.181628,-7.151396,6.387573,0.00761,0.001616,0.005745,0.071289,0.306396,-0.606201,0.583306,-5.857405,7.842468,-0.011104,-0.010483,0.002936,-0.258545,0.37915,-0.426758
1.824677,-7.344541,6.23689,-0.001906,0.001549,-0.001225,-0.334229,0.376221,0.011963,-0.017579,8.308198,5.163348,-0.014921,0.004607,0.007945,0.132812,0.339111,0.565918,-1.556031,-7.034122,6.722142,-0.012024,0.001456,0.00032,0.644531,0.118408,-0.275635,2.171795,-7.192244,6.38136,-0.021012,0.002868,0.01524,0.083984,0.308838,-0.610596,0.558464,-5.895945,7.828298,0.008109,0.010865,-0.006747,-0.247314,0.379883,-0.434082
1.836387,-7.321636,6.269693,0.013917,0.002434,-0.000331,-0.332764,0.372314,0.020508,-0.057159,8.351048,5.13174,0.004792,0.010104,0.007519,0.132324,0.339844,0.564697,-1.584344,-7.030467,6.723522,0.008954,0.011185,-0.000614,0.646973,0.115967,-0.26709,2.186918,-7.209,6.401061,0.014784,0.00435,0.003858,0.085693,0.307861,-0.604492,0.530925,-5.830842,7.871281,0.012096,-0.009327,-0.002346,-0.244873,0.377441,-0.425049
1.829953,-7.292938,6.265237,-0.00696,-0.00018,0.000878,-0.334961,0.371094,0.02124,-0.033385,8.364887,5.148019,-0.017812,-0.000747,0.008398,0.124756,0.334229,0.565674,-1.574848,-6.983965,6.768535,-0.00188,-0.003111,-0.00479,0.648193,0.115234,-0.26709,2.181542,-7.107934,6.398778,-0.008084,-0.001704,0.009511,0.084229,0.305176,-0.60376,0.583782,-5.836504,7.823676,-0.007141,-0.002929,-0.002972,-0.246094,0.378418,-0.425293
1.838624,-7.370119,6.264587,-0.011035,0.001089,-0.00017,-0.338867,0.376953,0.023438,-0.037848,8.31879,5.158623,-0.01727,0.008139,0.007702,0.123535,0.335449,0.570557,-1.542617,-7.034752,6.727799,-0.025176,0.005761,0.003437,0.640869,0.121582,-0.263184,2.179098,-7.235724,6.3789,-0.026282,0.002684,0.017528,0.079102,0.311035,-0.598633,0.537701,-5.852534,7.85097,-0.005013,0.006132,-0.002697,-0.253418,0.380859,-0.420166
1.827054,-7.349643,6.258625,0.017229,0.001396,0.000383,-0.338379,0.381592,0.027344,-0.040547,8.322126,5.148961,-0.008963,0.003652,0.007179,0.127441,0.336914,0.565186,-1.560459,-7.054268,6.713468,0.003094,0.001039,-0.004534,0.643311,0.122803,-0.25708,2.169271,-7.189155,6.355923,0.012061,-0.001116,0.001338,0.079102,0.315674,-0.595459,0.584194,-5.896527,7.844215,-0.009496,-0.011516,-0.004976,-0.251465,0.385254,-0.415771
1.837651,-7.277652,6.282273,-0.002097,0.004169,-7.9e-05,-0.340576,0.369629,0.023193,-0.053294,8.354219,5.151132,0.003182,0.007609,0.007576,0.129395,0.33374,0.564453,-1.560062,-7.001082,6.715305,0.005361,0.006892,-0.000306,0.638916,0.111328,-0.262939,2.171818,-7.136482,6.375275,-0.007556,0.005317,0.012248,0.077637,0.304199,-0.599854,0.549793,-5.842555,7.849475,0.032969,0.01077,-0.003997,-0.25,0.375244,-0.424316
1.826152,-7.391469,6.233833,-0.01231,-0.002594,-0.002107,-0.333984,0.368652,0.023926,-0.023003,8.353331,5.153046,-0.024767,0.002395,0.008168,0.130859,0.33667,0.562256,-1.573608,-6.995891,6.724925,-0.007421,0.004861,0.000721,0.644287,0.112793,-0.263428,2.167317,-7.18984,6.383036,-0.00455,-0.000109,0.008943,0.082275,0.302246,-0.599609,0.51782,-5.797766,7.874274,-0.012718,-0.010366,-0.005166,-0.25,0.372803,-0.422119
1.844949,-7.342843,6.290305,0.017227,0.003472,0.001808,-0.342529,0.373779,0.013184,-0.018029,8.300648,5.142552,-0.00836,0.00817,0.008281,0.131104,0.335449,0.558838,-1.542941,-7.031143,6.742057,-0.014007,0.002471,0.001517,0.637207,0.11499,-0.27417,2.217722,-7.187775,6.405919,-0.008055,0.003027,0.011302,0.077637,0.306885,-0.607666,0.623255,-5.908441,7.829555,-0.020301,-0.00305,0.00252,-0.253662,0.378174,-0.432861
1.819818,-7.332534,6.261227,-0.004084,-0.000681,-0.000268,-0.344971,0.376953,0.020752,-0.061179,8.374263,5.130452,0.011081,0.008759,0.007124,0.134277,0.338135,0.562988,-1.584962,-7.059753,6.714471,0.004709,0.008673,0.001753,0.634033,0.116699,-0.269775,2.158459,-7.208707,6.395904,-0.003812,0.011299,0.009821,0.072754,0.308105,-0.602783,0.527446,-5.910562,7.855269,0.017591,0.01513,-0.009861,-0.258545,0.381592,-0.427246
1.849932,-7.338052,6.250598,0.00344,-6e-05,0.001114,-0.337402,0.381836,0.018555,-0.027162,8.331419,5.128935,-0.027306,-0.004001,0.003564,0.12915,0.333496,0.562256,-1.643789,-6.87282,6.935338,0.086517,-0.005682,0.010145,0.641846,0.125732,-0.268311,2.354116,-6.776179,6.688151,0.256049,-0.043546,-0.029004,0.078857,0.312988,-0.606934,0.543134,-5.809937,7.841919,0.027615,-0.017387,-0.002026,-0.251465,0.385254,-0.428955
1.890078,-7.236879,6.33805,0.02457,0.008663,0.003553,-0.33667,0.371582,0.020508,0.110204,8.491028,4.873624,0.001569,0.031239,0.007907,0.126221,0.339355,0.571045,-1.554602,-6.305273,7.065936,-0.127122,-0.058356,-0.001778,0.63916,0.117188,-0.262939,2.811058,-5.869248,6.685927,-0.436493,0.000652,0.12074,0.077881,0.30957,-0.596924,0.644377,-5.74827,7.991827,-0.017411,-0.005247,-0.005582,-0.252686,0.378662,-0.421143
1.588492,-7.034737,6.277083,-0.101531,0.000472,0.032343,-0.342773,0.372559,0.018066,-0.595456,8.308672,5.680046,-0.160087,0.005333,0.011942,0.123779,0.341797,0.568359,-1.922293,-8.320532,6.287072,-0.562288,-0.056009,0.033333,0.635986,0.119141,-0.269043,1.8106,-10.739258,5.206889,-0.806177,0.3547,0.338442,0.084473,0.31958,-0.5979,0.424347,-5.800408,7.665952,-0.079382,0.058968,0.016115,-0.254883,0.37915,-0.426514
1.899491,-8.424773,5.92438,-0.132177,-0.008511,-0.060377,-0.341797,0.368896,0.023193,0.490318,7.882935,5.212368,0.032892,-0.105085,0.019374,0.130371,0.329834,0.564453,-0.904407,-8.031292,5.857492,0.714215,-0.067937,-0.112017,0.636963,0.111572,-0.265869,0.442247,-7.298303,6.353466,1.715644,0.036669,-0.563772,0.07959,0.292236,-0.611084,0.403196,-6.089137,7.545289,-0.019231,-0.052945,-0.008067,-0.253418,0.374512,-0.424805
2.006789,-6.984897,6.402751,0.513698,-0.007313,0.018035,-0.339844,0.365967,0.02124,-0.071434,8.483229,4.637908,0.254192,0.177883,-0.005996,0.127197,0.336426,0.562012,-1.354148,-4.555342,7.143197,0.39438,0.241496,-0.013891,0.640381,0.107666,-0.265137,2.585952,-2.669589,7.155129,-0.298563,-0.457408,0.034147,0.072998,0.294678,-0.60376,0.746503,-5.906735,8.31659,0.170357,-0.079953,-0.052879,-0.252686,0.374756,-0.421387
1.855092,-6.060117,6.670103,-0.349768,0.027316,0.009404,-0.3479,0.37207,0.018311,-0.213642,8.880513,5.404695,-0.174297,-0.118434,0.002983,0.13623,0.334473,0.560791,-1.827891,-7.002524,6.829169,-0.876976,0.035765,0.152889,0.634521,0.114746,-0.266846,2.572475,-9.463339,5.916091,-1.248576,-0.064228,0.407521,0.067871,0.318848,-0.601074,1.032127,-5.749404,7.990871,-0.084369,0.073512,0.044196,-0.26001,0.378174,-0.427246
1.724044,-9.120546,5.688137,-0.177098,-0.020067,-0.018902,-0.337646,0.369873,0.018555,0.346869,7.822966,4.900283,-0.106518,0.071578,-0.0037,0.128174,0.326172,0.564697,-1.895663,-8.643876,7.517559,0.239802,0.010292,0.026891,0.642578,0.113525,-0.26416,3.28409,-8.256854,6.551132,1.232111,-0.148552,-0.391143,0.073242,0.298584,-0.611816,-0.054573,-5.872461,7.426812,0.027138,0.133555,0.010317,-0.251221,0.376221,-0.427002
1.525094,-6.290332,6.603786,0.555861,0.051223,0.054615,-0.337158,0.373291,0.026855,-0.966903,8.554746,5.348399,0.167389,0.068565,0.045022,0.134277,0.337402,0.568359,-2.325973,-6.570964,6.919225,0.138232,-0.087787,-0.125974,0.640625,0.117676,-0.258789,3.259853,-5.166725,7.050302,-0.579277,0.506865,0.259365,0.085449,0.308594,-0.593262,0.358152,-5.557767,7.825705,0.034024,-0.181982,-0.054718,-0.251953,0.376221,-0.418701
2.108176,-6.918374,6.329225,-0.628277,-0.060677,-0.067125,-0.341553,0.374268,0.023926,0.704753,8.483682,5.248497,-0.155341,-0.201155,-0.022942,0.137695,0.331299,0.560059,-0.911861,-7.098793,6.235815,-0.180932,-0.340511,-0.021364,0.63501,0.120361,-0.268066,0.410269,-9.741313,5.825346,-0.308484,0.382811,0.238238,0.0896,0.314697,-0.597168,1.045725,-5.794236,7.875068,-0.125534,-0.019139,0.041019,-0.252686,0.379395,-0.420654
2.00443,-8.919019,5.843034,0.270522,0.007794,0.033165,-0.342285,0.374268,0.020996,0.032623,8.037368,4.620787,-0.074434,0.175455,0.06204,0.12793,0.331299,0.564697,-0.714062,-6.290516,6.146889,0.194093,0.13391,-0.025466,0.636963,0.118896,-0.269531,1.41913,-5.291793,6.355947,0.873403,-0.328609,-0.397796,0.077881,0.303955,-0.605469,0.396821,-6.22742,8.256184,-0.045838,0.082101,-0.029744,-0.252686,0.383301,-0.424072
1.71376,-5.662525,6.735708,0.160229,0.040836,0.029795,-0.34082,0.381348,0.016113,-0.367879,8.383688,5.670815,0.049449,-0.060249,-0.073598,0.126465,0.342041,0.561523,-1.951371,-7.118488,6.433366,-0.496804,0.097991,0.054089,0.636963,0.124512,-0.269531,2.022749,-6.764898,5.90781,-1.096472,-0.031586,0.387051,0.080078,0.324463,-0.594482,0.863474,-6.119505,7.672859,-0.016587,-0.050001,0.024921,-0.256348,0.387695,-0.424561
1.547862,-8.626012,5.883325,-0.527581,-0.044476,-0.058029,-0.333496,0.378906,0.021973,0.214764,8.153668,5.333427,-0.020536,0.005225,0.065527,0.128174,0.332275,0.562256,-1.508934,-8.486424,6.899149,0.296913,0.083164,0.08877,0.645752,0.120605,-0.269775,1.766598,-9.501207,6.084079,0.566476,-0.394632,-0.240343,0.079834,0.313965,-0.602783,0.20736,-5.7522,7.157487,0.230112,0.149646,-0.009588,-0.246582,0.383545,-0.428955
2.174053,-7.403572,6.269189,0.802561,0.050125,0.025852,-0.337891,0.373047,0.022705,-0.127735,8.532692,4.639861,0.166838,0.100413,-0.024269,0.137695,0.343506,0.560547,-1.916557,-5.675231,7.27279,0.426989,0.048049,-0.157847,0.643066,0.116211,-0.265137,4.710397,-4.982216,6.442423,0.422945,0.096325,-0.122733,0.078369,0.303223,-0.603271,0.212329,-5.127921,8.676126,0.048989,-0.229427,-0.071211,-0.252686,0.375977,-0.420898
1.699968,-5.40142,6.89485,-0.507474,-0.080778,-0.001274,-0.344482,0.371094,0.027344,-0.24342,8.704668,5.11765,-0.08379,-0.16718,0.012407,0.129883,0.326416,0.564453,-1.697244,-6.507629,7.578685,-0.468986,-0.195024,0.21196,0.637207,0.112793,-0.262451,1.464532,-6.369131,7.131101,-0.289996,0.648439,0.320037,0.083008,0.304688,-0.597656,1.637528,-6.360014,7.732519,-0.414415,0.024721,0.10613,-0.256104,0.379639,-0.418701
1.871302,-9.501469,5.980249,-0.232608,0.055149,-0.016171,-0.340088,0.380859,0.02832,0.517947,9.704134,4.863076,0.121952,0.240956,0.020763,0.130371,0.332764,0.566406,-1.144835,-7.140953,7.341566,-0.191358,0.112117,-0.095147,0.639648,0.126953,-0.26123,2.191974,-6.811336,7.419026,-0.498875,-0.181128,0.108362,0.086426,0.322754,-0.593506,-0.052407,-6.21516,7.754297,0.25455,0.349019,-0.056009,-0.250977,0.38501,-0.420166
1.24842,-5.778704,6.32162,0.521462,-0.169027,0.080466,-0.341309,0.374023,0.025879,-1.244326,8.086149,5.00818,-0.634722,-0.118412,0.144818,0.124756,0.322754,0.559814,-2.788498,-6.96269,7.385425,-0.18169,-0.114012,0.032805,0.631592,0.118896,-0.258301,2.714851,-9.345296,7.255619,-0.651305,0.450308,0.363679,0.094238,0.324463,-0.583252,-0.261477,-4.87273,7.443349,-0.019859,-0.422509,-0.017397,-0.260254,0.378418,-0.418701
2.128265,-6.830287,6.276367,-0.786279,0.073424,-0.023588,-0.335205,0.371338,0.02417,0.951321,6.762986,5.552641,-0.342241,0.108072,0.078939,0.132324,0.319092,0.560059,-1.220511,-7.3673,5.816115,-0.718311,-0.152346,-0.32806,0.63501,0.12793,-0.264893,1.058476,-9.180065,7.97391,-0.318602,-0.102952,-0.111012,0.100586,0.325684,-0.589111,1.302369,-5.604721,7.936863,-0.291807,0.15321,0.051238,-0.244385,0.378418,-0.426758
2.160503,-9.562008,5.176229,-0.066177,-0.124632,-0.009007,-0.341553,0.373535,0.032959,-0.762916,7.349939,5.89203,0.276641,-0.13487,-0.053397,0.138672,0.325195,0.558594,-1.757649,-9.233258,5.080147,-0.335357,-0.595158,-0.039985,0.624268,0.131592,-0.264404,1.954792,-7.899954,4.120204,0.072306,-0.201382,0.043465,0.087891,0.326416,-0.576416,0.084206,-6.512558,7.883958,-0.491033,-0.094877,-0.046816,-0.256348,0.38623,-0.411133
1.384935,-7.315598,6.510568,0.568807,0.217076,0.047201,-0.344727,0.376709,0.026123,1.066232,8.742888,5.177781,0.21521,0.123671,0.042662,0.130127,0.332031,0.552246,0.536942,-6.696575,5.808752,0.795868,0.156236,-0.290928,0.620361,0.134277,-0.268555,0.399248,-4.977441,5.475932,0.398775,-0.030767,-0.303575,0.085205,0.322266,-0.57959,1.204042,-7.733493,7.28852,0.20405,-0.039743,0.058207,-0.256592,0.387451,-0.412598
2.860711,-5.916662,6.896632,-0.07866,-0.258255,-0.078236,-0.343994,0.385742,0.020508,-0.684583,9.716325,5.056536,0.195583,-0.029599,-0.104748,0.130859,0.330078,0.564453,-2.651486,-5.187862,8.205129,-0.29894,-0.063667,0.137298,0.621338,0.143311,-0.272705,3.442756,-6.416916,5.740516,-0.957559,-0.729102,0.311205,0.076416,0.343506,-0.583496,0.697276,-4.896063,8.788627,0.912503,0.041986,-0.192053,-0.259277,0.38208,-0.43042
0.922669,-7.966312,6.017339,-0.409487,0.208323,0.083179,-0.341064,0.379883,0.024414,0.355223,8.612134,5.218795,-0.685764,-0.007869,0.146605,0.133789,0.316406,0.55957,-0.649784,-8.579668,6.424715,-0.934738,-0.129509,-0.028402,0.621094,0.143799,-0.267334,3.808124,-9.970907,5.631676,-0.404075,0.602579,0.134664,0.085693,0.348877,-0.57373,0.83279,-4.454026,7.924274,-0.743393,0.052851,0.167846,-0.254395,0.389893,-0.422119
2.225068,-7.512271,6.19103,0.196524,-0.242845,-0.036587,-0.3396,0.382568,0.033447,-0.572769,7.176157,4.591226,0.067128,0.01927,-0.121068,0.134521,0.324707,0.556885,-2.535505,-8.809063,7.093637,0.325823,-0.085745,-0.265942,0.616455,0.150391,-0.267578,1.037538,-8.176664,7.279225,0.508885,0.410675,0.054454,0.095459,0.341309,-0.569824,-0.013164,-7.150334,7.157226,-0.427098,0.170944,0.046704,-0.251465,0.394531,-0.411133
1.376604,-6.794211,6.711169,-0.220025,0.009633,0.059618,-0.336426,0.379639,0.031738,0.052926,9.360522,5.674537,0.296164,-0.088602,0.070149,0.123291,0.323486,0.552246,-1.149127,-5.337386,7.289193,0.254597,-0.421175,-0.230891,0.615967,0.145996,-0.275391,2.812004,-5.73446,9.135354,-0.387589,-0.155198,-0.047447,0.095459,0.346191,-0.568604,0.497038,-6.54653,7.842539,0.358572,-0.201422,-0.068177,-0.249023,0.386719,-0.417725
2.44423,-8.198487,6.306685,-0.153447,-0.268872,-0.03056,-0.341553,0.385498,0.03418,0.03276,9.121285,4.589926,-0.433876,0.081661,-0.255672,0.129639,0.324463,0.546143,-2.32054,-5.565422,8.741793,-1.303961,-0.438558,-0.37449,0.599365,0.16626,-0.274414,4.548653,-8.210975,7.834743,-1.759757,0.241647,0.4579,0.09668,0.374268,-0.547607,1.602242,-5.313391,8.529866,-0.01366,0.058352,0.075986,-0.252686,0.391602,-0.421875
1.335729,-4.50398,9.74819,0.595875,-0.305703,0.133788,-0.332275,0.383789,0.028809,-1.762084,9.994864,2.904069,0.314641,0.061241,-0.206858,0.119873,0.333008,0.536377,-2.718344,-10.58668,5.732618,-1.385371,-1.020108,-0.196334,0.59668,0.171143,-0.275146,2.195341,-12.709533,6.164131,-0.965024,0.957846,0.095477,0.117432,0.381104,-0.531006,0.115843,-3.782403,8.682064,0.536497,0.30217,-0.078013,-0.242676,0.377686,-0.431641
2.405481,-3.461133,6.124311,-2.758743,-0.718165,0.078581,-0.33252,0.398193,0.068848,-0.920055,12.911192,7.304254,-1.214301,-0.857402,-1.166003,0.109619,0.316895,0.523926,-2.700438,-8.404653,7.509008,0.597374,-1.461019,-1.012249,0.57373,0.186035,-0.289062,2.085687,-7.982162,7.613439,0.708971,1.089203,-0.316118,0.125244,0.374023,-0.525146,2.362807,-1.230977,9.703708,-2.016662,-0.512891,-0.15984,-0.251709,0.399902,-0.399414
0.914837,-17.970292,2.049136,-1.855393,-0.61365,-0.311544,-0.336914,0.401367,0.080078,2.003584,6.196859,7.785603,-2.244765,0.313583,-0.237641,0.101562,0.276123,0.508057,0.952707,-5.181055,9.679074,-1.127677,-1.583196,-0.519862,0.547607,0.201416,-0.298828,1.673463,-6.401236,8.469132,-1.73095,1.562715,0.273016,0.141357,0.4021,-0.495605,0.885001,-11.48162,5.156674,-3.354408,1.66491,0.584033,-0.232178,0.443848,-0.380859
2.276881,-7.595248,4.783709,2.858137,-0.681154,0.059793,-0.326416,0.399658,0.068604,-3.072667,6.17376,4.485098,0.727325,0.168024,-0.332873,0.092285,0.276611,0.492676,0.477499,-12.100185,6.644609,-2.46709,-0.996006,-0.396767,0.529541,0.223145,-0.287109,-1.332562,-13.062667,6.363555,-1.450821,0.937796,0.136507,0.154297,0.415527,-0.474365,-3.596507,-13.518895,6.188906,0.927742,-0.193597,-0.432893,-0.236328,0.426025,-0.389404
1.775411,-1.770084,7.41389,-1.047258,-0.455598,-0.04028,-0.322754,0.403564,0.081055,-0.158665,9.884513,6.273098,0.748015,-0.658136,0.481549,0.10498,0.283691,0.458252,1.076544,-16.620019,5.628723,0.635645,-0.805768,-0.13574,0.503906,0.220947,-0.303223,0.204964,-12.09399,6.690268,1.235856,0.074349,-0.455834,0.148193,0.405029,-0.483887,3.497212,-5.433088,8.106204,2.617851,-0.315875,-0.018088,-0.237305,0.395996,-0.414307
2.391979,-15.247241,3.901493,-0.555695,-1.024464,-0.172881,-0.314453,0.409424,0.089844,-0.719879,10.012316,6.588648,0.486705,-0.325562,0.416036,0.101074,0.273682,0.423828,1.367332,-7.933805,6.567006,3.138733,-0.194608,-0.790896,0.475586,0.213867,-0.325928,-0.042991,-6.93322,8.333906,1.235659,-0.256833,-0.471503,0.142334,0.390625,-0.49292,1.72119,-3.570703,10.916472,-0.586333,1.339125,0.465296,-0.208252,0.40625,-0.418701
4.073328,-8.143261,9.207753,1.847058,-0.700591,0.182723,-0.305908,0.413818,0.084717,0.112429,12.07465,6.955546,0.929074,-0.453637,0.498219,0.0896,0.250488,0.378174,0.110523,-2.362564,8.197919,0.063859,-0.055157,0.126294,0.452637,0.215332,-0.321777,-0.175639,-7.067163,7.435992,-0.219078,-1.263373,-0.196992,0.116943,0.387695,-0.484131,-0.592941,-9.956228,8.615422,-1.518447,1.1235,0.262936,-0.196289,0.416992,-0.408936
3.445786,-8.119862,10.056124,-1.38731,-0.962633,-0.239655,-0.30127,0.417969,0.092529,-0.648082,13.273283,7.285991,-0.53289,-0.055294,0.045201,0.090576,0.199219,0.33374,-0.301292,-9.476069,6.084121,-2.329877,-0.173656,0.001983,0.424316,0.236816,-0.309814,1.581417,-9.235974,6.188578,-0.815339,-1.330569,-0.201911,0.090332,0.39624,-0.475342,-2.580394,-10.007663,9.61439,1.167069,0.590427,0.115954,-0.188965,0.397949,-0.427002
4.949889,-14.489349,8.104013,-0.055151,-0.776879,-0.023328,-0.283203,0.426025,0.09668,-0.354298,9.147128,7.334414,-1.077331,-0.524378,-0.1796,0.081299,0.157959,0.278809,-0.511316,-13.890194,5.532591,-0.017154,-0.260778,-0.093943,0.394043,0.242676,-0.304443,1.842366,-11.087799,5.950334,-0.382967,-1.173898,-0.225852,0.066162,0.403809,-0.459717,-1.117712,-5.027232,11.495541,0.557078,-0.197384,-0.265977,-0.191895,0.383789,-0.419189
4.679276,-8.80072,9.907977,0.911406,-0.521328,-0.055555,-0.250488,0.437012,0.07251,0.484205,8.553579,7.279475,0.534759,-0.093048,-0.661837,0.071777,0.116943,0.231934,-0.424547,-9.704437,6.603856,1.147709,-0.521905,-0.340171,0.368164,0.245605,-0.327148,3.34688,-9.920791,5.373608,0.549723,-0.813764,-0.380186,0.055664,0.396729,-0.467285,-1.311081,-7.685357,11.129788,-1.353094,0.216406,0.425226,-0.173828,0.398682,-0.42041
4.754403,-9.937738,9.018768,-0.52438,-0.417587,-0.21338,-0.227539,0.440918,0.049072,-1.0771,12.549356,7.024735,0.94106,-0.382691,-0.87201,0.063965,0.079102,0.173828,0.826497,-7.727961,7.846226,0.250493,-0.844918,0.046806,0.336182,0.238281,-0.34082,2.440486,-7.594401,6.346691,0.618479,-0.222085,-0.043294,0.047119,0.376953,-0.475098,-2.900034,-10.880205,9.493798,0.284952,-0.446437,-0.115099,-0.169922,0.380859,-0.429932
5.044874,-10.961488,8.019966,0.535741,-0.153279,-0.03084,-0.199951,0.464355,0.023193,1.129737,11.997295,7.677152,-0.829845,-0.440644,-0.746987,0.058594,0.01416,0.114746,2.608555,-9.807457,6.904704,-0.404677,-0.525058,0.170561,0.308105,0.26123,-0.342773,2.223544,-8.228445,6.218585,-0.169983,-0.794059,0.074984,0.03125,0.391113,-0.4646,-1.151141,-6.572506,10.356845,1.451203,-1.122767,-0.131963,-0.176025,0.36377,-0.441162
5.186189,-8.168483,9.581208,0.175242,0.130207,-0.063166,-0.164551,0.479736,-0.009521,-0.814038,8.203245,6.405154,-0.244242,-0.254043,-0.759459,0.06543,-0.039307,0.062744,0.980802,-11.784496,5.960679,0.08096,-0.147301,0.295221,0.288086,0.266357,-0.354004,2.576009,-10.177497,5.810769,0.023164,-0.685693,0.228925,0.029053,0.390381,-0.4646,-0.940441,-4.992221,11.246927,-0.361136,-1.001333,0.04221,-0.167725,0.363281,-0.44043
4.743,-9.547753,9.392807,-0.68089,0.410129,0.092786,-0.143799,0.494385,-0.040527,-1.427289,12.216746,6.926624,0.894008,-0.63987,-1.048315,0.065674,-0.085449,0.026855,-0.054716,-9.437175,6.428107,0.912947,-0.181515,0.275762,0.256104,0.258057,-0.371582,-0.028582,-9.288829,6.947618,0.465024,-0.813329,0.066862,0.005371,0.377197,-0.467529,-1.321303,-7.906828,10.179826,-0.956852,-1.594102,-0.025498,-0.178223,0.362793,-0.432373
4.675239,-10.622858,8.582445,-0.410531,0.397983,0.037318,-0.114258,0.510986,-0.062988,-0.369751,12.673334,7.739374,-1.481609,-0.698078,-1.210547,0.07251,-0.143555,-0.032227,0.505813,-6.975812,6.441618,-0.00153,-0.233853,0.208822,0.236084,0.260742,-0.369385,0.607943,-9.435936,6.929278,-0.425529,-1.927969,0.166366,-0.019775,0.378174,-0.447021,0.710062,-8.30979,9.854321,-0.180625,-2.16444,-0.271422,-0.190918,0.355713,-0.418945
4.335454,-10.118131,7.489144,-0.006443,0.87743,0.024239,-0.080322,0.528076,-0.111572,-0.782713,5.974257,5.932049,-1.231185,-0.348262,-1.307235,0.076172,-0.185059,-0.071289,0.920248,-9.926256,5.522482,-0.368019,0.031719,0.571834,0.223877,0.263672,-0.383057,1.1261,-11.338329,4.786824,0.626282,-1.842757,-0.214252,-0.041992,0.365234,-0.454834,2.04365,-7.891596,10.168534,-0.19647,-2.089115,-0.084119,-0.194092,0.353027,-0.427002
3.199378,-9.75382,6.756345,0.25551,0.82878,0.037247,-0.061035,0.547852,-0.153809,-1.557654,7.783563,7.737352,1.419962,-0.524207,-1.525535,0.087402,-0.232666,-0.089355,0.833182,-10.650773,6.222323,0.929372,0.250949,0.440295,0.205566,0.263428,-0.400146,-0.069583,-6.507977,7.119154,1.675935,-2.531138,-0.53073,-0.088623,0.341309,-0.469482,1.628121,-8.729056,9.780099,0.138746,-1.990159,-0.038218,-0.208496,0.351562,-0.430176
3.279066,-7.914952,6.067732,0.2579,1.222395,0.100727,-0.044922,0.556396,-0.19043,-1.091623,12.06951,8.001186,-0.200597,-0.699248,-1.143136,0.105469,-0.268555,-0.125732,0.421142,-8.420504,6.662022,0.759806,0.582507,0.812747,0.187988,0.252197,-0.410156,1.491119,-6.851241,7.058966,-0.337044,-3.323114,0.147442,-0.142334,0.337402,-0.444824,2.388038,-6.575591,9.290399,0.68824,-2.385668,-0.301296,-0.236816,0.33252,-0.432373
3.048917,-5.384202,5.585847,-0.651475,1.178936,0.169504,-0.011719,0.575928,-0.219482,-1.300231,8.85733,6.378461,-1.529198,-0.892116,-1.107752,0.126709,-0.300049,-0.166748,0.241519,-8.030406,7.1373,-0.051802,0.439765,0.821736,0.188232,0.253662,-0.42041,0.632198,-10.292261,5.793419,0.174495,-3.543347,-0.014756,-0.184326,0.328125,-0.429443,5.283968,-4.216377,9.209352,-0.663004,-2.165186,-0.047059,-0.242676,0.337891,-0.425781
1.51071,-6.028628,3.236566,-2.242181,1.285446,0.095036,0.018311,0.612061,-0.22876,-0.413229,8.89683,6.759369,-1.239564,-0.818312,-0.989533,0.133301,-0.31543,-0.207764,1.414426,-6.815021,7.98971,-0.783501,0.77775,0.62095,0.189941,0.267822,-0.427734,2.960927,-6.700829,6.132476,0.227658,-4.771767,0.2101,-0.235596,0.327637,-0.402832,4.99756,-5.581992,9.288897,-2.688825,-0.874431,0.128628,-0.236084,0.372559,-0.41333
0.609203,-9.462943,0.972524,-2.509426,0.883862,0.049717,0.029785,0.640625,-0.224121,-0.718096,7.834774,6.840558,-2.486169,-0.601589,-0.634736,0.144531,-0.331543,-0.252441,0.977664,-7.977382,7.149716,-1.645562,0.711324,0.67523,0.178223,0.286621,-0.415527,3.497201,-8.58665,3.022392,-1.600355,-4.386206,0.683557,-0.2854,0.343018,-0.35083,2.692677,-9.501567,6.591091,-2.899267,-0.030474,0.280384,-0.229492,0.407959,-0.39502
-0.066366,-9.810316,-0.127488,-1.441395,0.778624,0.069294,0.048096,0.67041,-0.223389,-0.4953,3.758522,6.958883,-1.960465,-0.432131,-0.226199,0.150635,-0.350098,-0.288086,2.527537,-8.750801,6.27013,-1.14796,1.108152,0.255638,0.186279,0.311035,-0.406982,0.396037,-11.21796,0.42656,-0.318356,-4.917557,0.260042,-0.325928,0.348877,-0.296631,2.217933,-10.337859,6.259834,-1.454949,0.4302,0.004544,-0.213135,0.43042,-0.392578
0.811189,-9.542286,-0.374519,-1.149668,0.687733,0.14721,0.060547,0.6875,-0.226074,0.915988,2.787655,7.021603,-0.900515,-0.417642,0.380509,0.14917,-0.36084,-0.313965,1.64066,-9.199337,6.171714,-1.079103,1.384945,0.801528,0.196045,0.327881,-0.400146,4.133589,-7.408385,-1.277758,0.56587,-5.641515,-0.296304,-0.378418,0.33667,-0.244385,2.682583,-9.661503,6.760948,-1.071926,1.367833,0.181343,-0.185303,0.446045,-0.399414
0.579104,-9.662014,0.295472,-0.005818,0.969612,0.43123,0.077881,0.693359,-0.250488,-0.084602,2.903277,6.840924,-0.021252,-0.319725,1.212155,0.147705,-0.387207,-0.33252,0.869542,-10.0032,6.693557,-0.124524,1.54004,0.948301,0.211426,0.32959,-0.410889,5.104796,-6.9961,-1.254235,0.242362,-4.379568,-0.185902,-0.416748,0.324219,-0.20752,1.852675,-10.600058,6.000715,-0.379416,1.95542,0.258375,-0.152344,0.451172,-0.430664
0.547124,-7.982803,1.598667,0.404422,1.165828,0.561206,0.107422,0.699951,-0.270752,-0.709575,4.618122,6.06675,0.4397,-0.575127,1.848104,0.121826,-0.405029,-0.329102,-0.902006,-7.407793,7.370035,0.427359,1.825066,1.185746,0.239746,0.328369,-0.411865,3.668379,-8.730105,-1.970987,0.416425,-4.49336,-0.486037,-0.442871,0.316162,-0.155518,2.584937,-10.005991,6.452967,0.671202,2.305231,0.232288,-0.102539,0.45166,-0.463623
1.263286,-7.780032,1.811035,0.725978,1.374513,0.813765,0.133057,0.696045,-0.296143,-0.080958,4.287874,5.592281,0.248737,-0.579123,2.660097,0.091553,-0.43042,-0.335205,-1.734429,-6.561686,7.300883,-0.516627,2.00173,0.967304,0.256836,0.333008,-0.40918,7.216587,-8.998445,-3.100154,0.687794,-4.055434,-0.44337,-0.476562,0.301025,-0.11084,1.75488,-8.893069,3.766236,0.788358,2.825435,0.475573,-0.057129,0.442627,-0.49585
1.651069,-8.105193,1.919802,0.728248,1.892667,0.995999,0.162842,0.688477,-0.314209,0.626203,1.177564,5.841741,0.601452,-0.699722,3.483894,0.043701,-0.445312,-0.331299,-3.643522,-8.050102,5.243798,-0.419064,2.496626,0.963121,0.281494,0.333496,-0.393311,6.50767,-7.610426,-3.038584,0.799602,-2.305011,-0.43783,-0.497559,0.289551,-0.083496,0.977169,-9.302402,4.38294,0.822177,2.181857,0.671515,-0.018799,0.431885,-0.519531
1.636614,-10.181854,1.881601,1.107698,2.381075,1.078907,0.213623,0.687744,-0.341553,1.365922,1.584924,5.103807,2.762669,0.020633,3.80926,0.010986,-0.476074,-0.311035,-6.317282,-6.686445,3.61751,0.668871,2.655892,0.411485,0.318115,0.338379,-0.390381,8.247127,-6.97613,-3.255122,-0.007305,-1.779062,-0.204862,-0.500488,0.293213,-0.058838,2.907876,-9.536779,4.109453,1.415113,2.176929,0.545191,0.039307,0.417236,-0.550049
-1.117917,-9.159034,1.300951,1.910676,2.374249,1.145216,0.262451,0.667969,-0.368408,0.207858,6.065164,4.757693,3.570766,0.466871,3.957736,-0.035645,-0.519531,-0.254395,-6.618551,-4.120491,2.084974,0.694661,2.411159,-0.13557,0.335205,0.34082,-0.383789,10.174489,-8.256157,-4.0186,-0.509938,0.890883,-0.075829,-0.505371,0.294189,-0.060303,1.711941,-9.640148,3.600905,1.454992,2.375765,0.637807,0.091797,0.40332,-0.574219
-1.667717,-5.722197,0.849616,1.836469,1.805792,1.013676,0.295654,0.638428,-0.394531,2.684964,9.211254,4.390787,2.573835,0.929041,3.179126,-0.083252,-0.533203,-0.226807,-4.470831,-4.906922,1.363451,0.360552,2.051661,-0.513749,0.347168,0.340576,-0.379395,5.371123,-6.551407,-3.141972,-0.211325,2.473813,-0.200312,-0.506592,0.283936,-0.085449,3.937654,-8.377481,1.488757,2.256684,2.54204,0.452909,0.145264,0.360107,-0.601807
-3.182459,-6.50393,1.972127,0.444646,0.701823,0.71485,0.32373,0.63208,-0.401367,1.420725,6.451665,7.393926,0.825728,1.325489,2.83403,-0.107422,-0.542236,-0.214111,-4.317972,-6.760434,1.229428,0.649108,1.822931,-0.693449,0.363037,0.344482,-0.374756,8.218507,-4.353897,-2.924455,-1.262111,1.949606,-0.364715,-0.501465,0.285889,-0.096924,2.548572,-4.520949,2.007204,1.816362,4.063479,0.379749,0.229492,0.328857,-0.604492
-2.100074,-10.023843,2.20273,1.547578,0.510291,0.362524,0.334961,0.613525,-0.416748,2.236417,2.673147,6.797845,1.664322,1.09784,1.69527,-0.133301,-0.551514,-0.196045,-3.959034,-8.849428,1.878341,1.384039,0.317963,-0.220005,0.356689,0.338135,-0.386719,11.047033,-7.726775,-3.847813,-1.67104,3.175414,-0.68814,-0.505127,0.286865,-0.118652,-0.39471,-4.814878,3.170121,0.786744,3.957813,0.451403,0.300537,0.312988,-0.588867
-1.658088,-5.130908,4.098109,3.058526,-0.089442,0.195518,0.336426,0.562988,-0.45874,0.936211,4.60535,4.732299,2.794112,1.18893,1.344822,-0.147705,-0.565186,-0.15918,-4.087045,-8.016756,3.118281,2.566521,-0.288275,-0.10525,0.351562,0.303955,-0.421631,7.689475,-8.337992,-0.700192,0.177467,3.527297,-1.699122,-0.516846,0.255859,-0.16748,0.991625,-8.709744,2.117618,1.391567,3.72855,0.440083,0.367188,0.27832,-0.582031
1.51022,-2.701975,5.76195,2.155446,0.35476,0.075472,0.337646,0.537842,-0.491455,2.035823,6.275674,4.337343,2.297523,0.459345,1.284523,-0.162354,-0.577148,-0.133545,-4.823433,-5.316035,3.578238,2.53339,-1.009908,0.422233,0.340576,0.281982,-0.466797,3.167063,-4.169072,1.155252,0.674976,3.795786,-1.951822,-0.523682,0.233154,-0.231689,-1.229074,-5.896969,1.263435,3.903786,3.956775,0.572581,0.432129,0.219482,-0.590332
0.84296,-3.710634,6.870972,1.936155,0.823944,0.145492,0.371826,0.503662,-0.498291,2.826701,5.470248,3.039269,1.848566,0.668558,1.749783,-0.188232,-0.569092,-0.103027,-2.486865,-6.033995,4.489899,1.123417,-0.85967,0.41108,0.349365,0.259766,-0.479248,3.456789,-5.661657,1.887232,-0.623469,2.532241,-1.125987,-0.500977,0.216064,-0.249023,-4.649168,1.347323,2.789695,3.140474,2.941088,0.186779,0.500977,0.159424,-0.565674
-0.189311,-3.130042,8.039685,1.515959,0.916073,0.087776,0.383301,0.471924,-0.501709,3.351695,6.602508,3.335849,1.873024,0.021082,1.330135,-0.212646,-0.574463,-0.06958,-2.355415,-9.547896,3.452743,1.192571,-1.513389,0.418905,0.330322,0.240479,-0.501709,9.338811,-9.952282,-3.042894,0.196307,2.921593,-0.947267,-0.494629,0.197754,-0.288818,-4.812329,0.736056,2.292164,0.323798,1.662439,0.628349,0.525391,0.142578,-0.543457
0.693526,-2.96576,8.516766,1.064724,1.206643,0.066939,0.40918,0.460205,-0.516357,5.150963,7.536172,2.088705,0.952755,0.383492,1.34598,-0.227051,-0.567871,-0.061523,1.869832,-5.532949,2.874973,2.51609,-0.936216,-0.379302,0.319336,0.213623,-0.541504,-2.537907,-5.101993,0.765476,2.150339,5.854871,-0.777811,-0.44873,0.174072,-0.382324,-6.161012,-3.107938,1.524312,0.512724,0.961259,0.207152,0.546875,0.134521,-0.546631
-1.394446,-3.173309,9.136135,0.740769,1.333896,0.15012,0.427246,0.457031,-0.509766,2.830701,6.957622,1.746207,0.346833,-0.075046,1.11911,-0.241455,-0.567871,-0.05127,-3.103583,-1.975868,7.523976,0.134603,-0.382337,-0.021187,0.309814,0.21875,-0.539795,2.167672,-1.499633,6.010202,-0.681429,-0.390946,-0.002972,-0.458008,0.186523,-0.365723,-7.640139,-1.989029,1.165767,1.454558,-0.508736,0.252311,0.536865,0.116211,-0.549072
-0.690954,-2.740691,10.383702,-0.028237,1.487507,0.34984,0.460449,0.440674,-0.496826,5.367458,6.792093,3.350537,-0.061615,-0.398135,0.796135,-0.253906,-0.558594,-0.046875,-0.253966,-7.550741,4.808847,-1.239899,-2.172891,-0.444269,0.283936,0.227295,-0.549805,17.352222,-7.824389,-2.514328,-0.944029,2.644562,0.832385,-0.42041,0.193359,-0.392578,-7.108221,0.950324,2.121522,0.289904,-2.081949,0.058867,0.518311,0.100098,-0.574219
-3.169004,-6.338093,9.106926,-0.105373,1.688427,0.226189,0.481201,0.454834,-0.499756,3.31565,5.224558,2.797982,0.020107,-0.633403,0.44108,-0.26416,-0.561523,-0.043701,1.587016,-8.434679,3.839588,0.883405,-1.091128,0.341327,0.263184,0.22583,-0.574707,-0.329505,-2.633373,1.16886,3.166834,5.848035,-0.293987,-0.365234,0.163086,-0.481201,-5.600022,-3.788625,1.175892,-1.481125,-3.407946,0.522125,0.458496,0.131592,-0.615234
-2.636219,-4.129111,8.683567,1.896747,1.73696,0.536271,0.508057,0.42041,-0.492676,3.786409,6.181928,1.570984,1.168242,-1.444575,-0.09275,-0.266602,-0.562012,-0.01416,-3.499736,-4.032189,5.323626,0.84596,-1.916774,0.466837,0.237549,0.206055,-0.588867,3.050501,3.952518,6.749817,0.429939,0.882158,0.787702,-0.352295,0.162842,-0.489014,-3.430134,-6.286663,1.021096,1.830827,-5.080925,0.269757,0.372314,0.094971,-0.666748
-5.246026,-2.202753,8.057441,0.316354,1.869396,0.426459,0.54248,0.406006,-0.479004,3.418804,8.688986,1.617705,0.843446,-1.510353,-0.33005,-0.255615,-0.557129,0.013184,0.052648,-4.378689,4.14119,-0.278599,-2.343662,0.905427,0.210938,0.19873,-0.600342,6.665476,-6.372819,3.109508,-1.509775,4.186138,1.755134,-0.283936,0.19165,-0.515137,1.612388,0.250026,3.295937,2.200191,-5.85623,0.034264,0.267822,0.054443,-0.708496
-7.270988,-3.856717,4.727917,0.856255,1.347904,0.578769,0.571777,0.389648,-0.464844,3.8974,9.826519,2.39609,0.241971,-2.247896,-0.981039,-0.240479,-0.562256,0.029053,-2.71414,-6.156835,6.111069,-0.505928,-2.137676,0.709495,0.184326,0.198242,-0.601562,-0.562104,-8.50189,7.046513,1.729229,2.623989,1.133501,-0.238037,0.176025,-0.535889,1.142976,1.215192,5.00451,0.123455,-5.288169,0.910185,0.17334,0.047607,-0.717285
-5.926726,-0.035593,5.314753,-0.199969,0.116601,0.003707,0.57373,0.385986,-0.4729,8.276721,8.790127,1.558382,-1.183677,-2.291694,-1.666965,-0.217285,-0.575684,0.026367,-0.119442,-8.2828,4.374003,-0.297343,-3.951473,0.67763,0.132568,0.19458,-0.627197,10.480304,-2.937134,4.536155,1.142599,2.203803,1.006881,-0.195801,0.157471,-0.56665,1.9877,-1.195951,3.513203,-0.821259,-5.158581,0.164645,0.077393,0.05542,-0.73584
-6.110536,-4.009211,4.712712,-1.030565,-0.617856,-0.220209,0.553955,0.407227,-0.472412,6.06843,7.212119,0.01026,-0.62034,-1.953195,-2.495106,-0.174316,-0.587402,0.026855,2.433393,-5.512667,3.013966,1.785678,-3.323254,0.428349,0.072021,0.168945,-0.642822,0.622128,-4.130585,5.012685,0.525006,6.621221,1.844819,-0.097412,0.164062,-0.59375,2.332362,-2.757672,5.203376,-0.631409,-4.139385,0.711808,-0.016357,0.07373,-0.726074
-5.524076,-3.631997,6.772158,-1.070202,-1.866413,-0.774234,0.527588,0.431396,-0.47998,7.600464,11.81833,0.491509,-1.061497,-1.881591,-3.724905,-0.117188,-0.602783,0.02002,-1.23381,0.192286,4.321888,1.155308,-4.010038,0.356612,0.011719,0.147705,-0.650146,-7.303561,-6.994288,9.270028,-0.220927,2.948669,1.390632,-0.039062,0.172119,-0.5979,1.400704,-1.808918,5.830737,-0.88041,-4.107635,0.318883,-0.090576,0.093018,-0.706055
-3.5274,-8.007623,4.510616,-1.432325,-2.490151,-1.107887,0.488037,0.463135,-0.490967,5.399321,10.890364,-0.951763,-3.007975,-0.710485,-4.379086,-0.04248,-0.609863,-0.025146,1.215379,0.252258,3.51683,0.823524,-4.690502,-0.152475,-0.062012,0.136963,-0.646973,-0.289234,-7.678732,7.678669,1.194023,2.675279,0.727752,0.01001,0.153076,-0.601807,5.232553,-3.192239,5.896722,-1.68735,-4.118978,0.452376,-0.170166,0.132568,-0.672363
-0.975863,-4.643027,2.658742,-0.11419,-3.622513,-1.482283,0.421631,0.474121,-0.524414,6.041426,8.073211,-2.483166,-2.835299,0.521406,-5.360241,0.035156,-0.608643,-0.071289,1.420447,2.675908,6.051887,1.872376,-3.985964,-0.853717,-0.127197,0.102295,-0.653809,-7.349268,-5.279449,11.166679,1.105843,3.609764,0.015416,0.063965,0.132568,-0.614014,6.056543,-4.613199,5.875979,-1.403063,-2.245626,0.063627,-0.213623,0.154785,-0.65918
-0.963929,-6.036823,3.290766,-1.464933,-4.065737,-1.597331,0.349609,0.503418,-0.528076,-3.542353,7.715905,-1.137855,-1.561501,2.757752,-5.101727,0.126709,-0.596436,-0.095215,-0.787946,7.044757,10.181532,1.625517,-3.788042,-1.609891,-0.190674,0.068604,-0.636963,-11.581613,-5.805427,11.689269,0.792325,0.10207,-0.861985,0.062988,0.119141,-0.612061,5.304737,-4.702867,5.838253,-1.014557,-1.554146,-0.233851,-0.244629,0.166748,-0.629639
2.21514,-5.389111,4.529685,0.810458,-4.395467,-1.365365,0.269043,0.501465,-0.539795,-5.853616,5.822304,0.343722,-0.872708,1.526398,-4.662437,0.19165,-0.569824,-0.097412,1.837681,5.370955,13.581085,-1.339202,-3.463063,-1.8557,-0.250977,0.085205,-0.605469,-5.952076,-5.465184,10.099488,0.981308,-1.688416,-2.075401,0.02002,0.108887,-0.616455,7.661007,-4.893369,5.577292,-0.65394,-1.388519,-0.461602,-0.271729,0.178955,-0.606201
0.677517,-1.393354,8.779247,-0.525173,-3.366947,-0.931958,0.213379,0.505371,-0.541504,-4.588448,5.5275,2.469811,-0.166452,2.450932,-3.521659,0.254395,-0.552002,-0.082764,3.698763,-2.779641,10.682584,-2.979044,-2.356439,-1.865557,-0.280273,0.11377,-0.581055,-4.963428,-1.269026,9.507978,0.68448,-1.224311,-2.657248,-0.007324,0.091064,-0.620605,6.523088,-5.546868,6.876998,-0.652056,-0.836105,-0.077058,-0.280273,0.184326,-0.591797
1.991607,-4.81241,7.530644,-1.200323,-2.873667,-0.834787,0.153076,0.519043,-0.534668,-7.126854,5.909366,5.593785,-0.178886,1.113181,-2.937473,0.295166,-0.536377,-0.087158,3.725325,-5.436358,8.3544,-2.159083,-1.813626,-1.805099,-0.319336,0.125977,-0.563721,-4.072834,2.180836,9.2259,-1.403763,-2.736588,-2.817848,-0.071777,0.108154,-0.618408,3.49984,-4.619294,7.345054,-0.351434,-2.076609,0.019675,-0.327148,0.183105,-0.570068
0.538594,-6.726842,5.635684,-1.281499,-2.112721,-0.7898,0.113281,0.545898,-0.519531,-2.977084,7.322018,6.853259,-0.27531,1.15046,-2.461403,0.331055,-0.510986,-0.080811,5.683858,-2.916868,6.944846,-3.671371,-1.549945,-1.278585,-0.345215,0.171875,-0.5354,1.765628,1.087245,7.443857,-4.063854,-2.755574,-2.623191,-0.130371,0.171143,-0.588135,6.467235,-2.289137,6.788035,-0.493326,-2.927283,-0.018491,-0.366211,0.195557,-0.531494
3.922703,-6.532795,4.327055,-0.882,-2.349649,-1.192078,0.068604,0.547363,-0.503418,-5.50438,5.92645,4.831447,-0.625924,1.071711,-2.266639,0.358887,-0.488525,-0.06958,6.210629,-8.607071,2.165778,-5.126571,-1.260357,-0.639123,-0.361572,0.222412,-0.486572,1.477412,-5.99948,4.53471,-4.148899,-2.544487,-1.696177,-0.178467,0.215576,-0.548828,8.501625,-3.257474,6.936911,-2.124343,-1.831909,0.055837,-0.394531,0.218018,-0.486328
1.702862,-7.905703,3.370957,-0.942798,-2.076137,-0.987826,0.027588,0.560059,-0.479248,-3.785918,4.360015,2.81419,0.766618,0.89343,-2.037677,0.378174,-0.474121,-0.058838,8.946934,-14.05536,1.962652,-1.769189,-0.231518,-0.812476,-0.367676,0.238037,-0.464111,3.154014,-5.274399,3.890437,0.003883,-3.639227,-2.120394,-0.244385,0.206543,-0.526367,6.236325,-9.36791,6.482233,-2.38144,-1.112899,0.186531,-0.405273,0.245117,-0.446289
5.024743,-7.906056,2.15197,0.398563,-2.640653,-0.849164,-0.016846,0.540771,-0.470459,-5.799984,6.650703,3.954568,1.445565,0.736988,-2.047163,0.409424,-0.459229,-0.027588,2.5637,-10.649362,2.970658,1.818977,0.411115,-0.56156,-0.362305,0.205078,-0.477295,2.183365,-1.336316,4.010961,0.218091,-3.297911,-0.6428,-0.294434,0.192871,-0.503662,7.80206,-9.63362,6.548296,0.972265,-1.059815,-0.710808,-0.421875,0.216064,-0.436523
2.717788,-4.328587,3.909987,0.550725,-2.330789,-0.629484,-0.05542,0.53833,-0.448242,-4.444334,8.302401,4.281599,0.856707,0.177224,-1.934463,0.423096,-0.435059,-0.022461,8.219448,-5.521079,3.426965,1.83593,-1.446947,-0.481625,-0.383057,0.186523,-0.466064,5.195599,-5.556603,1.493153,0.427531,-4.629948,-0.322377,-0.358643,0.195801,-0.45874,9.77721,-4.023966,9.968953,1.049217,0.648652,-0.37736,-0.416992,0.208008,-0.438965
3.958364,-2.423237,4.872,0.152916,-2.752125,-0.452189,-0.095215,0.534668,-0.429688,-6.30167,8.274272,2.645793,-0.279704,-0.133872,-1.316507,0.437744,-0.414551,-0.032715,10.638085,-5.183298,5.30202,0.734181,0.4936,0.620711,-0.371826,0.189209,-0.471436,11.998216,-2.199616,2.190723,2.022503,-2.859975,-0.395415,-0.391602,0.17334,-0.44873,6.537124,-3.624389,11.143662,-0.471756,1.749372,0.028407,-0.39502,0.2146,-0.453613
1.399839,-3.368112,3.49715,-1.481955,-2.491473,-0.294638,-0.138184,0.544678,-0.395508,-7.197568,5.571899,2.533094,-1.1127,-0.811799,-1.086829,0.446533,-0.407959,-0.044189,1.652457,-2.317276,7.539045,-0.113373,-0.522426,0.39522,-0.380859,0.188965,-0.46582,6.168731,2.248702,5.720446,-1.096786,-0.572418,0.55184,-0.4021,0.187988,-0.436523,8.938053,-5.896261,11.231961,-1.53627,2.056879,0.233596,-0.377197,0.231201,-0.469971
2.373299,-9.842072,0.649595,-1.184771,-3.387344,-0.108631,-0.169189,0.553223,-0.345459,-5.789499,3.5268,2.5748,-0.597763,-1.521986,-0.629689,0.456055,-0.394531,-0.076904,9.639691,-2.928332,3.248041,-3.620013,-1.871275,0.854636,-0.38623,0.235596,-0.419678,5.147333,-3.674037,4.093277,-4.150017,-2.190207,1.314169,-0.406982,0.25,-0.374268,10.705046,-10.704042,11.005006,-1.922023,4.411301,0.76246,-0.306152,0.263672,-0.494385
5.838229,-9.667563,4.539652,2.977937,-2.724172,0.32896,-0.202148,0.519531,-0.333984,5.457094,5.580527,3.371359,0.079657,-2.723782,-0.081174,0.442627,-0.396484,-0.109619,7.375627,-10.113944,-3.231771,-2.743469,-1.155956,1.077283,-0.392334,0.268555,-0.38208,10.520779,-10.995264,-0.010706,-2.741149,-2.31936,1.199537,-0.424072,0.287598,-0.321289,4.788625,-15.055367,10.824468,1.018463,6.342324,1.325238,-0.209473,0.256348,-0.550293
6.196135,-0.527752,10.183443,3.244625,-0.072732,0.812123,-0.186768,0.489502,-0.361084,-0.592798,7.084012,3.188442,-0.908638,0.519791,1.261006,0.420166,-0.404785,-0.101807,11.801844,-10.109923,-3.100815,-0.140616,-2.474304,0.225279,-0.39917,0.26709,-0.363281,9.249062,-10.478604,-3.2015,0.248934,-0.924651,0.234575,-0.416992,0.290527,-0.325195,-4.0879,-9.26803,15.179723,4.743531,5.287419,1.999907,-0.101807,0.193115,-0.618164
2.750111,-6.70577,7.003083,-1.142585,-0.400006,1.451736,-0.192871,0.512451,-0.339111,-9.554618,6.778541,3.775472,-1.45466,-2.828952,1.215602,0.397949,-0.418457,-0.153809,10.080819,-9.614898,0.173058,1.763675,-0.333135,1.108934,-0.402344,0.257568,-0.369141,2.364708,-6.542412,0.583378,2.527388,-2.170633,0.482059,-0.446045,0.269775,-0.316162,6.463558,-0.572395,14.523772,1.673827,2.958287,0.988841,-0.05835,0.167236,-0.640137
6.62414,-13.232028,5.233578,0.439791,0.422613,2.103143,-0.167725,0.517822,-0.345703,-1.251155,6.415065,5.77145,-1.698746,-1.508597,1.791991,0.354736,-0.419189,-0.179199,6.770898,-1.865729,2.924912,2.846859,-0.878718,0.625662,-0.396729,0.227783,-0.384766,5.356008,1.494902,1.192076,1.77355,-4.004008,0.037114,-0.470947,0.246338,-0.290527,9.849815,-3.643143,10.400372,-3.49658,7.893648,1.711755,0.091553,0.221191,-0.633545
5.857177,-8.782196,7.821326,1.637848,0.444617,2.014119,-0.146973,0.534668,-0.352539,-6.371751,5.607593,7.311751,-1.424132,-2.078117,1.543593,0.343262,-0.430176,-0.21582,7.909294,3.071339,4.35354,-1.914527,0.07841,1.438808,-0.385742,0.274414,-0.36084,4.803069,0.188475,1.233169,-2.977259,-2.971091,1.816094,-0.472412,0.30835,-0.212891,-3.839828,-14.236832,7.205475,-2.823577,7.196234,2.814598,0.231201,0.276123,-0.592773
8.984555,-9.957089,8.407648,1.684677,1.653031,1.588421,-0.119385,0.516113,-0.376221,-0.186275,6.151144,6.40924,-0.531709,-1.294728,1.567791,0.299316,-0.438232,-0.229004,2.834889,-4.926671,1.655134,-5.555159,-0.276518,1.315159,-0.373779,0.318359,-0.306885,-0.270294,-8.937137,-3.740145,-4.59583,-3.976526,1.617815,-0.477783,0.345947,-0.11499,-0.965026,-10.193538,5.509881,4.099452,4.223467,1.878027,0.3125,0.191162,-0.598389
6.152467,-7.239064,9.177672,2.24173,1.707625,1.568031,-0.081299,0.50708,-0.407227,-6.144914,8.152593,4.846098,0.060895,-0.76944,1.143726,0.2771,-0.435547,-0.225342,8.746075,-8.983468,-0.513398,-4.971287,-0.263695,0.032661,-0.365967,0.35498,-0.259521,4.756085,-10.271995,-5.725518,-4.138838,-4.273682,1.249429,-0.458496,0.375977,-0.021973,-0.906124,5.730076,8.520909,2.992484,5.866149,1.023691,0.417969,0.144287,-0.567871
5.728064,-5.457361,9.704109,0.671247,2.612074,1.929893,-0.039307,0.51416,-0.428223,-2.151325,8.109613,5.250049,-1.10213,-1.100258,1.123973,0.258545,-0.437256,-0.245117,5.590431,-10.486883,-1.27082,-2.894211,1.289269,0.509165,-0.352051,0.372803,-0.244629,-1.408608,-11.357869,-6.549834,-2.585097,-2.903116,0.875364,-0.45166,0.386719,0.04248,-8.729167,2.422546,7.849674,-4.550661,5.506203,1.440747,0.501221,0.190918,-0.489746
3.898512,-8.512364,8.433374,0.240838,2.268493,1.9576,-0.000244,0.522461,-0.437012,-3.29196,4.518495,5.502133,-1.247626,-0.472611,1.01129,0.241699,-0.424072,-0.25708,5.209012,-10.252992,-1.342735,0.084919,1.007524,0.244159,-0.343018,0.37207,-0.24707,-2.536509,-8.905048,-6.041502,0.695666,-4.900901,-0.694887,-0.452881,0.375732,0.095703,-7.569905,-11.428055,4.135617,-3.485554,3.300573,1.456433,0.550781,0.217041,-0.425293
6.522894,-8.597069,10.112717,1.058544,3.073602,2.088594,0.057861,0.513184,-0.46582,-1.602393,5.470543,5.896829,0.345298,-0.670692,0.750834,0.220459,-0.43457,-0.248535,4.369209,-4.831336,0.139214,1.306528,2.018588,0.52439,-0.321777,0.358398,-0.283447,1.258763,-3.620687,-6.005018,0.610241,-4.264134,-0.442743,-0.443359,0.364258,0.128418,-7.862703,-9.761937,4.397509,1.134714,4.063692,1.109248,0.606689,0.185059,-0.385498
5.539156,-7.337998,10.034197,1.136509,3.358368,2.067226,0.122314,0.499023,-0.478271,-1.661616,9.236148,5.944199,0.161334,-0.03464,0.408021,0.205322,-0.433105,-0.245605,3.728776,-2.439197,1.594357,-0.520632,1.740586,0.321063,-0.295654,0.355225,-0.282959,1.009686,-4.465892,-7.032097,-0.64203,-3.64809,-0.084993,-0.42334,0.352539,0.177002,-13.853713,-1.951157,5.755712,0.512738,2.327385,1.566043,0.644775,0.15332,-0.348877
5.585448,-7.40928,10.627069,0.500671,3.908211,2.214539,0.20166,0.501465,-0.48877,-0.732428,8.013727,6.945972,-1.013056,-0.307212,0.226946,0.200928,-0.412598,-0.258301,3.791549,-5.603908,0.880384,-2.331967,2.088621,0.3478,-0.269287,0.370117,-0.279297,5.367248,-5.202827,-5.793668,-0.789023,-3.313094,0.649769,-0.388916,0.355225,0.207031,-8.959148,-2.678584,4.655659,-2.002358,0.279284,0.996384,0.660889,0.162109,-0.338867
2.421373,-8.466256,10.141905,0.709617,4.323818,1.944447,0.281982,0.48877,-0.490967,-0.150487,5.935059,6.670678,-0.497883,0.763439,-0.27799,0.200928,-0.412598,-0.251221,2.861071,-7.167273,1.01138,-2.140843,1.680046,-0.34691,-0.249023,0.37085,-0.260986,2.978696,-4.533347,-5.672413,-1.474834,-1.297745,1.660815,-0.353271,0.356445,0.233398,-12.165455,-7.817557,3.30881,-1.463278,0.859549,1.649691,0.685059,0.144287,-0.315918
0.503431,-7.020085,10.21585,0.624315,4.776967,1.930307,0.369873,0.459717,-0.484375,-3.158562,7.109881,7.967562,0.275641,0.924006,-0.226414,0.205322,-0.411865,-0.233643,7.004316,-6.689657,2.38802,-2.870944,1.731064,-0.46296,-0.228027,0.364258,-0.247314,1.562261,-8.897541,-7.343403,-2.799922,-2.830937,2.146468,-0.302979,0.340576,0.272217,-13.354499,-5.951168,3.474518,0.912148,-2.540687,0.724712,0.673584,0.111572,-0.363525
-1.993518,-7.276708,10.258329,-0.202791,5.026329,1.847393,0.450439,0.469971,-0.448486,-2.92466,10.237937,10.397648,0.300767,1.329289,-0.410307,0.206299,-0.398926,-0.213135,4.769467,-10.950327,0.850539,-3.105868,2.318068,-0.030562,-0.211182,0.38623,-0.222412,8.015378,-12.218782,-9.311985,-0.737351,-1.082931,1.585007,-0.283447,0.356201,0.279785,-5.822587,-0.937127,3.704143,0.425094,-3.436789,0.683381,0.645264,0.110352,-0.406738
-4.508851,-7.159282,8.15522,-0.474656,5.131284,1.482473,0.529297,0.467041,-0.409668,-4.138351,12.919739,12.059382,-0.814464,1.759057,-0.51601,0.220459,-0.390381,-0.20459,6.821106,-12.625534,-0.658502,-1.584612,1.554688,0.099313,-0.191895,0.390625,-0.211914,-0.944058,-7.153239,-6.028173,0.566974,0.515226,0.835739,-0.273926,0.366455,0.262939,-5.779691,-0.608337,3.279146,-1.170976,-4.033283,0.638205,0.603027,0.115479,-0.459229
-7.846479,-7.10487,4.424861,-0.74885,4.688243,0.973292,0.593994,0.458984,-0.369385,-5.495987,8.99584,11.155766,-2.361131,1.849881,-0.634616,0.234131,-0.361816,-0.210938,6.293053,-12.141033,0.154823,-0.971134,2.664241,1.026414,-0.158203,0.385254,-0.220703,0.991751,-7.806463,-7.527364,-0.735915,-2.044161,1.169088,-0.244873,0.356689,0.265625,-0.086723,-4.567854,1.638201,-1.769167,-5.297245,0.081805,0.541504,0.131348,-0.523438
-9.528546,-5.408024,1.079642,-0.228801,3.504201,0.470581,0.639404,0.45166,-0.320557,-5.365352,9.25954,9.067186,0.244701,1.765051,-1.167719,0.240967,-0.372803,-0.197021,3.166463,-11.238311,0.45979,-0.983012,1.9001,0.82133,-0.133057,0.383545,-0.20752,6.906213,-11.914232,-10.391057,0.460926,0.296079,1.40896,-0.231201,0.360352,0.25415,0.947574,-3.583186,1.800198,0.443835,-3.343704,0.085509,0.498047,0.119873,-0.554688
-7.890065,-4.938992,1.322665,-0.646281,1.694893,-0.32717,0.655273,0.460693,-0.307373,-3.632928,15.098594,9.248604,-0.668567,1.804018,-1.611706,0.277344,-0.352051,-0.188965,7.332997,-9.546518,0.474166,-1.926511,1.935938,1.047508,-0.104248,0.387207,-0.20459,1.099779,-7.476887,-7.226519,1.854521,1.066835,1.697074,-0.218018,0.375,0.207275,-2.967663,-0.496411,1.197669,-0.449577,-2.430529,-0.59265,0.460693,0.134521,-0.587646
-6.21814,-6.219089,4.038846,-0.404309,0.499272,-0.683351,0.656982,0.468262,-0.296143,-3.30006,10.09358,7.437958,-2.906628,1.55566,-1.997614,0.313477,-0.315674,-0.203613,5.253033,-11.176646,-0.117927,-2.535276,1.600435,1.140087,-0.084229,0.395752,-0.180908,3.415095,-7.631351,-7.238764,-0.283663,0.066099,2.547192,-0.19458,0.383545,0.201172,-2.183861,-1.278362,1.88142,-0.654936,-2.622505,-0.172882,0.414062,0.143555,-0.602783
-5.102323,-5.483322,5.018661,-0.262285,0.059545,-1.218866,0.662354,0.484619,-0.288574,-5.072905,4.158108,6.588295,-0.816358,1.717291,-2.013265,0.33667,-0.300049,-0.200439,6.574077,-12.311444,-0.091897,-2.060261,1.404755,1.116098,-0.048584,0.401611,-0.159668,1.658676,-13.989099,-10.158086,0.110304,1.057056,2.550359,-0.162842,0.392334,0.187012,-2.019317,-0.726751,4.210964,-0.503983,-2.314289,-1.320596,0.37915,0.166748,-0.619141
-5.252983,-7.772641,2.842777,-0.281714,-0.433425,-1.536573,0.644287,0.499512,-0.299316,-4.112116,8.100956,8.21736,1.031416,1.49457,-2.454168,0.369141,-0.275879,-0.169922,5.903959,-11.879737,0.167479,-1.547565,1.520738,0.908421,-0.030029,0.396484,-0.150879,2.569796,-13.13895,-11.091912,1.48705,0.70865,1.440015,-0.154541,0.399902,0.150146,-0.914685,-2.987941,2.464377,-1.237551,-2.669248,-0.758557,0.327637,0.186523,-0.637939
-5.199222,-7.906463,3.005518,0.78097,-0.951704,-1.831208,0.623291,0.511963,-0.307617,-7.434431,7.350808,9.289897,-0.615887,1.766908,-2.040199,0.391357,-0.255615,-0.165283,6.075046,-12.323617,-1.301645,-1.109481,1.187347,1.219742,-0.008057,0.40625,-0.137207,1.65415,-9.51857,-8.999722,1.692232,2.838818,1.285606,-0.145508,0.412109,0.119629,-1.634942,-3.897265,1.862596,-0.062828,-2.301829,-1.959958,0.274414,0.20459,-0.643555
-3.577886,-4.879325,3.800792,0.233365,-1.175805,-2.264584,0.589355,0.534912,-0.321777,-5.98809,2.012716,6.392278,0.226054,1.309782,-2.365425,0.428955,-0.228271,-0.148438,4.222078,-11.15349,-0.181836,-0.248986,1.702156,1.165185,0.006836,0.415283,-0.13916,-1.014582,-8.378935,-4.298209,1.060793,1.571952,0.975113,-0.146973,0.426514,0.096191,0.445356,-2.728318,3.744073,-0.900786,-3.514378,-1.495204,0.197998,0.231201,-0.653076
-4.363302,-6.546652,3.832904,-0.145556,-1.462439,-2.404164,0.564453,0.552246,-0.34082,-9.595435,4.827875,6.780177,2.147691,1.904317,-2.178249,0.444336,-0.211426,-0.11499,2.459025,-10.728829,1.951195,-1.025707,0.555725,1.568652,0.035156,0.412109,-0.131836,6.491729,-10.924251,-7.108646,0.520636,1.239253,1.100889,-0.127686,0.431396,0.078125,2.81707,-3.712653,2.838987,-0.735953,-2.664235,-1.859547,0.145264,0.246094,-0.657959
-2.991409,-3.739432,4.942377,-0.039515,-1.524949,-3.076049,0.520264,0.56958,-0.352539,-8.921459,7.403214,7.297609,0.790567,1.087821,-2.159968,0.466797,-0.183105,-0.102783,6.817373,-14.039864,0.862143,-1.386602,0.724919,1.282504,0.052979,0.412109,-0.119385,2.530384,-12.561816,-7.711007,1.379311,3.276419,1.231859,-0.118896,0.437256,0.04126,1.331896,1.17602,5.5332,-0.689199,-3.030415,-2.277599,0.06958,0.254395,-0.648926
-3.246095,-1.929271,6.443038,-2.040939,-1.159808,-3.558189,0.470459,0.625244,-0.341309,-9.156152,3.171485,4.507439,-0.462156,2.172828,-1.405032,0.493408,-0.160156,-0.069092,4.516553,-14.92118,0.058629,0.424688,1.146574,1.656416,0.073242,0.424561,-0.121094,-2.820521,-11.816268,-6.830437,1.136862,2.48793,0.62774,-0.11377,0.45752,0.02002,4.791307,0.050867,2.786229,-4.781832,-3.674476,-1.325162,-0.009033,0.340088,-0.600098
-1.804835,-6.527043,4.152769,-3.090053,-0.841177,-3.985709,0.419678,0.680664,-0.299316,-12.450546,-0.92049,3.960032,0.887366,1.322792,-0.9441,0.502197,-0.144287,-0.053223,5.765447,-13.473468,0.019571,1.124109,1.421319,1.576011,0.094238,0.428955,-0.124512,1.984707,-15.765184,-7.050574,0.674118,1.597803,-0.332441,-0.119141,0.461914,0.012939,4.343669,-7.946649,3.48405,-5.737393,-3.112652,-1.426282,-0.072998,0.420898,-0.518555
-2.435922,-8.857271,2.917975,-2.02968,-0.176364,-4.086144,0.369385,0.712891,-0.271484,-10.851745,2.043623,3.036704,2.56725,1.363391,-0.604992,0.511719,-0.147949,-0.022949,1.694319,-14.6319,-0.366745,1.136327,1.326577,1.787088,0.120605,0.431396,-0.133057,5.587364,-14.54227,-6.943164,2.867419,3.170372,-0.763196,-0.125244,0.461182,-0.029297,4.893192,-7.82056,3.388347,-2.868126,-3.468707,-2.104695,-0.143799,0.442871,-0.457764
-1.797609,-6.528254,2.437278,-1.04341,-0.975411,-4.057325,0.300049,0.735352,-0.265137,-12.946301,3.121706,1.710136,1.671699,0.013269,-0.20321,0.520264,-0.13501,-0.027344,3.719364,-14.002949,-1.4867,2.568433,0.772346,1.665495,0.130127,0.427246,-0.164795,-0.414089,-8.643399,-2.051875,2.862018,3.431085,-1.184169,-0.146484,0.462402,-0.076904,5.830733,-5.711567,3.26202,-4.308135,-2.671873,-2.011561,-0.207275,0.474609,-0.381592
-0.259358,-3.702511,2.790411,-2.019879,-0.857552,-3.885711,0.23291,0.756592,-0.224609,-7.516184,0.957186,1.117942,1.979383,-0.457251,-0.244673,0.538818,-0.133789,-0.026855,1.275416,-11.411857,2.137781,3.421809,0.961731,1.931718,0.148193,0.420654,-0.193604,3.584625,-13.562966,-3.190683,0.126356,1.363828,-1.473078,-0.175781,0.460693,-0.070801,4.888389,-12.270873,-0.912251,-5.525895,-1.867973,-1.229548,-0.248535,0.509766,-0.276123
0.956234,-9.034001,3.371253,-3.659525,-1.232187,-4.209139,0.16748,0.785645,-0.175293,-11.265433,2.687497,2.134986,3.290738,-0.316168,0.544618,0.54541,-0.13916,-0.022949,1.899256,-13.485679,4.295551,4.004881,0.410419,2.150315,0.177002,0.408447,-0.25,7.647781,-21.17808,-4.433798,2.259295,3.129832,-3.491205,-0.215576,0.445801,-0.124268,4.549448,-11.767185,1.178308,-2.971556,-2.039234,-1.702063,-0.284424,0.510986,-0.211914
-1.879241,-33.652797,-3.96905,-3.399697,-0.309707,-2.325565,0.140381,0.800293,-0.134277,-1.906042,0.373491,-4.874965,0.771319,-2.342624,1.191423,0.541992,-0.161377,-0.047607,8.025316,-13.976876,1.664052,6.566523,-0.598253,1.599925,0.19458,0.370605,-0.32666,3.00388,-14.46349,0.249563,5.841749,3.131989,-5.678453,-0.274658,0.389648,-0.210205,5.77831,-21.211393,-3.254424,-5.28756,-2.614566,-2.495141,-0.32373,0.508789,-0.112061
4.965927,-6.352572,-2.900794,14.163808,-1.13112,-1.423196,0.111328,0.691895,-0.322998,-10.150622,3.936589,6.12526,5.195974,1.125426,1.575262,0.543945,-0.192383,-0.009033,-7.461413,-4.863138,5.225424,10.454322,3.433572,1.628522,0.237305,0.279785,-0.401367,0.18811,-7.831496,1.356789,3.655685,1.608705,-6.663028,-0.3479,0.314453,-0.25,7.980884,-19.097271,3.868431,5.248426,-2.874754,-3.548608,-0.376221,0.437988,-0.136475
-5.866238,11.951707,11.30956,-3.719553,-0.685011,-1.95691,0.078125,0.723145,-0.278564,-11.424483,7.049409,3.065803,1.66961,-0.788652,1.816556,0.540283,-0.217773,-0.011475,-2.575474,-3.384004,11.714194,5.145108,-1.76669,1.46385,0.227783,0.229736,-0.471191,6.824869,-10.290344,2.829368,2.492457,0.857271,-6.724417,-0.410889,0.231445,-0.293213,5.851782,0.688338,4.762817,3.950853,-1.354483,-2.652812,-0.411865,0.384766,-0.174805
6.908609,-22.660157,-2.014095,-2.050776,-2.259321,-3.525034,0.011719,0.720703,-0.24585,-12.303231,3.629552,1.734939,1.267384,-0.373543,1.894229,0.529053,-0.243652,-0.013672,-1.141768,-14.743583,5.468025,3.041743,1.888712,1.238725,0.254883,0.186035,-0.486572,10.370336,-7.241251,1.97665,3.407702,2.43601,-5.336832,-0.437988,0.137939,-0.341553,5.103156,-1.673869,1.838565,-4.478159,-1.924816,-1.259475,-0.428223,0.371826,-0.091064
-3.655266,-5.650016,2.015127,5.896613,-1.028358,-0.737319,-0.003418,0.670898,-0.305664,-7.782198,3.928988,4.022246,1.616827,-1.933241,2.45003,0.51709,-0.273682,-0.026123,-5.563068,-13.201125,6.4922,5.434303,-0.360304,-0.087672,0.254639,0.128662,-0.51709,1.746363,-2.638375,7.072257,2.267418,1.946488,-3.139168,-0.435059,0.08252,-0.36084,6.451281,-16.505855,0.705155,-4.752369,-1.732731,-0.498383,-0.424072,0.373047,-0.007568
8.234298,7.393475,5.812943,-2.324253,-2.968417,-3.144262,-0.072754,0.675781,-0.25293,-8.2863,5.962346,5.777274,1.425821,-1.279665,2.354573,0.510742,-0.311035,-0.034912,-2.878159,-1.457659,10.252921,3.975109,1.085021,0.31538,0.264893,0.081299,-0.532227,12.690526,1.065426,2.949267,2.334832,-1.824927,-1.936461,-0.468262,0.038086,-0.349365,8.322707,-16.157346,1.844462,0.414243,-0.404228,-1.794709,-0.444336,0.350342,-0.005615
1.780953,-15.138241,-0.638387,-4.683647,-1.477857,-1.152681,-0.094727,0.698975,-0.19043,-8.409914,6.580664,3.428712,-0.593464,-3.355881,2.723924,0.484619,-0.351562,-0.091797,-11.23161,-3.063787,10.439315,-0.152423,-0.516859,1.805134,0.264404,0.065186,-0.552246,19.659957,4.559382,2.776529,2.278274,3.614819,-0.750383,-0.433105,-0.000732,-0.407959,6.99969,-7.501894,3.493827,0.003981,-0.446755,0.454846,-0.432373,0.345947,-0.001953
9.074009,-8.667468,1.083552,1.254427,-2.313249,-1.962776,-0.141602,0.67749,-0.189453,-3.457671,3.934013,-0.558537,-0.537249,-2.574135,2.119016,0.458252,-0.37793,-0.123047,-3.275832,-3.620748,9.629605,0.730399,-1.847677,0.53051,0.234375,0.054932,-0.57666,5.563214,3.82218,6.725018,0.333842,5.672517,1.510539,-0.376953,0.015625,-0.470459,10.066212,-8.853144,2.319308,-4.071267,0.375152,-0.161888,-0.437012,0.343018,0.032227
-0.26822,-4.098634,1.04577,-2.702967,-1.540939,-0.434219,-0.159424,0.688965,-0.128418,-7.027027,7.764898,2.055944,-0.434656,-2.8649,2.627254,0.428955,-0.412109,-0.166992,-2.510776,4.373117,10.082065,-0.135903,-0.774808,0.099311,0.219971,0.060303,-0.581299,3.829768,0.996519,6.772985,-1.14855,3.04514,2.610942,-0.33667,0.051758,-0.486572,4.835911,-16.570856,-0.651016,-2.78702,2.153536,1.347272,-0.424805,0.36084,0.04248
6.732079,-12.762023,-2.834436,-1.412825,-2.733541,-0.772435,-0.184082,0.681885,-0.089844,-0.382179,5.861585,3.112763,-3.132776,-3.057543,2.54854,0.391846,-0.414551,-0.232666,-1.957258,3.609741,10.246519,-4.30141,-1.51334,0.370748,0.196045,0.114014,-0.588379,5.088258,-1.283156,8.252135,-1.891018,3.928399,2.803872,-0.283447,0.095947,-0.518066,1.913827,-13.666142,0.961155,1.244502,0.755197,-0.408723,-0.430908,0.348633,0.015381
2.768538,-9.458421,1.261336,0.343607,-1.085868,0.123014,-0.180176,0.678955,-0.077881,-1.455911,1.612,3.333154,-1.928385,-2.112823,3.212562,0.348389,-0.438477,-0.269531,0.327207,-4.808396,8.166404,-4.321134,-1.565311,0.091858,0.180908,0.17334,-0.579102,6.398389,-2.565849,6.760729,-2.02353,2.706718,2.633578,-0.22876,0.138916,-0.524658,8.292735,-7.968113,2.20137,0.561686,0.722609,0.601865,-0.415771,0.352783,0.007812
6.074327,-9.044386,2.479967,-0.206482,-1.132238,0.483147,-0.183594,0.687012,-0.071045,-2.460363,5.535451,5.592341,-0.745155,-1.727777,3.063351,0.299072,-0.464355,-0.300293,-3.210102,-1.363432,8.760294,-1.117693,-1.095621,-0.425707,0.158691,0.198242,-0.594482,3.900093,0.374686,5.017363,-1.6161,5.224934,2.311557,-0.145752,0.178955,-0.550049,2.63473,-9.458091,1.770271,-0.228807,1.897373,0.488048,-0.417236,0.363525,-0.019043
3.092658,-8.903771,2.782717,-0.225579,0.120029,0.126962,-0.183594,0.697021,-0.066406,-5.090867,8.086692,6.070025,-1.936757,-1.24013,3.705348,0.236572,-0.47583,-0.333496,-2.223988,4.991682,9.273828,-3.586043,-1.967725,-0.453724,0.12207,0.259766,-0.576416,-6.809692,-0.068979,5.507203,-4.69734,5.026069,2.466311,-0.061035,0.262939,-0.527832,2.518388,-8.653028,2.472101,0.256217,-0.937533,0.3464,-0.419434,0.379639,-0.004639
5.24905,-10.530559,-0.514476,-0.837737,-0.212822,0.652403,-0.182617,0.695557,-0.047607,-3.611174,5.319414,5.036069,-2.546574,-1.5365,3.695948,0.185791,-0.477051,-0.365723,-0.499976,-1.812698,5.707315,-5.442658,-0.460571,0.264468,0.114502,0.326416,-0.536133,-3.949673,-8.618016,3.748414,-4.443924,2.676827,1.765861,-0.014404,0.31958,-0.49292,7.938769,-9.638977,1.518451,-1.077253,-0.17244,0.636482,-0.422119,0.378662,0.013184
6.227168,-13.052574,-3.293096,0.178959,-0.146257,0.536216,-0.178711,0.700928,-0.053711,0.666161,3.197479,4.234499,-1.495183,-1.058354,3.647904,0.130615,-0.474609,-0.397217,-4.297521,-6.33427,4.912609,-2.860369,-0.917694,-0.503149,0.102539,0.367676,-0.522949,1.124031,-7.049879,6.327405,-1.578993,4.174217,0.730717,0.05127,0.340332,-0.481934,5.789019,-15.397523,-0.952626,-1.042686,0.574688,0.885464,-0.411865,0.391113,0.013672
6.702181,-11.119136,-3.972141,2.844267,-0.294432,1.143175,-0.164795,0.705566,-0.078369,1.911563,3.371047,5.727227,-0.335878,-0.577635,3.349915,0.068848,-0.490479,-0.401367,0.379125,-3.456144,3.89448,-1.739492,-1.533446,-0.585528,0.077393,0.399658,-0.500977,-5.499121,-5.810047,9.301211,-3.273032,4.520215,0.665527,0.114014,0.388916,-0.423584,7.048048,-15.86896,-2.856038,3.310806,0.415981,0.233177,-0.411133,0.406006,-0.022217
7.06166,-4.076949,1.101166,2.082464,-0.186507,1.181248,-0.152344,0.712158,-0.109375,3.326887,4.909425,4.947489,0.364341,-0.039539,3.214337,0.029297,-0.504883,-0.408936,0.953973,-4.515385,2.009716,-2.189954,-0.87445,-0.634288,0.057617,0.434814,-0.487549,-5.075627,-13.327413,4.811682,-2.496937,1.115532,-0.017022,0.124512,0.419678,-0.404297,8.510064,-6.656039,0.489952,4.452598,1.332098,0.062998,-0.411377,0.405762,-0.097168
4.279024,-5.997859,2.026197,-0.261733,-0.041476,1.021782,-0.135254,0.721191,-0.102051,-0.246094,8.742998,6.460484,-0.076438,0.640347,3.093868,-0.000732,-0.502197,-0.405762,-0.713708,-2.256542,3.876404,-0.999824,-0.486269,-0.927754,0.046143,0.453857,-0.477051,-0.721594,-3.582172,7.890418,1.00718,1.240794,-1.682456,0.122559,0.418945,-0.414307,6.217648,-3.570012,3.707256,0.169905,1.705244,1.249961,-0.38623,0.424316,-0.118652
6.200523,-10.582039,1.763219,-0.760334,-0.060908,1.272901,-0.129639,0.733887,-0.093262,3.638503,6.051181,5.469717,-2.843957,0.357697,3.064402,-0.033936,-0.4729,-0.440674,1.065557,0.884346,4.524454,-2.757778,-0.984576,-0.955732,0.016113,0.488037,-0.44043,-3.747868,2.792705,7.908895,-3.288634,-0.215917,-0.754726,0.099854,0.457275,-0.370117,5.44476,-11.5193,3.31169,-2.831622,1.412473,1.486308,-0.377686,0.460693,-0.104492
6.360206,-11.857753,2.017977,-0.016205,1.071157,1.682353,-0.098145,0.752197,-0.094482,2.859666,-1.416906,4.464917,-2.046438,1.487075,3.702289,-0.06665,-0.443115,-0.468506,1.579264,-5.757937,2.116327,-4.264575,0.04632,-0.660203,0.009766,0.537109,-0.377197,1.696665,-9.964535,-0.318343,-5.528491,-1.233482,-0.362382,0.089355,0.514648,-0.291504,4.90697,-17.821137,1.179802,-0.269384,0.69437,1.793939,-0.351074,0.489014,-0.10376
5.317643,-12.202998,1.134297,1.016651,1.525483,2.204093,-0.070312,0.75708,-0.127441,0.628086,0.263019,5.142143,0.897313,1.317812,3.344181,-0.095703,-0.447754,-0.463623,-4.037814,-10.876673,1.558119,-1.592623,-0.209615,-1.276833,-0.018311,0.546631,-0.362549,-1.228266,-14.351441,-2.501223,-0.09467,1.901463,-1.482428,0.076172,0.514893,-0.297607,6.086738,-14.282638,2.875657,3.063645,-0.113753,1.009638,-0.348145,0.488525,-0.157959
6.118014,-8.872792,-0.883971,2.723073,2.164897,2.599863,-0.010254,0.765137,-0.188477,1.994268,2.881604,5.684587,0.423478,1.685387,4.042345,-0.119873,-0.438721,-0.4646,-0.7723,-7.376438,1.650159,0.703985,-0.206362,-1.553043,-0.035645,0.549805,-0.375732,-7.887584,-3.265249,2.390032,1.936688,0.801407,-1.873252,0.062988,0.508301,-0.332764,8.485839,-9.770167,3.131568,3.15856,0.207238,1.468259,-0.31958,0.499756,-0.219727
5.163436,-0.652071,0.91397,1.357283,2.510242,2.787141,0.046143,0.762695,-0.215576,0.159522,1.922116,4.641158,0.978739,1.66599,4.139475,-0.144775,-0.43457,-0.454102,-4.212152,-4.980003,-0.321143,0.588702,0.596815,-1.26167,-0.047363,0.540039,-0.379883,-3.858369,-3.485251,1.898184,-1.160941,-0.933775,-0.930274,0.04126,0.515869,-0.307373,9.507952,-7.888433,2.674761,1.754711,0.855544,1.745457,-0.289307,0.51001,-0.253662
0.507162,-4.375234,1.318981,-1.919798,2.076228,2.634532,0.093506,0.791016,-0.189209,1.450861,7.739839,7.385865,0.738904,1.828426,3.231828,-0.161865,-0.422607,-0.462646,-2.98612,-1.376183,-3.748539,0.284994,-0.731608,-1.706587,-0.087891,0.545654,-0.373779,-3.322209,-6.883585,1.322357,-0.432849,-0.411681,-1.776526,0.002197,0.527588,-0.298828,7.924615,-7.29823,0.81237,0.324228,2.635168,2.458288,-0.240479,0.539307,-0.285156
0.498228,-9.916663,1.114407,-2.63784,0.871295,2.379105,0.12915,0.826904,-0.151367,0.067243,5.097716,9.43209,-3.40955,1.990202,2.151001,-0.164551,-0.383301,-0.502197,2.036607,-3.283483,-4.93254,-2.760767,-0.912848,-1.077888,-0.115479,0.577148,-0.327148,-1.328213,-3.129138,1.060644,-0.419471,-2.03587,-1.74632,-0.047119,0.543701,-0.291016,3.365574,-6.966893,2.388802,-1.243939,2.467432,2.948368,-0.181641,0.58667,-0.288574
0.245279,-12.017593,1.173923,-1.659667,0.914006,2.611741,0.17627,0.833252,-0.125977,0.29018,-5.089833,7.256805,-2.418032,1.632351,1.51667,-0.1521,-0.324707,-0.528564,-0.243912,-12.330941,-6.209004,-1.817586,-0.950064,-1.148191,-0.139648,0.583252,-0.295166,1.362566,-6.642551,-3.131381,-2.111339,-1.663966,-1.145988,-0.075928,0.557129,-0.253906,4.621,-10.652323,1.520424,-1.917769,2.031226,2.790604,-0.115479,0.618164,-0.275146
2.71503,-9.184856,1.866185,-1.364709,0.950763,2.565249,0.226318,0.838379,-0.102539,1.687947,-2.254817,8.085589,1.025163,2.03871,0.809282,-0.136963,-0.334473,-0.517822,4.037773,-9.119562,-5.70203,1.508105,-1.427611,-1.8567,-0.169922,0.562012,-0.307861,-1.059731,-10.753172,-2.497108,0.143743,-1.947375,-1.568587,-0.105713,0.549805,-0.251709,4.096541,-10.854943,0.822657,-0.038934,1.683053,2.892075,-0.043701,0.629883,-0.289062
1.444339,-9.201388,-0.785669,-1.043937,1.369849,2.848705,0.272217,0.846191,-0.085205,-0.56012,1.377173,10.023403,0.19549,1.793846,0.588252,-0.124023,-0.328369,-0.51416,3.146187,-5.555017,-1.939264,0.204732,-0.844657,-0.848882,-0.196045,0.558594,-0.298096,1.04419,-4.187278,-0.760802,1.916662,-3.217104,-1.963608,-0.168213,0.5354,-0.262451,5.408451,-7.613144,1.939171,0.46278,1.181409,2.358433,0.006592,0.642822,-0.301514
2.024479,-7.097489,0.057292,-1.417605,1.339769,2.769733,0.317871,0.842041,-0.056152,1.76563,0.245147,10.248348,-0.419049,1.221335,0.451779,-0.105469,-0.317627,-0.52124,3.406256,-9.324359,-1.556897,-0.413745,-1.592394,-0.755716,-0.218018,0.555176,-0.278809,2.70606,-1.608712,0.386637,-0.410186,-3.022943,-0.770528,-0.206787,0.533936,-0.238037,5.397635,-7.192243,0.754084,-0.794082,1.893492,3.094765,0.07373,0.650146,-0.292725
-0.127994,-9.929369,0.200646,-2.180771,1.762693,2.63342,0.362549,0.843018,-0.01001,1.084867,-0.491033,9.66578,-0.172291,2.064615,0.388944,-0.084961,-0.305664,-0.518799,2.639769,-7.461997,-1.726472,1.254336,-1.189459,-0.769003,-0.233887,0.541504,-0.280273,1.48746,-7.675761,-1.663299,-1.183571,-2.814025,-0.707429,-0.231934,0.543213,-0.194824,1.487546,-7.53702,0.790843,-0.396944,1.605883,2.603521,0.137207,0.661133,-0.285156
-0.259602,-9.370945,0.763508,-1.278585,1.970356,2.517448,0.411621,0.827148,0.01709,0.231108,1.436688,9.559861,0.572718,1.780599,-0.076228,-0.068115,-0.308594,-0.513428,2.112657,-3.890531,-0.370225,0.214879,-2.177143,-0.55667,-0.251953,0.5271,-0.262451,1.807432,-5.84554,-1.495633,1.340711,-2.700016,-1.01692,-0.26123,0.521973,-0.196289,2.349906,-4.733387,3.298591,-0.173843,0.472399,2.425314,0.189453,0.647217,-0.282227
-1.86262,-8.861665,-0.539969,-1.581737,2.188613,2.350606,0.444824,0.81665,0.053711,1.13042,2.528224,9.556993,-0.143732,2.356897,-0.238934,-0.039795,-0.306152,-0.511963,3.695705,-6.869073,-2.697084,-0.69677,-1.849934,-0.132039,-0.262939,0.529541,-0.233887,1.043359,-1.099605,-1.175413,0.120098,-2.488256,-0.471025,-0.281982,0.522217,-0.175781,2.227349,-6.796814,1.68626,-1.556521,1.093744,2.49008,0.242432,0.655029,-0.254883
-1.238278,-8.311311,-2.085873,-1.106386,2.213163,2.236766,0.484375,0.796875,0.091309,-1.276345,0.32005,10.116777,-0.368696,2.375104,-0.66286,-0.008301,-0.297607,-0.498535,1.280931,-7.263808,-3.413717,0.251291,-2.002323,-0.269311,-0.263184,0.510742,-0.210938,-0.000946,-4.976992,-2.706357,-1.482184,-2.744233,0.024386,-0.285645,0.522217,-0.124023,-0.640342,-8.313784,1.562907,0.105755,0.780678,2.165817,0.292725,0.637939,-0.253174
-4.330819,-9.155324,-0.652943,-2.070703,2.390057,1.840865,0.501953,0.789307,0.140381,0.54037,1.242813,7.777372,0.455743,2.319485,-1.176541,0.025879,-0.286133,-0.490723,4.552022,-5.809873,-3.773526,-0.797162,-2.810299,-0.142302,-0.272217,0.516113,-0.164551,1.452433,-7.849537,-2.735527,-0.744316,-3.228818,-0.155842,-0.298096,0.533203,-0.075195,0.6037,-4.438106,2.84583,0.1119,0.835846,1.766961,0.325928,0.635498,-0.242188
-1.389511,-13.747921,-5.59421,0.668188,1.084233,2.152446,0.529785,0.772705,0.123535,-0.026149,1.512644,10.546365,1.422419,2.303466,-1.762478,0.063477,-0.283447,-0.468018,7.7536,-11.084628,-3.626556,-1.073187,-2.160897,0.307062,-0.265869,0.505127,-0.141602,2.384109,-9.209929,-6.667707,-0.055119,-3.14307,-0.089072,-0.300537,0.531006,-0.057861,-0.876788,-9.479753,-0.522562,-0.682266,1.781103,1.678858,0.369141,0.624023,-0.234863
-2.400958,-3.913167,-2.355605,0.670337,1.656214,1.700155,0.546631,0.754395,0.132568,-1.172642,4.654664,12.460237,0.876695,2.191031,-1.539947,0.0979,-0.298828,-0.447754,8.013813,-9.548103,-5.122033,0.65877,-1.492347,-0.21943,-0.264893,0.48877,-0.133301,0.209825,-5.901369,-6.317939,0.092668,-4.00153,-0.511999,-0.312744,0.522949,-0.018311,-1.783101,-8.807829,-0.201688,2.031902,1.458769,1.098887,0.392578,0.603027,-0.256836
-2.29887,-9.017054,-3.089469,-1.486429,1.003885,1.173326,0.563477,0.738281,0.1604,-0.619964,2.10178,13.257324,-0.138577,1.525898,-1.940684,0.125977,-0.289062,-0.433105,7.963401,-7.769571,-4.065049,-0.680433,-1.401513,0.626656,-0.237793,0.474854,-0.111084,6.148179,-7.25926,-6.862128,-1.040972,-5.095769,0.251231,-0.291016,0.520752,0.03833,0.473397,-1.593482,0.300709,2.008144,2.249939,0.569523,0.427002,0.579834,-0.264648
-4.834464,-9.307109,-3.469263,-0.432303,1.047798,0.712277,0.561523,0.726074,0.189697,-0.355658,4.831011,12.972438,0.595153,2.091142,-2.150712,0.15625,-0.279297,-0.401611,7.948061,-8.508115,-3.512196,-1.87252,-1.559997,0.185614,-0.230225,0.45752,-0.054443,4.609229,-6.613939,-8.231611,-0.991843,-2.946488,0.237251,-0.27832,0.512207,0.096436,-3.762971,-1.074185,1.413795,-1.81634,3.090392,1.043283,0.455078,0.577637,-0.187256
-1.767306,-10.586959,-4.407413,-0.981513,0.638357,0.18154,0.554932,0.729736,0.195557,-4.31303,3.732086,11.372418,-1.299035,1.957879,-1.885325,0.184326,-0.252197,-0.402588,7.399034,-11.461752,-4.844123,-1.785821,-0.901675,0.898532,-0.203369,0.452393,-0.041748,-4.475539,-8.122129,-10.257747,-1.536009,-3.722979,0.937608,-0.24585,0.516846,0.133301,-2.88663,-9.844074,-1.390193,-2.268507,1.962206,0.441276,0.468018,0.593506,-0.146729
-3.316648,-10.657769,-4.275825,0.58234,1.058095,0.329429,0.55957,0.71875,0.193359,-3.768164,-0.18326,10.194364,-0.35834,1.945121,-1.537109,0.210938,-0.248291,-0.392334,8.919395,-11.720674,-3.645768,-1.11894,-0.444071,0.365861,-0.175537,0.43042,-0.027588,0.261791,-10.282851,-10.695194,-1.174639,-5.78312,0.114063,-0.205811,0.50293,0.179932,-1.628906,-9.819445,-2.107428,1.412479,2.730259,-0.153146,0.483887,0.581055,-0.140137
-1.82464,-6.851416,-3.49178,0.439907,1.020604,-0.057208,0.555664,0.717285,0.202393,-3.429423,2.361661,10.31547,1.350858,1.52449,-1.218651,0.221924,-0.246094,-0.370117,9.911649,-11.654736,-3.852229,-0.111541,0.190892,1.198771,-0.144287,0.410889,-0.026123,4.198006,-10.939606,-11.610218,0.311387,-4.298434,0.488716,-0.163574,0.493408,0.197266,-3.421482,-3.933669,-1.865944,1.080856,2.219615,-0.492861,0.487061,0.57959,-0.121826
-5.358677,-9.814712,-4.819429,0.044174,0.692832,-0.212314,0.543945,0.709961,0.199463,-3.39246,5.01622,10.66016,0.372977,1.818154,-1.198619,0.234619,-0.242188,-0.343262,6.161129,-8.247715,-4.561344,0.836392,0.972492,0.723064,-0.123291,0.388672,-0.049072,-2.130622,-7.296688,-10.468677,1.279041,-3.507635,-0.353335,-0.14624,0.477295,0.178711,-2.183945,-6.083374,-2.296907,-0.863015,2.564999,-0.435429,0.479004,0.581055,-0.08374
-5.232123,-8.504475,-3.543609,0.983451,0.389403,-0.564279,0.536133,0.71875,0.18335,-6.446943,2.561615,9.246895,-0.436736,1.747806,-1.43884,0.258789,-0.229492,-0.320312,2.019335,-6.311599,-3.235614,-0.986833,0.657679,1.21415,-0.090332,0.378418,-0.057129,-2.727407,-6.147341,-9.484529,-0.358037,-3.862842,0.937407,-0.100098,0.473389,0.175781,-5.723684,-9.200942,-2.095222,0.079122,3.08705,-0.672337,0.476562,0.591309,-0.060791
-3.634589,-9.816249,-3.180017,0.192808,0.048701,-0.82901,0.516602,0.722168,0.177979,-6.262761,0.362092,8.358997,0.220206,1.772329,-1.624651,0.269287,-0.232666,-0.300537,4.062576,-11.298971,-4.461436,-2.122004,0.516384,1.157225,-0.063965,0.358398,-0.047607,-2.973663,-10.985746,-10.292122,-0.574883,-2.955523,0.720613,-0.073975,0.457275,0.169678,-4.230224,-8.795542,-2.40389,0.786689,1.626046,-1.088065,0.452393,0.601318,-0.052002
-4.270131,-10.509692,-4.103822,1.341641,0.406973,-0.772978,0.510742,0.720459,0.160156,-5.897596,3.150906,8.447192,1.848267,1.70379,-1.706143,0.297119,-0.234375,-0.275146,6.05903,-12.645821,-1.382896,-0.352355,0.734675,1.118394,-0.031494,0.333008,-0.063721,1.018217,-10.607019,-9.46503,0.696933,-3.277362,0.758096,-0.041992,0.437256,0.138184,-1.503196,-9.042728,-3.233243,0.606168,2.183179,-0.998848,0.445557,0.5979,-0.041504
-5.105886,-9.161693,-3.360512,1.073233,-0.542348,-1.269923,0.495361,0.725342,0.143066,-5.527002,6.630591,10.512023,1.186383,1.904195,-1.554404,0.306885,-0.233154,-0.240723,8.001498,-10.075022,-1.829351,0.144484,1.131421,1.14685,-0.005371,0.312256,-0.083496,5.415319,-11.39948,-10.981119,0.311738,-1.928925,0.248499,-0.031738,0.420166,0.112549,-3.781257,-9.472964,-4.516144,1.192628,2.438935,-1.253572,0.424805,0.602051,-0.036621
-4.812826,-11.285831,-1.826575,2.268379,-1.028344,-1.484927,0.480469,0.73877,0.104248,-9.640156,1.614017,8.489813,0.42745,1.825077,-1.783374,0.325684,-0.221924,-0.213379,3.194142,-10.789095,-4.719869,-0.258427,1.430809,1.603854,0.027344,0.304932,-0.09668,-1.668267,-11.272874,-10.009782,1.982557,0.374627,0.076198,-0.031494,0.415283,0.06665,-3.655441,-8.685598,-4.07058,2.536035,1.74764,-1.5105,0.399658,0.611572,-0.057861
-0.504587,-6.572176,2.134467,2.676373,-1.165384,-1.879203,0.454346,0.750244,0.060303,-8.011726,-1.494999,7.115926,2.706936,0.984556,-2.230255,0.346924,-0.221191,-0.176758,3.53343,-11.824304,-5.047871,-0.399542,0.602454,1.397029,0.050293,0.298828,-0.12085,-3.607846,-7.435566,-6.575195,1.208439,-1.13939,0.37856,-0.032715,0.409668,0.026123,-2.848377,-6.0414,-1.306372,2.650336,1.012204,-1.6418,0.370117,0.618164,-0.096924
-1.993195,-7.43658,2.143103,0.649636,-0.812478,-1.76671,0.419434,0.756592,0.034424,-8.004457,4.228985,5.742149,4.508226,1.097083,-2.655172,0.362549,-0.216309,-0.143799,4.004158,-11.033834,-2.464356,-0.404045,1.148846,1.069007,0.062744,0.295898,-0.150635,2.517708,-12.523193,-7.092371,-0.784913,-0.702592,1.437327,-0.036377,0.403564,0.002686,-2.517818,-6.847054,-0.382209,0.505848,-0.016436,-1.457589,0.332764,0.624023,-0.113037
-0.717251,-8.751917,0.584365,0.77829,-0.847631,-1.710125,0.402832,0.753662,0.029297,-8.668662,6.826067,6.17163,2.0054,0.4669,-2.524509,0.388428,-0.198486,-0.11084,3.724408,-10.403851,-0.232306,-1.117594,0.536888,0.896356,0.088379,0.295166,-0.150635,1.945041,-14.785008,-6.734915,1.19371,0.242664,0.75408,-0.032959,0.39624,-0.02124,-2.206256,-10.463449,-2.63228,0.054729,-0.417771,-1.331839,0.313965,0.625,-0.109375
-1.783094,-7.737985,1.492534,0.314244,-0.728706,-1.525365,0.373291,0.754639,0.015381,-9.309106,0.400602,4.878907,1.493447,0.339808,-2.271674,0.414307,-0.185791,-0.099854,5.602801,-12.729688,-2.647773,-1.458066,0.789346,0.876247,0.097168,0.308105,-0.161133,0.156403,-8.993553,-6.042009,1.269481,-0.042152,0.837921,-0.042236,0.394043,-0.058105,-4.519851,-9.449867,-2.427064,1.392429,-1.446986,-1.428954,0.271484,0.624023,-0.147217
1.471494,-7.867352,1.475085,-0.499428,-0.426343,-1.472269,0.350342,0.751709,0.030273,-9.165298,4.173343,5.897346,3.386746,-0.366177,-2.32341,0.418701,-0.164307,-0.083252,3.20955,-12.720753,-2.711979,-0.157794,0.561411,0.789253,0.105469,0.31958,-0.164551,1.620679,-11.032052,-7.401168,-0.533265,-0.031277,1.138646,-0.046143,0.401123,-0.056396,-1.366696,-5.448643,-0.635443,0.220612,-3.413529,-1.500639,0.222656,0.624512,-0.156006
-1.674334,-9.732028,1.32484,-2.065729,0.612732,-1.306919,0.334229,0.753418,0.059326,-8.364028,7.640948,6.294794,-0.550761,-0.064573,-1.620586,0.429199,-0.147705,-0.073486,10.02923,-8.9082,-0.345174,-0.707726,0.117963,0.409287,0.115967,0.342773,-0.166504,-4.322512,-13.083105,-7.496751,0.970276,1.223655,0.779326,-0.044189,0.417236,-0.075928,-0.208071,-7.999013,0.070122,-3.103621,-2.884304,-1.072154,0.189941,0.637939,-0.115479
-3.092664,-14.393822,-1.694646,0.062888,1.038288,-1.250703,0.316162,0.743652,0.056152,-12.183657,-2.196865,1.734824,-0.440605,-0.235308,-0.718124,0.435791,-0.13208,-0.080566,5.06027,-12.570004,-2.672992,-1.886549,3.186771,1.534573,0.143066,0.359375,-0.147461,-5.673764,-7.879669,-2.648003,1.051954,-1.538943,0.772426,-0.056152,0.422607,-0.091797,-3.918316,-14.502306,-2.163502,-0.840269,-4.172752,-1.265985,0.143799,0.632324,-0.119873
-7.076758,-6.487706,-2.025499,0.903746,0.312269,-1.326049,0.294922,0.73877,0.040283,-11.447235,2.233865,2.53191,3.482237,-0.669173,-1.2155,0.446289,-0.123779,-0.07373,-1.210379,-14.03728,-1.249136,-0.44551,1.06099,0.631984,0.150146,0.383057,-0.139893,3.456834,-11.920597,-5.996877,-1.045892,-1.003745,1.270383,-0.05127,0.443604,-0.081543,0.615902,-8.431808,-2.26506,1.933578,-4.775026,-2.197852,0.081543,0.623047,-0.163086
-0.91473,-7.873185,-3.124059,-0.674397,-0.786637,-1.778131,0.270752,0.743652,0.063721,-10.067751,7.547335,5.049059,1.700877,-1.120229,-0.865667,0.453857,-0.112549,-0.076172,4.233281,-11.412596,-3.604389,0.560538,2.383596,1.339364,0.167725,0.405518,-0.113525,-0.955735,-16.893608,-6.310453,1.031643,1.10322,0.523918,-0.049072,0.459229,-0.077637,2.536289,-3.563985,-0.145233,-0.500946,-3.591966,-1.049444,0.040039,0.625488,-0.135498
-0.760333,-6.285144,-1.851586,-0.651,-1.234136,-2.01453,0.243408,0.733643,0.073242,-7.834332,1.343434,5.268433,-0.824407,-1.034202,-1.487403,0.452637,-0.085938,-0.098877,-3.393254,-9.03001,-1.947925,0.119199,1.765008,0.821621,0.180664,0.412598,-0.098877,-1.730745,-10.7159,-4.585433,2.245121,0.896775,-0.414518,-0.052246,0.462646,-0.092529,3.487094,-7.812373,0.395913,-3.143964,-2.893255,-1.220809,0.004395,0.615234,-0.073975
2.84478,-12.425338,-2.925829,-1.734525,-0.946496,-2.214848,0.209961,0.730957,0.094971,-9.913954,-4.439921,3.820666,2.27277,-0.66424,-0.94907,0.46875,-0.088135,-0.105225,4.952449,-11.447777,-0.743359,-0.965525,1.258863,1.125591,0.1875,0.427246,-0.078125,0.862586,-8.181341,-3.101467,0.293576,1.285764,0.280594,-0.04834,0.480957,-0.087646,3.592979,-12.045239,-1.230215,-1.345714,-2.153661,-1.390863,-0.034668,0.610352,-0.051025
-1.680421,-11.683508,0.469095,0.426006,-0.349141,-2.088125,0.187744,0.72583,0.087402,-10.624888,5.965129,4.86069,3.957272,-0.855603,-0.742981,0.466553,-0.075684,-0.104248,1.920824,-14.74353,0.643605,0.40333,2.657683,1.196906,0.203857,0.440186,-0.067139,0.480315,-13.320656,-4.241483,-0.117586,1.7016,0.231165,-0.036865,0.495361,-0.082031,0.400779,-8.449371,1.583102,-0.785036,-2.376025,-2.124379,-0.076172,0.595703,-0.028076
-0.407355,-7.120876,2.234744,-1.150324,0.154549,-2.105837,0.153076,0.709717,0.114502,-9.817089,7.882492,4.564326,-1.217161,-0.879929,0.316422,0.467285,-0.077637,-0.124756,2.232222,-11.357899,1.718168,1.909433,2.028096,1.022582,0.206299,0.443359,-0.0625,1.363503,-13.83796,-4.699772,1.314604,1.480886,-0.843973,-0.049072,0.497314,-0.080078,2.212968,-11.842943,1.180981,-3.848632,-3.972175,-0.919094,-0.102295,0.574707,0.05835
-2.297366,-14.853965,-2.171628,-1.800874,0.628783,-1.849083,0.131836,0.70874,0.134766,-9.81309,-1.788669,1.271704,-1.86716,-1.045546,0.711163,0.462646,-0.074219,-0.130859,2.286017,-9.770919,1.762219,1.024228,2.852697,1.288958,0.220703,0.460449,-0.052246,4.387188,-9.864657,-4.175936,1.482589,2.327535,-1.350181,-0.058838,0.510742,-0.091309,2.968537,-18.477021,-0.945005,-2.924165,-3.251566,-1.204518,-0.121094,0.565186,0.116211
-0.760951,-10.975884,-4.046225,1.505145,0.212766,-1.218344,0.121582,0.703857,0.115723,-7.37188,0.147862,3.745409,1.170428,-1.52591,1.028628,0.456299,-0.089844,-0.151123,-0.399585,-11.545873,0.715759,0.776712,2.607745,1.037071,0.234375,0.463623,-0.041992,1.537956,-8.339301,-2.916736,0.596669,3.052751,-0.593482,-0.04834,0.513184,-0.094727,-0.476416,-15.966469,-1.263681,0.749628,-3.37303,-1.32519,-0.132568,0.549316,0.119141
1.812902,-8.164267,-4.322774,-0.767579,0.231882,-1.23333,0.098633,0.691895,0.12085,-8.080412,5.896889,7.167824,-0.607001,-0.832883,1.489767,0.452881,-0.101562,-0.163818,-1.106378,-10.160137,0.748165,0.961725,2.744237,0.650098,0.230469,0.466309,-0.040771,3.983579,-8.926713,-4.077966,0.215997,2.508271,0.011651,-0.047852,0.517822,-0.097412,2.274162,-9.58383,-1.771766,0.348912,-3.805345,-1.365331,-0.152588,0.52832,0.128906
1.340211,-15.559636,-4.665328,-0.19513,-0.285518,-1.017133,0.08374,0.687012,0.128418,-11.159743,1.691418,6.283924,-2.596316,-1.339357,1.431363,0.439453,-0.098145,-0.203613,-3.336171,-10.944419,1.792851,-0.544802,2.422066,0.775689,0.237793,0.470947,-0.00708,5.229947,-11.528528,-3.792735,-0.299714,4.823334,0.867553,-0.022461,0.52832,-0.082031,3.485886,-12.812204,0.920384,-2.554179,-2.267222,-0.608539,-0.155762,0.510498,0.179932
2.014029,-10.803269,-2.21472,1.592776,0.276258,-0.784335,0.073242,0.696533,0.115234,-8.227489,0.004459,5.680501,-0.854143,-1.391682,1.745459,0.438477,-0.111816,-0.219482,-1.309784,-14.104846,0.289939,-0.196691,2.033123,0.615754,0.23877,0.488281,0.014893,-1.816328,-13.004402,-2.271271,0.837981,5.446007,0.810782,0.00708,0.540527,-0.08252,2.505392,-17.709602,-0.122728,-0.760975,-1.997108,-0.863137,-0.160645,0.506104,0.208984
1.578324,-10.048739,-2.563062,-0.099999,-0.263476,-0.525117,0.068359,0.689453,0.114502,-7.4962,1.136757,7.690475,-1.765672,-1.653532,1.878554,0.423584,-0.119385,-0.248535,-1.222136,-11.597432,-1.40052,1.394367,2.34885,0.630955,0.23999,0.484619,0.004639,0.266751,-9.49622,-1.135214,1.021501,4.276284,0.256631,0.020508,0.536133,-0.097412,2.593733,-14.030269,-0.117181,1.478291,-1.649736,-1.165711,-0.164795,0.496582,0.192139
3.680968,-14.112921,-3.875322,0.961711,0.188765,0.111214,0.059082,0.686768,0.107666,-6.813333,-3.650468,7.501048,-1.476969,-1.632455,1.821376,0.412842,-0.13623,-0.280762,-3.462797,-10.826814,2.207508,-0.100495,1.487432,0.660768,0.232666,0.481445,0.019531,8.394198,-13.195949,-2.201354,-1.040441,4.274266,0.721602,0.027588,0.537598,-0.069336,2.224253,-11.234981,-0.472532,0.759574,-1.398285,-0.832694,-0.178223,0.490723,0.195557
2.547568,-11.503387,-2.77428,1.818544,-0.091448,0.135472,0.057373,0.708252,0.082275,-9.628497,0.019555,8.127556,2.251258,-1.736122,1.682942,0.384277,-0.160889,-0.29834,-4.143839,-16.591039,1.165642,0.143872,0.208863,0.715169,0.236816,0.499023,0.014893,5.475602,-16.637529,-7.677993,2.075992,7.668972,0.317269,0.05249,0.548828,-0.091064,2.760079,-12.565045,-0.35744,0.430734,-0.73179,-1.159018,-0.191162,0.497803,0.189697
2.295127,-12.243999,-2.201064,1.0004,0.032305,0.327054,0.058594,0.700439,0.079834,-6.865467,7.378243,9.84862,0.464426,-2.09577,2.265738,0.361572,-0.187012,-0.31665,-1.153679,-12.95413,-1.350612,3.377892,0.725887,0.732613,0.237061,0.487793,-0.015381,-11.672613,-3.407505,-3.652058,5.337956,9.484729,-0.46302,0.068359,0.518555,-0.144043,2.152636,-13.202686,0.580385,1.072772,-0.434859,-0.996727,-0.200684,0.484863,0.190186
1.530756,-13.910484,-3.618431,2.240068,-0.205019,0.468952,0.063477,0.719238,0.049561,-6.813911,0.997359,6.824392,-1.556665,-1.647794,2.195573,0.338623,-0.19873,-0.356934,-6.584854,-4.933978,2.763958,2.090646,0.900973,1.069082,0.247314,0.496826,-0.041992,-3.549883,2.18616,2.30489,0.556233,5.615515,0.743977,0.100342,0.525391,-0.13916,1.830149,-12.916743,0.482169,1.500674,0.306195,-1.497783,-0.2229,0.496582,0.162598
2.932848,-8.489752,-2.128002,2.823048,-0.6197,0.916596,0.074707,0.733398,0.013672,-5.390131,-0.945325,8.661694,0.845688,-2.138416,2.057913,0.317139,-0.213867,-0.372314,-3.520391,-8.764744,1.15241,-1.642438,-0.946466,0.994874,0.255859,0.500732,-0.030029,0.096541,-10.87243,-3.639507,-2.179831,10.299343,3.181503,0.185547,0.527344,-0.07373,1.302819,-13.056212,-0.445039,1.804188,0.410282,-1.251562,-0.236084,0.503662,0.134277
4.400691,-7.185024,-2.122257,1.371446,-0.476403,0.662215,0.087891,0.744873,-0.010498,-2.832234,1.711969,10.895249,0.321075,-2.018936,1.896063,0.281006,-0.234619,-0.400879,-1.808777,-18.608339,-1.434338,-0.872227,-1.047695,1.084373,0.266113,0.503662,-0.033447,-13.202979,-18.130569,0.518682,1.852699,10.046912,2.479041,0.247559,0.513672,-0.061279,3.552831,-11.951052,-1.183889,2.119492,0.80053,-1.083196,-0.247559,0.516113,0.090576
4.974253,-11.316796,-3.587732,1.139463,-1.136031,0.859166,0.088867,0.741455,-0.024414,-0.475585,-3.013884,7.315108,0.587884,-2.74954,1.566,0.242188,-0.262207,-0.415283,-0.138531,-17.508028,-4.936616,3.930569,-2.908216,0.31064,0.255127,0.494141,-0.109131,-6.787065,-8.10826,7.082684,5.480986,7.735916,1.525527,0.27832,0.479004,-0.090088,3.775753,-12.278527,-1.380155,1.054789,1.972784,-0.40168,-0.263672,0.510986,0.060791
3.15271,-14.057315,-2.899175,3.418787,-0.924641,1.902305,0.11499,0.73999,-0.076904,0.541747,-0.080833,4.457855,5.091118,-1.677886,1.284927,0.209717,-0.313232,-0.38501,7.458453,-5.775843,-9.029172,6.012746,-0.483265,0.377109,0.255615,0.479736,-0.196777,-16.189465,-0.077799,0.930693,3.924721,5.950806,2.04522,0.326172,0.447998,-0.10083,3.187432,-18.515399,-3.72355,2.15695,2.854707,-0.64547,-0.272705,0.51416,-0.004883
0.154088,-6.444834,0.304247,3.866388,-2.122845,1.620396,0.118164,0.741211,-0.119873,-7.65402,13.490912,11.176838,3.993266,-2.081008,1.581659,0.180664,-0.377197,-0.374023,-12.021857,1.79519,5.519388,1.956663,2.189783,1.660353,0.275146,0.467529,-0.199707,-11.114063,-4.304493,9.213088,-1.053978,-0.023066,1.913577,0.345947,0.444092,-0.082764,1.97002,-13.673299,-2.186893,6.454907,2.602337,-1.012984,-0.287109,0.51001,-0.116699
1.969439,-5.803034,0.355929,1.762565,-1.514035,0.991184,0.136963,0.732422,-0.146729,2.431992,7.518925,9.008346,-2.104812,-1.828872,1.176828,0.147705,-0.358154,-0.4021,-6.800859,-6.846164,3.581277,-1.118574,-3.554835,0.565158,0.272705,0.466064,-0.216064,-2.675804,-14.690043,2.197327,0.969169,1.420784,1.971668,0.387451,0.417969,-0.087402,5.098757,-2.554936,1.237252,4.741645,2.591629,-0.598028,-0.27002,0.483398,-0.212402
0.121389,-4.340238,2.246941,0.571368,-1.940138,0.375032,0.128418,0.73999,-0.152832,-3.928683,-1.330593,8.492944,0.089157,-0.057715,1.692095,0.133545,-0.363525,-0.409668,3.206107,-6.675054,1.020642,1.356946,0.223866,1.01196,0.285645,0.46582,-0.234375,-7.127049,0.133368,6.573986,3.839867,2.776941,-0.135648,0.391602,0.412598,-0.108398,4.222804,-2.175557,1.845778,-0.607797,3.6095,0.669944,-0.236328,0.50708,-0.236572
2.164766,-10.33786,1.015246,-1.605683,-1.353118,-0.00095,0.114258,0.750732,-0.133545,0.210363,5.091111,7.887798,1.742764,-1.31949,0.668833,0.109375,-0.38501,-0.39917,-11.60551,-4.675867,3.47865,-0.952981,-1.546862,0.993198,0.277344,0.462891,-0.240723,-7.450335,-0.151163,7.491414,-4.356581,0.931332,2.211986,0.416016,0.400391,-0.042969,2.970448,-10.510477,0.05501,-2.231624,2.659491,1.083076,-0.211914,0.52832,-0.234131
0.372051,-15.09889,-1.223879,0.932938,-1.909408,0.425485,0.111084,0.757324,-0.14502,-1.001469,5.925912,9.630083,-1.245145,0.061921,1.11588,0.097168,-0.373535,-0.421143,0.462046,-10.864934,0.029156,-1.972965,-3.635091,0.735266,0.267578,0.481934,-0.23584,-7.015843,-19.710932,-1.536985,-3.995079,1.110538,1.778822,0.445068,0.398193,0.020752,4.633969,-16.09476,0.905923,-0.151451,2.994275,0.526076,-0.174805,0.546631,-0.25415
1.943044,-7.052246,-0.050383,1.498106,-1.913051,0.464435,0.110107,0.74707,-0.164307,-0.029741,-1.543346,5.185186,-0.824835,-1.014235,0.199431,0.083008,-0.372803,-0.432617,-2.631609,-12.05926,-1.982268,1.463518,-1.876087,0.067041,0.257324,0.471924,-0.273682,-4.368968,-17.593499,-2.300533,2.808279,1.034383,0.328761,0.449707,0.390137,-0.009033,4.316475,-12.260154,0.752305,2.931901,2.978562,0.728731,-0.133789,0.525146,-0.320557
0.363004,-12.371869,-2.694825,0.699229,-2.480135,0.253429,0.094971,0.752441,-0.17749,2.342155,0.759437,6.817852,3.203659,0.820755,0.316507,0.085449,-0.407715,-0.395752,-1.67307,-6.437155,0.474906,2.186649,-2.910465,-0.581184,0.230469,0.468018,-0.322998,-4.196171,-5.798468,1.915321,2.60486,0.642983,0.272584,0.456055,0.388672,-0.035889,7.315936,-8.852118,1.535448,1.825982,3.551224,0.399605,-0.090088,0.518555,-0.371094
2.120099,-9.112251,-0.640577,3.199363,-2.528198,0.345537,0.078125,0.736572,-0.214355,-2.53762,7.898951,10.554066,1.982155,0.361348,0.185146,0.085938,-0.43335,-0.383301,-0.722067,-6.688809,0.991666,0.813822,-1.802751,-0.318192,0.202881,0.468994,-0.341064,-5.481932,-6.939153,0.723635,0.314612,-0.645682,1.0995,0.459717,0.381592,-0.045166,6.045996,-10.592299,0.78933,1.26072,4.953263,1.397881,-0.019287,0.515137,-0.409424
2.803237,-5.094955,3.460767,1.393376,-2.25319,0.20915,0.063477,0.727783,-0.221191,3.022269,3.941584,8.133644,-0.923614,0.347336,0.520162,0.081299,-0.427734,-0.385986,-2.690706,-7.499615,1.530684,0.871568,-2.344696,-0.046219,0.18042,0.466797,-0.36084,-3.379441,-6.769197,1.480018,0.999617,-0.822774,-0.077827,0.459717,0.383057,-0.062256,1.24709,-9.929772,4.146636,2.4356,4.540006,1.045085,0.050293,0.487793,-0.443359
1.875668,-9.610208,2.53589,-0.054561,-1.593066,0.680507,0.056396,0.730469,-0.226562,-2.328415,0.601558,6.993758,0.557693,0.821514,0.559495,0.078613,-0.444336,-0.388184,-0.890438,-6.065445,2.643942,0.105972,-2.353055,0.136024,0.157715,0.462891,-0.378906,-6.503775,-3.062159,2.993441,0.018617,-0.390764,0.361445,0.458984,0.37793,-0.07251,1.631958,-5.162951,5.569661,1.044412,3.862388,0.98645,0.116455,0.474121,-0.460938
2.552673,-10.457367,1.61403,1.230965,-1.505747,0.795006,0.051025,0.722412,-0.237793,2.090367,4.439729,7.798403,0.868304,-0.325287,0.470143,0.077637,-0.439697,-0.381592,-2.035929,-9.078489,2.00217,-0.788796,-2.675631,0.500861,0.135742,0.467773,-0.375,-7.276255,-7.698948,1.739533,-2.281716,-2.295584,0.564729,0.458496,0.381104,-0.067383,1.022167,-8.848131,3.224037,-1.732441,4.317831,1.583146,0.192627,0.489258,-0.428955
2.634778,-7.915791,2.862717,1.209395,-1.009152,0.886087,0.054443,0.710449,-0.254883,2.158215,3.374232,7.869069,0.031189,1.072006,0.884841,0.078369,-0.447754,-0.368408,1.183493,-11.378691,0.200828,0.562703,-2.695534,-0.239943,0.10791,0.462891,-0.397461,-1.463228,-15.050868,-1.089599,-0.780278,-2.082621,0.518568,0.458496,0.376953,-0.089844,-0.279645,-11.780775,2.221285,0.815574,3.496547,1.675513,0.261475,0.464844,-0.43335
3.631695,-10.258013,3.170565,1.091119,-0.94249,0.553099,0.054688,0.703613,-0.268066,1.177738,1.802253,6.681707,1.065224,0.441051,0.289804,0.074219,-0.458496,-0.361572,-1.886837,-7.744516,2.576709,1.962199,-2.308577,-0.271922,0.080811,0.445312,-0.425537,-8.371264,-10.567461,2.4932,2.410442,-0.421765,-0.274564,0.455078,0.376221,-0.121826,0.112896,-6.578027,3.87474,1.792941,3.547668,1.167855,0.32251,0.438477,-0.430908
2.278766,-9.613155,4.207039,2.174835,-0.358492,0.640338,0.057129,0.682373,-0.294434,2.318137,5.233923,7.332215,2.216521,1.528494,0.186889,0.071533,-0.486084,-0.32251,-1.251285,-6.196569,0.733515,0.852363,-3.613741,-0.489309,0.034912,0.435547,-0.436768,-8.777084,-3.693104,1.804048,0.958211,-3.930776,0.386252,0.438477,0.365967,-0.172363,-2.580836,-6.040423,4.47975,-0.145555,3.637968,2.196573,0.39502,0.415527,-0.39917
2.808343,-8.833168,5.001518,1.639976,-0.555901,0.380183,0.063232,0.680176,-0.320557,-0.871605,6.366643,8.653635,1.103218,1.117098,-0.146342,0.092773,-0.491211,-0.309082,1.408545,-9.677941,-0.238629,0.804477,-2.666289,-0.402621,0.004395,0.436035,-0.45166,1.820719,-9.425702,-2.817185,-0.867393,-3.761634,0.890372,0.43335,0.379395,-0.206055,-4.853699,-9.571731,3.554005,0.127667,3.146709,1.758364,0.457275,0.407715,-0.378418
4.746652,-9.746839,5.673124,1.799246,0.136088,0.527743,0.063965,0.659912,-0.345459,3.069098,5.002963,6.819579,1.094036,1.148785,-0.357431,0.098145,-0.494629,-0.286377,-0.845378,-9.053407,2.039184,1.903699,-2.966534,-0.326632,-0.040771,0.410645,-0.470703,-6.452153,-10.860833,0.941524,1.764014,-0.777713,0.254228,0.422363,0.366455,-0.239746,-6.004239,-7.137063,2.58735,1.589249,2.826818,1.683711,0.503662,0.367676,-0.364014
3.792665,-7.654068,7.030561,1.99806,0.491383,0.679183,0.080566,0.635742,-0.38501,-0.480002,5.779213,5.710266,1.436625,1.48893,-0.481303,0.105469,-0.496338,-0.263428,1.77846,-6.638647,1.8315,1.432131,-3.304045,-0.324833,-0.076416,0.390137,-0.489746,-10.131065,-4.767361,4.194585,0.923306,-4.401636,0.291703,0.395264,0.356201,-0.309326,-9.174651,-4.391646,3.766411,0.215414,2.349127,1.533519,0.550049,0.344238,-0.3479
4.314778,-7.164576,8.10537,1.58509,1.045922,0.67276,0.099121,0.626709,-0.395996,0.024695,7.570841,5.740135,1.338054,0.797136,-0.825363,0.132568,-0.510254,-0.246338,0.59156,-7.61098,2.453306,1.080469,-2.779744,0.032817,-0.11377,0.387939,-0.480713,-1.607958,-7.567422,2.227758,-0.280749,-4.441508,0.60544,0.362793,0.36377,-0.332764,-9.989826,-7.19522,2.410764,-0.54519,1.366225,2.017775,0.583008,0.32959,-0.313232
4.118175,-7.610496,8.352967,1.318997,1.472336,1.082965,0.133057,0.605469,-0.417969,-0.780062,8.448694,4.794466,0.511527,0.998067,-0.818276,0.144287,-0.50293,-0.231934,1.131954,-7.602509,2.404888,1.129906,-3.385988,0.20717,-0.145996,0.36499,-0.480713,-9.266019,-5.379912,1.570175,1.370058,-3.426854,0.171524,0.33252,0.342529,-0.380371,-11.500451,-6.503066,2.744884,0.842986,0.515485,1.451559,0.609131,0.294189,-0.31543
2.319275,-7.930949,7.864822,1.04307,1.756779,1.302135,0.16748,0.604492,-0.442139,-2.19024,6.768145,6.157843,0.453257,0.329613,-1.184974,0.160889,-0.497314,-0.220947,1.784062,-10.5676,2.826117,1.314389,-2.831037,0.488901,-0.178223,0.358398,-0.489502,-5.350868,-3.870187,-0.760664,0.162591,-6.23475,1.642384,0.276367,0.343506,-0.435547,-8.439736,-3.777287,2.783869,-0.306159,-0.888311,1.157387,0.61499,0.287842,-0.332031
1.78189,-7.341878,7.541735,1.290693,1.853979,1.144006,0.205811,0.577393,-0.455811,-1.384583,8.869862,6.057939,1.055603,0.594304,-1.307323,0.179688,-0.502441,-0.211182,1.631089,-9.216399,3.082629,2.804837,-2.982569,0.392734,-0.205322,0.3125,-0.491455,-1.47179,-9.513463,-1.572097,-0.707209,-3.43087,1.44528,0.249512,0.333008,-0.444824,-7.798104,-6.460277,1.952495,-0.728485,-0.721474,1.656485,0.62793,0.262451,-0.332275
1.988463,-5.82164,8.565312,0.742173,1.995414,1.390016,0.246826,0.575684,-0.465088,-3.306207,8.866564,5.343716,-0.499867,0.063204,-1.402126,0.198486,-0.491211,-0.207275,2.982978,-6.719604,2.377638,1.96551,-2.637954,0.680115,-0.235596,0.298584,-0.491455,-6.980291,-12.148857,0.145591,0.699721,-3.917141,1.527119,0.214355,0.327393,-0.474854,-9.746007,-5.496092,3.602649,0.218553,-1.76632,0.772267,0.618164,0.254883,-0.361572
1.633091,-6.37072,8.43606,0.346072,2.465736,1.451962,0.294678,0.566895,-0.466553,-1.647761,6.970938,4.823903,-0.330822,-0.02097,-1.492063,0.212402,-0.480225,-0.207764,4.960186,-7.366399,2.471249,1.690988,-2.160617,0.617621,-0.258057,0.274658,-0.486816,0.838661,-9.40819,0.500417,1.071371,-5.777421,0.447399,0.136719,0.310303,-0.503418,-7.113784,-4.248702,3.837324,-0.240621,-2.870735,1.260409,0.602783,0.236816,-0.397461
0.431203,-5.442102,9.131923,-0.480504,2.825873,1.836926,0.35498,0.567139,-0.453613,-3.757694,9.707133,6.779795,-0.585982,-0.016101,-1.444307,0.227539,-0.462646,-0.213867,4.685285,-3.170302,3.971259,1.381918,-1.100493,0.813698,-0.262451,0.263672,-0.483154,-0.108793,-5.701598,1.72355,-0.340305,-3.350832,0.329492,0.094727,0.315918,-0.505859,-7.710477,-2.268317,5.204034,-0.664614,-3.15464,0.448029,0.580566,0.241211,-0.435303
-1.956181,-7.118161,7.259565,-1.290685,3.309618,1.611427,0.415283,0.578369,-0.424561,-2.437031,8.452589,6.844711,-2.480423,-0.07277,-1.385945,0.240967,-0.444092,-0.238037,5.642521,-2.089215,5.311654,-1.48432,-1.225136,0.734352,-0.268555,0.280518,-0.456787,-3.458672,-11.205659,0.75144,-3.135201,-5.719873,-0.244474,0.014893,0.356934,-0.478516,-5.173032,-4.417849,4.187452,-2.634983,-4.689372,0.648924,0.530518,0.262939,-0.474854
-3.303037,-7.537886,5.011727,-0.509632,3.300766,1.410706,0.479736,0.580078,-0.4021,-3.42026,4.340136,6.15565,-1.456077,0.84375,-1.170912,0.260742,-0.429688,-0.251709,6.797509,-6.229125,3.626506,-2.798623,0.118323,0.529217,-0.257324,0.315186,-0.430908,5.229262,-13.71395,-2.51099,-1.479073,-4.697418,-1.627359,-0.061035,0.378906,-0.456787,0.12818,-7.424286,2.857281,-0.668512,-5.31699,0.618954,0.47168,0.266846,-0.529541
-6.579929,-7.602123,1.698547,-0.180867,2.911864,0.716316,0.527344,0.575439,-0.385986,-4.361696,6.258577,6.016191,0.548009,1.278968,-1.640344,0.286377,-0.420654,-0.234131,2.298502,-9.70361,3.620661,-1.735066,0.427209,-0.206205,-0.243408,0.326172,-0.419678,-1.54049,-8.688113,-0.764994,-0.022354,-2.765216,-1.320703,-0.103271,0.375488,-0.45166,3.292902,-4.110749,2.943082,1.068908,-4.01085,0.042534,0.424316,0.251465,-0.582764
-6.103208,-8.325449,0.900415,0.762232,1.292887,0.394489,0.545898,0.551025,-0.384277,-5.329262,8.688665,7.344016,0.642471,1.512315,-1.97035,0.315186,-0.413086,-0.217285,3.561794,-10.904335,2.619748,0.210144,0.966052,-0.369116,-0.238525,0.304688,-0.422119,-2.163653,-7.147259,-1.917622,0.172655,-4.612691,-1.177849,-0.17334,0.354004,-0.436035,-0.381708,-2.113016,3.020934,0.772046,-2.640653,0.496903,0.385254,0.222168,-0.607422
-5.838763,-4.763121,3.796911,1.426414,0.591136,-0.338817,0.545898,0.541748,-0.394043,-5.137689,8.529179,8.83093,0.359967,1.569977,-2.85802,0.354248,-0.377197,-0.199951,0.250191,-8.157445,3.635639,1.756083,1.601032,-0.240743,-0.230957,0.283447,-0.436768,0.490409,-5.428037,-0.983289,1.509948,-3.375032,-0.984026,-0.231445,0.331543,-0.429443,-1.644459,1.363757,2.931753,2.184033,-2.287482,-1.031998,0.331543,0.198242,-0.640381
-3.204159,-3.783196,6.013873,-0.279018,-0.348536,-1.019707,0.539795,0.555908,-0.396484,-6.701345,7.830271,6.15885,-0.170544,1.668382,-3.101868,0.384277,-0.351318,-0.186768,4.828628,-2.874975,4.354276,0.494852,1.383085,0.00624,-0.202637,0.273926,-0.447998,-3.083979,0.398953,0.807149,0.757268,-3.67419,-0.890163,-0.268799,0.315918,-0.409668,-0.980227,1.944607,7.339634,-1.64127,-2.354466,-0.279985,0.297852,0.231934,-0.64624
-1.611368,-6.12259,5.595049,-0.786794,0.295563,-0.665669,0.545898,0.571289,-0.38501,-4.707268,6.579128,5.695359,-0.846368,0.796524,-2.944286,0.424316,-0.331055,-0.191406,8.685419,-0.506634,4.044425,-2.674311,2.324872,0.551931,-0.16626,0.303223,-0.423584,2.640826,3.487114,-0.520752,-2.960098,-6.120373,0.074268,-0.318604,0.344238,-0.322266,-0.665464,-8.777413,3.527902,-3.410928,-2.391863,-0.239461,0.260254,0.29126,-0.631836
-0.678752,-5.765537,7.227027,-1.140066,1.311862,-0.923471,0.548584,0.587158,-0.363281,-1.515244,4.005883,5.404815,-1.682122,1.956647,-1.541311,0.444336,-0.307129,-0.171387,11.277772,-2.842985,2.334469,-8.21909,3.118521,0.300268,-0.13208,0.367188,-0.354248,11.005777,-0.983802,-5.334973,-8.015025,-4.450669,2.712162,-0.312744,0.415771,-0.193848,-1.360508,-6.636395,3.058007,1.354088,-3.982923,-1.103016,0.175781,0.272217,-0.662109
-5.155591,-5.288134,4.048569,-0.76312,2.088983,-0.771792,0.572021,0.60498,-0.334473,-9.990289,2.751168,3.075617,0.070715,2.057599,-1.109052,0.460938,-0.293945,-0.149902,0.535919,-15.619321,-0.569443,-9.198207,4.142012,0.988813,-0.078369,0.428955,-0.256348,-3.608234,-16.701095,-8.288984,-8.418517,-1.951609,4.031523,-0.246826,0.47168,-0.065186,3.666838,2.029212,5.037197,-0.450434,-5.669202,-0.50214,0.078369,0.281738,-0.661621
-4.043663,-5.508374,1.501221,-0.936435,1.378032,-1.408396,0.564209,0.628662,-0.318115,-6.058701,7.870463,4.260761,0.345252,1.803465,-1.225355,0.472168,-0.273682,-0.117188,3.207047,-19.785364,-1.264011,-4.688895,2.782704,-0.505936,-0.073975,0.446289,-0.211182,-1.346123,-19.846544,-6.974341,-3.096578,-4.740632,1.732734,-0.231934,0.481934,-0.006104,2.922208,-1.679158,2.288027,-3.15523,-3.307187,-0.102634,0.013916,0.337891,-0.633789
-6.833749,-3.243797,1.879588,-0.0352,0.496636,-1.697214,0.546631,0.645752,-0.305908,-12.740454,6.716647,6.573274,-1.124766,2.124779,-1.159422,0.483398,-0.260498,-0.109131,1.567551,-16.221113,-2.672251,-0.102524,3.946306,1.681813,-0.032227,0.442383,-0.210693,3.605821,-14.812484,-7.227393,0.527972,-1.53283,1.336837,-0.21167,0.476562,-0.004395,-3.286188,-4.236995,1.717696,-1.237583,-3.588934,-1.120177,-0.062256,0.35498,-0.603516
-1.647088,-2.007005,3.996711,-1.579239,0.125011,-2.595967,0.522705,0.679443,-0.299316,-7.558653,1.539376,6.066511,-0.597134,0.474685,-1.032265,0.499023,-0.240723,-0.113525,5.616778,-13.024828,-2.333296,1.819647,2.696648,1.712352,0.009277,0.428955,-0.244873,-3.183749,-13.460095,-4.471326,2.178742,-1.085884,-1.304921,-0.221436,0.457275,-0.049316,4.054645,1.390591,2.984907,-1.291069,-5.481512,-0.800999,-0.152588,0.37207,-0.571045
-3.152458,-10.597532,2.145256,-2.040379,0.636754,-2.645461,0.499756,0.717285,-0.259766,-9.242668,2.140116,3.641351,1.451092,1.191874,-0.374812,0.50415,-0.240967,-0.085938,2.664558,-12.480832,-0.359939,3.117649,4.402666,3.132059,0.075195,0.39917,-0.273193,6.291474,-11.681345,-5.251494,3.218053,-2.13663,-1.851607,-0.249756,0.422607,-0.075928,8.578438,-4.211433,2.811014,-5.842762,-3.507932,-0.140319,-0.200684,0.450928,-0.468018
-3.061802,-10.526726,0.508801,0.927914,0.423085,-2.263349,0.466064,0.732666,-0.269775,-9.273914,5.364779,3.737921,1.419469,-0.183789,-0.325875,0.509277,-0.244873,-0.082031,-2.0809,-9.24043,4.372379,3.971306,3.384832,2.076094,0.115967,0.371338,-0.305176,6.879087,-10.874623,0.181645,2.624913,1.605816,-2.68774,-0.280273,0.393799,-0.123535,1.146973,-14.867041,1.397345,-3.773329,-2.543179,-0.973075,-0.253418,0.49292,-0.394775
-2.364566,-7.140991,1.822227,0.353682,-0.158878,-2.370906,0.433105,0.745605,-0.281738,-4.614615,2.314643,0.690544,1.043505,0.250422,0.162067,0.510498,-0.245361,-0.062012,2.146433,-6.63796,5.771309,3.44377,3.334956,1.973397,0.165283,0.333252,-0.333984,3.189613,-10.129881,-0.444114,2.105958,0.246763,-2.295141,-0.302734,0.352295,-0.163086,2.840349,-9.864294,2.442432,1.113574,-4.621417,-2.219169,-0.32666,0.456299,-0.369141
-0.194809,-9.171964,1.879511,1.037161,-0.227166,-1.99824,0.407471,0.746582,-0.286621,-7.170599,4.296694,0.986759,3.029253,0.800116,0.488472,0.514404,-0.265625,-0.033447,-0.210125,-7.017998,5.034844,3.226327,4.509956,1.26503,0.222168,0.297852,-0.33252,7.340447,-10.414832,-1.499458,1.031969,1.486126,-3.69567,-0.331055,0.312012,-0.179199,9.665465,-2.831415,4.762622,-1.157427,-3.275195,-1.521248,-0.369385,0.452881,-0.302002
0.3198,-8.104487,4.600708,0.829489,-0.441662,-2.132932,0.364258,0.739746,-0.30127,-5.817323,6.676131,2.773871,2.548524,0.638098,0.625311,0.502197,-0.268311,-0.013184,-3.233205,-8.898994,4.435766,3.815138,4.050719,1.217124,0.259521,0.25,-0.337402,6.144054,-8.891718,-0.576904,1.298943,2.537809,-4.073308,-0.357422,0.252441,-0.221191,6.745376,-9.109579,2.993406,-4.150182,-1.588265,-0.77202,-0.398438,0.4646,-0.224854
-1.176277,-15.538595,3.312306,0.389141,-0.56108,-1.555426,0.336426,0.748779,-0.315918,-11.130351,3.887308,2.553251,2.694829,0.766577,0.73175,0.506104,-0.273926,0.017578,-4.716656,-11.299704,5.530078,3.933968,4.015594,1.079551,0.300293,0.21167,-0.341309,10.784143,-7.280088,1.625011,0.284684,2.390874,-4.73868,-0.380859,0.205322,-0.254639,7.600233,-16.640838,1.401074,-2.10961,-2.123896,-2.064558,-0.435791,0.457275,-0.17627
-0.966863,-16.459938,1.628389,3.544481,-1.263502,-0.554704,0.324463,0.70874,-0.36499,-8.859123,4.747538,1.804524,4.0691,-0.948188,0.213424,0.497803,-0.280518,0.029785,-8.83523,-10.766758,8.430451,5.177006,2.397813,0.857659,0.333252,0.161865,-0.350098,19.286904,-5.684974,3.610129,0.85789,2.407223,-4.160744,-0.390381,0.153076,-0.285889,7.37079,-14.968986,3.049885,1.701581,-0.915409,-2.663382,-0.466797,0.40625,-0.174561
1.44416,-9.572781,3.768013,4.38873,-1.607571,-0.057468,0.303467,0.651611,-0.422119,-7.159089,8.238559,3.222089,3.466198,-0.248459,0.519767,0.500244,-0.279297,0.062256,-3.825383,-4.896956,7.475144,4.818858,1.190644,0.124136,0.346191,0.111328,-0.36084,11.265461,-4.469056,4.101163,-0.276939,5.663483,-3.281488,-0.36084,0.115479,-0.337402,7.35608,-8.394944,3.547711,2.698312,-1.608542,-3.597836,-0.508057,0.334229,-0.17334
2.397457,-7.918188,4.235012,2.834957,-1.137053,0.030683,0.290283,0.618164,-0.458984,-7.201664,7.643414,3.505087,1.594083,-0.318219,0.172168,0.500244,-0.272949,0.078613,-6.683487,-2.177193,10.041581,1.719623,2.088588,-0.766076,0.365479,0.108398,-0.351562,4.673856,-6.225535,6.884226,-0.874347,1.00724,-0.879184,-0.360596,0.11792,-0.344727,11.187398,-6.425305,2.238992,1.126203,-0.566098,-2.87535,-0.532715,0.288574,-0.173828
-0.762566,-11.751495,3.316647,3.174973,-1.291005,0.1504,0.270752,0.570557,-0.499268,-7.715828,4.353456,1.782548,1.373066,0.520897,0.456508,0.500977,-0.278564,0.068848,-6.449592,-7.994948,7.6297,-0.96345,-0.043184,-1.087968,0.355713,0.126221,-0.362793,18.72965,-6.989202,0.127858,-1.892506,1.26415,-0.647343,-0.36084,0.129395,-0.361084,5.949859,-8.560034,4.679412,0.885274,0.416739,-3.122962,-0.555908,0.232666,-0.19165
-2.397311,-9.81829,3.909058,4.747286,-1.588713,0.825683,0.259277,0.500244,-0.537598,-12.24575,5.045719,0.149878,2.073122,-0.306756,0.405545,0.498779,-0.281982,0.086914,-2.330969,-12.129407,5.044548,1.40561,1.248522,-1.15112,0.370361,0.129883,-0.354736,3.463983,-10.763015,1.379939,-1.203483,6.568185,0.238042,-0.293457,0.146973,-0.402344,6.848516,-10.106718,5.772792,2.286915,-0.439112,-3.707054,-0.575684,0.164795,-0.185303
1.043912,-8.757041,4.419046,5.382152,-2.460278,1.487215,0.227539,0.408936,-0.57373,-7.251936,5.200444,0.485459,1.59345,-1.001273,0.643213,0.504883,-0.286377,0.091064,-9.332285,-5.795511,7.828268,4.309116,0.951646,-0.671042,0.376221,0.098389,-0.362793,1.14042,-8.90734,4.946985,0.781913,1.234236,-2.85269,-0.30127,0.117188,-0.417236,9.318092,-9.217447,4.602924,4.350863,0.087719,-4.200629,-0.588867,0.070557,-0.195068
3.835502,-2.824099,6.225535,6.837781,-1.550047,1.647293,0.212402,0.29248,-0.596924,-5.191484,5.188876,2.000059,2.016601,-0.127533,0.601991,0.49585,-0.281494,0.100342,-3.840517,0.605539,9.844875,2.740834,-0.307131,-1.36782,0.372803,0.089844,-0.380859,17.496468,-2.759878,4.763524,0.384922,3.188057,-1.859797,-0.275635,0.096436,-0.446533,11.846894,-4.031742,3.700726,5.440454,0.218082,-4.265197,-0.591064,-0.032715,-0.205811
1.504895,3.101447,9.907107,3.845181,-1.283372,0.93415,0.189209,0.224121,-0.606445,-4.832095,7.03556,3.175988,1.893778,0.65159,0.630736,0.48999,-0.297852,0.125,-5.943755,-1.251127,9.853514,0.683547,0.547773,-1.204588,0.372559,0.098877,-0.384766,5.874625,-3.239714,6.884495,-1.433577,6.317069,-1.188037,-0.208496,0.108643,-0.48584,10.643515,1.903718,5.771293,4.334479,0.820741,-2.997451,-0.583984,-0.111572,-0.217529
1.645004,-1.440992,9.496452,2.258071,-0.686536,0.073808,0.18042,0.184326,-0.605469,-5.729029,8.028623,1.637146,1.116445,1.63332,0.559757,0.479492,-0.292236,0.164307,-5.080854,-3.58127,9.831237,0.044311,-1.121001,-2.210551,0.361328,0.12085,-0.401123,3.889573,-3.472888,8.332628,-1.122533,2.521415,-0.475494,-0.181396,0.121582,-0.497559,11.985556,3.65665,8.502409,1.587994,0.311796,-2.441978,-0.572021,-0.159424,-0.220459
1.354438,-1.940397,9.028793,2.74684,-0.86115,0.209385,0.164062,0.135986,-0.606689,-8.438688,7.367138,-0.900327,0.33951,1.273718,0.889304,0.466309,-0.304199,0.180664,-1.642856,-4.633375,9.658982,-0.76048,-0.173042,-1.788226,0.353027,0.144531,-0.411621,10.998375,-3.885091,7.801646,-2.649797,3.90148,0.072796,-0.132568,0.157715,-0.506836,13.573313,-1.023002,9.399884,-0.089459,1.614705,-1.753012,-0.556396,-0.185791,-0.253906
4.981524,-1.791494,8.105652,2.479712,-0.648343,0.309194,0.147461,0.089111,-0.587646,-3.449603,5.216318,-1.237808,0.531975,0.7852,0.71461,0.468262,-0.299316,0.197021,-5.292854,-7.163672,8.4721,0.0676,-0.897731,-1.991529,0.330322,0.163574,-0.419434,2.749475,-11.913976,7.676119,-2.956406,4.843554,0.336039,-0.080078,0.193359,-0.499512,12.850126,-5.765048,7.925322,1.464435,2.453035,-2.227354,-0.536377,-0.236572,-0.27832
3.482272,-3.262913,5.90794,3.638954,-0.203329,0.563024,0.150146,0.026855,-0.589844,-5.099566,4.964523,-1.548094,2.026505,1.72197,0.824289,0.437012,-0.306641,0.232422,0.070456,-6.316462,8.008889,2.129928,-1.58255,-1.698905,0.315674,0.155762,-0.467041,4.514376,-13.593729,7.668909,1.512484,2.873001,-2.468756,-0.05127,0.16748,-0.531494,12.835567,-2.798148,5.742668,4.344546,3.524882,-2.47877,-0.484131,-0.310547,-0.320801
1.817875,2.191353,6.442234,5.140578,-0.71094,0.620302,0.135498,-0.060547,-0.54541,-8.427986,8.315345,-1.759094,2.598223,0.910586,0.648668,0.436523,-0.291992,0.254639,-3.664992,-4.60844,8.568322,2.133257,-1.026212,-1.359832,0.29541,0.141357,-0.47583,3.676276,-0.229118,10.254536,3.830854,4.782461,-2.495547,-0.001709,0.102539,-0.551025,8.973588,2.873262,6.919107,4.328519,4.483477,-2.927203,-0.421387,-0.395264,-0.336914
0.777772,4.331983,4.655322,4.529271,-0.667551,0.499016,0.116699,-0.123779,-0.508301,-7.107757,7.251159,-1.116505,1.200812,0.738682,0.838629,0.421875,-0.291016,0.273438,-1.225495,-5.829625,9.251625,1.086154,-2.452831,-1.16407,0.259521,0.144287,-0.504395,-2.10861,2.420206,13.593123,-0.282785,2.587035,-0.959508,0.022705,0.112305,-0.55127,9.833098,1.219923,4.597646,3.357975,4.599651,-2.423834,-0.358154,-0.452393,-0.359375
-0.794801,9.830832,4.536458,5.984112,-1.70915,0.008189,0.092285,-0.20752,-0.444824,-8.019847,4.84582,-1.385642,2.865118,0.607859,1.027387,0.412598,-0.28418,0.302002,0.94641,-9.277079,8.313703,2.198757,-1.388028,-0.651505,0.239746,0.122314,-0.529297,3.449436,-10.509902,8.821312,-1.052,1.024251,-0.45024,0.03125,0.123291,-0.550049,7.795436,3.679606,0.78683,5.973438,5.994093,-2.651129,-0.266846,-0.538818,-0.346924
-1.806627,19.369198,9.363684,1.094359,-2.030323,-1.063472,0.075195,-0.220459,-0.429688,-6.58857,10.982011,-1.838255,3.179367,1.237373,1.029498,0.39209,-0.265869,0.332031,-3.068113,-5.978618,9.981249,4.6282,-1.496636,-0.749282,0.220215,0.067871,-0.561768,0.668778,-10.946621,8.480147,5.392349,2.934688,-2.013375,0.063477,0.045654,-0.570801,7.036685,15.850882,4.61518,4.430942,5.479905,-2.392433,-0.179443,-0.597412,-0.333496
-0.102152,7.668744,8.710396,-6.184807,-2.73239,-1.128194,0.048096,-0.143555,-0.48291,-11.634772,12.510517,-2.48979,-1.443457,1.264511,1.70228,0.374512,-0.300049,0.341797,1.284662,3.087232,12.11029,2.072246,-1.977982,-0.879323,0.189941,0.037842,-0.582275,-1.732897,9.569452,14.478882,4.978894,0.735759,-1.436822,0.068359,-0.033936,-0.584473,10.06473,16.536661,7.189525,-4.804648,6.244009,-1.667187,-0.088623,-0.561279,-0.44043
1.193381,-6.9988,8.086842,-5.102216,-1.88077,-0.313811,0.025879,-0.067139,-0.500488,-8.50821,3.838626,-4.2325,-3.516526,-0.179354,2.144588,0.361328,-0.340332,0.305664,0.159996,-2.835008,10.315267,-3.04011,-1.102401,0.594463,0.181885,0.081543,-0.578613,4.490874,6.765127,13.11964,-4.053112,-0.332764,1.039289,0.07373,0.029785,-0.577148,3.568636,2.535056,3.196469,-10.566657,8.118606,-0.659455,0.039062,-0.42041,-0.569336
3.594742,-2.518417,9.968017,-1.186445,-1.627093,0.578221,-0.013428,-0.049316,-0.506592,-6.406255,3.053386,-3.156465,-0.91941,-0.33304,2.652584,0.335205,-0.368408,0.302246,-1.685556,-13.300779,7.904996,-1.24938,-2.056296,-0.026281,0.143066,0.093506,-0.602295,1.556854,-13.537686,7.046669,-3.770543,1.255719,1.699606,0.084961,0.075928,-0.576416,-3.747513,-12.191636,3.713246,-4.630076,6.131981,-0.469408,0.132568,-0.35498,-0.611816
2.784408,1.356515,9.814066,-2.252368,-0.537408,0.507538,-0.022949,-0.003906,-0.509766,-5.32881,7.50431,-1.451138,-0.619042,-0.64623,2.790312,0.314697,-0.404297,0.289795,1.936643,-9.336139,8.48433,3.580025,-1.833815,0.112383,0.121094,0.04248,-0.61792,-1.64803,-11.845479,6.906876,4.942781,0.554093,-0.511888,0.094238,0.003174,-0.589111,-1.149642,-1.766168,6.242882,3.611676,3.799492,-1.560947,0.210205,-0.399414,-0.566162
3.957837,-2.317962,8.148751,-1.033255,-0.778645,0.474122,-0.043457,0.021484,-0.513916,-4.029145,6.49118,-2.896607,-0.650579,-0.626007,3.489805,0.281982,-0.433594,0.279297,1.229068,-1.070311,11.253054,3.847591,-1.37626,0.262942,0.093262,-0.014404,-0.637695,2.639511,4.104524,11.69003,4.886745,0.180308,-0.00894,0.091309,-0.072266,-0.603271,0.10194,11.330974,7.863121,0.937667,5.125529,-1.206786,0.294922,-0.40332,-0.54126
5.880993,2.813925,10.668988,-0.750862,0.094963,0.858663,-0.039795,0.029785,-0.509033,-3.980506,10.422536,-3.193064,0.038588,-0.752279,3.634831,0.240479,-0.456299,0.278076,0.673259,2.897129,11.136568,1.148886,-1.186297,0.587293,0.081787,-0.044189,-0.635742,-0.334434,4.4504,13.373931,-0.719274,1.290215,1.111895,0.11792,-0.075439,-0.593262,-5.027226,7.695854,7.127565,-4.530494,4.926978,-0.748512,0.380127,-0.340088,-0.534424
6.918408,0.706386,8.956652,-3.666508,0.192758,1.45315,-0.05957,0.094971,-0.518555,-3.515004,12.822682,-1.730521,-2.808376,-1.305136,3.797939,0.205811,-0.502686,0.22876,-1.6436,0.222706,10.400684,-1.610627,-1.322223,1.014055,0.045166,-0.02002,-0.643555,-5.071364,-3.002947,12.324265,-1.629026,-0.308953,1.267821,0.095947,-0.052002,-0.595703,-3.860907,-0.958554,5.535078,-4.289973,3.24153,-1.282431,0.416748,-0.269043,-0.535889
6.881782,-5.299725,7.469235,-3.133232,0.473186,1.992483,-0.054199,0.158447,-0.521484,-3.329764,7.499357,-2.004077,-4.008322,-1.901832,3.731713,0.17627,-0.53833,0.167725,0.089243,-4.027597,7.923731,-2.198781,-1.822362,0.901329,0.017822,0.009766,-0.642822,-1.134115,-2.113927,10.060902,-1.026641,-1.423154,0.469428,0.075439,-0.039307,-0.597412,-3.095049,0.289549,5.869173,-1.754858,3.490128,-1.806047,0.478516,-0.225098,-0.505127
6.529614,-2.832219,8.982481,-2.073474,0.662206,2.115594,-0.033691,0.200439,-0.526367,-1.086443,7.637525,0.901334,-1.351486,-2.218071,3.335393,0.133301,-0.550293,0.150879,0.466415,-5.643054,8.242232,-1.232824,-0.917108,1.103904,0.015381,0.023926,-0.649414,-2.839581,-1.922929,9.600997,-1.392703,-0.790349,1.1159,0.073486,-0.024414,-0.607666,-5.478314,2.042094,5.677301,-3.606358,2.522749,-1.828982,0.531982,-0.158691,-0.493164
1.692721,-3.297872,9.527307,-1.991574,0.391034,1.220973,-0.027832,0.242188,-0.523193,-1.756895,10.552394,2.822872,-1.226926,-1.853718,3.318752,0.084717,-0.572266,0.123535,-2.682418,-5.295285,7.914528,0.197407,-0.932912,1.254286,0.004883,0.021484,-0.655762,-6.239813,-1.610965,9.703588,0.302174,-2.383001,0.931174,0.035889,-0.028076,-0.611572,-5.427561,-1.628351,3.290533,-2.341368,2.252668,-0.84499,0.561035,-0.116699,-0.472168
5.780522,-2.31724,9.528544,-0.776323,0.202023,0.580962,-0.031982,0.259766,-0.518311,0.592166,7.333759,0.337411,-1.112499,-2.219158,2.757903,0.058838,-0.58252,0.106201,-0.933923,-1.593213,7.448202,1.233684,-1.375096,1.364475,-0.025635,0.003662,-0.654053,-0.989295,1.057271,9.493753,0.262954,-3.204392,1.420389,-0.023926,-0.032227,-0.609863,-8.112197,0.676033,3.824881,0.220875,1.845991,-1.495885,0.579102,-0.098145,-0.443604
3.724488,-1.220776,10.888629,-1.690618,0.300251,0.225253,-0.0271,0.279541,-0.518799,1.937469,9.252815,-0.561932,0.738652,-1.603253,2.204059,0.022705,-0.584473,0.112061,-0.792413,2.270053,7.471535,0.493591,-1.494667,1.355763,-0.049561,-0.017578,-0.659424,-0.39211,-1.504422,7.843681,-1.035346,-2.041255,1.586021,-0.055908,-0.024902,-0.614258,-8.474626,5.138347,4.97531,0.183341,0.840496,-1.083093,0.5896,-0.09375,-0.436768
4.495606,-5.611968,9.70186,-2.69666,0.174436,0.066782,-0.018066,0.329102,-0.512451,1.959805,15.132933,0.654777,-0.80196,-1.534197,1.43874,0.00708,-0.59668,0.104004,1.07375,3.656665,7.023299,-1.194501,-2.037985,1.327788,-0.07373,0.01001,-0.658447,-0.452812,0.00942,7.516604,-0.080656,-2.37899,0.951936,-0.086914,-0.014404,-0.616211,-7.197711,2.406674,5.864383,-2.729363,0.368279,-2.010271,0.601562,-0.029053,-0.432617
2.146077,-6.525193,10.01319,-2.176013,-0.27025,0.172852,-0.025635,0.364014,-0.505127,2.011777,12.901694,-0.888689,-3.371021,-1.020085,0.787974,-0.007812,-0.597168,0.052002,0.644885,3.009741,5.92832,-2.063133,-2.008078,1.3029,-0.113525,0.043945,-0.65625,1.780763,4.955501,8.166315,-1.756862,-2.041777,1.182296,-0.125977,0.015625,-0.612793,-7.44502,-5.082583,3.110641,-2.67065,0.59037,-1.801911,0.5979,0.030029,-0.427002
3.513067,-4.989815,9.152478,-2.810958,-0.698517,0.078906,-0.032959,0.406494,-0.483887,2.022063,10.354494,-0.65258,-3.549188,-0.728257,-0.364647,0.000244,-0.598145,0.001465,1.611761,3.025004,4.296993,-3.018231,-2.655579,0.693221,-0.151367,0.096436,-0.639648,-0.699377,-0.743089,6.016612,-5.074824,-1.97287,1.476622,-0.152344,0.103271,-0.586426,-7.812612,-5.533479,3.680708,-0.320583,-0.40644,-2.859177,0.590332,0.07251,-0.429443
4.697154,-7.358105,7.318949,-3.051305,-0.928987,-0.023904,-0.045654,0.447021,-0.454834,5.786791,8.457243,1.155615,-3.708314,-0.390535,-0.914034,0.014648,-0.606445,-0.067627,4.599836,-0.486516,3.468018,-3.927374,-2.891716,0.72797,-0.193115,0.156494,-0.608887,2.015211,-6.469786,4.45739,-2.706128,-3.275866,0.336136,-0.199219,0.143555,-0.556641,-5.246799,-1.831338,4.425627,-0.345764,-0.829145,-2.623323,0.575439,0.109863,-0.437256
3.545975,-6.342242,7.697295,-1.898178,-0.682681,-0.700439,-0.062988,0.46167,-0.437988,3.741913,7.734047,2.227342,-2.542759,1.199414,-1.388189,0.044434,-0.598389,-0.096924,4.417856,-4.222808,4.138708,-2.521568,-2.344661,0.291779,-0.227051,0.190674,-0.579102,3.989199,-0.915304,5.885151,-1.348092,-2.29642,-0.029768,-0.237305,0.158936,-0.53418,-6.301197,-3.021873,3.087067,-0.972713,-0.823884,-2.273628,0.551025,0.148193,-0.44165
3.42606,-5.417472,7.612188,-2.603331,-1.055427,-1.176811,-0.080078,0.49292,-0.418457,0.793472,8.973817,3.22392,-1.599466,1.454282,-1.709113,0.075439,-0.596436,-0.118164,2.307769,-2.002973,6.720796,-1.231349,-2.536451,-0.298968,-0.26001,0.212158,-0.5625,-0.790672,-3.22894,5.525577,-3.476213,-2.431727,0.333822,-0.266846,0.214355,-0.501465,-6.590616,-4.845781,2.552303,0.039498,-1.821456,-2.543007,0.517334,0.180664,-0.470703
4.274734,-7.141585,5.99839,-2.600255,-0.981754,-1.408331,-0.113281,0.510254,-0.395996,-0.661822,10.220371,2.662094,-1.672483,2.123421,-1.673631,0.105469,-0.587891,-0.139648,5.188195,-0.175729,5.971543,-2.182012,-2.689893,-0.283519,-0.309082,0.235596,-0.53418,1.587493,-5.384756,1.65197,-1.706528,-3.702868,-0.666683,-0.330811,0.231445,-0.467285,-4.161766,-3.526238,3.791312,0.788074,-2.511389,-2.50682,0.458008,0.195557,-0.508301
