# sampling frequency: 40
# units are seconds/meters/radians/a.u.
seg1_acc_x,seg1_acc_y,seg1_acc_z,seg1_gyr_x,seg1_gyr_y,seg1_gyr_z,seg1_mag_x,seg1_mag_y,seg1_mag_z,seg2_acc_x,seg2_acc_y,seg2_acc_z,seg2_gyr_x,seg2_gyr_y,seg2_gyr_z,seg2_mag_x,seg2_mag_y,seg2_mag_z,seg3_acc_x,seg3_acc_y,seg3_acc_z,seg3_gyr_x,seg3_gyr_y,seg3_gyr_z,seg3_mag_x,seg3_mag_y,seg3_mag_z,seg4_acc_x,seg4_acc_y,seg4_acc_z,seg4_gyr_x,seg4_gyr_y,seg4_gyr_z,seg4_mag_x,seg4_mag_y,seg4_mag_z,seg5_acc_x,seg5_acc_y,seg5_acc_z,seg5_gyr_x,seg5_gyr_y,seg5_gyr_z,seg5_mag_x,seg5_mag_y,seg5_mag_z
1.4511562908240225,-8.843368911309124,3.752545636851624,0.8324867686059478,-0.1481536834770726,0.5357905053462615,-0.0956881077723761,0.7430274214183011,-0.4325710988778754,-3.726489703178376,2.6774047317474614,8.0374185252439,0.04576550959450628,-0.6498918126921994,0.42866033013704713,0.4440970948141523,-0.3246425625542023,-0.7410759268076859,-1.4773050436886492,-7.977822219159491,4.6483577906339395,-0.009243737686410862,-0.08211670673819421,-0.09311353751768985,0.13335000903710675,0.7019103240395247,-0.5809079331714562,4.05050254352887,-7.969153906021804,2.663655588996741,-0.10106760068681579,0.6330962041736266,-0.01975305000136207,-0.6013591786758777,0.8322849685738775,-0.42603079740935856,-0.7003126043557264,-8.581962094543384,4.3518791269432135,0.48621895139455185,-0.6194358844781073,0.8442800252609363,0.1684268934743422,0.8035142716268503,-0.5212697484993302
1.4618772993042763,-8.814972710011798,3.6812396689243325,0.7567552803265434,-0.07608772476401719,0.5417031456832514,-0.08471385251751655,0.7293424988327796,-0.4472165852962048,-3.311832332527037,3.003874581900284,8.61965025464699,0.023817111935242278,-0.6460055808494157,0.37288738638960855,0.42973035113951974,-0.33615328757700835,-0.7528169932258931,-0.9747338771558551,-8.23524479440353,4.536537344352441,-0.040561911381955036,-0.09437660722872412,-0.08908852120243978,0.13135961361239595,0.6950523840116161,-0.5835081859720316,3.9848314195769623,-8.098919471793902,2.356467250076234,-0.11260405426470232,0.6625249438898322,0.007558318392789937,-0.5952448605672511,0.8250104173072198,-0.4358256342091879,-0.6438894227322239,-8.709146409448351,4.45283618865083,0.4268416126437627,-0.6317489670335086,0.8085403433952859,0.17936138084360062,0.7891215407993599,-0.5308694318430108
1.0211043684669512,-9.067841286931738,3.931551647871718,0.7015914099887495,-0.02885280810417568,0.557198640592834,-0.07835676363239044,0.7232396103724698,-0.462349799341728,-3.508018594720206,3.081104803609744,8.705890739863511,0.006968771856753238,-0.6514218326460742,0.3468866664558303,0.41241770413217693,-0.3422010770800904,-0.758297083437336,-1.1089176910585894,-8.375269809272602,4.887129544249175,-0.035222640718859374,-0.09763458607138444,-0.06780072733724594,0.1269705410340459,0.6960507158062589,-0.5830101161679068,4.25387887576541,-8.343473999961095,2.3903380402566494,-0.08923065366883685,0.7120941954346938,0.009639125896483337,-0.5947286553029302,0.8277417303634396,-0.4431306176529755,-0.8500998292993399,-9.060741113538509,4.5484771223621845,0.37873798573757617,-0.591818691430249,0.7722189729955043,0.1807969767478995,0.7811135756410058,-0.5406792063267666
0.6676592447690538,-9.15450486850763,4.189634786378708,0.679124544177413,-0.002661234516645167,0.564629091092257,-0.06905939733361058,0.7178662504340306,-0.4813826855358471,-3.631251067996872,2.91959357248684,8.912312865093051,-0.013316756868215502,-0.6534060641165503,0.3226137013337023,0.3941012226016014,-0.34491545331856843,-0.768470468467702,-1.4922132226619527,-8.574792959229088,4.878521650817189,-0.07394021700266028,-0.09751337610393662,-0.06407744627723325,0.12086476124201484,0.7023614952924444,-0.5884216657988319,4.024792841063496,-8.138504826074369,2.564566717358746,-0.1037518706028737,0.794378066574992,0.047260982681089976,-0.5912652208378804,0.8317231091938415,-0.4557911481835312,-1.2056043819022126,-9.16246621446508,4.722670143425345,0.3709493026779504,-0.5118984896740865,0.7789743958135796,0.18906833589794547,0.7733503772240734,-0.5553698237797632
0.381792566163864,-9.171290862547146,4.350262654643658,0.6266505713781603,0.0115701109885798,0.5651180376887092,-0.06198736156074922,0.7061450098642519,-0.4955448107482841,-3.524041021531854,2.998695756668044,8.777799625199233,-0.06205049044190468,-0.6276458057693435,0.28831726841635896,0.3794339857307854,-0.34694431367714423,-0.7825692404078668,-1.4584954760473718,-8.34546873916792,4.786814129661225,-0.20846835269779998,-0.08416265098129558,-0.09765965429114673,0.11549824367589988,0.7036010051620794,-0.5884096036407751,3.6995379277427975,-7.921515380067857,2.6853153116881687,-0.1934472743692354,0.900194042495583,0.16100709112512532,-0.5836520674088471,0.8337504689013309,-0.46991644961332185,-1.2955214730727769,-8.89104051049888,4.755642039698968,0.3375421164730195,-0.39318905885889616,0.7527859443816481,0.1944143314718253,0.7665495347761498,-0.5654170876024454
0.3862320365315982,-8.888993062619784,4.471642211468628,0.5853483016680203,0.004365493302383222,0.5466488799984789,-0.041959992236207416,0.7026819023829272,-0.5055225133651792,-3.31177177969443,3.201192424974997,9.056178454870867,-0.07239223171208208,-0.5822339669555786,0.27507081968270336,0.3747973694030645,-0.3484923562769937,-0.785952337530115,-1.0511916593992048,-8.69003610468076,4.789003132259925,-0.27962154458892247,-0.04241633478422208,-0.13119346425480974,0.12165814885165062,0.7116996247963264,-0.5826687267699872,3.6763002412398422,-8.84433531048938,2.6281996334920237,-0.2613463321402273,0.9736667614166852,0.20847446679676113,-0.5638452791900956,0.840334755932851,-0.47567590051979575,-1.4976584449051131,-8.652766892578361,4.765985769805675,0.3186082269151165,-0.2732019822154982,0.7140800456738223,0.21294781294566775,0.7606685034897583,-0.5737505168165938
0.7198936335677395,-8.317792175649334,4.47015161445262,0.6131396412939067,0.08239632419165759,0.5444102738410459,-0.03634753459461499,0.6943807481188077,-0.5172409136870926,-2.5795361129820193,3.0386865503224603,9.46373130979848,-0.03876366508446467,-0.686205695869446,0.287127333865219,0.3538339359461989,-0.35778744329029816,-0.7945435796472167,-0.6693150711316266,-9.183987207457553,4.429960418288866,-0.16567648067923982,-0.006710873697011567,-0.04677045958684008,0.11188454432897041,0.7083255334824604,-0.5818517809701078,3.5145975128501497,-9.31668768880082,2.5902657609787374,-0.14121216889023047,0.996405881616568,0.13791482890257695,-0.5596662082219469,0.8403885347242323,-0.4854297731191675,-1.820680524586558,-8.371442005161207,4.931050059150762,0.3518641081823319,-0.2906513707865786,0.7143155252617257,0.21656092875807592,0.7472673797723853,-0.5811476568881209
0.4625023838499781,-8.154087268326146,4.436881438137548,0.622623662178686,0.2485027982465981,0.5451113422346043,-0.021204896367057302,0.6904418458892853,-0.5264961964345602,-2.341718159911106,2.9749716848536956,9.107803145535717,0.007418121274419792,-0.8279142312263402,0.3120586112634228,0.33793800083788433,-0.3540099176727116,-0.7970177995729167,-0.6404117415846485,-8.831141409498944,4.471824378434211,-0.009512323486772025,0.003354267186705586,0.0557396634320947,0.11705355989748602,0.7151826382670499,-0.5782896662855974,3.5124516031364497,-9.03117620966412,2.5796671381591154,0.02289494390680861,0.9989489821012665,0.05226934062476626,-0.5486250754597161,0.8492311909382252,-0.49754795715836764,-1.9745945421383913,-8.092676245966585,4.816454706419077,0.36499296536038284,-0.4255785188809759,0.7313198340483521,0.2282779985835975,0.7467660947421433,-0.5865216436784197
0.16948762625909508,-8.218346006580632,4.328217442601318,0.6866213015553151,0.35856921694567184,0.5372674136921508,-0.012138584577680543,0.6901955410493206,-0.5450339111120391,-2.2929679942176504,3.1589274963849054,8.884471050809601,0.0889463785557463,-0.9189320389328269,0.363162729042471,0.3086137905187559,-0.354161705153392,-0.8108755720389457,-0.585556055184097,-8.535179126376661,4.4404642936038075,0.1231235870987399,0.04871899592284451,0.1271610499689621,0.11435302510167254,0.721453102861463,-0.5861592507464704,3.212641823694116,-8.849191769813569,2.425951993355419,0.14788553270847465,1.0268697442745023,-0.02962900170692216,-0.5466065335963308,0.8525310480605615,-0.5177852560324251,-1.6494663081070478,-8.272294940789967,4.59176934137141,0.44146575773811386,-0.4939314572771828,0.7435956431278706,0.22679594871065106,0.7422109493034135,-0.6009506401856658
0.1356755662823876,-8.358484910648247,4.349960156596097,0.7306279478985057,0.3799158074949474,0.5489767103211943,0.01030263713677708,0.6779345183467436,-0.5535534935694983,-2.0102775665687345,3.3160610257970844,8.499564554818503,0.15978032849913387,-0.9491931435079104,0.4058753251976279,0.29034673227969676,-0.3635991029896387,-0.8143419533467695,-0.7185822546695566,-8.532688523185298,4.534644494639896,0.21071832064276072,0.11141116515653628,0.12052191869099033,0.12408610025504899,0.7155320328870742,-0.5885819138301693,3.2976676391232855,-9.14622488110839,2.7370429158750635,0.1931241693527381,1.0571158426844216,-0.10706561405241276,-0.5333950042573813,0.8474624655699026,-0.5314514621651256,-1.1689664433081357,-8.406761941469533,4.673436039789242,0.4898137015241344,-0.4163261716877602,0.7406304661942013,0.24139417981678252,0.7282965767746188,-0.6110367813061293
-0.0339256135085663,-8.3774114007779,4.662276154442651,0.6942601201379699,0.34560898010703567,0.569831853081579,0.03226170702125484,0.6673845298754693,-0.5625607618604177,-1.7562390375985344,3.3240912589491978,8.459239716254913,0.16889285091940795,-0.8985564617004964,0.411752716087701,0.2759636658443682,-0.36937967546671946,-0.8193432714484442,-0.9365518339090191,-8.661410051276558,4.916518750856549,0.12231022255130257,0.11656386501475402,-0.022993836614907146,0.13140530033235612,0.7164634604861422,-0.5903363193864879,3.687066474832818,-9.040617204714154,3.105306542752156,0.03189559701346172,1.0979491090347366,-0.10442559537767916,-0.5187099105956172,0.8499419226504364,-0.5423804032726166,-1.2975729539258227,-8.336170537482163,4.9046408194951,0.4624267400938839,-0.26058441416078915,0.7072084755887912,0.2547908480986529,0.7199855649020421,-0.618162347290626
-0.18198599903008233,-8.430643351072352,5.017122690472057,0.6527500058778369,0.3189615715912572,0.5554623161543176,0.045191104052234,0.6554016866505744,-0.5762234662655821,-1.584667430797716,3.5082484988445777,8.53668955781641,0.1720059834097046,-0.809758564019568,0.40719760614992245,0.25281485746796367,-0.3783225890012121,-0.8208551597601572,-0.7802160796555364,-8.326975999095882,4.819419127283605,-0.05630811041074871,0.10917136122862428,-0.1869122712329508,0.1258239946579534,0.7158342047552056,-0.58273413534544,3.4216389063021797,-8.64095407856995,3.3147613225103534,-0.20219980053774178,1.1242664558133426,-0.042780895460503995,-0.507950691485613,0.8492269478451078,-0.5489462491564816,-1.685507001421322,-8.391564839619143,5.237118972296929,0.4499174143894953,-0.10508452864672757,0.7143445440116178,0.2654866448603647,0.7072677956379513,-0.6211618081717676
-0.3490345781444301,-8.493679117582154,5.161163218207827,0.5673260326716016,0.3536068879810187,0.5733860566097506,0.05788187736782548,0.6521937463983227,-0.578402293470813,-1.2191603936555577,3.5844236987615354,8.955068718987437,0.15343812704598012,-0.7571447948904002,0.42660085283903904,0.23428500842089295,-0.381029450215329,-0.8161330777341562,-0.5224840691482665,-8.341120747799819,4.744215450106336,-0.1085938919653005,0.1276900450215295,-0.24471274949055763,0.12293586379438462,0.7229619997145819,-0.5793804413922008,3.359557146048629,-8.605145947742312,2.840616013781635,-0.27959778105252053,1.144762712251995,-0.0509288539922435,-0.49889216379938206,0.8575196055680999,-0.5508194469696044,-2.06035411178893,-8.439954157621218,5.495709977056082,0.3718389026972943,-0.04043408886721817,0.6944014836334597,0.2757298699521788,0.7043258951625486,-0.6258170523448758
-0.538232630448785,-8.692330379103952,5.285795590980867,0.6051742549549985,0.409636513048541,0.5571965845436374,0.07642399216190941,0.632153435129903,-0.6035400836725762,-0.9150722633969688,3.568731604198531,8.94464248980037,0.22807537689936822,-0.7088389764844577,0.4756562411307957,0.21675783837252896,-0.3983290528923061,-0.8370490032053003,-0.4696573929100363,-8.341941169463498,4.901720909109873,-0.10026134442274541,0.1516806512835531,-0.2584284114735467,0.1201677757132375,0.7152781438524614,-0.5907575211346113,3.5751693342244226,-8.686004129206282,2.851790216499755,-0.2897978204720563,1.2029058916083668,-0.06178636034373478,-0.4856544853679568,0.8505693329717372,-0.5754850593395098,-2.2562970388674946,-8.495900572509072,5.394444785987876,0.42435341500443047,-0.0026611964716134456,0.6955523977109253,0.2881016545812125,0.6824407790375827,-0.6501067749717311
-0.4966799873193667,-8.36447579312615,5.4737660635325005,0.6201544438987643,0.46981942601140325,0.5502464845793476,0.10157977941711817,0.62867578445369,-0.6137523881306753,-0.7223507065715145,3.4800700163598735,9.068699570250061,0.29506744212876557,-0.6525533753203543,0.492372489032034,0.2023766797543642,-0.4028049373069863,-0.8371887619460227,-0.7013485561207126,-8.531953591497766,4.816850207352701,-0.04573176587270464,0.12464677668854708,-0.27123312375209563,0.1243453235983056,0.7223452100761947,-0.5906112144111478,3.4477621984296305,-8.986500992929775,2.7644434255918284,-0.2624407716513726,1.3036874025488534,-0.11163423714280546,-0.4675515738891694,0.8549811934373415,-0.5844375833536203,-2.3763998846283045,-8.343049964637462,5.424688399105927,0.4482691749380335,-0.026377694567110865,0.6869517601831289,0.3078693416811025,0.6804492659714276,-0.6562210096276939
-0.6315285100621756,-8.094306420345296,5.464748914355404,0.6248359900626937,0.5628192325285198,0.5572987181470823,0.1123112732855008,0.6213282351363781,-0.6196011469205841,-0.557268519531237,3.4834890781409804,9.211942767046752,0.34391064046297365,-0.676528338098702,0.493740593655976,0.1784877958865906,-0.4069736610593484,-0.8304780347254811,-0.7978583303351818,-8.665067758348354,4.978735499071085,0.0674925265370538,0.07872799017998909,-0.22852217563699287,0.1156050236288868,0.7307206606732906,-0.5867551877333119,3.466338242190393,-8.924692495333108,2.466951272095234,-0.1601084675746374,1.4739208871191163,-0.18514952571880652,-0.46287356523318535,0.8633178149234141,-0.5916942352821953,-2.450462328615295,-8.195573427056617,5.300454760413183,0.4584635005753862,-0.15251547488208805,0.6919227973998645,0.30856936639860555,0.6716780669472572,-0.6601748423344828
-1.03891556765548,-7.959437365837831,5.254888763324457,0.581932258057839,0.6155802676092073,0.5793118509152747,0.13450660101456402,0.605167533482331,-0.6332532096968958,-0.4961191586098776,3.43160420801406,9.164742339963707,0.3419566016854857,-0.7124384688811058,0.4910456087493906,0.16049471482433247,-0.422798173796505,-0.8362788760884713,-1.0046709336332615,-8.632996732008984,5.076289918799822,0.06879918062695123,-0.006767014920085832,-0.2018774615828411,0.11552344876948169,0.7196377592413185,-0.5954225593874817,3.1857766817232993,-8.248550076116592,2.875840764176289,-0.13476192595281675,1.7130366687683545,-0.16959930928664382,-0.44476371580366936,0.8560869620446129,-0.6124415505129762,-2.268040233878602,-8.140724592195387,5.2940405827384955,0.4222191978021859,-0.18945136207968724,0.6925982220150653,0.31655874765688474,0.6531696659214482,-0.6739479548214153
-1.2967767573863267,-7.771104331398926,5.376748791322267,0.5523699772924561,0.6060571967972775,0.6068773853243813,0.1496215519586181,0.5987741978806898,-0.6312806720309367,-0.5210421008497664,3.874436674045969,9.250139857821106,0.35792814288942837,-0.7680030977942857,0.5035242138121123,0.13197132976501527,-0.42669746162815325,-0.8266331788527148,-0.8007913433861464,-8.798478233972384,5.222175949377134,0.07781848589327305,-0.052238386819722774,-0.1669081468615342,0.10360686122733195,0.7260826611798975,-0.5905530273409311,2.8223823937263184,-8.950408989018602,3.310756910739251,-0.10618945202580471,1.886148209614266,-0.14460667479877054,-0.428365088097237,0.8639159333538936,-0.6206447960038955,-2.267918245830721,-7.985328051663992,5.318528154459489,0.40195020019739436,-0.0859051487563957,0.6993174884560059,0.32410632040052556,0.6475246548393362,-0.6734908021529548
-1.569162511100644,-7.600101526211115,5.785234577192942,0.6126145422459586,0.5564085380614755,0.6123041681926281,0.1722857421086291,0.5772385973555731,-0.6429857822767542,-0.42835098324476567,4.319815270015571,9.046111573381713,0.5057811003974078,-0.8097267028063028,0.5483172069242592,0.11182834797338141,-0.44928596388160447,-0.8274312443185367,-0.6124944871952134,-8.635042810723556,5.776666381059312,0.24861721430636052,-0.06712224737328508,-0.14037522034570318,0.10133287525697554,0.7142946176546943,-0.5974930260912578,2.9952385281551526,-9.188548786624686,3.798260961988525,0.04771026050860099,2.023379619043941,-0.21990068746094887,-0.4083180410390195,0.8513007889936361,-0.640200429821685,-2.5619480569388435,-7.5184995273013175,5.416211164297894,0.4763112627094184,0.01683941556708043,0.7159691043254022,0.33672232523434786,0.6255565532479278,-0.6828877595596121
-1.6996252860578307,-7.591569589266939,5.884944229441112,0.6033318081435614,0.5621634477167479,0.5944894794093839,0.195225668290459,0.5662021786746133,-0.6554088836395682,0.0838805727427374,3.9534883240045016,9.01701818332787,0.5918727252676419,-0.8154572416931885,0.587142826768233,0.09187108522727794,-0.4608722989141768,-0.8274393187211518,-0.8367698352967499,-8.447099590042965,5.631133037047909,0.3179916531093186,-0.13449000314658083,-0.11974610485704949,0.09979760679004446,0.7131683282755497,-0.6116343094477594,2.707949821712785,-8.462593153354268,3.521647929008112,0.14129778139137344,2.198421190498618,-0.26553624982949753,-0.3789378946169215,0.8494782789141422,-0.670646483674791,-3.0062681958928934,-7.290858025157628,5.6851424974214595,0.4813834064000419,0.02289118871438025,0.6913506174069238,0.35327690968162884,0.6128800012030803,-0.6973622548196243
-1.9421404831591642,-7.537064329333236,6.032105368208999,0.5704305642871849,0.6145301468849133,0.5796303801454948,0.21059615169840967,0.5605467269622821,-0.658561940527004,0.2785801148355415,3.8994512183558263,8.907762564291748,0.6352250539487097,-0.819330067083741,0.5937002597585851,0.06167711520694803,-0.4728863485913661,-0.8205829970567717,-1.029126660161824,-8.492406643475613,5.7916225849539265,0.36477004488246645,-0.25805825958795625,-0.09693471434361595,0.09124663592511645,0.7163330085787571,-0.6152914348004979,2.319462179638439,-8.511933828532598,3.483339175890036,0.20350256971261796,2.4843468157416897,-0.26646079148251917,-0.3537382440696466,0.8488134591774755,-0.6898657744008548,-3.149145146242024,-7.2328186746560625,5.894051810476882,0.4590559656091771,-0.01794107978488567,0.6609491528709136,0.3571606647718547,0.6067832221557564,-0.7013015719745713
-2.206148593901513,-7.536518403720423,5.968884106180462,0.5698830081313547,0.6697224482510915,0.5498682897592134,0.2286314336186698,0.5468287348111813,-0.6634294785493591,0.7185111983407744,4.193959676940741,8.742352954831327,0.6982965218344265,-0.7961333681162148,0.6115270565754829,0.037580208340046696,-0.4838944621541069,-0.8139997823984392,-0.5055793717564085,-8.669866154941381,5.799674116154143,0.35390997970195337,-0.3920958026503029,-0.13231147121991235,0.0821442289742204,0.7099110138965445,-0.6249429419367908,1.7969000062144111,-9.130777860133039,4.065010486655722,0.18510228767664705,2.7577899176404554,-0.26362311867232446,-0.31998644180007146,0.8454731053024666,-0.7137169286820466,-3.326726324528072,-7.126268756091948,6.042627918184411,0.4755224764616378,-0.024904087371573982,0.6231334259217525,0.36663454648350646,0.5936340675235275,-0.7140685082856585
-2.4920145794713093,-7.319707491494008,6.118103406020524,0.5174691510533779,0.7186943781377043,0.5320969851816068,0.25643118901533757,0.5338119312692824,-0.6663241789547631,0.7192433282057877,4.7839107802712455,8.626125272367196,0.8247791579235793,-0.7495962295797911,0.6964537367812974,0.017468022830611937,-0.5072391730443806,-0.8018441805423557,-0.23595213791293418,-8.666240241880296,5.686172345144217,0.3786629668618115,-0.4177285481486628,-0.19760281942072844,0.0772025510348495,0.7022888516277168,-0.6314279429769752,0.9877120552320255,-9.354786906659113,4.260449274488145,0.20576888973883445,2.8929631422446436,-0.32373044011745955,-0.2755143183265514,0.841085097460878,-0.7304628543637801,-3.36330815551767,-7.064646476090456,6.062800334620383,0.44064814065537394,-0.01743008740156082,0.5876481272965444,0.378306480549491,0.5806581216602358,-0.7151163609051777
-2.9904680243973654,-7.365488361687204,6.070563078174565,0.5139204629373194,0.7045407143270583,0.509539207090887,0.27788962760679964,0.5186266382083595,-0.6763143310992674,0.9143216051447127,4.847125150441135,8.838895615045786,1.0173423069402914,-0.7185784469143811,0.773069674446309,-0.0070509092359689555,-0.5291854620026637,-0.7921440079524514,-0.3660482834783181,-8.655422111669774,5.489370030315913,0.5572863548065432,-0.38503028846128984,-0.21510470233551748,0.0685261648461861,0.6908803890761134,-0.6503053246787323,0.13786569571770152,-8.985830894961266,4.6882928815717015,0.4041364713890714,2.961145350043636,-0.38178192551526535,-0.2390902536207382,0.8265357447850317,-0.7585301272811937,-3.592136804148527,-6.968222727733507,5.971541520105994,0.4454791120546752,0.06079767036200648,0.5576005972212825,0.3911769845367071,0.5618710475805796,-0.7259610213719956
-3.3035216158629512,-7.450771647648013,5.788812807400561,0.4972356951479597,0.6920337695649629,0.4841294177463639,0.29130780600031425,0.5178493999362066,-0.6721406801473885,1.258487999789424,4.425077192415104,8.917724381618141,1.1877947849934916,-0.6728686874053103,0.8417745513121193,-0.038684958790086904,-0.5399695728017,-0.7699234884472346,-0.7287652168835808,-8.741275855708276,5.267713461627652,0.6194345567062437,-0.3478736050854515,-0.24110863700205917,0.048975964131526724,0.6955071074824334,-0.6578311492053308,-0.7040800376331002,-8.551317123348872,5.7175545658097535,0.48973909664627996,2.9147930144361456,-0.38661538884961083,-0.20728552954939466,0.8309847819739823,-0.7781852563786338,-3.8840947286892096,-7.143555465348183,6.157920930179747,0.43929430494608773,0.19260510106448453,0.5213949102282006,0.3928894610606953,0.5628630926022079,-0.7298617029572896
-3.472182096919879,-7.164920298877857,5.911409069778044,0.46904002702442127,0.7806699008472278,0.47556362605030006,0.3117545233390466,0.49728082977777804,-0.6711525866762107,1.349286560973406,4.8021685691797575,8.848984732065233,1.2647214752761404,-0.6715703746634144,0.9318243631730091,-0.06382477968553556,-0.5783368722641932,-0.7491997425672029,-0.5715399405159083,-8.77031975021346,5.204814630405756,0.5448206347126965,-0.3038178403416527,-0.2601272295519802,0.04151599231246559,0.6724655601535853,-0.6685298553023911,-1.067462515452625,-8.514391749734251,6.012800961457802,0.4337718833094056,2.7485997847410126,-0.3380691210239009,-0.16481498724989826,0.8090056924628367,-0.7921219655327971,-4.370651981857174,-6.931514511741275,6.592965412964115,0.42394989161146035,0.24782270408079932,0.4994105035146053,0.4052570239973153,0.5398840100985729,-0.7326730642467509
-3.6761051370120557,-7.108024790031591,6.235911596488836,0.5279228253059196,0.9676190617546129,0.44019512457561166,0.33466929154572184,0.4874453076435235,-0.6679491503367568,1.8458319564817394,5.029145910152185,8.377003333779708,1.4455446398606302,-0.638807355527398,1.0874493024846232,-0.09563367271796934,-0.5992627847368008,-0.7202137367844126,-0.032003058078765814,-8.391124488372805,5.093177359686664,0.6574761819630616,-0.16452547554779035,-0.2554017639818658,0.032412417301848614,0.66604088258988,-0.6784253448925271,-0.8814824020164111,-8.106463563379364,6.249298830795909,0.5741292148768583,2.489813815768549,-0.30647996351301654,-0.13305016097336048,0.8048640114136935,-0.8047527517200677,-4.6588395192006296,-6.552409815797359,6.68196950634855,0.5044034590464929,0.13464553456960301,0.4679465138532382,0.413270525494543,0.5278973319613022,-0.7337144743424401
-3.81470922784217,-7.287688835007132,6.2199489448862995,0.47189023505920663,1.1663776648360389,0.38568874236798245,0.3724618758611109,0.4658598861049312,-0.6749885322531953,2.2333525749417067,5.143786621959487,7.943552875975451,1.8205411920767025,-0.5331579438334022,1.2469546828226272,-0.11538338110767561,-0.6410131521826838,-0.6991991229013238,0.008405118156127201,-8.10524584438197,5.157352180733015,0.9067636108828682,-0.019305767835013483,-0.25492885239604224,0.03807134240685826,0.6423173243756674,-0.7023633059024534,-0.8265498838243914,-8.00262544038747,6.705945870149724,0.8441940206786639,2.150459623991997,-0.291385586417021,-0.09031781264661873,0.7766093540449394,-0.8299606944654865,-4.497886933920865,-6.456011056398608,6.755606100322892,0.4663186464418737,-0.03180028019534346,0.4015627268785245,0.42588183928180384,0.5050041068910833,-0.7526386106884811
-4.2110526326359885,-6.902365394930715,6.0990544387533925,0.36404276733826346,1.3151038742611019,0.3320648602142958,0.39441529705740425,0.46773262997030157,-0.6612737753398243,2.3396477201719525,5.90670238020954,7.4379496872431945,2.0750616713650984,-0.3709555031054482,1.375346497260697,-0.15180742760919155,-0.6599696407822875,-0.653389013990424,0.051312202129025694,-7.668736267245459,5.876935920186628,1.0334665904007663,0.09263379987956234,-0.29655521151092207,0.026992294549049556,0.6341542920360738,-0.7156494685383364,-0.527280034896802,-7.791898460306568,5.714674751842608,0.9850881125678427,1.9267274737051485,-0.2926363532804873,-0.06930586339425424,0.7719822631858319,-0.8392074822751869,-4.413080756127635,-6.232673430764246,6.665121658035239,0.35755724799122884,-0.14335846294745982,0.32436773959239634,0.42394481520504246,0.5094034452971525,-0.7521266172169107
-4.467769787778048,-6.972158938050045,6.276637697884478,0.3611716924261233,1.3502655260406118,0.273093665686922,0.42659253935753694,0.4585896079886355,-0.649019416605018,2.670125762211624,5.978042549371479,7.0067337620414785,2.2828291685905677,-0.18547423449623243,1.4171014621963862,-0.1762271348870196,-0.6874502055103825,-0.6101431954215708,-0.33520283308615284,-7.617115172029032,6.032939840811291,1.1673096547250466,0.11305365357690433,-0.357604850553801,0.03003204160359051,0.6171287242236035,-0.730858910720987,-0.8162069795753082,-7.717318116741261,5.286288385492761,1.13855197346812,1.985398220864208,-0.29880542179834557,-0.03292892899253036,0.7527116745516953,-0.8546091937458827,-4.034156927712729,-6.212939636461616,6.48441470294271,0.36434934900675564,-0.12981645569873196,0.2640644855469446,0.42756509143727073,0.49793001811997245,-0.7548741912035953
-4.864994821621894,-6.924443104179651,6.4441290570849095,0.4538438017901491,1.2008129939683256,0.20457643972728232,0.44729527188122303,0.4421713100487796,-0.6480255147935526,3.0516091935018843,6.578117106850225,6.818145814582746,2.2282718739929352,-0.01713079367921063,1.2244930532987655,-0.20135914224962717,-0.7206369157799393,-0.5719278500559937,-0.23581537621015972,-7.378169642279206,6.074874770205505,1.2146769513468523,-0.04345179612267339,-0.41841213412308087,0.020284922816550827,0.5880755195329617,-0.7561296151542828,-1.1204216292876377,-7.389163329108174,5.736831834301962,1.211936020110568,2.117078861358064,-0.299917230912801,-0.0009476495106797364,0.7239779399813416,-0.8774091164068091,-3.985337119568793,-5.989485979926828,6.492658901085756,0.4665865010217557,0.08631420260729962,0.17422854353561376,0.4275161980471473,0.4845564863445616,-0.7647131617944893
-5.076127661955423,-6.501705838192747,6.455790114053068,0.44167795673860616,1.0012182666371061,0.1464622287909021,0.4689919914883672,0.4350202265655344,-0.6416468544087522,3.1529283955903433,7.837685262083077,6.396353100727387,2.0226617822733473,0.11443738691796049,1.0651488407448955,-0.2194646061378909,-0.7424936734645312,-0.5302551426576517,0.339425757767334,-7.266895358862143,6.3739790178121005,1.1362169642647821,-0.07492398988834943,-0.4649188304221859,0.010372014939812308,0.5652563372145579,-0.7695042161482095,-1.2460158466014293,-7.062855545914394,5.926580669751607,1.1532123683332962,2.171528836097569,-0.2867466997994028,0.036877373408958684,0.7070942435578028,-0.8849779829141937,-4.2633028001290745,-5.902971346626927,6.609518956145831,0.4524690290691218,0.36571661165067143,0.09725109925855979,0.43944723368546246,0.4757162679262844,-0.763296460727077
-4.942637289973417,-6.487080841059795,6.443122025327176,0.3896330812017993,0.8563728218169763,0.10494624869628126,0.47677039697593415,0.42912700428072603,-0.6326071280205906,3.490940717689313,7.8769845195865145,5.990714978384403,1.880158915605414,0.2108766544162483,1.0081917644082818,-0.24859009038283783,-0.7600947039014735,-0.4932726859916166,0.5790967669540297,-6.975671413863907,6.512462511536423,1.0928040333014706,0.020933801705260175,-0.5091151815495225,-0.0019756929916365197,0.5451248299501789,-0.7836287674721948,-1.406151922839809,-7.0604384695620865,6.9095413436383515,1.138019953279149,2.08303446694276,-0.2722700190087327,0.06420308621266438,0.6890179332071182,-0.8930738068299621,-4.26232769754369,-6.028088076366478,6.475003624888653,0.40012219342631916,0.5227274217357956,0.054755262561319545,0.44161938321999594,0.46887908755506513,-0.7645547440699849
-5.098510610364299,-6.4778575462055645,6.121788846555742,0.2885639306968917,0.7735254443204934,0.07904202689419632,0.4972464655125942,0.4244157358921728,-0.6225655617855343,3.468395673448471,7.254652550937234,5.866654133282942,1.5393505523318576,0.297242018925181,0.9046249086626388,-0.2555452532589996,-0.7713282177855976,-0.46230179836821683,0.3621420241561362,-6.623878829906713,6.540882039967069,0.8909504188525045,0.006801996114376931,-0.5424918971103687,-0.003076645021732651,0.5274119865023701,-0.7961246355741254,-1.8416517388085216,-6.985352850948938,7.319297630133994,0.9651513576881294,1.9549523349932063,-0.29904881171202,0.10373049920089682,0.6709030004721309,-0.8996697364433376,-4.547888650159164,-6.077189872723109,6.508876066399339,0.3040092391998828,0.5928775445983401,0.02653130087560192,0.45918681466459826,0.46561607725993154,-0.7599337101756003
-5.0217177544739435,-6.541316957788795,6.049617058697097,0.29919413829722064,0.7718410994340686,0.05392731786387938,0.515289690001284,0.4177689155124125,-0.6205879728773057,3.5172973197329913,6.710357111317029,5.708322113295473,1.3553239644134394,0.3851312532183422,0.7789245976428704,-0.26494017924454194,-0.7866461839986455,-0.44102419507691304,0.31588679863245017,-7.051374045200773,6.345395899953417,0.8258287309581699,-0.07115700876931827,-0.5909724456977854,-0.011732890467871255,0.5119343328615272,-0.8076328413226469,-2.0974516282658358,-6.834478396588994,7.400263241082193,0.9293546965682705,1.8186443156612622,-0.31882639408379665,0.1374007774094565,0.6537753687516952,-0.9057871027072874,-4.613510890744754,-6.149352475975675,6.284336769713125,0.3091708651136253,0.5524835454534478,0.004566931911094272,0.47429615164135613,0.45822797989831726,-0.7582651459730344
-4.994685548014464,-6.483566008877709,5.785658316195923,0.42978310844791306,0.8090498346540138,0.030244921378017285,0.5269691973020871,0.4067436801324816,-0.6164306960008394,3.517530302931728,7.18659564729873,5.83810357597345,1.3854740492632933,0.4007983868131616,0.691469583427168,-0.2796795959582244,-0.8030525643681724,-0.41019420996321543,0.3537339218398075,-7.1003064519083585,6.08986737784144,0.9398132471898466,-0.07317890523730537,-0.5815251934462907,-0.02068198632018164,0.48351407176093003,-0.8194853605654088,-1.999903926976532,-6.131489549510734,5.406269275215257,1.0518803831868144,1.7187988722925867,-0.22655413151715675,0.1642012532664504,0.6268749744550753,-0.9083265306989967,-4.62938698134366,-6.016568585167214,6.340822921060706,0.4359724291815413,0.4318348003790307,-0.03219452428827991,0.4805971470358688,0.4452598972292047,-0.7573598455116443
-5.062213285866861,-6.698934390231253,5.444812443604377,0.5854927204467961,0.9031408988872611,-0.002546204610765181,0.5437710670555476,0.39643087548282874,-0.6086000872093178,3.6499679639662235,6.86991512712404,5.50062539443485,1.5450133966989326,0.4227797597124923,0.6872650615434155,-0.2881236487085322,-0.8106648064914961,-0.3812361580949368,0.33805544884531885,-6.970377263539007,7.633460807801299,1.1670168387422952,-0.06229579804441616,-0.5811414832740386,-0.03229378488022197,0.46483841574093987,-0.8341184790445318,-2.7170021520964984,-5.66329200332077,5.8401906590689325,1.2793373583563947,1.8482231383649372,-0.09039581721597886,0.19833333138778636,0.6053159038448714,-0.908856169767851,-4.589848668294964,-6.0986331211369675,6.339948427874719,0.5735689689235319,0.29120637061590876,-0.08510418252181473,0.48422362025701604,0.4354980908511466,-0.7605861060735961
-5.301650232594914,-6.538062225852782,5.2208811145351,0.8046875830340773,0.9934594362294467,-0.03632360570544924,0.5630327689654754,0.38782972555250306,-0.6083317787876447,3.6050695154246597,7.397782946374667,4.92852074039929,1.7267160289295063,0.5031884548708679,0.6913483703008091,-0.2970483134730443,-0.8189835626642215,-0.35055491645481046,0.544217753955363,-6.339923852390586,7.485568149518223,1.390380288051443,-0.19258712734822928,-0.5936310439134251,-0.03858276686255773,0.4356244130440501,-0.8506133389121383,-2.9834311980756643,-5.654246647453153,5.166295786150419,1.4879849994030747,2.146099038378747,0.06368140132919942,0.24760713059706432,0.5798483086733113,-0.9144947218569327,-4.622348075370578,-6.110183576851886,6.475695034633455,0.7854009602203752,0.23663560418985624,-0.15092852973382542,0.4922556313239273,0.4286778624138438,-0.7686804871669238
-5.790823807744013,-5.830533621039402,5.683929038841732,0.8749811721797583,1.0496964949001912,-0.047370217723686,0.5769111758254291,0.3760679544680084,-0.6063684168786899,3.185425097818603,7.861126324760033,4.686605630363747,1.7487353831997772,0.595227831686859,0.6846337372621141,-0.308175743878378,-0.8273557401366959,-0.32231079149148667,0.35478649707739274,-5.802843242487019,6.768532994524241,1.447378828805981,-0.1524116112717148,-0.6425071645536627,-0.04927736027016673,0.4063995874866185,-0.8695291636359935,-3.5761593110258167,-4.719398351986305,5.715440593205244,1.586809358636742,2.320350800040853,0.14185290049422464,0.29026910781822657,0.5504630737590208,-0.9160276039831886,-4.877757489903417,-5.847013007393827,6.558390220032086,0.8552410568072019,0.2148076328712898,-0.18307392758264,0.4956299933830037,0.41676918344252656,-0.7809525688099203
-6.005947139154848,-5.363193751846779,5.992268882723002,0.8848413916782817,0.9840406331901437,-0.02957151483409083,0.5885661511762242,0.3579599275293715,-0.6000222896374543,3.4372322024312636,8.915762089765098,4.435445529860561,1.6072115536731408,0.5582797141309298,0.5949861793188614,-0.32244775016638055,-0.8378019391591498,-0.2857230575291531,0.70933613150275,-5.201152810088319,6.707761512645711,1.4203623701241797,-0.029239881710689215,-0.5951677534542402,-0.06241558812707742,0.36773577562786475,-0.8817380224823719,-3.671193778828947,-4.030867381461489,7.806068575507099,1.499471780583143,2.0959402525834427,0.2536449051573349,0.3297229104774516,0.5159075977614176,-0.9097900551612563,-4.85301090902301,-5.597270974721713,6.408993598378414,0.8633024297600744,0.2344680380502169,-0.1845890115126951,0.4884781673807394,0.3970472283662509,-0.7861869338910642
-6.170814113574192,-5.051856544949248,5.867322269719468,0.8236794499962243,0.8214649431737949,-0.002526869682254831,0.6058662642065152,0.34716587774367014,-0.5985404008552038,3.7624412177026545,9.02158420795764,4.374627729288232,1.2542124004548534,0.45596340595476736,0.524909014155218,-0.32483366136050557,-0.8401516865439325,-0.2651674771432468,0.9587377243603226,-5.065334111110442,7.605475766769518,1.151589086379364,0.14002509905623317,-0.5081479820399114,-0.05987450573991489,0.34318477559195293,-0.8931990626855258,-3.899995574883614,-4.735475984612095,7.617047434043215,1.2177262194880336,1.7607211381893078,0.2474868841266731,0.37042503657933185,0.49282879349450515,-0.9042074937960595,-4.880344469147304,-5.14686377518041,6.395161495490866,0.8110670319604237,0.35163017514510014,-0.16695795399840999,0.49966459992111495,0.3850663153495171,-0.7904024076847301
-6.089054103697214,-5.651696889007319,5.4698478772283154,0.6374752389306096,0.6659431283029995,-0.025699896388449,0.6155937789281006,0.33760872572578643,-0.5931638171212329,4.237522651801883,8.667124830598821,4.145062684534853,0.9825408560943915,0.41615350146505053,0.48765665750062154,-0.33820648552110444,-0.8428186659730728,-0.24531800602449294,1.3346062675276444,-4.656188129924136,8.48163470994899,0.9509075895646977,0.19718832567994227,-0.44377719814541794,-0.05925966481125705,0.32257346254900277,-0.902254027195559,-4.144394996471228,-3.6515076844026733,6.0735679704834515,1.0267437663653005,1.7814864482845383,0.2925562021365104,0.4067026128530528,0.4667763416137663,-0.890355741679228,-4.853836666984938,-5.117379810445183,6.412135900576545,0.6263398759199224,0.5298663281480068,-0.1665355680224645,0.5076923149908767,0.3769759239396784,-0.7894705715433794
-5.990599949406688,-6.193046045356553,5.380361147726623,0.650874532941638,0.5540154026791474,-0.09199742213924694,0.6238684209071195,0.332206165442677,-0.5872955563476793,4.746688262439923,8.511543756821087,4.0823200530968995,0.9820647854256246,0.4637252428971627,0.4997878468419271,-0.34722637073484014,-0.8391768832057664,-0.22924673753047592,1.6993063089305027,-4.610809890345396,8.73946243133381,0.9827156303992285,0.21619687034928636,-0.3605434888515125,-0.05914198796533133,0.30291402785435584,-0.9137582541425052,-4.424998593344814,-3.4581709028423124,5.863640302067667,0.9814377360842352,2.078905760910026,0.3725349118632483,0.44836148859876684,0.45287864287862,-0.8703065149991221,-4.794722599318795,-5.150607559439856,6.39219776870042,0.6319524702541568,0.6981766438666511,-0.23688616372377772,0.519636696942124,0.3717790144057588,-0.7846159800982655
-6.036940164536286,-6.2046510376984605,5.306869940548573,0.7881864201431888,0.5164025794060115,-0.175514861141963,0.6269845700026301,0.31144664435742725,-0.58853753868476,4.111078936003198,8.27473687446001,4.670786823012653,0.8100109361010277,0.5141000760471949,0.509196513575069,-0.3576246513479358,-0.8511572943156446,-0.21241846468595546,1.0554165307875878,-4.373558382740333,7.559700299138852,0.8847430808707505,0.2602510937838864,-0.2907118544050508,-0.05658312600844013,0.27041393871743313,-0.9153662673817718,-4.898689792026777,-3.8911268164860844,6.741436344484202,0.8606701692326216,2.193099313968336,0.4395547791091617,0.4894801308000198,0.4204063323919615,-0.8469602340279827,-5.03026723131791,-5.263449297394613,6.694920344014437,0.7531869353647903,0.7654857209296012,-0.34243703292092104,0.5300513614550875,0.34877511125446964,-0.7815673601008685
-6.191202132633131,-5.387093876975459,5.617751011631121,0.8842591129283501,0.63911355182781,-0.23859776443045014,0.6364855181238515,0.30312092730751383,-0.5907278061119563,3.5492376952685905,8.547583037605827,4.396463293760415,0.7242096893323279,0.5212734950848315,0.5384607722919262,-0.3669314782155678,-0.8435332635606104,-0.20618066533825172,0.584424703342844,-3.9628071945374717,7.32300059689105,0.6620527494459738,0.45249184508574397,-0.13369028236534522,-0.04692050171191589,0.25779392986472777,-0.9274816325954934,-5.240530669545001,-3.8357043727511666,7.424533455113446,0.49290102144570247,1.9054356425486645,0.32808604082152176,0.5235872958408984,0.40996298542442716,-0.8298394042294608,-5.2853492869726955,-4.902640896015677,7.118650266903188,0.8419018141383826,0.651865645374057,-0.40642304168017424,0.539054955595268,0.3407200594933047,-0.7879594548814441
-6.168978727773016,-5.199228440179998,5.854037052782676,0.754793138189011,0.737751041796506,-0.28443975121623666,0.650869881085542,0.3035528029921283,-0.5787378060877952,4.1418206979521806,8.490254028507028,3.3669746339237703,0.5590954292896766,0.5531752615283946,0.5536372081827453,-0.3713147069098883,-0.8383517164251971,-0.18721423052575265,0.9119510152695002,-4.071218663248832,8.57358964550557,0.5826845696423426,0.5765949634608573,-0.09460409127141707,-0.02885455489692576,0.2526443338519756,-0.9236042158544924,-5.917535047823042,-3.5293436607276147,6.884628014981764,0.4488761402018504,1.6614212044929801,0.35338633840541084,0.5603414712386504,0.40185622326129783,-0.797559421762586,-5.071560348826449,-4.6126519072100045,6.940716524943534,0.7008914350871075,0.503489976471176,-0.42948522747073575,0.5519851821908218,0.3381696526068589,-0.7764983688988158
-6.073620655053123,-5.447567502666305,5.506982868435952,0.7350046982457974,0.7054557455810763,-0.3429597754726524,0.653019478931461,0.29011253969863604,-0.5741131343478308,4.605306676553875,8.14059004738003,3.2344501637605307,0.450250901262678,0.6326615510329376,0.5226344953920895,-0.3896202503888297,-0.839941062142918,-0.18861645345030895,1.1624992910976701,-3.4173015194427077,8.969500617489134,0.5912170685764475,0.5338621186130564,-0.11814976522977483,-0.02628615896162976,0.23251218117685063,-0.9329178194527251,-6.180151808469485,-3.373604273707702,5.386824823036896,0.5212978896094026,1.8008092479233988,0.4550043365720225,0.5866021124902959,0.38285440749702543,-0.775633557179564,-4.79714828981288,-4.618996420719419,6.662343694621928,0.6647079653459387,0.5489302977252318,-0.49228816604703257,0.5509718921435688,0.3279446769941896,-0.781193103183145
-6.115509847378065,-5.079530651184874,5.689912785363171,0.768797372664656,0.6245048630039817,-0.4051719987379438,0.6669144683547824,0.2846974800753899,-0.5711645761912945,4.665087005036408,8.320340368348477,3.1548797536933435,0.340814700235112,0.6957618404286111,0.5120780800044487,-0.38841988980377423,-0.8352547151453168,-0.18625701934783426,1.2239018484485527,-2.4643726663038596,8.276359982275578,0.4073808889781188,0.5630373693859956,-0.031217260198416318,-0.0006574884898355345,0.22756284015316408,-0.9305449165302615,-5.882510949271957,-3.850813104859079,6.011749773443179,0.2357449169168401,1.9778121214070858,0.29248968003004006,0.6270294420290032,0.37840845226907577,-0.7442952860485678,-4.824596865924078,-4.44367909473135,6.638117439879181,0.683670844712866,0.6757048509925176,-0.5631151535305862,0.5685330235073143,0.3232100582050646,-0.7753600648542006
-6.482566214689874,-4.566194619558272,5.644330902528969,0.6145665382480001,0.5295254880451283,-0.44514248266755907,0.6681224799269266,0.28005527969521254,-0.5714123294391973,4.096990898675127,8.140896881089805,3.578957006922752,0.08942885376965265,0.7054660940463949,0.4631616322228875,-0.4001728894855082,-0.8322900832599616,-0.1948304794582854,0.618012506921363,-2.7137875234242195,8.413344724058668,0.003354078529311917,0.6288262061576064,0.08599792204263208,0.006127817855443228,0.22282136830509197,-0.9376057719681429,-7.018365519544009,-3.88561581036159,6.903931393229643,-0.1294782710340344,1.8478021737960237,0.034729121349761916,0.6515930707120003,0.37522219035961163,-0.7134825012674393,-5.245647882673576,-4.41930411798426,6.6745030867580395,0.5417868647284555,0.768082603304717,-0.5746251341791091,0.573636954953228,0.316839590181646,-0.7746618220898167
-6.380404355771492,-4.529506082833984,5.733295918576689,0.33900235377282484,0.5383811754499982,-0.4652111687261633,0.6729889621205966,0.28392764322001113,-0.5562613741626973,3.681892289245601,7.71554691189145,3.9014787187835696,-0.1807628679869515,0.6698263040074123,0.37322888626136874,-0.40727722935548727,-0.827682090118113,-0.19440666438481385,0.13697663676549826,-3.5031830659317342,8.846481384711696,-0.3765431232358711,0.5269768958810852,0.21936300521353078,0.020120753548219288,0.23263259043251439,-0.9289910169475859,-7.779764983644968,-4.40933421645316,5.220610479283144,-0.4372044824743344,1.8308204376508443,-0.1560202212994206,0.6763961930844535,0.3885435514737156,-0.6681575941782377,-5.392747655649625,-4.420442358954845,6.855802803318456,0.27599432875272945,0.748826070847313,-0.5424774953652043,0.5880518371440709,0.3195949257460359,-0.7521857028885014
-6.224694926713503,-5.409380137295058,5.7192620977973965,0.22407102460995235,0.6085457219466506,-0.48107001249784437,0.6810341557396964,0.28389676706138794,-0.5503876255049809,4.297316976041961,7.711481258652506,3.632537054091498,-0.2338168790303641,0.6522845523945678,0.29086197206908687,-0.40388665706839616,-0.827899698375403,-0.20832767175541633,0.343809730691697,-4.709095011092823,8.672735257075093,-0.3444239248989422,0.3951091805640162,0.24329990813035546,0.038447382566762035,0.23502542861136677,-0.9273959444518874,-7.451172724358059,-3.4034135895580677,5.165208887575794,-0.39102441991330295,1.9208940483874903,-0.05513659670294602,0.7060781472760176,0.38872856955445506,-0.6319380806989033,-5.216689571641064,-4.991744553543321,6.65265810515819,0.14371112756608662,0.6158924852204495,-0.5351352727317294,0.5983137714569989,0.32174534749081773,-0.7504651226152451
-6.459098042805961,-5.707249417015745,5.745858595853075,0.5910808409486701,0.5614869054780898,-0.4887096099086366,0.6812778960207156,0.28365237520103753,-0.5506314928746782,5.035505056479104,8.199509838742069,3.8282536118690467,-0.021339849712250628,0.6461788757832108,0.28997858864889386,-0.4090540035959279,-0.8249540312042306,-0.22008722773262404,0.8494666601363922,-4.2320436935817005,7.917719940436772,-0.06532915393731284,0.49880438075793443,0.24172456003585657,0.04892504058722317,0.2361516797404645,-0.9325858591718489,-6.5149515872683255,-3.605860140488474,5.658435961739195,-0.23671019786904476,1.843873545142273,0.14448287278519995,0.7262628218539703,0.3940903111436414,-0.5998614212669591,-5.29746276905453,-5.197786064761473,6.289477945790219,0.5017999118509266,0.5927376337422611,-0.607242851982654,0.6012384224970106,0.32027373369962153,-0.7512061915349274
-6.675032237110427,-5.114921842834128,5.6858557877254405,0.7424149465796009,0.4337440421574619,-0.5172580891944701,0.6810160552275214,0.27949902048849906,-0.5474633079004613,4.518814979124237,8.551943509062278,4.220495631180655,-0.005106073363715108,0.6114394886781495,0.28285631267625544,-0.41372345751042505,-0.8211516590804607,-0.22478227377848617,0.16929928192047816,-3.3187178900460665,8.57352375215555,-0.20014316777570165,0.6580170428183048,0.36424613338697315,0.06191570044792821,0.24639000712315276,-0.9298304236729916,-7.660295833224754,-4.9225309168709925,5.574636553813145,-0.4487296562275591,1.6384093565787445,0.035716472769877904,0.7427654285657097,0.3984445135186602,-0.5619427437795382,-5.519105691988982,-4.728137158735131,6.592634264768287,0.6539601945092899,0.6949822474163387,-0.661569188661705,0.6068499309163724,0.31924546001900866,-0.7453517891318471
-6.6585961121200485,-4.379078530238014,5.913339004119266,0.5379011066011237,0.4109786129904592,-0.5425329886225584,0.6837344186755464,0.28341197835457305,-0.5589283119520423,4.050836371695242,7.745822408723107,3.861513330370733,-0.2735987954098543,0.580397267525294,0.21234901899573025,-0.4164972485712413,-0.8147747976045093,-0.25101189388376915,-0.08807540389161704,-3.6514588508341967,8.622744002956596,-0.5605179579525924,0.6253706332932382,0.477311385786124,0.0819221163499771,0.25548867415302384,-0.939547939406644,-8.261067698890857,-4.7963348225691735,4.662634542998457,-0.7200700180904707,1.5247116661003342,-0.22749830033372231,0.7607879957762499,0.41020409339749836,-0.5369119864155514,-5.720333231706405,-4.358620554319203,6.80287562749978,0.463230064109914,0.681913555192545,-0.6452542250271506,0.6149058885191155,0.31900944148165705,-0.7521892976951203
-6.66751658191069,-4.545205227622341,5.845734776434227,0.27425187155815606,0.4365331199160312,-0.5372272526652241,0.6903240115297317,0.29045682936292494,-0.5464561186691351,4.0085107343518045,7.402620841091783,3.560571393738645,-0.35004227885964917,0.5512679350685059,0.08862476432154419,-0.41334292052726823,-0.8123707796900971,-0.2542333757567881,-0.2243310874661238,-4.062451685716614,8.471906467001656,-0.5909243379145305,0.509572715956103,0.5204012899632307,0.10182056341781782,0.2731302618148972,-0.9273852978326774,-8.131125897904782,-3.2416538540225317,2.57161038734234,-0.7670467694611895,1.644368257098623,-0.1918274763129361,0.7792453705345643,0.42573069034789657,-0.49061400989204634,-5.762246539218127,-4.65585877985287,6.631726116206221,0.18957477230831374,0.5722496860264404,-0.5987925673134991,0.6254288992344048,0.32571279228848093,-0.7348186963973369
-6.282163503837243,-5.104465261117616,5.81838400596642,0.40898768552518217,0.4426672078967369,-0.5171738933634042,0.6920315887891526,0.2899638804356065,-0.5464536170368778,4.315343366040697,7.532807988698181,3.837995534007618,-0.16071827797967717,0.5149797347681233,0.0018017101322352399,-0.4087501382362216,-0.8091560040495895,-0.26772694905700206,-0.3275034214713124,-4.482903148212873,8.61118442063998,-0.3753090294135225,0.4191785517508213,0.5564586257861078,0.11357959196682194,0.2816561017154352,-0.9253381877784546,-8.363928340332892,-4.089829667559858,2.1914397509291637,-0.6914816302962286,1.9308571684351847,-0.03762101858443605,0.7937898805389059,0.4344488669443449,-0.4470575197721256,-5.407326760009137,-4.957204477631646,6.586135092281955,0.3192816197781253,0.5031147237401893,-0.5996020165840752,0.6305753569936817,0.3310677276768392,-0.7352786208677532
-6.213459659395083,-4.970991741496618,5.838717897252902,0.710271597546438,0.46499930878325735,-0.5010438727446168,0.6964035235832323,0.28944770679908866,-0.5352152244056657,4.121951029216476,8.240822403991743,4.2290416277461755,-0.1269691318264864,0.45944913072915683,0.011604382165823305,-0.4053399117443091,-0.8069034303388812,-0.2655735786867024,-0.9549568398595781,-4.286415649938289,8.571182783415047,-0.4082784037023013,0.44050541322754927,0.5993090381477045,0.13149055304190618,0.2900257529622048,-0.9133080925845559,-8.898365404783693,-5.8142645974549545,4.603338141094865,-0.7506626012067029,1.8718884777785345,-0.08698000717145916,0.8095286789492295,0.44261982186540544,-0.39495592756730724,-5.348315370674382,-4.994792618811107,6.771080255269408,0.6321000396502495,0.4177622356234303,-0.6221898730115,0.6310448478384494,0.3259005063803432,-0.7282256614591277
-6.430447860940607,-4.395992108116397,5.898653167366999,0.7535134744097873,0.5313204063942379,-0.4909351370170531,0.6954163282528257,0.2831085903997362,-0.5391312006128308,3.773492608181783,8.050538310839855,4.05487856474953,-0.20858946428356553,0.3932615377285711,0.032305452268228244,-0.4065842115823265,-0.8078864786393636,-0.2799615452891111,-1.2499540713081592,-4.553416032975938,8.675240236605198,-0.5825435929717752,0.45677732895148604,0.6415603900970515,0.1444618135502412,0.3019165958131336,-0.9156981043249922,-9.247528084819248,-5.590766260841581,3.5920046654541924,-0.838943111770595,1.5591798833059787,-0.2576485243226233,0.8175028644353439,0.45164368922169723,-0.3587415438811379,-5.575591002172508,-4.3522663667671955,7.038023524649874,0.6810819191885433,0.3076640398835992,-0.6152090497269637,0.6342107659546733,0.32372028413342513,-0.7336096615924308
-6.36795412209464,-4.53733820174808,5.679900573192402,0.6807588292487929,0.6031872872310479,-0.5032493320896334,0.6948814876700221,0.2774743103616012,-0.523026389250916,3.8416534640658,7.440124168088658,3.912007271875565,-0.19860277246342467,0.362612137946139,0.0010475122774645943,-0.4119264104143485,-0.8115025398765472,-0.27549400426880916,-1.0972800421654068,-5.125855557899624,8.43813052619151,-0.5094331442714494,0.3868499450974591,0.615695421584242,0.15064197861965148,0.3057010371510926,-0.9025853581414351,-8.950789072976097,-4.912373965842782,2.5005490055281423,-0.773278687045705,1.4636553220734099,-0.20770790498450914,0.8132226006627399,0.45379016483007656,-0.3118637571213135,-5.443837769712669,-4.07425792795927,6.72623679990207,0.5940368202404835,0.18916432183990936,-0.6249071650432748,0.6258789354680893,0.315158736175619,-0.7248660276620211
-6.424359270455937,-4.475276301758813,5.698248866765984,0.6600651380715784,0.6080882755318648,-0.5257480852359152,0.7039337609166848,0.2825782548246923,-0.5254452075544347,4.100565145893469,7.475151601474433,4.092164772098489,-0.13289356838143487,0.33258488351684784,-0.06082205248866278,-0.40588405276509154,-0.8061121457109648,-0.2907366145366774,-0.8354341671174643,-4.732838716952327,8.518298417215188,-0.388882054850935,0.2933511093101538,0.5708241597238299,0.1621593691190208,0.3181066651666086,-0.9030209297494163,-9.00986970490098,-5.084644431369,2.3256402734627124,-0.683472571972865,1.4500920084211282,-0.131810573119063,0.8202448327185022,0.4691878777783383,-0.27927186305364754,-5.3307287967583425,-4.1983198800573165,6.600380643386628,0.5522318743963811,0.1173338821146953,-0.6508610690627872,0.624199923939293,0.323520600629572,-0.7350746191486017
-6.604486900462724,-4.7603632866021925,5.649469283895192,0.8226398660799135,0.5911338916327096,-0.5267813546180147,0.7078370117030957,0.281589311260186,-0.5249503106716347,3.970345941735308,7.801703423677904,4.100032899258669,-0.1146718037191039,0.28732758283915844,-0.11422745754245713,-0.39713749279899396,-0.8005496335170647,-0.2967081113215857,-1.162275064280282,-4.81305264754527,7.90522194599024,-0.35033705739119486,0.2504169895013745,0.5988227317065936,0.17537648580135673,0.32636707663973596,-0.9024419868332807,-8.299631099195476,-4.58891523579321,2.467573646945767,-0.6894853949549659,1.3544308059534436,-0.10721670973360503,0.8272399978906235,0.47335269159023274,-0.24626489263637064,-5.427557341807422,-4.553133826322042,6.920260715746146,0.7105993884683771,0.12303120455245448,-0.6855949566323695,0.625167815833124,0.321365307553491,-0.7433874936838063
-6.714340046145339,-4.557692387976264,5.907401886868898,0.9101320018711546,0.5794137992584562,-0.5200027480926291,0.7092788171724089,0.2745032180537546,-0.5234917737134381,4.117112810136531,8.03498232861134,4.116869848084241,-0.1090571374783208,0.25255462216531255,-0.151023610955277,-0.39856295220316806,-0.8094198183719097,-0.3009503580291605,-1.1981445098061154,-4.218472682367252,8.02009926453736,-0.3516015898952519,0.30742333385778925,0.6191604392141775,0.1817438250560862,0.32687484010565615,-0.8985717728756476,-8.243562293800602,-5.144263151649328,2.0812282752511426,-0.7030751393257079,1.17849126223842,-0.11269508661797305,0.8254381406117522,0.47339001718471263,-0.2137980175920031,-5.431179048998085,-4.565612046347377,7.13844505553254,0.7947131403699617,0.12356113813162323,-0.7063996526272727,0.6182999860509422,0.31238656168315365,-0.748807363763326
-6.936028808778394,-4.287944574185287,6.06945815830945,0.9130205906321047,0.5585732699058787,-0.5052432122843976,0.7178060581485955,0.27519727267786104,-0.513222196384609,4.200177005486108,8.076132476541867,4.484857697271171,-0.19477056930228168,0.1999226126847865,-0.20908709409227996,-0.3903102526713846,-0.8005870128576134,-0.30111654823560186,-1.1319402967879681,-3.6952776956943887,8.094367930554933,-0.5842878379279939,0.34499111655688514,0.7337285037806995,0.19970129645519988,0.34624586242505956,-0.8851977683425547,-8.255235686872394,-5.846186319492634,1.0821168861683181,-0.8796137711365918,1.062280842866537,-0.3423285458453955,0.826095690527001,0.4902198145676157,-0.17389096355190403,-5.56135868034992,-4.396444852116776,7.1700376930173455,0.7960755805530182,0.10514048886530765,-0.6977118539213298,0.6178208219299482,0.3150427029525487,-0.7431778090471723
-6.954523822963324,-4.494153410175911,5.921836592738255,0.6662936700659362,0.496534962344621,-0.5135751000579089,0.7180135464007877,0.2634761084378902,-0.5112828865886173,4.222353166868855,7.783887570819829,4.494762311440519,-0.3700576097484759,0.16111326466627998,-0.30639377147360214,-0.38193512882956226,-0.8170288181307226,-0.30866702729293954,-1.1445148614593315,-4.1838826958833515,8.015783890828867,-0.9491961271523695,0.3186264025649309,0.9025453979011103,0.21612611329019252,0.35191188443096827,-0.8753279866040613,-8.338254800518039,-5.8503205854584746,0.09866444984238396,-1.1274175347725348,1.1474385344347222,-0.6964871186057333,0.8225855912410771,0.49609143926564764,-0.13699705098616474,-5.489616995691555,-4.3356120088298855,6.980154056350011,0.543572372741298,0.10872518755124959,-0.6563798983769545,0.6145971375524971,0.3014101085680276,-0.7481350699220607
-6.762891018165223,-4.992100028734082,5.853982849689717,0.4347744116251676,0.39036513245301885,-0.5472438884801971,0.7126661573457928,0.27179131396068706,-0.5110380102766379,4.346341746048023,7.531377939090286,4.503728049053293,-0.4433911558234593,0.22126600063863672,-0.41503648121571163,-0.37665429213019114,-0.8065286502359589,-0.3247269962822107,-1.1484417438969419,-5.27105519134896,7.580135275426035,-0.9743281013227495,0.2927188081477951,0.9050687541614394,0.22258455897940524,0.37586849692028357,-0.8704949693977733,-7.87222452087558,-4.968156222146911,-0.22023001377916562,-1.1177031241105686,1.293691639622794,-0.7382026252469994,0.8078910813866363,0.5183671371752132,-0.10320300024081146,-5.318791925562472,-4.603480225599052,6.675918285589404,0.30980357189526175,0.1575480161262124,-0.6420752833193567,0.6107318589162333,0.3126806382571057,-0.7529567093311879
-6.922961801551934,-5.306771180153959,5.73238786275747,0.5315709546014659,0.3219140766640546,-0.5468581810603327,0.7180277655362126,0.27055167653790196,-0.5078557510677655,3.4938887319257623,7.463354037785365,4.796527083230542,-0.3693475028774929,0.24970610991446943,-0.5139613174895007,-0.3595580652208025,-0.8104694497088839,-0.33226382731235127,-2.024522975199296,-5.503140960107279,7.274496091078524,-0.8022423692289227,0.27155917817415165,0.917461507491919,0.24291092794728644,0.3832049884470595,-0.8628603931384713,-7.9973311128912385,-4.451574906980579,-0.40893619433308637,-1.073256301556928,1.3550415828961542,-0.5737156872420603,0.8070547519242256,0.5234768330439588,-0.06264324419914832,-5.576291371268835,-5.233758000451024,6.9719674009175225,0.3974326138636843,0.15489708618130046,-0.6681994327624219,0.6124328494596626,0.3104854588103009,-0.7544337108096875
-7.0487156627051615,-4.9719867547704855,5.955608107741459,0.8066508922281367,0.3996602252135462,-0.5043349380628,0.7182738831496163,0.27128296593420526,-0.5078543585065626,3.0839395319142904,7.593581635097317,4.614388189566091,-0.23707856837968558,0.2004156170267251,-0.632298047449805,-0.3461478189280953,-0.8110510151828638,-0.3420467589265663,-2.486558427875866,-5.705444588998917,7.5124784408299945,-0.6137762652083616,0.20480092346255135,0.9499516669124599,0.2578788055757847,0.39470174100176963,-0.855977962972166,-8.449815344238289,-4.911062857814484,-1.1071078931162226,-1.055131977094123,1.3318144382270176,-0.4153532034515933,0.8011126620346015,0.5378761273229097,-0.022038925426241883,-5.738723330323901,-5.029376075753488,7.148106431303931,0.6631157466287636,-0.07314600239147358,-0.6899305833836646,0.6058469938125478,0.31225557292712447,-0.7612590731743379
-6.762010622723383,-5.098630544904581,6.14699118021005,1.007938725579605,0.45054697097606045,-0.4859018093980083,0.7138536058426592,0.26348185550428505,-0.506408505958828,3.6336976488446338,7.663465435112842,4.367406610106016,-0.14431770385642795,0.2231734925039043,-0.7404715924349956,-0.33659236320572306,-0.8178672295665721,-0.3439031199941149,-2.0069375797163196,-5.990403743389121,7.610575732132755,-0.40174240355365826,0.12721604331752398,0.8699199561618088,0.25939669137235943,0.3994183101423256,-0.848467549850978,-8.379449987472455,-5.834580414565328,-0.30374411777769666,-0.9339006473648858,1.3231214029693503,-0.2384133220876398,0.7838920371044168,0.5342204676529124,0.020613890171219642,-5.177908430076599,-4.625435243761804,7.170662932638925,0.8486610929182321,-0.31848338260523906,-0.7252778987154901,0.5872672797012152,0.3052909465796109,-0.7700868486234911
-6.484111596406355,-4.921933159260482,5.979764346715576,1.0825930945996687,0.44222172597237747,-0.5175785073137449,0.7245880085767836,0.25930289391652384,-0.5088351752790355,3.162175560372248,7.509773295476405,5.011250889771226,-0.1092081317703752,0.29427263396843517,-0.825862003810869,-0.3075320727597767,-0.820964408160371,-0.34879141529568525,-2.376061324478059,-5.705011607836204,7.16081242755176,-0.25434947177856365,0.09160670177272844,0.7734819716562811,0.2789656323411638,0.40258259339998054,-0.8429806269587935,-7.973256495892713,-5.892027970224977,-0.14726307115227233,-0.8135684525822442,1.1564388012335547,-0.13234252699125904,0.7877117785669565,0.5408177037297871,0.056068562406417916,-4.684006855555347,-4.278449886861152,7.390299218422844,0.8931672902576078,-0.4302993743426291,-0.7875283884097284,0.5786991090758856,0.299039242212198,-0.7820829403886332
-6.5998939105642735,-4.395354890340047,6.05684422612646,1.0554399185852634,0.44296568019743715,-0.548042489102765,0.7316258043561004,0.24317260211244887,-0.5112840049758546,2.9513821589979172,7.638670194539104,5.20793320151293,-0.12321141596118144,0.2763321622494755,-0.9077948908610194,-0.28061890029230274,-0.8333510811947837,-0.3535177772025384,-2.5449779434900237,-5.1843789093140105,7.2733615737505,-0.30141902168967966,0.035835147540973285,0.8265083442998946,0.2933453788698056,0.3952119093259202,-0.8424803849649503,-8.129165822118631,-6.430640011478584,-0.29734785599871494,-0.8641883610873028,0.9403871238568751,-0.22533581708072037,0.7861534857905784,0.5333246542330997,0.08262714773891029,-4.577874074455259,-4.0213495329289985,7.46868581177861,0.840124242117961,-0.5025674810555637,-0.8260696922561603,0.5698647466662534,0.2866988576714354,-0.7965552206927659
-6.820951728617283,-3.9935660810736904,6.392213926645105,0.6799950385315469,0.3495471489996956,-0.5922321974442666,0.7304147733298068,0.24951751035575823,-0.506151054923756,3.3842514981829384,7.682843917013338,4.9853274985709515,-0.24588389455923126,0.2791350157149813,-1.0273086490316248,-0.25891040401436516,-0.832127991749108,-0.3604182423722677,-1.986311630630649,-5.822557887542848,7.5487150095977915,-0.3878306974326037,-0.04448715402736348,0.85133597070809,0.2970641561185812,0.4033157465068005,-0.8369718961776539,-8.331849227402008,-6.087345469199484,-0.690758328104019,-0.8822982237602275,0.7488737929608849,-0.3306597239019675,0.7755932886370968,0.5434084123456637,0.1124479172864404,-4.570178872753365,-3.708696876229039,7.529857149562118,0.44896933800856814,-0.5100458425067192,-0.7738687205106298,0.5503602431766614,0.29437615623775215,-0.8035932231329559
-6.827077478054679,-4.172285200011382,6.416180864392037,0.34467321398356826,0.192492574990144,-0.6359790760928391,0.72532786697192,0.26028059117648766,-0.5110295646298585,3.226121351583229,7.483156747828791,4.652797591453686,-0.2957316694641258,0.348923744804183,-1.1933224959003272,-0.23012508386888392,-0.8324181511273492,-0.3724346861331052,-1.870449385560753,-5.977475676970796,7.555721251323657,-0.2634395778672552,-0.1805189550695019,0.7633048901256545,0.297555398880696,0.4103424945944481,-0.8416898491088955,-8.241350127574119,-5.711187789833469,-1.815674513149072,-0.7808477746541796,0.7578111819262767,-0.21822503005410548,0.765789122811306,0.5455290964421979,0.12781485001301596,-4.476587680958352,-4.095931720966242,7.511084770550819,0.10479798860799361,-0.4420375432071568,-0.7157203098516206,0.5350191095996855,0.3052575169413235,-0.8189149637263794
-6.608499730875802,-4.164478111903715,6.173986677699857,0.23202070506440786,0.08295211383517033,-0.625893811685091,0.7255898229968929,0.27003761301675056,-0.505401519689596,2.1372907287726615,7.48038710062817,5.192129852919041,-0.25793632537475014,0.344183002851364,-1.3536107629597178,-0.19690981612521785,-0.8336606627448208,-0.3700365719579611,-2.8891427715662785,-5.874838289629668,6.929358286169757,-0.13060698773931928,-0.3091850072165666,0.7185515217742934,0.30345812603205685,0.4109067286815685,-0.832934680631275,-7.552236152047265,-5.560408754571958,-2.0322652809005626,-0.7249581217467672,0.7498478371147769,-0.12096942463569195,0.7627662737745596,0.5455692350047282,0.1602782301450484,-4.22598596892895,-4.284593569202764,7.681691150193879,-0.007062231825620028,-0.42934892133438274,-0.6740799033873085,0.5243285171574523,0.3196865819135464,-0.8161501875579645
-6.485341850196759,-4.181145112756328,6.346176831074624,0.1995248881506833,0.06451786300906089,-0.6055851442598319,0.7258612713141499,0.2739551911226349,-0.5141850043964397,2.0183344312545892,7.8187876148033535,5.370543602153129,-0.22638784876819776,0.2484568233803729,-1.4770999156238016,-0.15881718921642524,-0.8415707110395305,-0.3880468506943628,-2.965105742593001,-5.965013241612218,7.117322958522671,-0.07682230901709002,-0.38167516889120057,0.7638693658330306,0.3033698455456277,0.4024720646747647,-0.8450493865562261,-7.519762818567043,-5.663346709787582,-2.1535875541388623,-0.773576979651859,0.6150117991572318,-0.10773152102839817,0.7597810635262456,0.5379216535017106,0.17340436948333318,-3.9359758715385835,-4.143133092400534,7.757479205641396,-0.03397308562139229,-0.4939619204054981,-0.6486799689382077,0.512616577006486,0.3215178558977596,-0.8307892551339725
-6.324957805287677,-4.366289384323206,6.690765076902265,0.08668515035149525,-0.07477934038419942,-0.6271405771533546,0.708784640144226,0.28229712720086886,-0.5083466183734837,2.7266230840130183,8.601211629808219,5.000671092356422,-0.20407495931283154,0.24850815761286582,-1.5432373287872239,-0.12900222590281527,-0.8455008353645819,-0.38462027712916197,-2.228467832700334,-6.287079355349156,7.966968926415385,0.08794940760297996,-0.3886067400840187,0.7093218751769587,0.29654211587196433,0.3967044985332214,-0.8388498387254323,-7.673297345642019,-5.457251993959545,-3.4566153856484676,-0.7381209220249001,0.5962853981632734,0.04705093163135019,0.746751597383451,0.5341042842312999,0.2019068389357699,-3.6308730604750195,-3.974906233266819,7.6741234291102165,-0.1523921508972887,-0.4465940034006877,-0.6270089134768695,0.4914094850349762,0.3308398573506573,-0.8248780835898455
-6.123750402618696,-4.344531578076898,6.651922447452769,0.06529580695027964,-0.3047690083203585,-0.6484857278785224,0.7147096353338473,0.29840694357466635,-0.5183250423174486,2.404805428201821,8.72607091082641,4.9252665735673835,-0.1562909266277849,0.3168062528080564,-1.5548263448827802,-0.08070146804321135,-0.8407029447860094,-0.3909006343788697,-2.15861286531969,-5.695377208158732,8.318616797542868,0.24159526628391,-0.3720712143155123,0.6113264905980982,0.3067529676864292,0.3934218262719027,-0.8454551000410663,-7.9180259631244505,-5.961753629243134,-4.983451142202304,-0.6753732369132848,0.8557733963343056,0.18594199805509087,0.7564355436597715,0.5295279604900828,0.22656364064509363,-3.395875149603823,-4.254922683463615,7.728538851522971,-0.19098398588683804,-0.256065557322383,-0.6342189152193062,0.49317421337023143,0.346250220480208,-0.8313862898033987
-5.823472647012479,-4.082060794837682,6.360231720003496,0.004191000238181518,-0.47380341348819804,-0.6202662822384715,0.6969154080048602,0.3031072334346165,-0.5266516936249538,1.2091596394934427,8.291616544842354,5.295601980757016,-0.1381020718807482,0.29029822083386586,-1.5775504693729887,-0.047469906538378674,-0.8466624820526852,-0.3930631478511105,-3.07830997097533,-5.2740731636677065,7.957692139674855,0.20961237877230268,-0.3734109845433641,0.6061809581517488,0.29812477482211247,0.37800860576854695,-0.8511037271849913,-7.845832817006596,-6.304736933981366,-4.107184946250727,-0.6652972813408798,1.0909538593685706,0.10940543507182374,0.7397222183351152,0.5152260242247152,0.25425548783255236,-3.141587411273152,-4.487176051194985,7.820400630594077,-0.22944182299811838,-0.10511696365984811,-0.5932197359345306,0.48220864836214117,0.3519129600935484,-0.8328203086752589
-5.554327287321657,-4.209958452828455,6.280384252721347,-0.12377088068818967,-0.4988480209943536,-0.5839413839365103,0.6791357498947295,0.31342160914305905,-0.5335070934843312,0.45133276505537834,8.467007733278631,5.294651103612147,-0.15164109421183733,0.1825744883531717,-1.5699711510826606,-0.015978558916667388,-0.8483074466823527,-0.399445093583854,-3.331177745155117,-5.08206831234195,8.077631102246384,0.14980511313472278,-0.4060318602301162,0.682392423807419,0.29516980811992116,0.37529588776083544,-0.8544779965576969,-8.017438032911503,-5.2584296602326575,-3.224841166367978,-0.7195421296990921,0.9744318740589902,0.015788245880369846,0.732314858946596,0.5123827739008794,0.2810724090295377,-2.9569512919945384,-4.750198472075137,8.042327839879187,-0.3203514365938189,-0.0397187167182442,-0.5195441418287116,0.47274272010345675,0.3670642583912525,-0.8290756036006998
-5.481930141335897,-4.347381511950856,6.428879813347103,-0.20866511616048594,-0.5371866257652924,-0.5257394434723637,0.6713833754196528,0.3290792131629083,-0.5413142097480859,0.5374417044196133,8.55334526880995,4.837557444958973,-0.18773788857508772,0.10729298355852213,-1.5510925152593185,0.023288629525115925,-0.8417754288340251,-0.40134248013029333,-2.7147908576740476,-5.454025214912368,7.657943018973079,0.1587842514724572,-0.38422289058413794,0.6803754957738417,0.29464104557528425,0.3674593558919499,-0.8568304685425097,-7.044431163224494,-5.702023677149352,-3.3283453477984777,-0.7022810324613457,0.8122319401555671,0.03267631154444773,0.7297814310348514,0.5029532711731886,0.30541857321046084,-2.9933619020359106,-4.954685924140533,7.812456448144119,-0.3673026300672728,0.04414365065059384,-0.4429876242243145,0.47547646269233523,0.3804782319737818,-0.8282695873570932
-5.497688429818494,-4.2671111101627766,6.645380666160387,-0.41323020814648476,-0.6242958830152111,-0.49708406233500463,0.6538700747830205,0.3445258246108637,-0.5528005308992129,0.3133064444771983,8.569875714031165,4.53532353987661,-0.22540745244155422,0.12981344731546263,-1.5682292087350893,0.05766930847750525,-0.8383777306749645,-0.4136765755974384,-2.44467935069699,-5.481816958467941,7.920207401411344,0.24992671978354172,-0.33812998273839723,0.5374940995653535,0.28846039178717237,0.35907111065961594,-0.8667193598187714,-7.3105505280325085,-5.458643141254307,-4.284461543745717,-0.5842653397348458,0.7900501198682021,0.13504057564585875,0.7145911435139383,0.49460974914544337,0.31728405020064226,-3.171446875034072,-4.728420497015133,7.577384784913511,-0.5433094146604078,0.11669303518978293,-0.35701661819803454,0.4718721384953815,0.39634556504742535,-0.8254980862812661
-5.340580642345582,-4.517304961120592,6.4965559870232745,-0.6180939688147076,-0.7246854292209188,-0.4737813245884392,0.6368172192681073,0.35702627294861233,-0.5528157671313819,-0.3488419193666381,8.376220258240249,4.807880894013942,-0.2834368204903196,0.1545078374580218,-1.613829916891301,0.0911051746987144,-0.8347076967041331,-0.4096540473265186,-2.9027546524356493,-5.543692306624349,8.254632661302937,0.3594802942827682,-0.3608045421752907,0.3703079461381476,0.28353417042071627,0.34543126518244543,-0.865324701291539,-7.886715780597392,-6.188091836955624,-3.3202692100744255,-0.43728539466241434,0.7426672888821565,0.25623019740140707,0.7076553060893244,0.48686924471154447,0.34626661915731194,-3.137346875719168,-4.717849049600053,7.5314711546903,-0.729971156411509,0.18311092486477884,-0.2890341065971442,0.4672874438328783,0.41117830751380124,-0.8115010377788932
-5.053735312062999,-4.870209525935961,6.321889374104401,-0.7017169966201934,-0.7228223430479762,-0.46836047386598423,0.619046246116962,0.37563156183216984,-0.5518484673739907,-1.1993740881164625,8.008440611340497,4.803774075657187,-0.3392782932366769,0.1575167388356987,-1.6352632936438627,0.13157071323227532,-0.8250504066623123,-0.41478131309269894,-3.328891807122466,-4.892545403928143,8.444699672029582,0.35262680605355384,-0.42374258969090856,0.20899718475499052,0.27642212074197897,0.33908803175773894,-0.8671750415539929,-7.87775827325823,-5.6768379017507025,-4.666934360924759,-0.28505750032981436,0.5219706577416283,0.29420171608692197,0.7044096940045341,0.4772423548377404,0.36352927566066373,-3.146155575745353,-4.855949198607566,7.465575287855181,-0.8091527486780951,0.1617309370362879,-0.2734261011005494,0.46760434853885735,0.4311158932701839,-0.7964992501982673
-4.7794577064643375,-5.115181275462185,6.36023104432266,-0.6392656384095976,-0.6871779778548786,-0.44201587972158846,0.6005918066639044,0.4023118844705053,-0.564055069455969,-1.1421884273999636,7.838130159475944,4.705344208446519,-0.34154286137834156,0.16393039040642562,-1.6642049357821567,0.16293685084010404,-0.8070592848838699,-0.42955455544906773,-2.827756789160953,-4.4549297696316605,8.265175997989077,0.32540893676948135,-0.5079169440338522,0.10170629693322016,0.2587912662996017,0.3395149566171563,-0.8785701540060981,-7.5046932101009105,-5.323411463760754,-5.716536078022326,-0.1930412682365133,0.5726185150129881,0.3019131620714121,0.6968215305643002,0.47527358518092305,0.3686218016196247,-3.077923274747032,-5.295200126663674,6.991562289778839,-0.7316453346791715,0.041434297727765156,-0.28450351290451587,0.4640309907884409,0.4555479847296729,-0.7973431638802904
-4.498394710218485,-5.113662748227124,6.371720150046812,-0.6807634256048742,-0.7272849575227912,-0.4227296215097642,0.5877131343639062,0.4187170267162777,-0.5716256371813927,-1.5460661253332697,7.609482665903941,5.036044070321807,-0.3741506491892067,0.19900630899588748,-1.7361807177451685,0.20656432403870825,-0.7962012041740656,-0.43690574791046116,-3.014039691748206,-4.534836193818254,8.605983870489668,0.3069898149609791,-0.6302148348732135,0.013089815390297174,0.25113762206686324,0.33014707581358294,-0.8891732737455291,-8.008175776208175,-4.962979255734174,-5.426374655089974,-0.10635324400354151,0.6215369587294525,0.2929206401813741,0.6957904746857975,0.4661654560533288,0.3805230596023118,-2.843447111288007,-5.235716703318354,6.925011670107356,-0.7586441066897347,0.002031339074703843,-0.27162448171786346,0.4626309525906659,0.47308172843061186,-0.7882135274759993
-4.11678398269347,-5.617822581382531,6.29087524439692,-0.8465716764806269,-0.7458873731948636,-0.4170650124599841,0.5733457428975479,0.43462108430524976,-0.566504551294681,-2.0017104103117584,7.968611857695407,5.477918617993032,-0.4089358200253224,0.20672682144273385,-1.7398418911172362,0.24383605207859377,-0.7823859894247291,-0.44063210730677915,-2.9189554757791494,-4.496780963752845,9.058600804803023,0.2992129384023764,-0.7321105347723246,-0.048641009179463374,0.232555860295937,0.3214343934615238,-0.8882564549408234,-8.048423243830966,-4.986947236660477,-4.619698604904853,-0.05704213804409171,0.540295237518579,0.3163491779665329,0.6910975176625391,0.45998202935277016,0.3943858003708853,-2.7001218546774424,-5.809319664100214,6.85767895231133,-0.9252956081361435,-0.024012580887840036,-0.23886729527515732,0.4622138728742498,0.49281288255037003,-0.7798059506781043
-3.875894706388185,-5.802779695169855,6.5485833465621015,-0.869656924000471,-0.7340735051203174,-0.39614415662030206,0.5494330516286177,0.4390846953764306,-0.5667867223102989,-2.0095223713617965,7.979610093368418,5.828035412755342,-0.4357559769531475,0.18262029011072822,-1.6946713437051686,0.2711606528217014,-0.7816253936979726,-0.4477798035349497,-2.460462073555531,-4.574111550424798,8.560265383708572,0.25421733569574056,-0.7478434571985105,-0.037983852992271395,0.20974746343231454,0.3045740230245819,-0.8969955098233944,-7.283764860807562,-5.046455145745318,-4.106941568490547,-0.05195078813126734,0.32656294323991314,0.26299522305742634,0.6819978797626147,0.44090803343487284,0.40229310438769766,-2.5232467113009216,-6.08008226136906,6.826766381182997,-0.9353805669686984,-0.12273884557951402,-0.2242195384374978,0.44929728819465287,0.498902565665671,-0.7685414268191025
-3.663647384444674,-5.928884872804231,6.573448964563875,-0.950044571071961,-0.8215453406062544,-0.3635412014776966,0.5414643552043766,0.47376738670983826,-0.5601657289429971,-1.9960967523645707,7.3083528707119685,5.901420145119033,-0.48065314760068933,0.15494047733283245,-1.758831551150486,0.3210344480114464,-0.7519243074895545,-0.4547310780520062,-2.375990496343505,-4.471906073252044,8.346721859535624,0.25988724639921573,-0.7836642332084179,0.004876950880995701,0.20293704015899403,0.3116784835252413,-0.8970410272133112,-7.39939358569089,-4.220924060459496,-4.6642409195790515,-0.1034346043935341,0.1735628599323167,0.2514604485064562,0.6951743688751032,0.44693559689129075,0.4094502908773269,-2.2262909474910217,-6.346526416574491,6.656967449113498,-1.0089870083067738,-0.0921606486654527,-0.1945284706892783,0.4560091360628693,0.5317518432185122,-0.752737413643636
-3.529803464224825,-5.742230168314119,6.449389514609861,-1.0876537100305617,-0.999137495332529,-0.33363624582229606,0.5158733758599073,0.4901964313439289,-0.5577495847829737,-2.2907337773308294,7.5457342491885635,5.469566086311448,-0.5333815489686929,0.15571506454511364,-1.8803617394446923,0.3526721599710581,-0.7367619363807252,-0.46359697464055194,-1.9694889165381788,-4.313401089102631,8.804904003492116,0.27170098297424466,-0.9074207168964266,0.034778301223672196,0.17480479813386593,0.2995451814992805,-0.8994591176968196,-7.84472139771418,-4.756360632686598,-4.640744461181248,-0.13813799565379567,0.049504192372656984,0.2466908384218654,0.6873202288164558,0.43277176074146145,0.41275390972034426,-2.1232216479401167,-6.281509257257243,6.4733352165686595,-1.1176107083557907,0.10116079509241346,-0.1599955841601238,0.44727792366671615,0.5478126511701832,-0.7372685931316254
-3.2186480920842024,-5.744040805203782,6.268886115198426,-1.2204959301469553,-1.2053185527330128,-0.27356623258968565,0.49372768161763286,0.5134565085901622,-0.5599573393044134,-2.5580182578199304,7.4715264888493484,5.40593814493261,-0.601918340938113,0.146475007315382,-1.9735627034414864,0.39179216585222526,-0.7059441157666912,-0.4732314468346402,-1.57181781570975,-4.430628931071158,8.659048780598633,0.25129815477919404,-0.9863680098074951,0.012136402348860594,0.15302123498622486,0.2946558736149281,-0.90711362741363,-7.4922555407414535,-4.474195009819106,-4.534683550218338,-0.11109358959384663,-0.07757092851904569,0.24704645510277426,0.6939036714612795,0.42933707232868845,0.41299458055256283,-1.941229457415096,-6.390331479222327,6.016286094579036,-1.2393555277098944,0.3077571972527592,-0.13189730574600608,0.452989030670577,0.5738043620874211,-0.7168638394113478
-3.024846567497088,-5.95465639366777,6.052477554606017,-1.2581995317193264,-1.4060266443031804,-0.2261575060434772,0.4774912294592136,0.5459932636856294,-0.5743503412207948,-3.2609130142607774,7.413419889517775,5.265001354089756,-0.5888452565341603,0.12486766001909544,-2.039500264042291,0.43988314271696644,-0.6694759847718629,-0.4981187027488422,-1.2276651764064817,-4.4927870708722315,8.796012580907565,0.29917914051245587,-1.0067830937909816,-0.03513373703276561,0.13950758132631352,0.2959603707677367,-0.926107645154442,-7.146242201652584,-4.397812908545515,-5.288624559085477,-0.10005126053810709,-0.11858335400075257,0.3117698504180095,0.7071472226247585,0.43260097297459266,0.39449838918368973,-1.9493740548160643,-6.316749116337149,5.968499201444935,-1.26623684325416,0.5112717421632641,-0.13053764200827628,0.471899696434506,0.6044575694791854,-0.7093720928217693
-2.4776812429686936,-6.860761968310162,5.234886815745971,-1.1563110081598844,-1.4692042452080052,-0.2026746071639172,0.44284924973344936,0.5607300130245527,-0.5653619778212946,-4.121849057344395,6.737082145365,5.862055472943195,-0.485004514537345,0.0997777585314016,-1.9796028557854335,0.46856617051997784,-0.6455952831391696,-0.49589416019317906,-1.2124460953253717,-4.53937391178119,9.196187743669036,0.36334167398049755,-0.9476268898877663,-0.11568513097926184,0.10798165811141545,0.28510509664652744,-0.9243722434137037,-7.172215956736102,-4.506132365341459,-5.758509676568776,-0.07469388475657895,-0.05864114112347264,0.4074580013764705,0.7029459024256975,0.419621748072907,0.4019713063206868,-2.0137499871306512,-6.76229191557585,5.680176701616756,-1.153201855586599,0.5889319430240668,-0.17881717097505587,0.46926828448945207,0.6191791948048267,-0.6760883930132014
-2.027853540125132,-7.434528251614196,5.026768329133274,-0.9557036016768368,-1.3578921045453112,-0.21453208325429715,0.425328426770641,0.5800694158619801,-0.5665892799836164,-4.516891101770018,6.167646407834145,6.486410629939367,-0.34958146166867204,0.07055510581847214,-1.8035254466321065,0.5052646321287626,-0.617691296243554,-0.5037661507850087,-1.1290110115938343,-4.345764979336059,9.330025142643192,0.40444723842620256,-0.8704631763503189,-0.12319289567394691,0.09254770944896211,0.27583918230842264,-0.928347762394121,-7.282212840777979,-4.135987129764688,-5.741428982411536,-0.08862340872877547,-0.025439948388872057,0.438174038082203,0.7141555767211604,0.4122641302631261,0.403176868162665,-2.277179406191198,-7.160061884876256,5.546450653678529,-0.9411829876468236,0.4756665469202741,-0.24598316199720222,0.47911513207386447,0.6412662077358652,-0.6588790122738055
-2.1328513322599876,-7.682041608054249,5.189417568881221,-0.8305897871824005,-1.129420853517005,-0.2364375221728046,0.40607696418692435,0.5945258261821087,-0.5631880291778338,-5.021561431163887,6.046990566586905,6.597217490342522,-0.2754538426219897,0.03801732146947179,-1.5888205687575505,0.5359080379018607,-0.5968040981792518,-0.5058902848786759,-0.8001652782225189,-4.103831757015977,9.701257454447141,0.44242194627124665,-0.8001054938600388,-0.08056123185841564,0.07685980088097617,0.2602561176740196,-0.9295664076922011,-7.571302975617687,-4.475221740663515,-6.2051596984911175,-0.14827398817028972,0.04527264967115963,0.43715602389173275,0.720464709716751,0.39831800298832143,0.4055456264616266,-2.957189654765102,-7.319816815736394,5.695058206674096,-0.8180428264997894,0.18534709624558274,-0.29498168454255946,0.4801383508074467,0.6541133101128968,-0.642450825400711
-2.2769584600702344,-7.306521098689829,5.552974859868443,-0.8114909276418418,-0.9097108627931941,-0.27528695082231125,0.3768181246402962,0.6097425480180548,-0.5600481779150971,-5.150755203642087,5.944345089074917,6.574625669163446,-0.2742890347641699,0.013963947604276012,-1.4092573406473514,0.5477226526210307,-0.5724531576726476,-0.5136520061105541,-0.7850116230136335,-4.1621909743825505,9.3657514694034,0.39285085138154474,-0.7317142596136453,-0.07543755020445958,0.046789522412699396,0.2532485468945217,-0.9327636361186067,-7.329496951498536,-4.615046387423776,-5.737892103350969,-0.14437026796597136,0.12347465926728232,0.39155332351451466,0.7089709712261232,0.3902844627566992,0.4059484612366479,-3.0872518810268144,-6.945651606961848,5.503333846162589,-0.7971186452709601,-0.11994998431166426,-0.3420711920375944,0.4621364183095857,0.6717086578157404,-0.6335656058447017
-2.3112477488904863,-7.002227902655281,5.5882783727854415,-0.9167995179077086,-0.8763717987341259,-0.29080448921862634,0.35659214401450023,0.6315119325794262,-0.5458972834718454,-5.167709869027258,5.925923354470464,6.618961193349363,-0.3615279852485966,-0.07332841168366519,-1.3907152870846864,0.5646655141171488,-0.5447391864595197,-0.5119585194937543,-0.9813527338502921,-3.8115099247460025,9.478496603374834,0.3622780677398565,-0.7131852371951758,-0.009889215011150702,0.030446226828895535,0.24704386242626558,-0.9250476206890086,-7.74028125828115,-4.020465403660531,-4.928992226747405,-0.18810991951728345,0.06172330325095714,0.32730233993204433,0.7120795071656003,0.3792027368105993,0.41955787207505374,-2.6683297828072887,-7.042840581242537,4.963618260699637,-0.8953628814136482,-0.2550007572665134,-0.37980068206910084,0.4507256308538107,0.6892122765529318,-0.6122298009678716
-2.155705444921424,-6.873891285536309,5.284573306294192,-1.0291399098087253,-0.9853058697176263,-0.2623618255689668,0.34293897452625344,0.6437468637809262,-0.536873595566129,-5.178930309211207,5.963848147257271,6.117023206852867,-0.5068996382086216,-0.19516909439001395,-1.4347355849632888,0.5862633234939643,-0.5247873875667053,-0.5230832989101488,-0.20381824118170977,-3.6396503987344255,9.102421733978211,0.33643165464402636,-0.7262659896191259,0.08211395943464231,0.018175703959615097,0.2377422133946054,-0.9312350495416323,-7.4868610306504895,-4.192414501317726,-4.304906625426962,-0.25201853005518265,-0.12211669371068717,0.2457760278281737,0.7191469377037524,0.371872101176262,0.41806562283817034,-2.2458278392057327,-7.486187325976847,4.867095193133388,-0.9974144102054517,-0.1815321293807845,-0.3674168808819062,0.4459147131530908,0.7089115162416818,-0.5950322011189952
-1.7005159564859336,-7.479322282760291,4.776064182665904,-1.12845522442419,-1.1149460709923456,-0.18644075710123814,0.32491058845500903,0.6594194195018837,-0.5332245339278929,-5.080074479842687,5.612474988221658,5.868315934343204,-0.5843554572462123,-0.2586339837524506,-1.4318695269684691,0.6058643575845368,-0.5006135439499664,-0.5437982195562354,0.5569053622536827,-3.661894825190805,8.281553608893617,0.26304293157813874,-0.6371859907257026,0.07214109199813473,0.0014620129218888374,0.22083979001328352,-0.9417119431525253,-6.53446403861598,-4.377512292633597,-4.745104983689012,-0.208778837781411,-0.14340102452756695,0.18832794254461394,0.7245197215726843,0.35631743452371717,0.405284872749621,-1.823513052647836,-8.205988637964698,4.783486888975684,-1.0948811750489924,0.01880196354975177,-0.3499632291541665,0.440833964322114,0.7215806537465572,-0.5866620104282707
-1.342666053946459,-8.027223558849991,4.332867472197776,-1.1025292836565597,-1.1718056584910717,-0.11578910543768511,0.29444099296658727,0.6829302724058981,-0.5220202175945446,-5.149644966315656,5.071016600250034,6.390893188926757,-0.5901325367161457,-0.26913813340975895,-1.354753599250682,0.6107546914736491,-0.460445792351212,-0.5525479528638144,0.605624899566548,-3.5039512415218024,8.97785479808678,0.22393846780070226,-0.53369525854041,0.0594464536247432,-0.018765660691653554,0.22511275308372125,-0.9372667740013371,-7.385006442228912,-3.6225632407757553,-5.330315342897803,-0.18364064588934786,-0.011099466472034799,0.16693883600702178,0.7122946365845512,0.35800701588589967,0.4125848407532144,-1.8251117681000468,-8.747928705047654,4.659944951569707,-1.0714045954252012,0.182015626193613,-0.3237754176850182,0.43018283509808086,0.7463788643038146,-0.5604034214256058
-1.3828884936590518,-8.356713041744152,4.292811711230023,-1.0827945560180163,-1.1410232366334547,-0.069640156808142,0.28616275284009496,0.7010005053189371,-0.5058981361880804,-5.582454849851346,4.386338585390161,6.855141457667059,-0.6024713957459596,-0.29673975071839404,-1.2707285318672514,0.6328094094157279,-0.43564540574593513,-0.5659532674712437,-0.11616331380271216,-3.6982915865572514,9.580224261705842,0.24126726940301138,-0.526210418050144,0.09782395920891432,-0.018045856248584527,0.21854267861046017,-0.9350008161509917,-7.9350925278399655,-3.646788807792511,-4.899352342294706,-0.22003940747847106,-0.013342837182862945,0.16147042045661172,0.727423452625709,0.3538244063961092,0.41211322963299024,-2.227078443519097,-8.768969785207542,4.469680636302074,-1.0447728957620896,0.22128309143902603,-0.29591857715609027,0.4383074732254825,0.7647858981497233,-0.5385749854235844
-1.4212555195127907,-8.646437701467054,4.326315688928003,-1.0980893333776176,-1.1130123079259129,-0.04680815719222476,0.27299921832095847,0.712990962516324,-0.49760586543989965,-5.935381069608353,3.98654345356325,7.102155077462672,-0.6285050670952022,-0.3190591422169367,-1.2482801853532115,0.6443681983909498,-0.4121654429797285,-0.5817578753095876,-0.3812993280673398,-3.6458810144232716,9.60835824936234,0.27812311748036656,-0.5595611561577487,0.12306804602497635,-0.032281624272542095,0.20776714353925355,-0.9426277346438866,-7.721268859585414,-3.8811375453107675,-4.993374468503204,-0.26602839846859,-0.1826933642641627,0.16479878146418142,0.7323040600247961,0.343606902952109,0.4047368161557085,-2.3832299033735045,-8.779085900463961,4.191609789900556,-1.0551174525860545,0.22015497101053666,-0.30718473077720665,0.43419929676870894,0.7764269817273622,-0.5216652810991902
-1.2675879963084777,-8.506067309433718,4.580636060362655,-1.1367130489252983,-1.0779389944234026,-0.023832912944416206,0.2517575890220097,0.728401709643969,-0.47296698836131057,-5.96019016503595,4.340407530727016,7.066831960285666,-0.6940441924326709,-0.3516370917701508,-1.2305156875582335,0.6441768268803807,-0.3798156423184926,-0.5891437070923486,0.5590786042842795,-3.6070966116287426,9.262182193620518,0.2004593414933609,-0.5193210021889821,0.1392525392209391,-0.04591832188416776,0.20692867037006926,-0.9344956498562297,-7.517149886109143,-4.664646799806721,-4.424839675900158,-0.22562240507471953,-0.3203356571826947,0.08450627392466357,0.7303252069644947,0.33626699583366004,0.4078565946828284,-2.630697185104063,-8.83921209650638,4.2667772337732695,-1.0859731554501038,0.15678885952930888,-0.32044851996107593,0.42547284932052165,0.7933863282698508,-0.4917873540327785
-1.1942594953750083,-8.831339335216947,3.9086596525388964,-1.1884709361636323,-1.0254069625233657,0.012607702405456873,0.23565623834309357,0.745267245355389,-0.452711811875252,-5.875206475276744,3.915461653700155,6.960132585063582,-0.7203014870907941,-0.3783655024007736,-1.1651577937626305,0.6515723342830507,-0.35135173626178257,-0.5976996694141358,0.9384614241640822,-3.6601062273437552,9.401921950267635,0.11296352853886382,-0.4549968072313188,0.1076808514377342,-0.05664771452978656,0.20264025744090755,-0.928293687988793,-7.89961458345964,-4.287540898383134,-5.136880141026332,-0.1486833765442495,-0.330096282944186,0.033151045003631245,0.7356910027923969,0.33430007920009347,0.4081042821671057,-2.474429054036439,-8.921095373258568,3.818730330446221,-1.1466647308000608,0.07287129466207125,-0.33567179931519114,0.4184394533639662,0.8059402445278149,-0.4609564281967559
-1.1338667381473075,-9.215512031641502,3.5013453958999667,-1.1672329646159512,-0.9685381367934551,-0.005991198170678133,0.21957346013852408,0.7619032838272036,-0.44295392285216256,-5.926630692441368,3.360423947751954,7.186042337181025,-0.6610128123305643,-0.33795979045634394,-1.0609110569866553,0.6542963737651785,-0.32064551606957215,-0.6165390082137671,0.8589306832477898,-3.6317379696069176,9.496124527622408,0.0498887136902043,-0.44510885996530386,0.04643467244123004,-0.07449772539613198,0.20385103095042764,-0.9350570369802316,-8.06749729086915,-4.228878181495368,-5.075838156382979,-0.06440875375227413,-0.3053810473876346,0.024027594688403014,0.7340230245284145,0.33512467524556544,0.39443248715428186,-2.437065201435185,-8.818528322043841,3.6256314297634176,-1.1178950725882417,0.05800568624224472,-0.38050885015134117,0.40728597696780305,0.8268954631786029,-0.4459489253872309
-0.9127755355105177,-9.38124349583828,3.4723881504368754,-1.1200044325752245,-0.8809456137233781,-0.03680988458811139,0.2100432446319557,0.7748377766563058,-0.4180527241530584,-5.892152540127359,2.8766082279563503,7.844460315519006,-0.5794321079826188,-0.308382631578506,-0.9883779825873977,0.662458952000891,-0.2977534383468314,-0.6228045643807701,0.46092813834737434,-4.054491716610251,9.280982699889085,0.03951273289940371,-0.42213365638934747,0.013868379832578702,-0.08156242562081614,0.20003822372249086,-0.9288778495920761,-7.596712292427462,-3.7468932616574055,-4.844702644440197,-0.035058411034183064,-0.33967174900345093,0.041096063542569505,0.7418301047061596,0.3331505565857306,0.3949301583460881,-2.4049653378058533,-9.164893815325387,3.5412555625749267,-1.0589906060232726,0.03487885226179957,-0.4367965133621848,0.4027032756182504,0.8421387583172623,-0.4175454276509216
-0.6296442510419024,-9.072246664203647,3.467813501170687,-1.0397319370138578,-0.7957562069772416,-0.049474936802438536,0.20688161667457922,0.7877693221607771,-0.40436986262759794,-5.6786004582737455,2.709576246868819,7.672528525427814,-0.5721225433293398,-0.3484836733358657,-0.9664914580676384,0.6730480000938036,-0.2742249124292493,-0.6354336256139597,0.4699084987657133,-4.022623027396416,9.452860660068826,0.16967416577039948,-0.41481928983304234,0.03165113439561737,-0.08183653936807135,0.19488561799381598,-0.9312610537080495,-7.919512870240803,-3.209000673741662,-5.213768951314282,-0.12300988850129455,-0.38926399969213304,0.12027334669236625,0.7564998656484927,0.32830935230922786,0.38346567806794346,-2.258534740792733,-9.4586551925292,3.313996301433164,-0.9604426451849934,-0.04611944354849166,-0.4265509287304745,0.401515450059446,0.8508389355821029,-0.4004077788331227
-0.5233344477858932,-8.776263590062124,3.4690984258386974,-1.0474975000655988,-0.711262182379726,0.0030826137855013767,0.19689036968128396,0.8036474574043079,-0.3889867482580331,-5.548236580400675,2.8332660052104703,7.420624743190866,-0.5973864803870088,-0.40662202175799306,-0.9519707652434838,0.6728336844660276,-0.2418176351259477,-0.6538079924220597,1.0556939431036243,-3.8185139082380317,9.092953283215802,0.26496952927665685,-0.43656874989062733,0.04260287500676139,-0.09360472409783657,0.19215127255581452,-0.9394762433706075,-7.981362773685524,-3.8047167534873974,-3.6377620292691244,-0.19163620599306846,-0.4777960227290583,0.191855479389762,0.7629009179393007,0.3288998915739224,0.3654214713259668,-2.2960621935877046,-9.400048075970084,3.1717439048791967,-0.9839860580455763,-0.17404204162892803,-0.39398569088047136,0.3903511336743117,0.8691401259659189,-0.3912748154483318
-0.557751939264506,-9.408479267574027,3.126202188515386,-1.0030486444253497,-0.63756102120915,0.03524211378753972,0.1885444800537686,0.8060760691216042,-0.3606788791497456,-5.7956120358684755,2.722313106508207,7.535000375839015,-0.4576158486054525,-0.45824164247891763,-0.9062437571737173,0.6661705862497888,-0.22968576446265607,-0.65619817199061,1.852206256003383,-3.1453510651264756,8.615532238184224,0.1459674383755591,-0.3557872550678568,0.0007633186471923121,-0.10603802052606422,0.18158426604860642,-0.9275806795166137,-7.2873512720923275,-4.544675656877629,-3.0562619126140382,-0.10714326950518989,-0.6225486784676795,0.19295575129776263,0.7672687066558366,0.31498676531190034,0.3633907472322671,-2.262093815993352,-9.42804107366402,2.735610488548007,-0.9676624441385223,-0.3196905210096493,-0.3581575342701034,0.3742457772348734,0.8709907135356559,-0.36172305613343847
-0.5695901573068155,-10.189387195413467,2.8515493334472204,-0.7581988876903234,-0.5254771982222184,-0.07475737295868366,0.1783175658811621,0.8197689160481965,-0.3538440298060469,-5.682277989611838,3.2175605704248333,7.822421739132088,-0.36029301135102,-0.345279877308196,-0.7482876037504904,0.6650295011680183,-0.20451963088950856,-0.6693210326472908,3.1267856970022607,-2.0263338953908714,8.086549562062496,-0.31399530900147987,-0.1960009185459797,-0.006052187224256508,-0.11137555943012518,0.19378587071513312,-0.9298874556239611,-7.772501398730764,-5.1549888599826215,-4.072285847711748,0.19180382623802847,-0.5062449081740792,-0.024396239346879275,0.7714752161058399,0.3209310762960764,0.3487920374204229,-2.531406825437513,-9.133762910725942,2.3475503006906067,-0.686467159404543,-0.5288201454117887,-0.34010733676989763,0.35989945394582573,0.8871274148373436,-0.3562638857581671
-0.42741199048198397,-9.648623873877193,2.5920203119902965,-0.9312052925135651,-0.34080673659645927,-0.13182268438397676,0.16928888673067494,0.831006246890018,-0.33846511699177406,-5.361905565188338,2.9810846137055234,7.971629541795674,-0.5313668721470187,-0.19538765134698036,-0.5417993703962793,0.6651581771420118,-0.1865960804639586,-0.6779277902037973,2.4670524740057482,-2.8238112249114273,8.387047994706322,-0.47233821565987816,-0.0472165486779878,0.0984733913053759,-0.11011184572494782,0.2088905613134311,-0.9325007754668116,-7.425365304570356,-3.94016177367382,-4.226706616705181,0.22866113750880065,-0.20667425586199598,-0.4306744143504134,0.7730035892811895,0.33564602875969535,0.3381496076964216,-2.5417602873333762,-9.030985449312368,2.3903987664875572,-0.8670943909017221,-0.8494015009043109,-0.49028155208744656,0.3428541265461933,0.899105664712464,-0.3476532726110961
-0.9880153442929989,-8.782318412064035,2.660749300121425,-1.038600069212868,-0.2525294942959432,-0.12478033395796226,0.16901563619412502,0.8397575993454384,-0.30866928764695994,-6.086788115500566,1.4574902848593543,7.845467438794687,-0.6081790064467663,-0.2635351512701166,-0.4708701539580322,0.6645843620448119,-0.17148899426264705,-0.6796473517003331,0.8977631945968906,-3.7853516873024247,8.845256873860073,-0.37837423222446953,0.04243389116267875,0.1878472565419499,-0.10807528560033086,0.21537059820210502,-0.919885868301864,-7.472253260215082,-2.244106116407062,-4.063185845245144,0.07159103208741431,-0.11954935631176178,-0.40909570803432077,0.7722695088089206,0.3426863745240123,0.3445413199379965,-1.7198016388356632,-9.256526761472061,2.07553347235831,-1.0011636327279076,-1.0054617749528383,-0.5136666941877263,0.3267733403945548,0.9080839647066422,-0.3268518295130845
-1.0530086808378307,-9.34768037724363,2.4310021890513718,-0.9523778340479342,-0.2983133290630102,-0.1402639290890915,0.1636428776040804,0.8541466275792957,-0.284978586673406,-6.1692207944304345,2.1423737231331907,7.730475051565561,-0.49840359643586823,-0.32647988037140035,-0.47000046073325114,0.6627328345635094,-0.14869799647652673,-0.6885768854451062,1.6431062912664973,-3.2132893651515184,8.551832656099721,-0.38105240165059723,0.13688717523414232,0.18497031725855145,-0.1024159045054161,0.22901046744787779,-0.9210390194544648,-7.589330066370899,-4.506012746304429,-2.8798925676272527,0.04297077848923187,-0.22254197256607525,-0.3648019467347037,0.7730567731455229,0.3561667926616805,0.3360858057787073,-1.637755191581768,-9.388208019413353,2.016690288785256,-0.886473971291409,-0.9190582514410394,-0.44958397053050864,0.30583884002936673,0.9249303744854255,-0.3130875715590481
-0.7499091603816146,-9.298748662397472,1.9928406151549087,-0.9021009107303105,-0.31583123645423394,-0.14702015320810255,0.16119636485770497,0.8634086743807782,-0.26788112319401897,-5.747172681543039,2.294021792034491,7.4545534967266995,-0.5441165686336721,-0.3647856984826855,-0.39609252977406406,0.6638633963123428,-0.13668935638160964,-0.7007477297955539,2.181961128103708,-3.513239997014179,8.420874752659977,-0.5126564021315123,0.25764542991489164,0.2371832901376988,-0.08894397573518624,0.23995748059498145,-0.9202478213964582,-7.833504471484735,-4.372113494775935,-2.9444422712703724,0.10437970335706874,-0.2785855179100262,-0.5313179477882267,0.7774957945395533,0.3683997969089608,0.3305627816841228,-1.4162227502147078,-9.354516203040465,1.9499644144826616,-0.8229529298258501,-0.8718727963696805,-0.4402278453795979,0.29634291244860267,0.9317316614385043,-0.3003552026842957
-0.5467679774024904,-9.205055832656305,1.7579065688037356,-0.7448024951714177,-0.3288409125383741,-0.16076206977194482,0.14630238004434298,0.8678364348201469,-0.25984575812011573,-5.440659637458051,1.8184208913270734,7.483210041145852,-0.43202910874989264,-0.36167764511180145,-0.29874552599353726,0.6505698885323302,-0.1216022458211417,-0.7139196075219436,1.7000914942131569,-4.555614284690705,8.193430508490023,-0.5259463976442683,0.32876416541259346,0.1657367932433174,-0.0903942783825129,0.252101900289198,-0.9264778595602164,-7.6583707313474205,-4.7066179209464005,-2.2038573137976436,0.17747781779264044,-0.320187057146502,-0.5398646693889357,0.7680530552804467,0.37953040336121635,0.31180833343072084,-0.967197867061638,-9.715298763059357,1.71117343857154,-0.6740512921746361,-0.8076627519697115,-0.39564778316631033,0.2731783968412668,0.9398434417952908,-0.2949395991056767
-0.36649899765925154,-9.252511999346202,1.1803581106779846,-0.6236120904717616,-0.36327184876671587,-0.10971268226167785,0.13628529295088465,0.8776065796154615,-0.24056453767532393,-5.067524749002108,1.1703505916367225,7.904465504959948,-0.3161034592392521,-0.4390874160549341,-0.2617661159378342,0.6404916269057419,-0.10972050623235396,-0.7155657156381598,0.8251205287341871,-4.766876679514392,8.427529860354056,-0.4414742497928483,0.3811129169202383,0.09299658700935975,-0.08347418122677559,0.2667964635205635,-0.9200800997339524,-7.740721610877525,-3.8577243031463904,-2.808599582673427,0.16651323839010362,-0.5205293376876938,-0.41655552642265026,0.7683539451352002,0.397871076178428,0.3070450362630753,-0.6952544220865525,-9.865515089697215,1.3668172145977149,-0.6047019573074942,-0.7139563398723664,-0.3183664096580221,0.25709675035066504,0.9483656537432675,-0.27999972652706767
-0.13586671214349968,-9.711928685073039,1.123624569685452,-0.44337246905748545,-0.3342380177395652,-0.1263254009231525,0.1326153808237011,0.8785856483838871,-0.23471100281803942,-4.919281832176975,1.4940501784488336,7.794280135137789,-0.18770007095764354,-0.4159549141728087,-0.18836060789875075,0.6350816195574208,-0.10702014593680859,-0.7273216297993534,1.42253468808787,-4.294381086554626,8.631633352706176,-0.32790355816646444,0.35050172224572024,0.05514677036378533,-0.07487904213629172,0.274628766469068,-0.9155690408185664,-8.28331280979688,-4.050142118414542,-4.106057417353108,0.1265786259670129,-0.5536281798149081,-0.3043782814642575,0.7691339759874737,0.39870688081525635,0.2909392961534573,-0.7739295842727335,-9.66211847078084,1.3086691378852002,-0.40398927350186187,-0.7047923783356583,-0.2583956564987195,0.2468446117434888,0.9488828905064888,-0.27853173296099903
-0.3052295742031429,-9.578914977068917,1.3731282770967064,-0.3356084402630912,-0.3013285524923603,-0.12962619009302884,0.13504877564720336,0.8819843115872766,-0.2251801388979702,-5.236432169302187,1.6967411181894818,7.850492482068134,-0.12500602401912578,-0.386292666602697,-0.0982862705514223,0.63312124296717,-0.10760573276729091,-0.7324355806876943,1.486662622561886,-4.022501461655013,8.499779452704917,-0.28627278996229416,0.32891254231092015,0.027082842387226667,-0.059267167265179416,0.27647900929773317,-0.9198144263703986,-7.925586714173727,-4.337697963680227,-3.9642706672325394,0.13279430672487028,-0.4298541052877058,-0.27100876286343034,0.7799219780815991,0.40752951270039894,0.28199433380382105,-0.7793197022215795,-9.877936307879159,1.4632552773825718,-0.29726169751188836,-0.7335031873189933,-0.226859148958618,0.24196523517431787,0.949861646380943,-0.2755972857840255
-0.485787456717568,-9.492724942913945,1.3406794922308296,-0.35722130430931953,-0.3465723700672795,-0.0954369863443792,0.13311114072694685,0.8939394069621718,-0.214670293633031,-5.4384341902674604,1.9301286399988649,8.102636899382142,-0.17118968791363212,-0.394878775670015,-0.01750689508117375,0.6335141155440803,-0.09180705933694121,-0.7368561773645553,1.5253586645924548,-3.8733467121758642,8.563874800336244,-0.3236452001552144,0.3710499342956694,0.03372990881503498,-0.04646916549031955,0.2948283693226932,-0.9122649080251607,-7.86161835205189,-4.335498274331726,-3.847185401249924,0.1466402896409599,-0.2905832026360787,-0.32202790258264113,0.782906424905104,0.4270754688866961,0.27871161253617976,-0.6268481983627626,-9.908168593431125,1.2412520480742237,-0.3465755277364369,-0.6398785061676082,-0.20934831046110794,0.24005584868653965,0.9617703217960505,-0.26430124080811035
-0.452791445131763,-9.450456218706702,1.2624542543448298,-0.40425053596249044,-0.42713616605085236,-0.05476086862366201,0.11987650089268666,0.8807848790111211,-0.20787649941753966,-5.371949069507742,1.5575394262970608,8.256122156773973,-0.23074548600876205,-0.47092318038784403,0.04615936930871434,0.6174448535015479,-0.10404652627141325,-0.7478484157429929,1.1042705667287598,-4.0103835951791025,8.931941849210892,-0.3743068769096611,0.4183143359583992,0.09857240394663919,-0.04308514822747462,0.2889267720633277,-0.9149014068309669,-8.268698417002868,-4.218152330424854,-3.615674732653177,0.10184945101703849,-0.1751085775256385,-0.3854134068795159,0.7731415644699501,0.4217571836560151,0.2740099042416244,-0.6818634463292654,-9.819690860432024,1.0096602517935171,-0.3983771591031917,-0.5576189489961135,-0.1782641217360912,0.22317207642268594,0.9510461637087906,-0.25654726857049026
-0.2740755693242579,-9.644355617357107,0.9396342249625645,-0.3416616513278599,-0.436635563712595,-0.03295509853276637,0.11206685064166617,0.8876312304193272,-0.19836001060327144,-4.869049175650039,0.9490610902912566,8.452758539093013,-0.25132105944782784,-0.5198083357809654,0.08868285935649835,0.6044497134093854,-0.09667765183993667,-0.755517061620734,0.2010615189879873,-3.9572783540273697,8.769623041704111,-0.39566488969866453,0.4161241659411193,0.18122167270928566,-0.03690698672915059,0.30021260046259046,-0.9079745767592081,-8.211411742667556,-4.301425343361348,-2.3597543962141665,0.032771485769853705,-0.27767915650175146,-0.45102608095864266,0.7717136431610158,0.43155958097694236,0.2689422462521613,-0.8404940734732748,-10.085845401428134,0.9991441549392471,-0.33600122148348893,-0.5705799133568722,-0.1330449743104476,0.2134283303867749,0.9571748512228564,-0.2545607179059966
-0.10117764488744557,-9.860929178978775,0.8613989624657308,-0.372438829732335,-0.3736731197339898,0.01037947748569868,0.11741251411129643,0.8798018242803863,-0.19689526093831913,-4.684100887109755,0.824111090242307,8.57451355841783,-0.36894727325978993,-0.5435354773566435,0.11032712755642378,0.5983479484821632,-0.10333969650378202,-0.7719963804679998,-0.03664284865644053,-4.217286622774729,8.539032280588748,-0.5271372220093186,0.41513562599187986,0.2685621979628339,-0.020327310577834486,0.30300836684694576,-0.9146771684252423,-8.133764456437687,-5.848790976958157,-1.4718848003372262,0.003195833936332386,-0.5946178972221627,-0.6147799534935608,0.7744711736696517,0.43778609741503177,0.24897006250725887,-0.7591483916736459,-10.318193609475294,0.9313646684862793,-0.37098334515881637,-0.6645546922687546,-0.09691064783786868,0.21364313028030543,0.9490985252981166,-0.25118665069221563
-0.40072235687993163,-10.102563868504097,0.747286816116891,-0.47288186696731155,-0.31489797081173465,0.04515671685543354,0.1081561278519392,0.8937308153717698,-0.18615231583030775,-4.866246789719771,0.7460171814686862,8.291886156717574,-0.4636936670302461,-0.501363947690524,0.13938886577204387,0.5833225610126325,-0.08105452987946186,-0.7777169491387488,0.21673176231075747,-4.478132879637694,8.203799349720073,-0.7212510978724553,0.4249482194270101,0.25567262588042494,-0.011398946620028928,0.33307677393800483,-0.9084580770894191,-7.716292078134033,-5.36046739085509,-1.845547793310749,0.0966708384546913,-0.9040311809126963,-0.7713677912209342,0.770442529070743,0.4667290707146643,0.22985871328036125,-0.9732939815009668,-10.290749488844908,0.7076720401671197,-0.4948425205505703,-0.7906347859872265,-0.08698419377732403,0.2010148308821641,0.9674046962405094,-0.24180863439137718
-0.7603826475714142,-10.267623280526328,0.5961136780380827,-0.3292653157622395,-0.2724862575192413,0.025604945872827852,0.1149849299503841,0.8954115224512968,-0.17954559753654786,-5.041515994075121,0.7682575205371664,8.079150286700877,-0.34761601942942655,-0.4251204037310517,0.22040718092337228,0.5813637994895248,-0.0823937263966415,-0.784039287312555,0.31052676449469707,-5.046221824832843,7.77124260973978,-0.6599153416705024,0.49861210158188474,0.1743531908970992,0.004788909144482277,0.3445690763122042,-0.9015814386019491,-7.255008074679567,-4.319256853285443,-2.4664129463165745,0.12380668269382043,-1.0246273394218925,-0.6967760203326214,0.7793302320053982,0.48393301438882813,0.20924335047488243,-1.1266721891712534,-10.067218233126248,0.43043948891512585,-0.3543786689605764,-0.8608504120693498,-0.06326132688903187,0.20003702540128,0.9671376633586112,-0.2369280013503119
-0.6004321870120062,-10.284792094020865,0.627619395614786,-0.08550715807021066,-0.2789655314590355,-0.004132842911832808,0.11226050149525862,0.8866212420921965,-0.1724818890345416,-5.072190848646296,0.704967537098245,8.294265359300027,-0.09786593405580918,-0.36175663703552385,0.2922178775710552,0.5750655418327852,-0.09350371931447089,-0.7892100656732184,0.17806336373025194,-5.17776238693386,7.820279598728362,-0.4539272953267616,0.6014228947434268,0.03918793210630075,0.018273084704267653,0.3502179316603739,-0.8941395654689038,-7.0465103660551875,-4.300831057546376,-3.095567380149608,0.13811319924952603,-1.0077690556568413,-0.46290462762385437,0.7833019253681192,0.485772319704443,0.18778216735771786,-0.7783899007955287,-10.362824718058889,0.2908254242277314,-0.1207929817208591,-0.9087803648967696,-0.03040537778220697,0.19536011351706187,0.9563927838031568,-0.23332338825511859
-0.4333887146335326,-9.965350815298146,0.8628086076499787,0.23983505336612437,-0.3185408220209061,-0.034122386333808825,0.10792464207796956,0.9005630945209073,-0.18272594443118756,-4.913118321383382,1.1494187148409147,8.46762936479812,0.11973290608073384,-0.32308614523998613,0.32947392542267856,0.5664521840546624,-0.08417067068585421,-0.7976537841125035,0.01292215920218931,-4.295664642848418,8.185570387771003,-0.4088801964169656,0.688041493522488,-0.006873434030224952,0.03446112520571654,0.3730888215830509,-0.8961776812330948,-7.637253345764411,-5.141629383393246,-3.028509783955221,0.11303462282041758,-0.9246916693608659,-0.41825482311679474,0.7834266989212043,0.5100975130308494,0.1637696943032112,-0.5799780125321639,-9.939421466777585,0.7064972225665006,0.21752754339640692,-0.9206961599987522,0.014090273257697388,0.1895620037723915,0.9735704984975366,-0.2456819426312278
-0.3192298304061303,-9.726258219597439,0.5973351012222133,0.17817193579728044,-0.3598068237421519,-0.026920679408845464,0.09522472261285096,0.8937742724403788,-0.19081501794664207,-4.519381848847023,1.2327320801060413,8.653827934123518,0.013975114578573797,-0.31676908845065666,0.37531039072167427,0.5476978620655228,-0.09539504117976835,-0.8054835107835329,-0.2602496478407301,-3.993430220766469,8.503569771026216,-0.5910381863619204,0.7110615597195751,0.07744952845032034,0.041336365220618676,0.3813875005847549,-0.8941036921867962,-8.35734035903722,-5.152048144006632,-2.4219599438108816,0.09790767572580414,-0.9189015394665164,-0.5872830471842662,0.7703383052801696,0.519815928861971,0.13815942467107487,-0.2913409302214647,-9.703270767205513,0.7892250364671936,0.16223225039729353,-0.8464537861322332,0.0012282057797904644,0.17268399643419918,0.964918621825555,-0.25964500788727907
-0.10478368927863443,-9.661700287451074,0.4468155524967683,0.014237721252344805,-0.4110309063510456,-0.015001572210223014,0.09937179898608452,0.8947335309349178,-0.18714415950545663,-4.195370083615548,1.089493830730046,8.386910131455195,-0.1429690048709582,-0.2641952041717221,0.4140702972622765,0.5501775181629154,-0.10042504111423028,-0.8005192798966807,-0.5439196443910027,-4.343608577337884,8.13629168172315,-0.7007552930604103,0.6807194301292249,0.15739813198180555,0.06930556191368675,0.39734013093695175,-0.8775668009979833,-8.15966832174846,-4.746407979314437,-2.190044389553305,0.0306209946210765,-0.9633009645510785,-0.7158708564045458,0.7813966583013078,0.5333101399786989,0.12411841160943776,-0.04680867001990559,-9.806244121719455,0.8599996437275841,-0.002311865235532974,-0.7187158584836247,-0.02041002849775357,0.17951468087565112,0.96341155263883,-0.2564792710808262
-0.0428071060794792,-9.872675197416262,0.24739149867141028,-0.001907284936737721,-0.4461198735876522,0.014055720874695195,0.09887099287735993,0.8920471340440705,-0.1849505289562734,-3.942649718036013,1.073769244150545,8.929014161350059,-0.20332969568350773,-0.2500331510733247,0.4570178875400788,0.5462875618380015,-0.1046453927849334,-0.8033704060892327,-0.7065208046229638,-4.829592531534819,7.763545866009102,-0.7585267757161136,0.6681397297878316,0.25459900037855665,0.08649204628338816,0.4132369999969749,-0.8695222891359442,-7.850236900812316,-4.703147174992818,-2.3600687773507185,-0.07816530120079461,-0.9854444757827479,-0.7712288748091932,0.7780639517314557,0.55075452966142,0.10835256952864047,-0.05400211400090674,-10.18385045501352,0.7287625548163077,-0.0146290374213233,-0.5801129116574775,0.0008442342147886826,0.17438774422661146,0.963419530024037,-0.2545261210717232
-0.3420790764231355,-9.850226078802784,0.5651116105593795,-0.03911210045145326,-0.4574229778815858,0.0548989649284728,0.10744643829490097,0.9000833619678618,-0.18883145496016113,-4.277300302290641,0.9730051081633121,8.62669965042678,-0.3023354352577387,-0.25129484868658464,0.505121051422429,0.5494114300542582,-0.09943616353218171,-0.8139645223317391,-0.9468276907808604,-5.137496685283475,7.91006331669816,-0.807137183380936,0.6697578965555949,0.34297826769828205,0.11346513758801868,0.4371349139658152,-0.863321734450275,-7.943563721367498,-5.62951937106146,-2.0103569164623263,-0.1981293413907182,-0.9849478349854756,-0.8444646608582888,0.7818390692141923,0.5733459055371264,0.08702542145314555,-0.5133850002748382,-10.364964905769884,0.8615942210742134,-0.05520761605134781,-0.4761182005452158,0.03405264313548488,0.18319801926624737,0.9690234410047647,-0.25815779223608376
-0.5424597946602245,-9.841167186728299,0.7232406951806823,0.02176399590044533,-0.4440447826782083,0.0925620554423258,0.09642408028561571,0.8881519944748764,-0.18789003971571322,-4.378573141661467,0.7097639539385082,8.493863888577177,-0.2829346530709697,-0.23958539815150182,0.5513538799937807,0.5331161434730882,-0.11101085275743708,-0.8144690692337236,-1.2887958703879632,-5.889474581197532,7.6777049635841115,-0.8453228019367761,0.6764325783124744,0.30247476368995874,0.12500351627200448,0.439905041542428,-0.8519326098766201,-7.645482302148933,-6.507730238120729,-1.9463007037296576,-0.19121531970407518,-1.0321902526189817,-0.8716498647982635,0.7670214995675669,0.5803506512472656,0.06627569817056442,-0.866406459401865,-10.424836602459862,0.9824353258494025,0.002066189506355229,-0.44480696227856054,0.08446302865421675,0.1721641178192318,0.9561222752847112,-0.2579838758157427
-0.5028436517746188,-10.072175492962609,0.6887562272766805,0.2087352254537019,-0.38784528435054405,0.1316827795417377,0.09447226611967653,0.8837724090378657,-0.1954672760761261,-4.119999096280682,0.669310533149667,8.391595082644494,-0.17322902908332322,-0.22180546577177915,0.6196152699228881,0.5246010268265299,-0.11923642648344439,-0.8216377415217783,-1.1957074201813145,-6.186183023541981,7.605891605678676,-0.8281860811288533,0.6908621180853965,0.2086903251039494,0.1375725367619251,0.45634974393141203,-0.8399657352110402,-7.719589244624148,-6.2777056799966635,-2.5890001732220504,-0.13564138242258567,-0.9998502082126666,-0.8458165592252124,0.7588138639173937,0.5961242542333106,0.04633388802522817,-1.02917860076081,-10.451556793330715,1.0378121063196408,0.17545779692893046,-0.47400291738363964,0.15476946004507716,0.17093060255286224,0.9527499925312564,-0.2655703333631349
-0.43131237673802636,-10.261301574040026,0.5873710679734688,0.46487336351303604,-0.26276980804504696,0.1484570508061027,0.09548346790716308,0.8886673162716633,-0.20693415202895216,-3.8719488308088996,0.445849776935186,8.571363660091809,0.020122044414485975,-0.15783775220757856,0.7201868390297343,0.5180147666079647,-0.1207577988764334,-0.8228191353490842,-1.5773106560885075,-6.547519977740308,7.805510794800952,-0.6900998271714706,0.637369487519169,0.09513129589392877,0.15258914170618998,0.4781303456628267,-0.8305104284912466,-8.087798863427846,-5.678383011513117,-2.8947411045286,-0.0623398820519704,-0.8319231388359468,-0.693888660141591,0.753287747627579,0.6181957633033369,0.03303280840276177,-1.141458825908285,-10.549668523014649,1.143452105719767,0.4253586308082839,-0.5728750083920326,0.21550517058699678,0.17215850361297197,0.954763662548141,-0.2775225637428457
-0.3790618465366822,-10.211743512350777,0.6306748688722688,0.733506069553176,-0.10705408643570856,0.15883466046511088,0.09597025069958867,0.8777006797164982,-0.22306040426497764,-3.724083660000708,0.48328313061832967,8.793022784992852,0.21797752764524983,-0.08626079001075801,0.8109349494684418,0.5093435710468089,-0.14126482227761647,-0.819768533971729,-1.84063608270704,-6.672187171816117,7.442153006273676,-0.4854724515534921,0.5629160625569466,-0.0019156142685976458,0.16192794591902446,0.48404906871565023,-0.8220746067589956,-7.67807426893302,-5.878010455139938,-2.2242171320741693,0.007060575261662534,-0.7158688075309352,-0.4841369745249905,0.7472317897404462,0.6219588238798175,0.019612453296915557,-1.0492903968794773,-10.479038202134552,1.269904202201938,0.6939332614973688,-0.6896689299562125,0.2686478927028406,0.17065156594976896,0.9434002538237949,-0.29687170716168143
-0.6657048074188074,-9.681057404926328,0.9623359156420346,0.8923716912650861,0.013928005630547313,0.19802809886186623,0.0989313394715218,0.8796637120152949,-0.237457478012049,-4.055861058859038,1.0626944941251155,8.804357613046623,0.3171604456483362,-0.0794072843863172,0.900062555444642,0.5033049130417999,-0.1504492636687633,-0.8122756595679286,-1.622780157529212,-6.307037635362221,7.487035358110644,-0.38168492663052866,0.557950788683898,-0.03903653277462149,0.1718145223199502,0.5005126173745089,-0.8093630445565733,-7.3781403359875934,-6.322595387208717,-2.193875954125927,0.030885774131162797,-0.6368994753057972,-0.38215966438325083,0.7419283921896394,0.6396105407118367,0.01018944548092032,-1.1327507181442678,-10.168901830662504,1.2225736086970027,0.8441496079313849,-0.7754489294289694,0.31911525284253445,0.1738404042870451,0.9476130932026329,-0.3105210168301895
-0.9183426378541393,-9.209796680109912,1.4330893219222567,0.9390513307383497,0.04045554676103381,0.25722908722537663,0.10284827890120893,0.8628476133021522,-0.26945399498771366,-4.402528745302501,1.6148128150860104,8.54540355317449,0.33452692068536466,-0.1273071286133564,1.0021984005569904,0.49171053649342183,-0.17808064744972518,-0.8252127091467011,-1.7466124553808882,-6.155208502797095,8.168498739310467,-0.4081739010504485,0.5577386547729173,-0.04951114734436317,0.1830359849035511,0.5023869477882843,-0.8128546232804231,-8.347898963337016,-6.804699840382183,-1.8691769089769164,0.029463823152092637,-0.507261891017903,-0.4036094704292793,0.7371043896604524,0.6421840730801603,-0.008362209424979268,-1.1619779857356236,-9.793166144500578,1.30566534848845,0.8830228421827444,-0.7874554771100623,0.36395394766765804,0.17133239315775364,0.9295117661751254,-0.34724109392731145
-0.5820788824480244,-8.78441103186469,1.8667170451782442,0.9551127667150987,0.011394636600494201,0.3426064168861586,0.11607042656972266,0.8660044419094804,-0.2857826954312876,-4.182389871761507,1.338825013788007,8.509609184109005,0.3127053372990279,-0.22647399835682694,1.0210304013480564,0.4871240287051245,-0.1858347963253632,-0.8201893302517413,-2.7510386205878525,-6.350668254602858,7.790137011042846,-0.4527594827887954,0.49471994052920115,-0.0600245494161018,0.19857007584991299,0.5220538131329543,-0.7955659891242851,-8.482809135233396,-6.823717594252919,-1.0881897644459704,0.02791457117751383,-0.5066381459400864,-0.44599494937428075,0.7366763073398006,0.6627243848373964,-0.013113336916669455,-0.8415786069298158,-9.827714049511448,1.4112559337042374,0.8961385614092983,-0.8091393521812822,0.43131266849923217,0.17964460645621969,0.9327449638919537,-0.36382485928999975
-0.6738354947993849,-9.007356450675399,2.09816337295019,0.898051354834541,-0.03593370757730831,0.47136108198449517,0.1292663956251329,0.8528174815968217,-0.3131194934588734,-4.216866819426357,1.5545608098743697,8.70888302918582,0.2352041666975842,-0.36415628953688994,0.9513087712981626,0.47721346787195895,-0.20804015584668903,-0.830536418755315,-2.8334124292345253,-6.387169849113208,6.979317388961435,-0.5090009918056907,0.47564990504485827,-0.04294940314649755,0.21080231130126056,0.5290888106930688,-0.7957019089240898,-7.508169165926722,-6.868477649247687,-0.32535461413382616,-0.010109158301697332,-0.7243204471055369,-0.5109868686935762,0.7343105479476376,0.6675135799269072,-0.03555064599982376,-0.7736552620862817,-10.361669246017605,1.6491027837282328,0.8462945343873538,-0.8287979793176317,0.5363849300307594,0.1871501136126868,0.9157737713525566,-0.3905297853358613
