# sampling frequency: 40
# units are seconds/meters/radians/a.u.
seg1_acc_x,seg1_acc_y,seg1_acc_z,seg1_gyr_x,seg1_gyr_y,seg1_gyr_z,seg1_mag_x,seg1_mag_y,seg1_mag_z,seg2_acc_x,seg2_acc_y,seg2_acc_z,seg2_gyr_x,seg2_gyr_y,seg2_gyr_z,seg2_mag_x,seg2_mag_y,seg2_mag_z,seg3_acc_x,seg3_acc_y,seg3_acc_z,seg3_gyr_x,seg3_gyr_y,seg3_gyr_z,seg3_mag_x,seg3_mag_y,seg3_mag_z,seg4_acc_x,seg4_acc_y,seg4_acc_z,seg4_gyr_x,seg4_gyr_y,seg4_gyr_z,seg4_mag_x,seg4_mag_y,seg4_mag_z,seg5_acc_x,seg5_acc_y,seg5_acc_z,seg5_gyr_x,seg5_gyr_y,seg5_gyr_z,seg5_mag_x,seg5_mag_y,seg5_mag_z
2.199361688622779,-6.088192085910122,7.327767522136037,-0.004726536819960285,0.0018542410849649357,0.011192227154967318,-0.6931014031099496,0.15028613101539504,0.3684949891117148,0.3187544736346277,7.594799261116467,6.177487584843508,-0.009975336049220193,-0.0018203855280946317,-0.00918206056581156,0.20468491659408752,0.6504001161935008,0.19506869388846654,-1.6544672911797793,-6.087917779953483,7.3317397122355965,-0.007557721951076425,0.00045631813470172985,0.002432811268915017,0.4621820026016313,0.21054431852120026,-0.2501774128645291,-1.8859915407816132,-6.152975176007814,7.47068426340672,-0.00653704821242936,0.00690009765036757,0.0052808289201380166,0.39571884881498237,0.4981531150530234,-0.609923902694028,0.3333994155808311,-5.998318244101914,7.839143915235802,-0.008414529130613137,-0.0016058392241103678,-0.010459632397764825,-0.44970987505397214,0.5535500923477242,-0.3894425567677045
2.184519452497323,-6.124546469855034,7.302735964937528,-0.001664382501647546,0.0016409375971167598,0.0123776374438169,-0.6876928318474327,0.15220600740506965,0.370375810886006,0.30630968505823514,7.603131066833376,6.187905294994236,-0.00908658306244214,-0.0034001597958663167,-0.012132930503877204,0.21007129431505409,0.6517811352549889,0.19405569665308964,-1.6812521956311401,-6.133185233703329,7.357288055225642,-0.0017007036043171992,0.006460427742352764,0.005133031427538824,0.4663246109225289,0.2114878802076317,-0.25122065140078437,-1.9235402503600219,-6.178902878153419,7.466575166614831,0.0021331000308522884,-0.00447854879553987,0.007079455201097493,0.4044933459000442,0.4981237465209848,-0.6108125440128788,0.3135914893516801,-5.994102289672879,7.83368906457306,-0.004158327649359113,0.006139533023978991,-0.007012614021037156,-0.44483430922367073,0.5540266645485056,-0.39000108051101284
2.1465704211826226,-6.086222199243126,7.327782674069491,0.0013782072391396662,0.0016876164208937056,0.00990704343494632,-0.6872581253851838,0.15075281969394413,0.3671885083010742,0.2789668505678436,7.623362857497681,6.1664963984895875,-0.005527015514845136,-0.0027274545562897805,-0.012262655346295732,0.21008473109791978,0.6529907132106766,0.19330411790007668,-1.7220390327771962,-6.094135489935957,7.475501744476607,0.000592953684313732,0.007302608315921466,0.006278071655571749,0.4687544357941117,0.2102499023995498,-0.25148938926587694,-1.952881216925312,-6.1964345422938,7.5185344112059855,0.0023847532235979287,-0.004546187374862824,0.009143569949159746,0.4054650595303464,0.4993398883497314,-0.6113236826174252,0.28921333384329506,-5.945229718815792,7.773062407681657,-0.0010196835038592288,0.002899074081350268,-0.009274423864736854,-0.44292113772609215,0.5535314361344504,-0.3927142839016133
2.1560001261351474,-6.067278833568038,7.3205213934380735,-0.005341314280362253,0.0019247013580008696,0.010589658466679079,-0.6853083269771515,0.14218831704164414,0.36956383532840775,0.2741585120813373,7.619844589144724,6.144652539311417,-0.01321076714614404,-0.0008783856389043453,-0.00816780821761431,0.2135838329104056,0.6397922200146139,0.19544941038814093,-1.7188952553830246,-6.125619837102421,7.455773879179079,-0.008286501360922576,0.0014448446200732616,0.0006751423696329871,0.470214218514209,0.20147910944136227,-0.24802273449582649,-1.9394661799513921,-6.235421615956343,7.5197981921283725,-0.006763226419896629,0.004207722751403176,0.0024768259205152697,0.4052301548520836,0.48616718710444384,-0.6085820134735409,0.2874938883184289,-5.950829257191531,7.821873109377757,-0.008100600178584232,-0.0010594129697926009,-0.008530520435832524,-0.4414946681531897,0.5425401554195255,-0.3936991203364088
2.1992407005538004,-6.11545158260485,7.34307286796151,-0.0065023932626808644,0.003062708244315018,0.012518279197543381,-0.6878510732919006,0.1456518578303128,0.3618032049813252,0.30630699090588553,7.610956830009106,6.207997366999358,-0.013909987341224261,-0.0021884090998820524,-0.008670835702429967,0.21141513975352758,0.6433848172381943,0.18905221004889616,-1.682169783166673,-6.092084026496092,7.3903556044275796,-0.010899108794268038,-0.00453887415037904,-0.00011995389835272918,0.46716059869926263,0.206051666804183,-0.2587587910432502,-1.9011131289343222,-6.133386654878186,7.462708954215603,-0.007269313082716208,0.008562876071940633,0.003141101348577845,0.40194827647176123,0.4937163113087897,-0.6158778940951062,0.3073833603915993,-5.988289480131492,7.82006452652399,-0.009985718886811375,0.0013236115121189266,-0.010499219441394909,-0.4429928904547496,0.5464462881611039,-0.3966120944077452
2.1883676762555213,-6.101282878078612,7.305059386028685,-0.004193931590843637,5.334673098973944e-06,0.011056084765982337,-0.6944695830765164,0.15221990272654445,0.3743837008170238,0.3155770882081691,7.584387598703927,6.1746643714865295,-0.009727461591282864,-0.0007805844887360145,-0.012272020120830205,0.20226803180466627,0.6517005670404195,0.19823033531491144,-1.6549848873812434,-6.119324780648785,7.317435824529888,-0.0032588284888428,0.0011436440980036931,0.002866564678741415,0.4595407915993886,0.21034188426893036,-0.2469649815710786,-1.901396086080981,-6.176658583034055,7.428773941280194,-0.005036651476042633,0.007119744942332686,0.006317372069540128,0.3977681443566409,0.49694798129718354,-0.6043398794657926,0.3287858670342759,-5.995266388147858,7.823329217924621,-0.00716841670197803,0.0031993313302087875,-0.005075084435390892,-0.4487240403372664,0.5501312260677125,-0.3882319270676161
2.1765728901302452,-6.102765027748161,7.314636390446354,0.0008504792813586182,0.0034481941923349686,0.01126387139503675,-0.689167139679667,0.14757053785588123,0.37110948620544887,0.2827298161165181,7.622446479697662,6.192911515582024,-0.006585334762016752,-0.0027365679691048308,-0.012303414600128017,0.2083633761595983,0.651352355364229,0.19650854589010858,-1.707750085913105,-6.108777969227912,7.393412526812533,0.0017216036719379674,0.005317727481929324,0.004777472681732814,0.467278724988441,0.20903612328322735,-0.2517029773620017,-1.9372944231982996,-6.133756375422007,7.517358263297264,0.004686428673671922,0.0022313025479991097,0.005882695914789264,0.4008741068274162,0.49619222470314195,-0.608055007068002,0.28559240319350815,-5.975846270236247,7.8144563309234565,-0.0010187496271055409,0.0022477129051800475,-0.00868968140343243,-0.4465202698333444,0.5501268393742179,-0.3877754959961895
2.1589964269407678,-6.05499785938595,7.331206093322542,-0.0017299193190668048,0.0005981824824317185,0.009854708055910703,-0.6896566632777219,0.1458616410639972,0.37159832298969897,0.2682184104549343,7.627891447588375,6.126889101725864,-0.009539031579170423,-0.0031172020410682997,-0.010685743491528751,0.20855196060132258,0.6469588230725215,0.1968190405117409,-1.7246576510454634,-6.105131674716405,7.453391302155402,-0.00587763421276561,0.00676324342541135,0.004048688606148581,0.46826991283917824,0.20684851838206747,-0.24974658311723089,-1.924423920574207,-6.2203020823699875,7.546213564735257,-0.004472926516425977,-0.001292528257500827,0.008225210579809811,0.40110359701769194,0.4942366215547525,-0.6085396095634313,0.28416583761748615,-5.934508932763973,7.789031040318222,-0.005531404008370065,0.004242220773096888,-0.009152108478842064,-0.4453048154856263,0.5476821194010075,-0.38779032775938704
2.172028068107571,-6.114688996335684,7.3125024628688635,-0.009665293376414518,0.0008045344351701179,0.011768519290482692,-0.6916788315267891,0.1543766041687679,0.38070025475701397,0.29037856221862507,7.609632125088117,6.188256947717407,-0.01670905395393694,-0.002536379633721742,-0.00917037209267246,0.20452907853489297,0.6554193242147308,0.20378264886533703,-1.7010220606094681,-6.154587160106697,7.420115473682583,-0.011879885250063536,0.0002616066640056454,0.00041831136569629767,0.46258518266599036,0.2184167615970925,-0.24243193522576856,-1.9266087339888602,-6.23300382035761,7.510549806065749,-0.009012966256424556,0.0021015498301830567,0.002532145843313507,0.4001057620407774,0.5045357859430832,-0.5978179017581893,0.29651389772488607,-5.986991243258501,7.82381348949507,-0.01352284843254569,-0.0016391824953866018,-0.00925417516676742,-0.4468758246492599,0.5577045071576029,-0.3797206497073068
2.1798442819725707,-6.118416557572028,7.321333197042526,-0.0016584975819874117,0.0025086176705925198,0.008766940467080455,-0.6906447751870649,0.15271488211328713,0.36871299909541216,0.2998380160738448,7.598170286724924,6.181860225658647,-0.007179619152866811,-0.0015068662993255283,-0.00864898484076282,0.20296409998540166,0.6499043184185092,0.1931280731718956,-1.6761171010004878,-6.102099536647676,7.357210159793381,-0.0038692816843620952,0.0008072375947330165,0.002349787588849189,0.46387199022718256,0.20857698815141773,-0.25067497094316366,-1.8936963573697558,-6.126295100334808,7.433507243106195,-0.001089309867930306,0.0029098768677314263,0.004489920559015628,0.3971864906001717,0.49912568053348716,-0.6099538689513355,0.3440583725053497,-6.007510507402422,7.821324943164008,-0.005163956547803704,0.0011862610627217263,-0.009275131290901795,-0.44876149797579945,0.550616357253758,-0.3909181855543671
2.17143815329596,-6.077381371864818,7.3071753137386235,-0.0029370292650738143,0.00043046524484994245,0.012913391025175233,-0.6890500351899842,0.14680298879633477,0.3791623259517548,0.28673218267277034,7.595503860510831,6.148814379821265,-0.010427774144714018,-0.002100410129910935,-0.012762893428725375,0.21050498370619874,0.6457959657723146,0.20220269295698434,-1.6852085266640058,-6.107905107573847,7.357891648330263,-0.004853696861968109,0.003287659731337007,0.004781573513297272,0.4648923201833687,0.20494555113735868,-0.24602129648168364,-1.9094443964325438,-6.180719520833304,7.435236393498628,-0.004061546347677576,0.003926399790271495,0.00646236078787179,0.40170656957909195,0.4930396915458034,-0.6019526369170727,0.30831837467574424,-6.005864210118894,7.801325931828592,-0.0055314744626982154,0.0035888618368457408,-0.008567349472535233,-0.4442786238913699,0.5462188506815162,-0.3841411123003554
2.1858300863580826,-6.119709119442621,7.311179744000872,0.0007174251965595932,0.00044833940842465485,0.010437519238889807,-0.6933297050840289,0.14734868073240937,0.3704386735108956,0.2851462674189511,7.620423171286728,6.220706634851011,-0.00635437579447254,-0.0021239860813652856,-0.01044521160095802,0.20416959213496857,0.6484463248440184,0.19461195100179826,-1.7080549461976349,-6.1261057589128916,7.436511585396683,-0.0009402422343527525,0.003807312961590984,0.0037029060956552265,0.46213898073134513,0.20857415416415964,-0.2523596169166113,-1.9169835103227637,-6.170754665112237,7.550228535765866,0.001493629062867572,0.004437539426818491,0.005830127104788433,0.3981328967772001,0.4961880372980296,-0.6111805871623578,0.3129787388353161,-5.967450149953531,7.827957812075998,-0.0025186885468677514,0.003912620025931417,-0.008166882669449689,-0.4482148198712965,0.5486669648341438,-0.3865284941934161
2.1699803289786552,-6.054245355245791,7.3398962150444245,-0.004116644132163387,0.001831445413638238,0.011187005398496427,-0.6906652890722876,0.1522322814515683,0.36749002698541877,0.27670667343575744,7.637232031803407,6.116626482854918,-0.010584595822062863,-0.002150846198693009,-0.010632406825979582,0.20735987463520003,0.6498592096957342,0.19384894447200374,-1.7070144520817785,-6.074282258207176,7.43603778417293,-0.008269238976838608,0.0009462833062898486,0.0022580209583106833,0.46333368828887816,0.21220156315805297,-0.25582348568476565,-1.9441730753764608,-6.216943034444136,7.552265046176065,-0.0066610211790621154,0.005156711943850679,0.005858890319867209,0.3998182802176762,0.5000812666619966,-0.6131790800390314,0.28419047570289646,-5.954480582399128,7.811284310186162,-0.009838191620522973,0.00010122244467711716,-0.010552036801232506,-0.44806160147136653,0.5535418468892748,-0.39361663034267885
2.1721436607090827,-6.1215457466757215,7.310219190847204,-0.007803365300237854,0.001294193582111059,0.012400913755166042,-0.6798842255823415,0.1482601869554733,0.37121872439065867,0.29605982382102136,7.594619909439729,6.212739192180109,-0.01520163399602812,-0.0028455988217112064,-0.010538245831099115,0.21982323845176752,0.6499920574859135,0.19698471070061832,-1.688713541058898,-6.139680262225194,7.377174383768333,-0.008819140311658947,0.0007756887380526145,-0.0017633760645223975,0.479030903470086,0.20727953363183088,-0.24868128715085067,-1.917618141004355,-6.187308767856602,7.451466506016438,-0.006708792031917547,0.002573759654847505,0.0017680646796876221,0.4143049840457286,0.4963966285444333,-0.6080515118882515,0.29911295444817454,-5.984123875640978,7.819378676861474,-0.01109754903789501,0.0022643903187093478,-0.007488958995484681,-0.43309827098626835,0.5496075850738217,-0.38821157273325424
2.188140644978753,-6.145251832256215,7.316363075263939,-0.0017573525236950478,-1.251493755426277e-05,0.009811417404422292,-0.6884484305932556,0.14708244463584713,0.37036449341510375,0.3164054225019784,7.60683647154074,6.18257850136001,-0.008575118789517486,-0.004132858949107676,-0.009648957024074922,0.2114486873573998,0.6453831183502586,0.1919519830096289,-1.6779313118368049,-6.090159570649801,7.357000064550649,-0.002580269264126315,0.004624451818732719,0.004347808747038524,0.46749846094093817,0.2065879709292247,-0.2524199579494456,-1.9057921944471465,-6.112288462850448,7.444151655244917,-0.0007891409136408063,0.001205312707173501,0.005850392029286946,0.40474025569678734,0.496171923525992,-0.6103213092945521,0.3302562598691787,-6.017974363687341,7.810919076192581,-0.005692048604827222,0.0005123131079005213,-0.00938184555190277,-0.4424325421101343,0.5454746719271387,-0.3914915673229049
2.192890092265241,-6.065901745114904,7.307978284560575,0.0026527666174631687,0.002843420320512782,0.009983094317603537,-0.6853005884185585,0.15098684227335793,0.3674042939739515,0.29835783881782135,7.59213006871739,6.134902032351066,-0.006844462650735454,0.0005422097149487338,-0.012707711070358133,0.21203133322485196,0.6524777914713882,0.19330622711519588,-1.6974585803260254,-6.126199948398344,7.390453155335989,-0.0011824886432709003,0.00413516416581495,0.0031186867316701254,0.470180218961045,0.20948869253788863,-0.25394493338223884,-1.9060518247298386,-6.217378753149659,7.496161989919324,0.0012500630249601672,0.0020789829262522924,0.007040811134093776,0.40592683241758215,0.4993327410063996,-0.6127971423949886,0.31676923844067695,-5.972664115163833,7.823827562382875,-0.00032825206529274583,0.004698484024896994,-0.006601989128241488,-0.4394924392824016,0.5537685827746919,-0.39203066306133977
2.1801104707884194,-6.082249436988482,7.355018953872519,-0.00473042171506169,0.0019019011318913276,0.010584421735842885,-0.6902792260772809,0.14125836685212304,0.36401739243396236,0.278487518034396,7.674910607714084,6.163710256183516,-0.009167294615653099,-0.003456319761792309,-0.011032704298315153,0.2096295548465061,0.6370833136043839,0.19061875193882186,-1.69896039446427,-6.06889088647686,7.461867724276605,-0.003234897403504162,0.002963146536879458,0.0025588957364029706,0.46618861581908205,0.20216624680171005,-0.2567612438760927,-1.9332549189003103,-6.148970508225263,7.53186651219475,-0.0012416888864482888,0.003925529200795445,0.005811926978461884,0.4007218214588031,0.4873759090722924,-0.6150993174575109,0.2944002349154703,-5.937017011211415,7.802339246788236,-0.008322440834746519,0.0014315210647124748,-0.009045049695464812,-0.44643967397731776,0.5427903705823472,-0.398023881575094
2.1661028307815244,-6.105362004004757,7.301817941181449,-0.007777931850616943,0.0019049001116627287,0.01244423435538506,-0.6939364221926249,0.1443811248786051,0.3797127750633204,0.2888599043963996,7.577762722166039,6.176845105543189,-0.015280173599516783,-0.002883154228857145,-0.009462312690946833,0.2034351585464944,0.6461641386134367,0.20441609779349124,-1.6944880273395564,-6.131638869204512,7.401211195650972,-0.011397372024932127,-0.0004000516395985168,0.0015908254495541208,0.4615280931149063,0.20523947397480352,-0.2423134548457109,-1.91703109763263,-6.240307081722239,7.497324945375831,-0.009569359790111118,0.004206493003288816,0.003112020376007643,0.39613289650788636,0.492334108965741,-0.5994090011888228,0.3026839499486319,-5.988844937208273,7.815626089645495,-0.011112411748688586,-0.0007278219350810777,-0.0095227620656206,-0.4481668613297792,0.54818161506481,-0.3831103103803798
2.1832325228923444,-6.115316943827827,7.349361617388779,-0.0023105011634108564,0.0011433605976682315,0.011123950958071366,-0.695311528916828,0.14027664161605918,0.37068112357289346,0.29766243373210954,7.629732362923776,6.209334537160344,-0.008458262220006153,-0.0011667589039407377,-0.01043363406861155,0.2047963443652107,0.6405929757271643,0.192532640709732,-1.6958848308360566,-6.1200367221158585,7.373765266154499,-0.003870285648445316,0.000804251793621075,0.0023508253980029014,0.46213199109499,0.2017576745048707,-0.24986365694107407,-1.916347542301159,-6.109410280866832,7.4627480008039235,-0.0018982552416786675,0.005080484901857835,0.0030117050319435406,0.3954402912144835,0.48789903027274123,-0.6101232490809732,0.3179227812344286,-5.985394619754971,7.798444973135954,-0.004035442484545012,0.0025873225568572747,-0.009674860822808084,-0.45045177868552705,0.544762539135392,-0.3886894528293836
2.1855017662855043,-6.064227103457635,7.32674044431197,-0.00353028589291431,0.0011532922150540908,0.011746311445768235,-0.6819188389572549,0.14242536888686358,0.3675599507544727,0.30393767406385624,7.601868225172856,6.151546133001927,-0.0074266612676612605,-0.0031283231893045487,-0.010564760074827987,0.2180089447334094,0.6428571571902839,0.1919712542008618,-1.6780365433265985,-6.097532119784071,7.365460566107667,-0.0025101573891148435,0.00776984059563701,0.005312239546581388,0.4740347847819067,0.20335412628204924,-0.2549284948624531,-1.917645288662062,-6.190502577818264,7.459399683685787,-0.0010036791063668896,-2.8177907171527037e-05,0.007096206328524418,0.4104905071169819,0.4902744458012288,-0.6155289665500243,0.30683341238154904,-5.971561105167132,7.827435322833616,-0.005454385240671516,0.001668939483478088,-0.0074262879453218505,-0.43490065451348464,0.5437464265359636,-0.3937950323431119
2.169493830310504,-6.115439649426184,7.339047274051572,-0.0016663754497428054,0.0016359379792114676,0.012379645422574427,-0.6863575213704651,0.15028193771659262,0.36228936637905584,0.28797124292254533,7.6379958653215025,6.192467914682344,-0.012727160929286834,-0.004156714403857461,-0.010882553792414654,0.21268415838420227,0.646587247731572,0.19192998812409331,-1.7220962895129592,-6.122121087381761,7.434502962064596,-0.0017131440000917998,0.003467980086141712,0.0006781244406994854,0.47015105082579683,0.20922935894032552,-0.255896739547067,-1.928890735274219,-6.19455456773069,7.507763152236365,-0.0012707910728085698,0.0027994478341998607,0.005772801302042514,0.40587311351847605,0.4988324025692381,-0.6157237338813729,0.293696866493923,-5.97395031838623,7.80256278871793,-0.005906883509988752,0.00664884154028952,-0.008442216496367732,-0.43907976419589484,0.5525410210954882,-0.3971628051673932
2.1595337504369208,-6.093771616927797,7.322114804604953,-0.004149910716108113,0.0013120723004686155,0.00992505694324592,-0.6862224244782723,0.15024206143232388,0.3713222681670569,0.27838134824942895,7.622121383159587,6.156442839592213,-0.008834271187093977,-0.0008551420752112531,-0.01005723772335548,0.21106060633165447,0.65229376603545,0.19648626704226455,-1.7036802014959433,-6.100022507043908,7.426003380710145,-0.008351046744308737,0.001273081326872938,0.00418286602816034,0.4683085052656734,0.21149303507557013,-0.24905151455342406,-1.9241493605134676,-6.175326424373464,7.513849070771149,-0.007414420117874783,0.0032691867830680096,0.006947829164067516,0.4030891326535573,0.4976534065354464,-0.607368085498628,0.30592795644990317,-5.97166082037813,7.794943057793572,-0.006895795336946898,0.00038380413988404544,-0.009544453208704482,-0.4418927667772633,0.5530441654913205,-0.38906514160349054
2.178644607146063,-6.078901336515487,7.333787072349565,-0.0047255651116171775,0.0018155812792826859,0.011803116240814746,-0.6873610324862849,0.14826772332412358,0.37743432345465017,0.2943902407704169,7.584758556323224,6.143359130597916,-0.0159528917929905,-0.0022441600801869797,-0.009771121224078203,0.21100734792852566,0.6472320945754295,0.20071513480720005,-1.6853174848089496,-6.132211420525668,7.3543956237578625,-0.005555487503203201,0.00029649806744181284,0.0017236062478873597,0.4695693810985426,0.21126349377285156,-0.24613719320456212,-1.9091588425662767,-6.197441357968608,7.447514110216724,-0.005584283562183409,0.0050047899668307656,0.002103634826921793,0.40462049729011423,0.4954670905887901,-0.6032352600811564,0.3046714174537725,-5.985445729472086,7.8116295300397525,-0.00960057352018997,0.001256845620804433,-0.008599477784661805,-0.44206267131959587,0.5501217135529739,-0.38344400211807045
2.1815019046958866,-6.1375446420903,7.315359250476893,-0.0035361377535361497,0.0012406166023305515,0.010527636260530571,-0.6916816500819349,0.1436919033572996,0.36746752576314595,0.308731538196277,7.611458504597169,6.221833267224652,-0.008782624795409541,-0.0028041086707172314,-0.01129481271495309,0.20627705432478669,0.6420240166394652,0.19152934667360216,-1.6806374721176884,-6.113578567910003,7.388322436393483,-0.0048759081460674255,0.0037783073964121968,0.003205828125357036,0.46182775149033584,0.2031857640477789,-0.2547542037939726,-1.92469484188896,-6.101873583726686,7.461980664626483,-0.0001337162507211825,0.0024705232795866868,0.0053737142359185155,0.3997937976701791,0.4917803667516259,-0.6131464873577049,0.3170802348815419,-5.994345562922676,7.812284050166296,-0.006734397560664389,0.0021506306367214123,-0.007562449957474944,-0.44736002838368893,0.5457261905135441,-0.3945954549537033
2.1669354640277083,-6.056900872817527,7.306880013675146,0.0007663526050841418,0.0017023992925910257,0.009917259769375124,-0.6948159047286158,0.1458946954583121,0.3694773637589745,0.2892129464103439,7.604944328312847,6.141375212935285,-0.007017213106643933,-0.0005013638165496078,-0.01065203926670379,0.20458543107444307,0.6428187314914857,0.1942085144703022,-1.7020885780004886,-6.097115387296051,7.400394639733276,-0.0027062074716573737,0.0036243825749302954,0.005004533252051328,0.46066720677711365,0.20444302082008398,-0.2510851540018459,-1.9299345564557846,-6.224176739399306,7.497602817548182,-0.001017224345913609,0.002726787784863268,0.007832900676403416,0.3969215779760676,0.49497357712769663,-0.610421137192513,0.3061576594132036,-5.976918416266421,7.801246026857757,-0.001919281713693595,0.0039853811358689165,-0.008084552424552739,-0.44899690710525925,0.5450034834015087,-0.38944366337396297
2.181816056215129,-6.0938392395802605,7.341139603194775,-0.004755913242386926,0.0012525481794863598,0.011150005438965225,-0.6767722152538707,0.1436186794542514,0.3684653641106388,0.2951963776638828,7.632784995378089,6.208258087176727,-0.012032075096636972,-0.0028604081421727398,-0.010364303118351965,0.21947951552336006,0.6431009620838687,0.19318336505619144,-1.705012271498265,-6.123292309399025,7.430695618967383,-0.00516231733171864,0.0027832597219918168,0.0013494569598825224,0.47497459849646506,0.2023538681778315,-0.25713124335169896,-1.9343250134609162,-6.193782219306859,7.495108040877637,-0.004802517992598485,0.0017060790599225156,0.0035386975248050978,0.4114946565373742,0.4910101645859984,-0.6140844971625804,0.2879834992961173,-5.974686063248166,7.826742055451253,-0.007939134275339635,0.002020124976128991,-0.007724041172789493,-0.4351389241226555,0.5478966983909402,-0.39404006932631247
2.1881486993254033,-6.111303939304317,7.308711871485843,-0.004734326184761316,0.0019485656129557985,0.009975612092913876,-0.6898985362484831,0.15344030222317104,0.3694371296849608,0.30474023464519345,7.606565207899502,6.174654925696027,-0.010279521573088413,-0.0015420697491820507,-0.009811488476121628,0.20595590606354125,0.6547525498005521,0.19328936438982186,-1.6843252668420137,-6.112110449894887,7.394948023504445,-0.006489000995800875,0.0006207107329298355,0.002544393496006653,0.463152498648447,0.21345469747083656,-0.2519232484216848,-1.9165421109291758,-6.18014019325251,7.491621233788182,-0.003321573324797003,0.004681729511012969,0.005317037279698841,0.3984159635475785,0.5005869218003429,-0.6097374359787266,0.307937889455531,-6.00093367928729,7.816489697545452,-0.007273364880387697,-0.0015145395776186151,-0.00970402566899788,-0.4494709891608957,0.5559897584084716,-0.39018066518936506
2.178884205077683,-6.0842384425278055,7.3220255014406925,-0.002917512807846013,0.0010818410716988706,0.01234890573741819,-0.6887030850880355,0.14635272479042502,0.3698770213282253,0.2863299415201932,7.621539242999384,6.181393395394636,-0.009519773879376905,-0.001194570830167472,-0.010457096672463452,0.21143954810196441,0.6441958695212243,0.1941673851609249,-1.6933338805239442,-6.108972731269687,7.360032431667004,-0.006139999684612123,0.0017835735588663747,0.0008981003468854466,0.470648805746237,0.20290649657729629,-0.25243568066612226,-1.9114044836136752,-6.169727072424254,7.453964925828118,-0.0031361730143460924,0.004789131012546436,0.0040300976376203695,0.404983124892154,0.49251111811839826,-0.6098233822701054,0.32262175094300116,-5.989875153788192,7.831100713204968,-0.004933100657658433,0.003659623051692348,-0.008487002475605384,-0.4414668581691654,0.5471804446259828,-0.392483347049474
2.185829017559538,-6.095811122800452,7.320267351020795,-0.0023144241144158386,0.0011860251591928046,0.010515123933666791,-0.6937085945329682,0.15196394839176164,0.37632442692214374,0.2984548708833154,7.612776568179727,6.197867439796187,-0.0069537350229928645,-0.0014688495368607884,-0.011795607329343677,0.20564017114660868,0.6477739006458061,0.19974550932601956,-1.6943617371441961,-6.082645559741491,7.390711258096533,-0.0020707929736068277,0.005778308982478394,0.005216642767477001,0.4602697358048327,0.20984937375251866,-0.24697144195599863,-1.9194384805967084,-6.15654029249346,7.476868062437181,-0.0004259347832712672,0.001744865296729697,0.007281058415963166,0.39529556824905726,0.4979247745566453,-0.6062528513214341,0.29357695622072527,-5.965912184653091,7.80605829034353,-0.005310643722290597,0.0017602814722643494,-0.008644574043485216,-0.44969022912267165,0.5513539234499416,-0.3877313170972329
2.1750222842869134,-6.087658170698233,7.331116264007508,-0.0017006511518438752,0.0011145694610547403,0.011117703250951443,-0.6884149776048941,0.14878386669386953,0.37208071189712877,0.2729088380779744,7.627965054930436,6.140786886933307,-0.010975855018046685,-0.0028620533965796773,-0.010309371900263667,0.2080534434790307,0.6457713824381727,0.198547823441631,-1.704228277609071,-6.121041197017142,7.404345374952843,-0.0048220310701858815,0.001625055628817342,0.001591763663805364,0.46608403293248374,0.2063818188358599,-0.24873581629591207,-1.9327708719060481,-6.232643756896578,7.524273682070493,-0.005107258181677005,0.003737387599158542,0.006183710196908426,0.4021538206311226,0.49254171109839506,-0.6041570583764257,0.308046433664013,-5.9873690600310825,7.846339749732826,-0.006440119180174482,0.0010175779303312,-0.008832594358445973,-0.443082442928108,0.5481670346355246,-0.3861135596087705
2.17241602652114,-6.09555417655863,7.310148836651943,-0.002337011049545114,0.0004900122805062097,0.011689532254083444,-0.6912555425624698,0.15145952750256264,0.3772626308427141,0.2866405011287564,7.62556054035282,6.217529509468022,-0.010536374863348246,-0.004142125242963331,-0.011827321260987594,0.20837533941766995,0.6518700459730504,0.19845384954609513,-1.7007216876889322,-6.122366290787757,7.424911799718247,-0.006633205469752251,0.0001231930909812328,0.0016162220325138838,0.46561936763554834,0.21150775928593946,-0.2492575582475146,-1.9195218557133051,-6.166959222699806,7.514549188958894,-0.0022827610431780873,0.0034087881354938837,0.001531795504323154,0.4019002056864788,0.5010797805068892,-0.6061389312874843,0.3139198905722711,-5.96403242732878,7.809584757608427,-0.006590658260527369,0.00224097262857237,-0.00878073495619426,-0.44748833368638063,0.5520822740388089,-0.3875196666605761
2.1844633833033553,-6.04937463580106,7.316529290396143,-0.003509694092466028,0.0018503141831913484,0.010571937419451082,-0.6942789559095015,0.1444113290715672,0.3731262300388384,0.2878809090050113,7.6187097950628395,6.1306958820805155,-0.009819429870046147,-0.000864079413750564,-0.011137339798801955,0.20562075126697238,0.6463054697596398,0.19952393631135407,-1.680223994524123,-6.0748640016529505,7.3853181380048545,-0.00561133808822689,0.0024447938898495567,0.0033417381249536094,0.4626515831843863,0.20396111641537726,-0.24866816632728403,-1.9232964995976034,-6.157596234953868,7.475006699520112,-0.0035983063876460783,0.0011990882030429165,0.006484659792305895,0.39720917312279347,0.4920542201695189,-0.6074854735567538,0.3010173188162894,-5.970145237457213,7.824671977710735,-0.006295365636917154,0.0011079187558974606,-0.01004989380679484,-0.4484383534380898,0.5452516051911882,-0.38456843800703094
2.1861151904707645,-6.120508261855689,7.31596853518953,-0.005945331359815276,0.0018295128162084432,0.01242549410998718,-0.6834475347504128,0.14580258738629448,0.37858605878854723,0.32046771774317734,7.605907989858546,6.209891032644003,-0.012705826659401565,-0.0022253088768277,-0.010667048481372546,0.21661706084741628,0.6457624603475076,0.20511561355430838,-1.690711852371552,-6.137096893533159,7.376177275901184,-0.006319837219923538,0.00293774032556027,0.0031668816354966855,0.47198730482585105,0.20637044791458792,-0.24564495740959444,-1.916532530570521,-6.192602753029827,7.455358283370248,-0.004003240347437438,0.0022854014637319047,0.0057475566869950095,0.40730753409658116,0.4944839385367196,-0.6030353770073328,0.32281270239007787,-5.9984851104853325,7.845192623232294,-0.00839587985109353,0.0013873480788819074,-0.008440886258801525,-0.43861032105975895,0.5452344816855753,-0.38031399710885905
2.1750393017803504,-6.112545705744359,7.326733622597047,0.00018485777619164944,0.0022892239110955505,0.010578626257102096,-0.6922410449564217,0.1477998925885915,0.3777492737589873,0.27576700296931106,7.61291898154084,6.192486218099279,-0.005985714429970039,-0.0024737276419075295,-0.010769998668361619,0.20609433976439123,0.6446240534971841,0.20174545927712817,-1.7037405910238328,-6.124931353594204,7.4221033470386555,-0.0016055117964925414,0.005613235653320888,0.0048092937497735055,0.4631761332011879,0.207141523494508,-0.247479419469922,-1.923128634820047,-6.200847663403005,7.482542477816057,-0.001013331936345932,0.0027207564159297984,0.007827853723209079,0.3999695430543447,0.49230718562810416,-0.6033840362089754,0.2870553556837229,-5.975263526190653,7.808078057380507,-0.002446446548695125,0.0026570720140715806,-0.0076065209259171375,-0.44695324342437287,0.5496431017041842,-0.3838613618983254
2.177395124930626,-6.063860780580859,7.323780930417202,-0.002924344971373295,0.0011701655796200964,0.011131249750350411,-0.6913237880701093,0.15172399924744337,0.37262525504956917,0.2827905143736845,7.614499512547544,6.136161699918565,-0.01066856068690123,-0.0022306884339668618,-0.009513807648910714,0.20614116464335414,0.6496532310688388,0.1953208411263369,-1.6870010603189465,-6.095422696046695,7.431928727821304,-0.005898749155609164,0.0014517444570951751,0.0014843653291874007,0.4660934794756295,0.2107660176888979,-0.24999054621898012,-1.9219148800231105,-6.210488542457537,7.521208604029435,-0.0008629786625713911,0.004134292632298139,0.0032339292290450364,0.4001704986862525,0.49839613713777625,-0.6068297807361953,0.2922747516634975,-5.965976656403189,7.82028351641149,-0.00644013131045685,0.0010185768597615213,-0.008833595354374781,-0.4475036738823815,0.5530569686915868,-0.3887406134293719
2.1915095318202686,-6.106778282754136,7.327330852438926,-0.0047853380546626885,0.0006468641825139938,0.011105766584616194,-0.6939455883148129,0.14951771935751898,0.37753832084642014,0.286898570080841,7.621138598669481,6.168880327438258,-0.00892781332136017,-0.001891831312942223,-0.009055030512500508,0.20392840882658742,0.6470964478384157,0.2019581336623032,-1.6951157263141137,-6.105071817074259,7.423364350191709,-0.004922058599673414,0.002450444719046913,0.0019367438705921044,0.46393323513253093,0.20617829160698464,-0.24528529322095302,-1.9355456882544622,-6.145099507284715,7.496260466240666,-0.004590646500422025,0.0032642886736514013,0.006293340381962047,0.3975402165612977,0.49500047053047486,-0.6031070628802195,0.3160586891468228,-5.971053808901662,7.814482071307334,-0.007038506320448716,0.004596424602627522,-0.0074606868081540535,-0.4486768743603569,0.5508666120851688,-0.38505906041804644
2.1704414722489194,-6.10227187694015,7.297880221163218,-0.0029527837671244096,0.0005614770882099623,0.011086982885529402,-0.6872160351812269,0.14878477184779063,0.3705976062888096,0.3045882836861481,7.594501352456303,6.146044920090441,-0.010878898414426075,-0.0008870247174917065,-0.011167883480729756,0.2102922410407649,0.6496075112904637,0.1957974105805873,-1.6867109534156923,-6.098790990941421,7.36740260421631,-0.008472287677375111,0.0025911039333205215,0.0029510709782261738,0.4685460326098013,0.20929747377766164,-0.24854857087077373,-1.9162963198307135,-6.198045499789161,7.473445164533128,-0.006521133733245174,0.0030108456352637434,0.004476474214573911,0.40282459126533526,0.4969173748592248,-0.6083366747952422,0.31004886121519026,-5.983995597205196,7.809861640619762,-0.008174877286733174,0.0008664877187480817,-0.009685630148839715,-0.4431063846826696,0.5515826788519465,-0.3883140900855449
2.178990631309654,-6.100009646768443,7.337535180878296,-0.002292822102518347,0.00188203817863919,0.00934173046605113,-0.6876859204444982,0.14658142274228816,0.3725481445628873,0.2981155356943899,7.606437902534372,6.204032857824671,-0.010207394378159838,-0.0015457885582314372,-0.01084476812762503,0.21069124145927176,0.6425301074676275,0.1963922566064918,-1.69825856267744,-6.126921444761442,7.407917447054679,-0.0026715682896072323,0.0019667282223361534,0.001810641867800356,0.4682540605373406,0.20367659344233885,-0.24947741238840998,-1.9318915234026754,-6.17167763156572,7.477916127170004,-0.0017756483866947855,0.003262464175770248,0.005650998346190163,0.40233170184220346,0.4922827940989166,-0.6078218416254223,0.30869728100186267,-5.986625377220886,7.818256710124895,-0.004780658721254255,0.00178386281154601,-0.007956132456192443,-0.44429504437214995,0.5467065468268013,-0.3853615236398984
2.159501056430347,-6.075945259725,7.311103640907132,-0.002867476620523745,0.002385542602670416,0.011219774789254648,-0.6962240793360692,0.14075075921306898,0.3748483694543539,0.28500572230466137,7.637213827971957,6.156248178445744,-0.008574634959685834,-0.0041831600435171,-0.00960218560320803,0.2041072227250754,0.6428808490579979,0.19787141266470043,-1.703800606118894,-6.096436001317846,7.426455979211791,-0.0025831921487807345,0.004611557443791036,0.004358952886312612,0.4597748041791024,0.20303591738088425,-0.24446859178915156,-1.9321841457533413,-6.18389019727794,7.525980667112508,0.001517982529155305,0.001666509734558817,0.005085300713409185,0.3928624636368236,0.4886628198139122,-0.6042202138009961,0.30025753979825764,-5.978857829118215,7.806253273538282,-0.006144740740418033,0.004187493016060333,-0.00923225787516211,-0.45279714112156466,0.5435552930189889,-0.38181780027282536
2.185677762692904,-6.090807932003662,7.318796518325948,-0.004144120460224071,0.0011820971567759048,0.011753618928785065,-0.6965128140924269,0.15005555012797256,0.36903305189893204,0.2935435926595579,7.611733388979818,6.175061016285129,-0.013006606413319985,-0.0019066497481081373,-0.011337106612668976,0.2007912589773583,0.6516523034620547,0.19384087696068045,-1.6986426453680508,-6.108502352581392,7.419734784222992,-0.00927015474685599,0.0004382352464026478,0.0002289253986646214,0.45751592601235624,0.21323399064512688,-0.2533068391903583,-1.938056045789542,-6.189053034375206,7.50252555270068,-0.005941327345504712,0.004786894384446937,0.004664278349938853,0.396185256798999,0.4979029126711457,-0.6111524629736026,0.31249309271606723,-5.97657738068166,7.798597484504896,-0.007335908809957979,0.0014285118433383893,-0.007062996591066915,-0.45167630081092325,0.5557501480835417,-0.39063681365032893
2.181955166022388,-6.111489656486067,7.315461492019832,-0.0047323787938391045,0.0019079057067438094,0.01058547763522253,-0.6808394100664039,0.15216948138739758,0.37149429769475817,0.3050947762362598,7.606502184279507,6.175865992285247,-0.011342244454197091,-0.0015896361153426577,-0.00981964438062976,0.2166353676069581,0.6488204025086104,0.19750000099838713,-1.7015437317504338,-6.1167439926919736,7.378820243640338,-0.007074509057124987,0.002103808326807164,0.0017209332133215926,0.4768198725079792,0.2111778546090555,-0.251366929838018,-1.9154947352310883,-6.167556651728512,7.471113382368277,-0.005100410958846678,0.0037343355179244205,0.006175598456056293,0.41065441790804846,0.4986056024312049,-0.6077508621884605,0.31782681079563463,-5.989612580030848,7.827404850652717,-0.007572527124819102,0.0009332389431897743,-0.00960633603507565,-0.4338215271501884,0.5535162082340987,-0.38820536690548774
2.1721123786830945,-6.089848993176075,7.298489142892591,-0.0022850609068778734,0.0017490583997489208,0.011169249588317304,-0.6879997274031362,0.15124737959851198,0.36646969403593815,0.28306765671161566,7.590198139377378,6.157484106329871,-0.00848843148176183,-0.003181748654112691,-0.010562828195208268,0.20662195435139047,0.6496097339181892,0.19287779850400474,-1.6920484699336051,-6.0962588611672075,7.380819098923482,-0.0033358601407731917,0.003780605050888284,0.0029119525357393194,0.4650859572589265,0.21026875692297436,-0.2519256205621316,-1.9200753420592964,-6.194187070164329,7.451857067585363,-0.0013707589708658427,0.0021731432050379,0.006386113564147479,0.4018022165391668,0.498861949584703,-0.611256446028802,0.2962456372808404,-5.983357529955629,7.791167080229016,-0.0053869412645231,0.0023754783756857203,-0.008621133585511118,-0.4460992202245804,0.551096531433092,-0.3926660788385424
2.1787390601879704,-6.106998133191262,7.3353508300619605,-0.0035627046240818655,0.0005456175086372544,0.011703108702213024,-0.6924395266535742,0.1515253985154364,0.3633629375122239,0.28163072184458493,7.632977981531475,6.187834501606681,-0.00983453071592378,-0.0018730587391224086,-0.011200914050083093,0.20319925918136153,0.6503108981889848,0.18799356228547265,-1.7079244833629625,-6.123543166083918,7.400147840341456,-0.002376369214435557,0.005278897990727862,0.0017854440232536743,0.4606154202769797,0.2129290740744835,-0.25847603556779586,-1.9268714885350253,-6.169255275295104,7.5095314208429365,-0.0007152362201114648,0.003441373106818411,0.0059144231577650625,0.3978147994711987,0.49910077511465534,-0.6158249657554006,0.3081977919674099,-5.973591490297726,7.815290656285409,-0.0053116777894878404,0.0017642804912802962,-0.008647563784601379,-0.45054976368366495,0.5542756485944949,-0.3970000624555942
2.186810550141859,-6.105011965171882,7.305797301143689,-0.003539113191122586,0.0012426258124259794,0.010528689752799955,-0.6915234086374671,0.15024605293205648,0.3760401316678267,0.3043103273577075,7.603776952927217,6.152338022440115,-0.009526115556998704,-0.0012298767409479403,-0.010416534673142627,0.2054433728130974,0.6505285268344112,0.20409959832108826,-1.6804306849672295,-6.109324556686842,7.416539800065301,-0.007666756658357655,0.001268802900356179,0.002783021117702185,0.4625064992559598,0.20888373256408843,-0.2438211347711499,-1.9143573556139355,-6.208550418479368,7.510356401061835,-0.006264680483705773,0.0029361533145902275,0.006530528933424674,0.4004690174621907,0.49474762799387234,-0.6031583652643014,0.31160317543987337,-5.984106953041605,7.813583842678844,-0.006512525168387115,0.0009754048395915251,-0.008226447673815583,-0.4503638810659786,0.5496512577397402,-0.38332437739506053
2.167920898551393,-6.078407408794956,7.328869019952173,-0.004118595497321596,0.0018354456146977168,0.011189052485573977,-0.6919108857305881,0.15004519512063264,0.3665228825567707,0.2835647079554849,7.593767989641351,6.194079613911457,-0.013478884627956116,-0.0035997024059594325,-0.010077745669284287,0.20442467381076967,0.6498632069235348,0.19165923555471973,-1.7051054466087172,-6.1200215997610785,7.375279981338073,-0.005675718388623606,0.0016185064249704569,0.0004907654484264388,0.4615961877332447,0.20806044222600942,-0.2560103713325937,-1.92925763714803,-6.179241020370045,7.4640280951282705,-0.004031419363976858,0.003589487958383105,0.0024334560009121,0.39789181526954714,0.49716476214993616,-0.6111800672239744,0.2894948917542974,-5.970673002073213,7.808916239990427,-0.006516431070933253,0.001632773766247589,-0.008810153796956632,-0.4490237700233997,0.5518363357291515,-0.3923798759773447
2.173251994633844,-6.105372113927165,7.295162176912625,-0.0035637045015855314,0.0005456220634200985,0.011703123676578327,-0.686680155786058,0.14412316577441878,0.375208576695409,0.3040943229248988,7.60242811220667,6.180180587853446,-0.008250409997844068,-0.0021335923166215494,-0.013637884465485407,0.21194040467988712,0.6442566359701671,0.19855951791472853,-1.699225417861462,-6.108486334272377,7.391206171749991,-0.0030676383804672455,0.00527027540921398,0.003192490074803477,0.4678071797433198,0.20759501047417359,-0.24828069750149537,-1.9245695210384206,-6.159848002005324,7.470296356055225,-0.0020744815948723796,0.005286739193368951,0.008291932152027798,0.40554948681002434,0.49252666718787846,-0.6054378194322904,0.3159717937286682,-5.974200376075522,7.793789535111722,-0.006592694440562552,0.0022439738844426925,-0.008783709251752064,-0.44183892506502537,0.5488988688267028,-0.3846670337566623
2.2029169503245543,-6.08449113880542,7.32769868348345,-0.003456634077708203,0.0031559975955612555,0.009443770117365096,-0.691567209699813,0.15025898160558127,0.373111487729698,0.29557172728473835,7.6121879182426415,6.161608507445087,-0.008863515226168895,-0.002877066986323575,-0.010181328174245202,0.2059083678654762,0.6497196659599243,0.199471011853603,-1.6883581374707728,-6.104359036789707,7.410500324760674,-0.005022061876656845,0.003272857519970609,0.0022847475048682645,0.46294700032108815,0.20788075515602542,-0.24674888290419275,-1.9281686570769558,-6.198705439064519,7.499436952668313,-0.0014689799167210728,0.0012311341062328878,0.0030019506686053818,0.3972874606275068,0.49792738779544615,-0.6040910520884668,0.32118814762982745,-5.986973079628051,7.822810327139802,-0.005380167963115868,0.0010627395475189324,-0.00745670888145708,-0.44771077040162455,0.5491549139677864,-0.385559147106403
2.1709100022127417,-6.092621456601678,7.3260962418777655,-0.0029528546125148843,0.0005168263720237633,0.0116968609950931,-0.6902265245678451,0.1502889496540847,0.3647895593898846,0.2823688830466086,7.624358725259567,6.155906945415219,-0.011355323758472133,-0.0025947943762503613,-0.009893284059666831,0.20958552596972724,0.6524829955582533,0.19160412201025698,-1.7004045045012195,-6.1231070782747095,7.4156149039070325,-0.007042069139340126,0.0010996748793782008,0.0048837746054069655,0.46629251998469795,0.21414590249609408,-0.2546595228269569,-1.9306298106676982,-6.177698116058722,7.49454970046151,-0.004616897860052758,0.0021361672895029173,0.0062461703836109075,0.40202872290007025,0.5003214701085985,-0.6124863467194264,0.2848980966588416,-5.956836736380446,7.817126276807004,-0.00787760486390103,0.0033800372748308315,-0.009502559846114991,-0.44437822051376,0.5549989634545467,-0.392449916137592
2.176137637333667,-6.122284846903248,7.311745386960402,-0.0041480295502500375,0.001227761657955402,0.011144804940487165,-0.6915718478972575,0.14292550836111845,0.37503242048746754,0.29173805902774014,7.594710804381878,6.191003870324175,-0.009913086021861564,-0.0019116292000184128,-0.01012596550087002,0.20483679749403239,0.6423984572435033,0.19885374702417782,-1.7051563995719081,-6.123647461236796,7.393164525681009,-0.004681789782854863,0.002114645573262308,0.0025260543400010085,0.4635983013335508,0.20199258623911043,-0.24988627908527053,-1.9336741440844052,-6.225789635643508,7.4795437964209635,-0.002719443092572728,0.003694742890021594,0.004757019785842114,0.39841485495752377,0.486924595857206,-0.6074871252014086,0.3004501558386691,-5.982182179399031,7.785412901246227,-0.0075647826258703685,-0.00037950425377665807,-0.008443925470105433,-0.4484418544784992,0.5452513447199725,-0.3848124127493114
2.196244094961709,-6.097620476338177,7.325145207566688,-0.0010387537707088844,0.0023854619982610994,0.009984277022333177,-0.685680532337171,0.1524238658320602,0.374253151390371,0.3080786635496817,7.620743859595685,6.163892572861819,-0.008471851134910497,-0.0012284664656039422,-0.010359644081280126,0.2122201395426325,0.6476298801861179,0.1958219173474215,-1.674624232993183,-6.09653305645212,7.405102576660201,-0.002530323038192993,0.0024593039678930603,0.002743894734842288,0.46980889892530214,0.2105300187516295,-0.2461348259471499,-1.9113603145242422,-6.137786384851879,7.509342664175721,-0.0012239888929145317,0.003909420829379806,0.0057976710814630706,0.4035952098940752,0.497899714379783,-0.606400910606249,0.31465363981002836,-5.985762188586609,7.848634468256957,-0.0051630381677613135,0.001201250242921743,-0.009283161300554912,-0.443803824024397,0.5513429205134397,-0.38586257314623423
2.1766855883867096,-6.0749984842075655,7.3083064978002525,-0.005339357002697023,0.0018503816862912932,0.011811449674480608,-0.6795992972474433,0.14604603267048707,0.3746231040178814,0.29184901785341094,7.597513173023316,6.149418786109561,-0.012721255765845955,-0.0032649312531242043,-0.010707151565766865,0.21974435519617555,0.643657481202811,0.1978136580726165,-1.687005978122277,-6.105495923388458,7.375161459499353,-0.005955565284481195,0.0035940860426189308,0.0031075583116868806,0.4743696627433876,0.20242935027563522,-0.2480890791645389,-1.9282422593934387,-6.1796913980667325,7.46265848863522,-0.004649011504759601,0.001012091082488337,0.00620609053022597,0.40890304166431596,0.4915261219662188,-0.6089123778356952,0.3085781243452952,-5.976793358045089,7.827101839723606,-0.00832163300331169,0.004417761407431644,-0.007014038872518546,-0.4352710590294909,0.5493703178235484,-0.38647096296332384
2.1699649833504693,-6.1273210039389605,7.320162488012152,-0.0035077456082509497,0.0018066499233013815,0.01118278980408875,-0.6946528375107681,0.14420616772842565,0.36458487725537864,0.29730141042613584,7.613985557716218,6.17347144319276,-0.011271140797049379,-0.0015962652582384887,-0.010847876029823992,0.20358723447242472,0.6422651462848733,0.1890922708323644,-1.7213379909662552,-6.12339145460786,7.388826202323728,-0.0046989974966210124,0.0026152303475854392,0.0009461594769475199,0.46134226410208906,0.2024596565325771,-0.254253557339655,-1.9312205720601423,-6.182814058995742,7.471214166830535,-0.0029360196032878557,0.002460250579387508,0.006000874017652166,0.3971003181980013,0.48910350798469504,-0.6130880367386984,0.28645671216389185,-5.97080030937724,7.790683081881454,-0.007268454921771093,0.0021330518091803967,-0.008256840135883327,-0.45029943010084295,0.544511218316868,-0.39504002790215614
2.182291112309422,-6.079912980903007,7.316936027612611,-0.003485053298861095,0.0025483046700130424,0.009400507476348666,-0.6931994527636112,0.14884810368062815,0.36238536517485254,0.2871926394189453,7.6132045427644535,6.16438493322637,-0.009521448489663638,-0.0002659670755991321,-0.01030023602512968,0.2063521471984434,0.6487953641122002,0.18727533557067694,-1.709395244003831,-6.123103929739182,7.398922067291198,-0.005731530553412416,0.0037638338116061537,0.002112920621772206,0.46130332931686874,0.21022433552435388,-0.26041779470020177,-1.9284654897531583,-6.190299415904191,7.50021282249653,-0.004545805499851296,0.004381271495405943,0.006319218182739466,0.39824610430423535,0.49762297133241484,-0.6187574290752386,0.3035837783676899,-5.980145872311934,7.812928612908705,-0.006064644084047594,-0.0007176924958146742,-0.010135264309098103,-0.44787942340715287,0.5520718739549064,-0.39776810486688635
2.18041042879199,-6.081021745965521,7.316575213888639,-0.002344013719104247,0.00048603983042316736,0.011690619571600698,-0.6884376812832549,0.150990520109808,0.3698935257493773,0.2903437399045098,7.609168131009433,6.153632950159334,-0.009771246327003357,-0.0028602201968715235,-0.012323178877320236,0.21004181275180353,0.6495771280659923,0.19360134420368552,-1.6728722869287513,-6.107334573138936,7.404936563854184,-0.004342537821472173,0.0009554320183126468,0.0027663833659611853,0.468463549914736,0.21217172416768315,-0.25565090719767886,-1.9157191241370768,-6.193571060761262,7.480598725920078,-0.002572649267965622,0.005433024363356411,0.00416956928365648,0.40200700170353026,0.4973896664369741,-0.6132077241661699,0.3205177336063774,-5.978573283247894,7.826706383069721,-0.006891976730510453,0.0033750377659106942,-0.0075134909213213944,-0.444159057802622,0.5532878597526316,-0.3939163859897674
2.1755480054516267,-6.113835254414305,7.331375887540227,-0.003506816576137759,0.0017619946523323383,0.011792652939287144,-0.6935103634683701,0.15393196189252625,0.3726677048509663,0.298287538812009,7.63197708018289,6.184626484929023,-0.010690830720771205,-0.004251901493456316,-0.00965093100119147,0.2037257406117474,0.6516445694610095,0.19578561543221357,-1.7005999806919212,-6.10325362300065,7.400284742109461,-0.003947297049082188,0.0034422205500086126,0.0023972051834178607,0.4619593133720912,0.21347759983679887,-0.24995326507710516,-1.9217819910885527,-6.153841879542864,7.480553052684479,-0.002825282275616035,0.0030754795287129323,0.005376410580634403,0.3981974310915914,0.5003493354656499,-0.6082673702321537,0.30291959956601877,-5.951387186659796,7.794850571502597,-0.0064489583977323005,0.0023393147934651862,-0.01000299964417639,-0.4492135519698241,0.5557462559964386,-0.3892079984077861
2.1660645791951927,-6.0892515929260735,7.295164816149409,-0.0023222458215012435,0.001273349827988846,0.009298478454031112,-0.6823869288614237,0.14535537878137655,0.3680689457050091,0.28555238613622375,7.595852482346111,6.1666376758674035,-0.010437987916303982,-0.0012277164481318637,-0.012541147139798597,0.21291423688458877,0.6446836284505337,0.1953767627782475,-1.691893213666117,-6.115450934384344,7.415179133267462,-0.0053470714303732675,0.0039255444542363235,0.003629402685883782,0.46972040866776943,0.20731782874396928,-0.25099198250515886,-1.9299846688757807,-6.210011562083839,7.4932371205400585,-0.003882769274290849,0.002895546060486284,0.005108936853614974,0.4039569207685133,0.49201467421877815,-0.6124885883692942,0.3039080995965207,-5.985020312702126,7.81956284961107,-0.004180309387591133,0.0018566174176739018,-0.007877816143348825,-0.4409113612478491,0.5471843033909378,-0.387852842403073
2.1641677124441094,-6.093090275622397,7.3141205427164815,-0.003541093371531695,0.0012436304878535886,0.010529723925335143,-0.6864189992766512,0.14705091844875504,0.3754616252194337,0.29696647034035045,7.634957727720655,6.195889260268556,-0.010589848183807336,-0.0012784148462690135,-0.010423672669685644,0.21176020222337588,0.6491492512651514,0.1989744741171802,-1.7027695609143383,-6.1047814796414945,7.398524248217531,-0.004683787544501112,0.002112665917381072,0.002527098328026166,0.46683424095744414,0.20711692018432196,-0.24777509212801876,-1.9265695861577232,-6.169280315560047,7.495230744287622,-0.002243464265891499,0.00484952613724981,0.005565186729284009,0.4038058574526052,0.4939882957916111,-0.6076107226718979,0.30897695674121994,-5.965060530528769,7.823169185124964,-0.006666090411330755,0.0021998041011270716,-0.008176546125634508,-0.4435757675980392,0.5489006015360345,-0.3865953140820384
2.1729581454700435,-6.085524770842235,7.315048595321631,-0.002901728127700254,0.0018661696302605835,0.009958841186805132,-0.6884335581264927,0.146344069858012,0.37158215982968096,0.2960690221764206,7.603871357817382,6.143649726598835,-0.01068204205798534,-0.0032752744304288955,-0.009549840253994354,0.21043315037513863,0.6420043780131239,0.1937157098512569,-1.700019195854816,-6.096511321615491,7.383849406335443,-0.005617290952325461,0.0024338944400293925,0.0033499091348447823,0.4658173218131385,0.20491073872591312,-0.2496966104928849,-1.9155894758420862,-6.18715050564996,7.491769407608424,-0.003335025936734067,0.003546530234036401,0.005259664561583444,0.4020688279785087,0.4932547898859693,-0.6090421180374446,0.3196155374196036,-5.993004325560551,7.810335038781275,-0.005910197048793882,0.0010451539198291638,-0.008149156651353183,-0.44534366984239043,0.542797049528689,-0.38973775700881474
2.169288151981591,-6.105860608152766,7.311915333654558,-0.0029302481027873874,0.0012138348165722788,0.010523456898481024,-0.6923511684967283,0.1461211012267663,0.37090667853719234,0.27423943214602925,7.612556353281915,6.196210682372928,-0.013015214255358818,-0.0019666505401690544,-0.011278159093573622,0.20610232194861194,0.6467163540443706,0.19487669521763548,-1.6992222241189185,-6.113982195327913,7.400076452301262,-0.004925001653874483,0.002443518629784634,0.001943840892467547,0.46316725867363684,0.20908292035713993,-0.248959734795967,-1.9262255430709205,-6.16448786511882,7.475468746055592,-0.003335028886083242,0.00354553024609394,0.005259668487939464,0.3972571127364939,0.4920646233375757,-0.6047999215525035,0.30211408014512486,-5.976699129179315,7.786981335558041,-0.007350609634608339,0.003401626389115906,-0.008813073125106437,-0.446518129104091,0.5479293681203569,-0.3872841300371201
2.1788074333631346,-6.088484259165256,7.314450987582695,-0.0010044563074238593,0.002901817374923792,0.01124919710241877,-0.6983529844262365,0.1483199162117008,0.3771108911552712,0.2984062638907897,7.608548749571283,6.178728757052215,-0.007500904465725679,-0.002239366559155878,-0.009332952030830918,0.20030032716422708,0.6505085493418524,0.19849832459510172,-1.693338303161247,-6.102446453652367,7.41606559208922,-0.004059098024878292,0.0019415458499986835,0.004628867565267128,0.45799985900606366,0.20860562114004172,-0.25156811822884695,-1.9166209698713583,-6.173093262762661,7.474458485175606,-0.0028223422090992564,0.003073458876699974,0.0053733654247567104,0.39335963975141963,0.4962264202072825,-0.6049905104973952,0.30001283876437057,-5.961379799609665,7.818471391515377,-0.005770326081174865,0.0017968669610873651,-0.00994915237802024,-0.4535887547762881,0.548678702047297,-0.3866954159557493
2.186689733771478,-6.087679250461169,7.294795277413409,-0.0035981379420323015,-6.20391194079955e-05,0.011658951003318036,-0.6871578905587106,0.14950059297116872,0.3742623419303257,0.2876155022308306,7.612074638138835,6.153181573927511,-0.01225740064476115,-0.0016150505333820898,-0.011918823566461213,0.21006019698781916,0.6494448831138951,0.2009281910897963,-1.7004090459227545,-6.118842333976446,7.3894830461765535,-0.004315530170539599,0.0027759550890419046,0.0024636634694667234,0.46881764715289764,0.2076081343749365,-0.2458537981674871,-1.924656043821563,-6.205225639967272,7.473519190336163,-0.004575014773956253,0.003255166890162429,0.006274093507055204,0.4050665551498353,0.49570115324592207,-0.6056865366992304,0.3033836407343261,-5.982914020226792,7.825131702806317,-0.007414229362880427,0.0020397121590929224,-0.007040522939572756,-0.439909821364333,0.5508454154128761,-0.38664999676686496
2.1829053682424724,-6.109566001998096,7.301192038836481,-0.0035106398665013666,0.0018523054556749802,0.010574960719861231,-0.6930614296207243,0.1407395378112198,0.3740679299255181,0.2843229290870775,7.614861137753155,6.191505362088292,-0.010090867773930895,-0.004946448079561974,-0.008260931180275054,0.2065216803773831,0.6406567236352467,0.19814228043517926,-1.708003670044945,-6.105034799730904,7.403417035106536,-0.00561728895172017,0.002431902393624982,0.0033509248843809646,0.46439446953295604,0.20275360060511352,-0.2457529933060154,-1.9324529801560688,-6.168328548792118,7.48259895771249,-0.003005861731966564,0.0029620281468793514,0.006654286100356179,0.4011458788676835,0.4879019363791129,-0.6050972551408458,0.2971948138580921,-5.963118292002461,7.795061258563432,-0.006884236668049518,0.0020602945750736548,-0.006351078157463073,-0.4472560465571173,0.5420725421528892,-0.38677923755419175
2.1845577666327007,-6.073610458628506,7.316045842711499,-0.0028712746226699257,0.002474844598081975,0.01000407798133122,-0.6859752298676177,0.15806249494940353,0.36915482764205954,0.2921604554102879,7.612388392079419,6.15192029479056,-0.01051067961051655,-0.00028269906442364846,-0.011370206038768411,0.21157622193115133,0.6551610671990523,0.19277857374443638,-1.6971210394499063,-6.091793955009182,7.3872197402587165,-0.006694015121311486,0.002259583318338107,0.003242518740599861,0.46852981191943927,0.21683157881275014,-0.2530030948868116,-1.9246325569549967,-6.179589359601325,7.490848369380932,-0.0028213810180008347,0.0030724481236068463,0.005371351848372004,0.40399947435352396,0.503491425935219,-0.6120457246977518,0.3098170173325445,-5.9933647312306775,7.812936287107837,-0.0056784480834587755,-0.0007874563417048289,-0.008231534114208128,-0.4409354936316391,0.5584106202423684,-0.39128283534465985
2.179852749159148,-6.103600636176373,7.311515274731545,-0.0029568437885840035,0.0005158401972471118,0.011697916425621116,-0.6937487467529746,0.15197580004366132,0.37363975332232274,0.3027228464760929,7.607728621177599,6.20490175180257,-0.010000739613233289,-0.0029564394689807396,-0.009126652061657622,0.20345252717540827,0.6496727382469933,0.19435131906059616,-1.697733780841304,-6.129108440126735,7.3899468298060516,-0.004826986053763974,0.0016161420301400004,0.001598904804915867,0.46316331359963625,0.20956706341756218,-0.24945154566757938,-1.9149987171946843,-6.188309151560005,7.489760016189197,-0.004389569919542927,0.003365576101739257,0.004989141752330302,0.39551773596546275,0.4979193088717271,-0.6074779997336992,0.3081192922931505,-5.985200076976852,7.812811918276996,-0.007729130717402917,0.005141899231287408,-0.007514365219270663,-0.44801043182785505,0.5513480232999384,-0.3897086180951988
2.1594354009977286,-6.094498329944943,7.322380099871632,-0.0016819561658829502,0.0018502337195418228,0.009337454505330604,-0.6856098582118001,0.14318473136597493,0.3654212391124099,0.28148403113065834,7.605949753735862,6.161033937469654,-0.009843039357595642,-0.0019250763704040292,-0.01114308871780779,0.21067021114555592,0.6421930720895903,0.1902937231860819,-1.706802768861651,-6.098680725590829,7.386800938929322,-0.004782776772627995,0.0029350803765770084,0.0028760877118479368,0.469896645130513,0.20411563251953843,-0.25438777638132987,-1.927396855136532,-6.168285983057494,7.482720571630498,-0.001836622670649169,0.003756191430662261,0.006298282313605585,0.40466256767008635,0.494934860976987,-0.6144668228719459,0.2945483994245232,-5.9588313394807075,7.802400414081746,-0.005380202135719074,0.0010667363327452,-0.007459712968687552,-0.441731311789582,0.5474234250280795,-0.3939449632120986
2.177862230159817,-6.0879062663374235,7.323284747552006,-0.00472948279620548,0.0018235860954246975,0.011806210536534157,-0.6894573048534972,0.14807364965669564,0.36794266118853086,0.30052113208436065,7.604515968307946,6.156229343353057,-0.011727928972982422,-0.00134396032163504,-0.009381206407416378,0.207081863421976,0.6474069183361214,0.1929100499875753,-1.7053478267482765,-6.119743248124643,7.393901672620941,-0.005874698726608435,0.003265333585028327,0.0011877425857782845,0.4635771213819384,0.20757662941258267,-0.25383635177402547,-1.9260239867517879,-6.199288730545001,7.483911344330951,-0.004277811958201999,0.003981805893180441,0.004365656385848238,0.40107741565495697,0.49569498474890605,-0.6102540766322849,0.30956349869720134,-5.987704461034078,7.81083566491358,-0.008401881546023822,0.002046713994453061,-0.009031565163995349,-0.4460798233881323,0.5503660975712489,-0.3912004256953298
2.164331920926131,-6.1075578865296025,7.320002941819919,-0.0035440025840539954,0.001289290434250241,0.009920894962671938,-0.6901004161554206,0.1514733657440316,0.37284988141783054,0.28298692817248,7.615013041041932,6.179523521664256,-0.008185472103817835,-0.002584745925573785,-0.009728722472033508,0.2088410126444394,0.6503804775671596,0.19725505706612131,-1.6815585287439516,-6.105207937329642,7.388902822797822,-0.004443547063144117,0.0017768510645288118,0.0031144090598548757,0.4648938803564138,0.21200218606460497,-0.2490071298778108,-1.9337038212037254,-6.1623687613302245,7.493047942547512,-0.0022726437427799135,0.003721429302337351,0.005522069572733419,0.40020168638165027,0.5001107906346456,-0.6053717352247897,0.3079732364336878,-5.979583079922904,7.810679797083944,-0.005457463181698511,0.0016789386816652868,-0.007433255176812727,-0.4457700810766809,0.5515902404720351,-0.38681072241846115
2.194324688084194,-6.084127556928467,7.33325045426507,-0.0035097108343881763,0.001807650184705937,0.011184823855059626,-0.688222175787466,0.14561959380222084,0.36962256268962046,0.28565510521868515,7.615264619102363,6.152417582430767,-0.01128444622605465,-0.0026240681571558623,-0.010898166849423878,0.21191769173230054,0.6436830920404406,0.1929526560042936,-1.6838142423314113,-6.098963754554624,7.406175008521798,-0.005506449436814955,0.003929614853124451,0.0011232999180557017,0.4691736445658691,0.205585094155779,-0.2543890737408725,-1.9081176756731815,-6.183266298362733,7.4706804898793,-0.005117910561407685,0.0026011366732475705,0.006115289730872792,0.4039481249071696,0.49494085486368483,-0.6134769296394009,0.302169651292082,-5.981450527829293,7.797658715607314,-0.007722251553116246,0.0015032639313502564,-0.008977731144509457,-0.4419518469421585,0.5469377959343479,-0.392232103139063
2.1712747092514504,-6.099787210421664,7.310890309648294,-0.001738076324596704,0.0004989088614262211,0.011076540373142997,-0.6951972461138262,0.15393327947263316,0.37415811794955406,0.2807658664796172,7.607732054493056,6.199741531008195,-0.010308312162128583,-0.0036153870691323243,-0.00989479149393572,0.20399365895721658,0.652677824762622,0.19967553885586223,-1.7086239887652632,-6.1186922478705545,7.400326677360579,-0.00442934915927547,0.0012722929296477945,0.0046953779109240945,0.46270998107088773,0.21129242289175096,-0.24774944981152264,-1.9291146307155091,-6.176927226753472,7.509665192957342,-0.0022706648673615566,0.0037204194034175207,0.005521037993240432,0.3955322236955916,0.49987417927316014,-0.6069967494669184,0.30968289769985585,-5.982045027243542,7.808726691929231,-0.0056139608022807265,0.0029013499882241767,-0.007378308908976847,-0.45282076866091825,0.5518531397893464,-0.38475662345822637
2.171197343364634,-6.081574423276906,7.313407164220829,-0.0028674214237625513,0.0023845249666932253,0.011223769957628508,-0.6863262197139769,0.15289040537752221,0.37988055058217834,0.295552060475521,7.609017263985762,6.154657085878246,-0.008248057789520669,-0.00020839292796139434,-0.013386224414983602,0.20939676652899913,0.6543735348233579,0.20329625176324181,-1.685551616302772,-6.100623263729153,7.404412424911498,-0.006243939813359648,0.002600066415758498,0.0012532071819084949,0.4700830262126884,0.21151887991694165,-0.24443725302499078,-1.9177774365401925,-6.182634231736854,7.499605273158912,-0.0015754763518301984,0.003359777909670879,0.004352832257566489,0.40347099427055627,0.5015860482963015,-0.6003079549413194,0.28720668806605426,-5.968812294285448,7.804028580079011,-0.008407768452743967,0.002706088450064074,-0.009614244897311131,-0.4430031325185939,0.5554967038710218,-0.38172706798594136
2.186541198520957,-6.106633789610682,7.32950905283339,-0.002930323568504202,0.0011681841205011053,0.011133330662675833,-0.6877696811301589,0.1426938965489913,0.3681377013602184,0.286977328523833,7.599860689281651,6.17812374483611,-0.010984956345954236,-0.0029703581216387488,-0.010204680676370745,0.21364549883270662,0.64535497408114,0.19194596287042703,-1.7094338878388076,-6.124117867725696,7.389335319906735,-0.005761487342108803,0.0019353847016454985,0.0024227454805151533,0.4696808460294551,0.20364643064578783,-0.25218274478299585,-1.923257600732221,-6.188158381496572,7.475856517489181,-0.006898982892610225,0.001344050213909499,0.0029764235367234423,0.40710792349088815,0.49029232869990086,-0.613515327750632,0.33201073881257986,-5.979069303007554,7.8025815075938105,-0.007800512493689722,0.002115468514060023,-0.008951259006520326,-0.4397227622422365,0.5457144978200782,-0.38982153181172213
2.1643710897400292,-6.115388417881396,7.327871748498989,-0.0023242352425630304,0.0012723545436465061,0.009299503935828518,-0.6936127696017447,0.144427394601847,0.3687208030785887,0.2795058896559906,7.605191734775556,6.176266143106462,-0.009169611209560039,-0.0025917269754739485,-0.010810857623246711,0.2026635566849967,0.6457396598309586,0.191972335929386,-1.6877207312982423,-6.098952737625131,7.411621982780898,-0.004444530775933817,0.001774873066919816,0.003116438797425643,0.46091662718134785,0.20590351966879253,-0.25134419178841894,-1.9226584549750807,-6.173873592852845,7.459144710083465,-0.0008489272061298997,0.004436914097762256,0.007222171549317493,0.3961868532990079,0.4925357614586911,-0.6101545374684496,0.3096527298906431,-5.965824819795853,7.797894688363074,-0.006065731165629164,0.0022705597808893386,-0.008097227717418031,-0.45074208775345515,0.5459804317060497,-0.392104940983574
2.1768548551815496,-6.069314008181128,7.334508243143971,-0.002864583056630726,0.0022942143041103733,0.01244247702985541,-0.6922330446551251,0.1442015114924939,0.36308348794702255,0.2783751466795001,7.6182790223986405,6.1528010226935645,-0.011273814296424715,-0.0006667099002803289,-0.010695027448239575,0.2070327712871735,0.6448723190096911,0.1868451205389535,-1.6953897446394857,-6.111908671318352,7.393998072729245,-0.005024974594791069,0.0032639550913715746,0.002294860013860085,0.464217616861225,0.2065481991454988,-0.2599421504709004,-1.9219109492166524,-6.196031017436462,7.504236707588149,-0.004930466034269381,0.002711539846955018,0.0048303023035097,0.4009278886879518,0.4922467653688602,-0.6180523532235077,0.30577771465578846,-5.980840382907574,7.824169038105125,-0.0058427320693875,0.0017546938703476898,-0.009343005693389847,-0.4468982252077248,0.5449912783015232,-0.396310474156888
2.1804819164045783,-6.1113475927262035,7.338185912946486,-0.003480171407199155,0.002460976009473318,0.010621197392823007,-0.6896390025647866,0.14414513187517664,0.3732996890008538,0.3029555489840598,7.624734919324393,6.178927553087593,-0.010302572399462605,-0.0026436443225436646,-0.009788616687240032,0.20969783515337864,0.6415397382610643,0.19470107395931752,-1.7066077224271665,-6.107246038360708,7.421724025792348,-0.004558719789660406,0.003103843902662767,0.0018834576998864997,0.4682777850415481,0.20417607445432545,-0.24801647951296185,-1.9305977089170514,-6.170717419211764,7.478684444364982,-0.0028155008849672777,0.00306840681958093,0.005365261536616618,0.40183219037993184,0.49130538904256243,-0.6082972200587494,0.28351485133583043,-5.9675971001602734,7.819491855954306,-0.007872900876069318,0.0020682975736537944,-0.00834310703170017,-0.4446066199863662,0.5435286726194369,-0.3895050895146969
2.169994633041865,-6.099126478664835,7.319910465270187,-0.002934161813139692,0.001258499337866801,0.009914638564814234,-0.693399275168313,0.15128046392419264,0.3645973587670915,0.29201806269976466,7.599075866656383,6.151612720121579,-0.009545693843055708,-0.002286093704295013,-0.010433369668033002,0.20564886958540116,0.6498699227141014,0.19312071583290738,-1.6957262540931857,-6.09385909232475,7.4056636179604505,-0.006087517028244517,0.0025870700276698546,0.003766422852358103,0.46279034322141965,0.20706442126472585,-0.2574846609631431,-1.9273140221681044,-6.18695237912626,7.4638922498384925,-0.003398931439157706,0.0040452781047687555,0.005909981905808497,0.3975815673000714,0.49422424386071123,-0.61433766764014,0.2983833644917771,-5.974638478366059,7.810965148764861,-0.005993354913531935,0.002318729650725888,-0.008706380688166995,-0.44810122633418964,0.5530499810695285,-0.3963018146725921
2.1774233831960044,-6.104241487422672,7.338685078276975,-0.0052774978588914796,0.0030280762503899065,0.012511808125575634,-0.6965527041693003,0.14933333950256075,0.36658916348202153,0.30577495985969805,7.614928020902484,6.186517768542816,-0.011362097882699906,-0.0026706193370136864,-0.00982109897418384,0.2007466833105728,0.6486856390165796,0.19144396664156454,-1.7092336862061217,-6.132250191266181,7.397307396997378,-0.004700942670301603,0.002610290109465983,0.0009522266300422928,0.45896882668813943,0.20786468877985328,-0.2518200604220548,-1.9240830921332026,-6.1703304623567865,7.479490807528813,-0.002740796307574947,0.0025625870938898723,0.0047047771452655,0.39568042470382436,0.49546052829802045,-0.6116220714590406,0.3084875958674055,-5.984616698670916,7.821173876494385,-0.007125755164381987,0.0022313917402835342,-0.009479119169979764,-0.45168984097168735,0.549646166790448,-0.39063010264384235
2.1872199856546137,-6.084317832538023,7.3217664639925415,-0.0005222319341107215,0.0005246375323470591,0.009846322321895001,-0.683771981834712,0.15291696607942312,0.37105239786571254,0.2950986786987444,7.618576888028988,6.1609323690684015,-0.007736231981406745,-0.002893019501691795,-0.011133508831122848,0.21154884811596533,0.6522837802687339,0.19624095653593426,-1.6794070843893167,-6.101981925334506,7.418238855297056,-0.005252004968026572,0.003090241815360293,0.0032915715605805872,0.47170436693258105,0.21243247288976058,-0.2510602676822321,-1.9162201552074167,-6.169615033003566,7.4809199375934545,-0.003655200410654783,0.004436653352726449,0.007849363412767322,0.4059798124690217,0.5010521235681227,-0.6101183005331773,0.29782621752356425,-5.978625145181898,7.818341162319303,-0.006529232296839093,0.0029585216872914733,-0.009978506303036509,-0.43997309582505845,0.5554789280977053,-0.3917815663651601
2.175551944375324,-6.085709077093687,7.331230960613659,-0.003508781802274986,0.0017629949137368936,0.01179468699025802,-0.6934277547376905,0.1459106533976425,0.36432904957403334,0.28363418443046867,7.607559015717819,6.160798052623296,-0.012033862666541167,-0.0010409746808476103,-0.010034008273699045,0.2060506247517599,0.6443969186924549,0.18685525569295405,-1.6871856147750335,-6.115099607911114,7.4004377439031614,-0.006102698644902863,0.0030896501649418755,0.002187483738859652,0.46158281606233487,0.20586255219388672,-0.2559929183926461,-1.9260682742545359,-6.204454120811952,7.489143013472552,-0.0037235906781165275,0.0018788300027491008,0.003775811340972098,0.39947865008847366,0.49274201819332303,-0.6172952791705616,0.3166307429467091,-5.964663233134138,7.814323024743143,-0.007043764887710286,0.003281710451056315,-0.006298087544809731,-0.44834634602026996,0.546215590016842,-0.39531389955556273
2.1902485123186732,-6.1163907763566945,7.316773996962159,-0.004156829126500279,0.0013230951346371376,0.009927209319732231,-0.6894089201858765,0.15221594557220075,0.36991346139969605,0.30240199070631407,7.620816412923238,6.1831924581061415,-0.009621202159241823,-0.0023188563078163442,-0.009368519863601767,0.20689685042160033,0.6518180736838949,0.19382042336564714,-1.6941988880370695,-6.10498381829369,7.405175282986699,-0.005479035341262076,0.0029165285393490106,0.004288283107301089,0.4645891407420002,0.21221317707326084,-0.2533990456968667,-1.919139549640575,-6.182370093743636,7.486391357122312,-0.0015344652170448858,0.004479807628963462,0.00438776812344957,0.39988072381862433,0.5005824990610219,-0.6097635661862021,0.3106330420105603,-5.977300859930096,7.809873113008444,-0.00463794891170852,0.0018932016414325056,-0.009179423480658195,-0.45047190518447117,0.5530606463769652,-0.39138430127250406
2.1728635565263645,-6.07584033190839,7.312331426856413,-0.0029284701246041593,0.001077873598678044,0.012353052587703727,-0.6925994404951661,0.14123392129330076,0.37210996541600533,0.29297657276162603,7.605521574048274,6.146816017016381,-0.01023027424812743,-0.0026324728723272936,-0.010829124820804387,0.20458804890347224,0.6426045673185856,0.19616500925793062,-1.6921418368268584,-6.093261632522956,7.399522336933979,-0.005777660755724885,0.0024369789377438156,0.0008448282954243295,0.4604751143730252,0.20520334541518873,-0.24766995561546037,-1.9303545074245478,-6.195694305498305,7.490433801558599,-0.003942785468358385,0.0033932586288894866,0.005753187779654771,0.3967481910362579,0.4893782899640406,-0.6055135529063973,0.3184032485206925,-5.977674741658355,7.82111118442854,-0.006439276979251231,0.0010305617791356977,-0.008845621651634768,-0.4492395475700854,0.5440272919116146,-0.3891951140229537
2.1782868925086865,-6.101588324246347,7.33797178953691,-0.0047323781477487635,0.0018722459814762738,0.011197394609977623,-0.6859928571400443,0.14633295163308918,0.3715456074039724,0.2993073609454919,7.617766080554045,6.187101537931483,-0.011363241308969105,-0.002684420723668394,-0.009808883643538532,0.20782794910116226,0.6476936117665731,0.1963218987585863,-1.697988991185289,-6.123026643774529,7.398880854196584,-0.00492795887580633,0.002436584686988528,0.0019499380455528926,0.4690235517606489,0.20588237028232115,-0.24779641691267268,-1.9344358964188433,-6.153424373331889,7.481108374623394,-0.0037582810077368594,0.0035056824546098922,0.004471245508169371,0.40427347647688877,0.493006054178301,-0.6085914279595406,0.31024421831639387,-5.981105753999622,7.817381531034536,-0.00727153404197912,0.0021360520963254522,-0.008262799774781091,-0.4441054674034803,0.5506072981270181,-0.38976386357075415
2.1667149819315155,-6.098985389617658,7.318314938875811,-0.0016476483686523808,0.002365584702296488,0.010603370118482992,-0.6930262508197019,0.14439607462784784,0.3753046942363722,0.2839598093018927,7.609211554176597,6.1470862379700355,-0.009547835273146633,-0.0023008058215674178,-0.010416136911940934,0.2038905482135934,0.6443933728982781,0.20077933026818548,-1.6878136962828136,-6.106072781707987,7.391943635396784,-0.005480033221782555,0.002914542688206188,0.00428931297608176,0.4590053707938985,0.20593862986878575,-0.2483870013489493,-1.9215347026283724,-6.168763712552396,7.468347397189868,-0.0034321014134485513,0.0029201933094224397,0.005866924315466229,0.3974677261899476,0.4896172420467604,-0.6062594450331614,0.3042229515496752,-5.9721820942163495,7.795803167598065,-0.0073497828522702275,0.0027472577496048976,-0.008235326640863154,-0.45113842496761103,0.5462322965017506,-0.385751865355395
2.184991870074145,-6.09392776049836,7.328907233457887,-0.004763912709618777,0.0012199292461595554,0.011761055366313743,-0.6872300470518227,0.1505002040149861,0.36914021061596247,0.28459010386578526,7.613725224662057,6.1563626636562265,-0.01128396561416955,-0.0016788136906291389,-0.010762569052526231,0.2073785782602646,0.6513239190607915,0.19382654692028875,-1.7052662957683795,-6.117259793113783,7.393627977702549,-0.00610369652542334,0.003087664313799053,0.002188513607640322,0.4633840482378073,0.2085800114390723,-0.2506680807518538,-1.9344512364907331,-6.18506656753315,7.481399250562435,-0.0047767090510397485,0.004449792441531029,0.004240727280668763,0.40181608989267514,0.4961817110240484,-0.6100251074124812,0.300130427269814,-5.976652725319153,7.813361479264094,-0.007879802025909773,0.0027276731955495044,-0.008926772315386397,-0.44779723267762284,0.5528098657520247,-0.39215449089802773
2.1917666978058983,-6.104410997399061,7.317337241094498,-0.0022880992896498467,0.0016984038125091917,0.011783146062506317,-0.6909314885471202,0.1497946730043499,0.3667511583247975,0.29576183202899003,7.594210516573064,6.1821856253773175,-0.010310697329767077,-0.0036528353372285534,-0.009860209154628943,0.20786541284863352,0.6519899195027561,0.18990748714849776,-1.7083274510912694,-6.107703608782518,7.419833735965113,-0.006217551933788802,0.0015849785437725803,0.004417220502354357,0.4635840470966263,0.20928361979401872,-0.25409488972512917,-1.9088642909761633,-6.173218412804422,7.489416023776054,-0.002848694605913918,0.0019413181752417033,0.005321211965775575,0.3998175946815539,0.49837323230667946,-0.6129284105931533,0.301158860631973,-5.9887838112107366,7.820849447874512,-0.005167977997386533,0.0018756160137427373,-0.009871871250554299,-0.44806701842296975,0.5510998543732631,-0.3936139455003066
2.180960982511038,-6.096359611093129,7.3280846782084845,-0.003545068686621798,0.001245644252731861,0.01053079239196983,-0.693177900728073,0.15488204173977682,0.37828360948069095,0.2824362829818481,7.606281155984205,6.176698977238569,-0.010607415784873099,-0.002332734087702231,-0.010445543118617482,0.20719709003540543,0.654386793008041,0.20232638963692168,-1.696687711217321,-6.097784061018693,7.3947546331337115,-0.004319471105261145,0.002767043148636803,0.0024717903601228367,0.4627539910986243,0.2139936264603679,-0.2458180339064546,-1.905256516820953,-6.189582456903244,7.474591539522738,-0.004193299294155941,0.003471917295292753,0.003695011004622089,0.39948471844186395,0.502556864145962,-0.6048803307574167,0.2927657716663085,-5.970256713018723,7.80031497293119,-0.007417300789293883,0.002039713522937049,-0.007045479383653611,-0.4488970952977252,0.5552631855453731,-0.38408449305363723
2.1790714507670574,-6.098914075193262,7.337322782340264,-0.002935142116045136,0.0012594994585115658,0.009915657762984118,-0.6891919554524332,0.1421996458936829,0.3710861472291342,0.30015529046559336,7.594872046509889,6.180582445378526,-0.007812818863862885,-0.0029336456907243613,-0.010060534944115181,0.20925345278128155,0.6445126669521466,0.19709932421838322,-1.6951879493532758,-6.1187372114123475,7.401935883437945,-0.004573864986689164,0.0036054476505671513,0.00030752613313138344,0.46632648164599405,0.20272999583217705,-0.2472453759679922,-1.9241538120106745,-6.156331171594599,7.490929756862326,-0.0018985789430085954,0.004249925577596952,0.006946583950550917,0.4003877831825306,0.49082654673081616,-0.6070483774391302,0.3119884178455982,-5.978091190449851,7.813218855379779,-0.005831033255885315,0.0004409385387722886,-0.00818365110288708,-0.4438494269306398,0.5449935946566209,-0.38805236755185185
2.1882721733854704,-6.087150765198129,7.3093427143764895,-0.002353001189398828,0.0004820720758827597,0.011692736716284251,-0.6862292628028004,0.14559884665942632,0.3722779913540015,0.2789884728847016,7.622617744771276,6.138456317114878,-0.010227551980683085,-0.0016635843346772634,-0.010715896772731711,0.21048825385538278,0.6454812747730668,0.19756898281422788,-1.6976430547543417,-6.10285787014846,7.384003604874008,-0.005141809476987187,0.00175531962145046,0.004527656383706229,0.46674968391184335,0.20171742925931108,-0.2513939638937441,-1.9258221658346129,-6.201459077956261,7.466662271270876,-0.00408875483496589,0.0016499393389357772,0.006331641578404074,0.40351620274816336,0.4917825496958952,-0.6097943740436668,0.3087968478405568,-5.989213348807728,7.79939009117739,-0.0059885164225353,0.0016633531466258406,-0.008127690592452134,-0.4433846661840217,0.5440139436666663,-0.3895231426489636
2.1849229582976304,-6.102156856818509,7.336558870728483,-0.0034773180857954468,0.002370660932867413,0.011840904343485599,-0.6931846695061594,0.15341707120828907,0.3782772435152653,0.30647837966167285,7.601677412244234,6.186190764310276,-0.00985155783077751,-0.001978078551164331,-0.011084248217730871,0.20357351500955206,0.6573658448429542,0.2025356148670277,-1.7052542316335877,-6.125387054241153,7.401589679155392,-0.004191415792421749,0.0037631787373778483,0.0018250680660142024,0.46032661141015685,0.2135303688690368,-0.24455884001666248,-1.9463130467770706,-6.170879639785762,7.4922928290755495,-0.0016403459947014335,0.0038585365455539007,0.005005167104532269,0.39806164335716326,0.5015937499031634,-0.6024097894688276,0.30897033946110164,-5.972426160317713,7.821693990214518,-0.0059885164225353,0.0016633531466258406,-0.008127690592452134,-0.4498656034453177,0.557462622763473,-0.38382791773977315
2.163709775450895,-6.097139515207724,7.307279685789833,-0.0029017690645469626,0.0018215100860282764,0.010570719053240205,-0.6844422184092777,0.1546131017922231,0.37473335502083926,0.28969559918715365,7.612214603236815,6.156876778850604,-0.008867507208625391,-0.0019799584465722995,-0.009992976556303117,0.21545950141068687,0.6515763645626493,0.20112385555468001,-1.6958441350510323,-6.104820521856563,7.403825132796288,-0.005013768331878568,0.0027514473566576784,0.003879934220807497,0.4715290627897887,0.21125522695147947,-0.24567683211947847,-1.922363697242332,-6.182285928639094,7.472550267046843,-0.0033901112396073707,0.004039216148729882,0.005900846438175418,0.40778802945237635,0.5008247146521319,-0.6045337612929146,0.3148445333119232,-5.981385435051633,7.810582118011998,-0.0059102819607704605,0.0010521464258414132,-0.00815616362285483,-0.4410859187290944,0.5552457351803964,-0.38419656489860976
2.173383329615493,-6.081443382560888,7.319358776308473,-0.002933308246743316,0.0011681933708265842,0.011134375464207433,-0.6910531837207833,0.14878209073141616,0.37529454719720917,0.28656522473910717,7.600340615449765,6.167826392489815,-0.011663175799865177,-0.0013859411317184156,-0.010371875695401015,0.2088496106347696,0.6504251510726021,0.20018370374205777,-1.713211407854914,-6.115934562543957,7.405570701172059,-0.005637411384225834,0.0029255767857534892,0.001780126780783114,0.4644390136844195,0.20837407632200974,-0.24506467467750803,-1.9317693313984903,-6.1929247836979515,7.467337474402098,-0.0026231374158938395,0.00317577944235559,0.004076197373882846,0.40045370482628523,0.49693987243860593,-0.6043877878188841,0.3017809126949264,-5.976846191701304,7.817177398762782,-0.006525393700436496,0.0023031474169811043,-0.009399801861207339,-0.44766064463581706,0.5496465612042445,-0.3821420374502044
2.187795639814034,-6.1147017038212805,7.3244360649236215,-0.001680091294744497,0.0017559144501327559,0.010559158805754308,-0.690016818069636,0.15078660751523584,0.36234632304482023,0.2884097441451979,7.6152192636290525,6.168104080295669,-0.009091787960887885,-0.0006358255950639787,-0.011628016317795382,0.2053843263391834,0.6493106690653463,0.18824643422150714,-1.6983913890081523,-6.102937789779144,7.4111473962579915,-0.003839036646950068,0.002099373975139622,0.0036413807183375974,0.465484958734946,0.2109459265177263,-0.25852945817083134,-1.9240063152698839,-6.171373377699027,7.5060609081477825,-0.0024815217247977435,0.002475854876238844,0.006750826805744698,0.3997892885002996,0.4976355670295949,-0.6143902921543909,0.31447676361915555,-5.985197370671766,7.818095241948221,-0.005764525125494166,0.0011504839255954411,-0.009374486109355167,-0.4495753238279944,0.5515877348849679,-0.3967671507602718
2.1598355099635174,-6.082459622155371,7.318855827241317,-0.0029332932924714325,0.0011681889568035302,0.01113537534264312,-0.6898444221297243,0.14853576972852806,0.37454229233380376,0.3073440584386442,7.614172744970969,6.163029848734609,-0.009930989804635883,-0.002998499582790883,-0.010118334929830155,0.2085601364129285,0.647913300123111,0.19534028031617082,-1.7112438759675854,-6.108339612936086,7.390148154925534,-0.006006674722875858,0.0022612938593851257,0.0018435836989600866,0.46582921487324475,0.2085667988725302,-0.2504585919621083,-1.9329938622341474,-6.202719326186288,7.463762668858197,-0.0033544954148035087,0.0024113451975599854,0.0052013990281718075,0.3991450675153548,0.49521661181623805,-0.6089975257958018,0.3104145963834091,-5.967622386124733,7.818931853279966,-0.0073459365620730625,0.0020888845559936,-0.007655619004217074,-0.4477531015220053,0.5474430518869698,-0.38824299011457414
2.1742806094752365,-6.114556267228302,7.314082555705062,-0.004122517802236238,0.001842450450954754,0.011192142435924498,-0.6926448581858334,0.14564823251908574,0.36773459758743554,0.28815593244039217,7.61408339848025,6.195387440902131,-0.009543299233388244,-0.0003541397385053192,-0.010197814706476222,0.20683692091580022,0.6471772722753212,0.19364736054319437,-1.7022357074944858,-6.120901113548827,7.404874113981444,-0.005993509118551989,0.001753734216324512,0.0034235906216028233,0.4647905282601561,0.20464596032539778,-0.25309843006455157,-1.9339542703611368,-6.158243377367731,7.486832397810199,-0.00298640609004564,0.0026392113241948244,0.002641519875295303,0.39732968527574153,0.49153901286732465,-0.6143227693860095,0.3069662054649024,-5.978954153662271,7.804940981057394,-0.00667801855201291,0.0028661876680033584,-0.00876314706431182,-0.44981665253524994,0.5464623385947156,-0.39578111459312537
2.194728301161421,-6.088923603552536,7.317851376686733,-0.002290922702509788,0.0017887100610689895,0.010565438868715102,-0.6901981840913508,0.14930227169781518,0.3669820468876834,0.2851228476067248,7.606845013520825,6.13732574130101,-0.009931038962185933,-0.00300342233018429,-0.010113259090822073,0.2088007784562044,0.6481206018051221,0.19313814648289834,-1.7042598707071603,-6.108479936655428,7.377827692889711,-0.004264039392876597,0.0035714895674893313,0.005336063092328598,0.46723821586244474,0.20974415949422404,-0.25488238119521134,-1.9057283129190958,-6.189255068977501,7.503369491961851,-0.005065204653686695,0.00371506826794129,0.006134037787689797,0.3998002803396645,0.49397834024915566,-0.6131551174882381,0.3237986138694733,-5.988123910652084,7.827324566606843,-0.0046262622284887036,0.0005804452392874256,-0.00802106988608423,-0.44612159890847525,0.5488982358101514,-0.3938835370713647
2.1731708606246958,-6.090678376103048,7.337030338384425,-0.0017126154001726325,0.0011025978756908535,0.011123830069522528,-0.6781662373207822,0.15973910511933842,0.36831334814644645,0.29640281210079045,7.616630011002606,6.164932717417458,-0.01053623552584799,-0.0023333644209118207,-0.011473866498398943,0.22137492622779617,0.6579505070873605,0.1917311386789407,-1.7094202410691388,-6.114885006312445,7.399848995471892,-0.005114401122356829,0.0006270766901944379,-0.00026049948992270687,0.47585790862998933,0.2187352744820667,-0.2536099477515573,-1.9225410325162855,-6.1861408813279395,7.480081618915357,-0.0016027363958709435,0.0022286595806297023,0.004305691874602507,0.4127724431487294,0.505901134020922,-0.6134328686917373,0.3172571428588441,-5.96109433692587,7.82912575932175,-0.007802577370777441,0.002118467634920381,-0.00895623309504764,-0.4326312414879295,0.5591253380128215,-0.3911587392436235
2.1811608615903575,-6.089922840673779,7.317368798546867,-0.0034810566697895625,0.0025086223920511774,0.010013347050602662,-0.6842350833656247,0.15217858309138527,0.37301030198365154,0.29841383988455183,7.602410671319068,6.163111469708569,-0.00856705967584463,-0.0023302146714238186,-0.009296432331577424,0.21157948675043053,0.6535827357395783,0.20134867089353506,-1.7025579404771858,-6.10711960270104,7.406745691299436,-0.004886690648266128,0.003746604897758847,0.0032352337238965878,0.4729944288463298,0.21416642299150268,-0.2469406220295863,-1.9367949411603729,-6.180787498058908,7.489066786467544,-0.004190275834918367,0.0037765641987074078,0.007681442005270928,0.40557832425913837,0.5008285121365984,-0.6052264528101778,0.3072730663128392,-5.9730839073596425,7.803039114667118,-0.006598781977410132,0.002255978710364555,-0.008791635540272876,-0.44137516957079226,0.5537781579927651,-0.3871201505650339
2.1789920638558966,-6.093964989301586,7.336259685658322,-0.0035451349116859335,0.0012019935164306365,0.011140674846902423,-0.6842972826868231,0.14584041280423926,0.37078498478028893,0.2908026159970201,7.6077529660361245,6.161284110387042,-0.011286436612405571,-0.0007295368388259679,-0.010628024068233327,0.21515085156299768,0.6478251177321921,0.19507724671265075,-1.696903310964852,-6.122501042920669,7.390969306674046,-0.00539817886816264,0.002590760224598108,0.002366443822693171,0.470697294971701,0.2080428292337703,-0.25125555116600257,-1.9333598729507222,-6.197073013076299,7.474247081308083,-0.0024757220351358062,0.0021661460047277775,0.002755256411106761,0.4062355863372613,0.49324604533351013,-0.6081393017147259,0.30803957282789796,-5.985282469803999,7.810474908172418,-0.006903021873930451,0.0033800580522537586,-0.007517338197223286,-0.43947578954707417,0.5486436833246205,-0.3900722283769627
2.176106874513587,-6.104702059761776,7.334461219258308,-0.0023243712197247753,0.001181048737481105,0.010520251342653818,-0.6974301301912355,0.1429521948338029,0.3751201552937873,0.30463519045911197,7.609121034911611,6.168897557720715,-0.008489755339996274,-0.0013225671623836935,-0.010249142957730129,0.19947893789248689,0.6429886735925671,0.20105773866468474,-1.709777991743743,-6.101071116965555,7.4017408243665495,-0.0032315325891945855,0.002427854439178901,0.00416526277047831,0.45852183235690813,0.20399833837328232,-0.24714474956592383,-1.9249763795358994,-6.151557193766345,7.499460370694973,-0.003496027713178811,0.003417937319104344,0.006516245752836486,0.39255502307264023,0.4896253643632999,-0.6078810652442997,0.31528814345078426,-5.964010822346969,7.804709597479242,-0.0065117039707218325,0.0009853876300851291,-0.008240471565156981,-0.4550512204444875,0.5450207671857424,-0.3859384485073328
2.158153445407304,-6.070790406476523,7.309372336625026,-0.004156037164841701,0.0011901384111806705,0.011756833019426913,-0.691150106014818,0.1475880584885831,0.36918598353035637,0.2924247006496849,7.602480449430854,6.152338686862875,-0.010613667671326474,-0.0033538110731748025,-0.010507958690825221,0.20710128330161232,0.6488753492222876,0.19313162300224082,-1.6884464182857577,-6.102635790065447,7.392443672711498,-0.006573902350048875,0.00324184770494246,0.002606019253570698,0.46480537823681256,0.20708683820001628,-0.25311781251514853,-1.915475763265283,-6.193155728828517,7.467875651728998,-0.004552562520665126,0.0032399891885039633,0.006245746837153474,0.40298315629355935,0.4956786825824648,-0.6129744808040485,0.29569601806972906,-5.993006708362102,7.8244857159874455,-0.006142153298988122,0.0022273945608680956,-0.007492022445371114,-0.44439017332706465,0.546454510584808,-0.3919525719036163
2.1807695300626864,-6.117895472914087,7.332068965797067,-0.0035098375708972436,0.001718344338310485,0.01240557995262271,-0.6936385885955262,0.14516900044455755,0.3667712256490882,0.30093409269570826,7.6205885779962514,6.200033273545914,-0.01121987104521893,-0.0026847096509271065,-0.011866548311066564,0.2067726781801207,0.6425131266863441,0.19200948973151932,-1.7042480983539576,-6.130481186421239,7.4111916913484395,-0.004321444614403292,0.0027620872034496927,0.0024758577756374143,0.4645475274772876,0.20367435337390383,-0.25259929125486646,-1.9155364329648825,-6.170041163699721,7.495154759212459,-0.0020704245418787593,0.0038227446963544237,0.004225851772469103,0.39831021261534494,0.4898289779242726,-0.6138445668872383,0.2963179151014994,-5.983379456016431,7.815028536579468,-0.007948362903106274,0.002020128000156389,-0.007739910401516815,-0.4465936076912174,0.5454831629744514,-0.39216394082925454
2.191954344935583,-6.086984317023638,7.306936092328733,-0.0023272049665302615,0.0012723593799489309,0.009301548615795805,-0.692306823573518,0.1446410435644804,0.37431789706494667,0.29556444284780087,7.60738457075154,6.134693543395015,-0.00894129904249622,-0.0010438502063967701,-0.008816895722376532,0.20491733219935448,0.6482860823231252,0.20071693651616354,-1.6882058853056698,-6.088204231069672,7.395000261618023,-0.006192451036301939,0.003397592940610335,0.0041245910552341865,0.46325028157599174,0.20912894206536684,-0.24310050368599562,-1.9155881999894655,-6.191705821496515,7.498835206566103,-0.003350591207839134,0.002409313780396361,0.005196336369553388,0.3960202461557149,0.49548059414096174,-0.6062563193456102,0.308536497545804,-5.969793995452862,7.799132069854832,-0.004124647708500129,0.0032435483738919315,-0.009651278942554072,-0.44745225070752986,0.5493994100601816,-0.3845870168535208
2.1715758354086128,-6.07791460539542,7.3176661764122874,-0.0041551277073267326,0.0011444875743497065,0.012365691930820728,-0.6954864809565943,0.15125814247725483,0.3719533671106411,0.2970910010022011,7.6075811678144145,6.1602061412791205,-0.010843883791353807,-0.0030001731647571637,-0.012232884708893695,0.20276991948091952,0.6524447804342141,0.1994386569545927,-1.690787100834151,-6.108628922398518,7.380596347652821,-0.003612973818168198,0.0022691250606713255,0.002648714527514143,0.46099427037432933,0.21129917806929582,-0.2482132559922612,-1.930384928184794,-6.185795379228845,7.466420999821001,-0.0026573072265471736,0.0020506976659439647,0.004033157619859673,0.39579871202239797,0.4986581276054456,-0.605532551627443,0.30666876148241456,-5.972385491445799,7.807653517649434,-0.007049795170570954,0.0032807217218491246,-0.006300000161649346,-0.4487011060533338,0.5525735220103724,-0.38701373720265747
2.186025611408533,-6.109907619346506,7.3129733021461565,-0.0011371557056199793,0.0005047963931256202,0.010463505507365268,-0.6896541417950092,0.14561656895043826,0.3718412330579972,0.30373691406074443,7.605305880231839,6.173157897763663,-0.00962676403663033,-0.0023739880355741925,-0.009315656283375396,0.20829480471234785,0.6459824208934284,0.1965906600541094,-1.704105415811473,-6.120002908792935,7.4040914467303836,-0.0037552067835827183,0.001778555410314243,0.0017154598989706134,0.46536196104828365,0.20420189161979116,-0.24699923818747854,-1.913221279978755,-6.163462822998875,7.507147960172771,-0.004185374740940678,0.0037735297746666315,0.007676365436689433,0.4033070656315322,0.49325488779321736,-0.608087059136094,0.3010814305193319,-5.9851682090213645,7.803039855644878,-0.005987363151999217,1.2807972368715915e-05,-0.011345278244359007,-0.44358226705266546,0.5459706105155946,-0.3865920927109693
2.1871361222536514,-6.083577257977469,7.326559569692423,-0.004123493484815343,0.0018444505514844938,0.011193165979463272,-0.6887473058726344,0.15418927534955362,0.36454062461729464,0.3012431704847039,7.6080756113678385,6.15892125639671,-0.012351095064684844,-0.0017648482622709958,-0.010739121487080621,0.20864866606945093,0.6558942255515339,0.19033469046023266,-1.7087467430549514,-6.120178655123841,7.381803659656604,-0.005256935699100564,0.0030783519273770766,0.0033017361291805105,0.46625545592294276,0.21315269711241613,-0.2568484847547116,-1.929467151082788,-6.205793524166595,7.501517928137306,-0.0027290746867719004,0.0025534967516796033,0.0046906007816891184,0.40150886131350316,0.499828330091254,-0.6141844414912531,0.30901321659542735,-5.9855884749001795,7.814254655742702,-0.005460533428930937,0.001685938956551557,-0.007439219213486694,-0.4439584585197614,0.5542609234529273,-0.39709463204111123
2.1741876945492344,-6.096234660570093,7.344043459350955,-0.0029352780932068814,0.0011681936523461648,0.011136405169809419,-0.6923399402519785,0.1453848034504413,0.37188037895883064,0.2883527316149098,7.61558843028099,6.170024848775858,-0.01053657301513488,-0.0013712835422508372,-0.011350524417113221,0.20245597747782995,0.6477549729434888,0.19584867504396516,-1.6976535421740775,-6.116408689521546,7.401105419202668,-0.004690705952448026,0.0020958122306769184,0.0025403304433505697,0.4626333662328868,0.20833097726682004,-0.2518756479377856,-1.9315557515610766,-6.160505356955562,7.4832977605006565,-0.00236285104749505,0.003087048102992938,0.006123236883965804,0.39939115535567066,0.4974129036553543,-0.6092544672916334,0.2981407849190335,-5.9685495168697305,7.8031473201630615,-0.00651956966337209,0.0016477676115863944,-0.008822126008091543,-0.4499796850761119,0.5486666127062451,-0.39040957235352025
2.1727612482865344,-6.0917272773042805,7.304989938995489,-0.003514485612406328,0.0019019566343252135,0.009969163748345956,-0.6881796447095949,0.15245222523103147,0.3703841786462841,0.29889161406172815,7.586112282568134,6.151988310671719,-0.00955148315275278,-0.0013692380500622957,-0.010263316167055433,0.20960827010145439,0.6537399992431495,0.19402717554673304,-1.695430090879272,-6.104605455745614,7.39558549657909,-0.005768446170895888,0.0019234914971178023,0.0024309385500238564,0.46632757970114763,0.2119758557925616,-0.2512245263028291,-1.9273819514871784,-6.210108263771453,7.479477746972244,-0.0033793121646386788,0.004032144293771178,0.005890679391049353,0.4018436423276546,0.49813941654052896,-0.6088119792353837,0.3082983873614125,-5.9674930399399635,7.804971634587563,-0.005836949898720868,0.0011063097734801766,-0.00876933712232143,-0.4463088653605579,0.5528084198499488,-0.3904666705169266
2.1791351745272283,-6.107794961962779,7.3321249970936995,-0.0029018295759918934,0.0017758549759340487,0.0111815926958707,-0.6895754786669437,0.14681599071542012,0.3767289451548756,0.2797687948216178,7.615024140809973,6.186457635560871,-0.010612984558302061,-0.002388835112803068,-0.010390664491219084,0.20759493338269763,0.6482144409033569,0.19826787375462945,-1.7065509886678096,-6.126741647177245,7.391588377331544,-0.004592722689009653,0.0012724040167734502,0.0021913631191463286,0.46541586787498906,0.20739491115137945,-0.2445827613460976,-1.9186667258679047,-6.1852913635663525,7.467585095896251,-0.00214764380530645,0.0015766315043611577,0.004145916085135432,0.40020254539250316,0.4944996384911224,-0.6043738515219786,0.30946720005199874,-5.990620280026002,7.820819192755844,-0.0072824402457463975,0.002799435573616113,-0.008847411968271048,-0.44524175371267805,0.5476868110854051,-0.38339578270888525
2.188137223434407,-6.097410311944262,7.31393700508068,-0.001681070504357074,0.0017539102170995432,0.010561164846253206,-0.6846980651897996,0.15046214259334242,0.37520691616169055,0.2933484172564013,7.606461531771605,6.150382019280829,-0.008495863714370397,-0.002329829950883342,-0.010323771120419678,0.21400354450179818,0.6532367595014315,0.19670727213231315,-1.6932770710271148,-6.097018345623099,7.380199388737759,-0.004648439844387346,0.0034078182925900598,0.003824596252913595,0.47026127310430016,0.21148093572969037,-0.24907908943790802,-1.9248608094809427,-6.181787287431169,7.487900464355462,-0.0037435539791479985,0.0034985830314804745,0.00445700778292366,0.40607570795354136,0.49960888873377196,-0.6044984849428786,0.3192302618627282,-5.967599296646033,7.805874985239248,-0.004640977152425011,0.0019062040329405627,-0.009183394321026958,-0.4394488129712205,0.5513302389907101,-0.3886103320340721
2.1666679269669173,-6.097854855893762,7.323310240000812,-0.003613288129313783,-0.00015026783612970157,0.012877936304858204,-0.6897818714560814,0.1488325354328665,0.3623341827942414,0.2868598810806332,7.607328258243757,6.164949604033224,-0.012124012085319595,-0.003126848200300072,-0.00909281608124263,0.21024247073157176,0.6477536194954374,0.18630268714445408,-1.7137305883961869,-6.120611873069161,7.386650307655635,-0.004322420243024958,0.0027591171094054055,0.0024788953223713224,0.46717249175936887,0.20970772695080003,-0.2595207725124737,-1.9278302594141465,-6.2178554933397265,7.465862483331056,-0.0041795454059245975,0.0034678247280333983,0.0036817791698382277,0.4009125078418937,0.4973670844083068,-0.6197811986081085,0.2968658570948006,-5.965307401043537,7.809766837744618,-0.00742037221570734,0.0020397148867811756,-0.007050435827734467,-0.44595575100659,0.5515764269575631,-0.3997493829312015
2.1829617778273303,-6.110774186281028,7.321420321356191,-0.002801268655499432,0.0036911226626328087,0.010101411604776577,-0.6894217166641673,0.14390756898162793,0.3715861827391201,0.3057589908741377,7.6207000365164115,6.18728087190677,-0.008121752157348935,-0.0036289935591332476,-0.010790110548199554,0.2075716538568044,0.6458148923991403,0.2009908688041267,-1.6833489611873993,-6.09389448236646,7.398725627410636,-0.0048886419055094625,0.003740664709670272,0.0032413088173644028,0.46709646101699326,0.20444971334948328,-0.24531653760542635,-1.9242651735917424,-6.1444762316352515,7.498435080783284,-0.0031239655354816445,0.003945439644290864,0.007940799729648196,0.40160489616767714,0.4925299460554195,-0.6075657841672741,0.3070755773172217,-5.975284895495839,7.819939047309614,-0.005683347194871252,0.0005462651444641891,-0.009408009356632921,-0.4467570149971676,0.5454897020596093,-0.3865460216154595
2.175400052054869,-6.0710569639878935,7.317166197044441,-0.0035127272088213216,0.001764999850569058,0.011797755213764083,-0.6908070317805886,0.152203218556986,0.374328849716913,0.2880048233633242,7.606462151710844,6.139746412813799,-0.011294717821768866,-0.0017535418520981535,-0.010687388656709223,0.2066820745491062,0.6531126965780302,0.19843986531100968,-1.705364099570034,-6.100896900000873,7.388021121150806,-0.005628202882959578,0.002411089395158358,0.0033662449757556837,0.4656960085033486,0.21617237062133263,-0.24587683417313286,-1.924641427867484,-6.2108584632596555,7.478431565335148,-0.0016379446881508329,0.0011025730889943277,0.0042606742168328215,0.40070054641287595,0.4979161240383262,-0.6043959759305756,0.3081788516338745,-5.976589490847012,7.8188985018988255,-0.008414885760419153,0.0027110944637235078,-0.009623149040094033,-0.44596957136148174,0.5542796435358204,-0.38412545301172135
2.1775109340298098,-6.124223797474458,7.328905377778195,-0.0029354439789123924,0.0010768966742268713,0.012355152819763343,-0.6954806273668447,0.14856780696394936,0.3731625513651427,0.2826525107021257,7.612758643265131,6.214372091485979,-0.01061510236480207,-0.0024006240859108137,-0.01037847699727269,0.20051916614187332,0.6490082051186491,0.1963233032816974,-1.7047213710223028,-6.1185914432416055,7.4040470826045155,-0.006237696618193274,0.0020796371788025514,0.0028444147208032695,0.45950668445418363,0.2081334966132539,-0.2484113444802068,-1.9317176445699809,-6.173962484029477,7.487769516707132,-0.004798121860475055,0.003321621104737199,0.004184469601824805,0.39380761044464885,0.49597243681783476,-0.6071958899876173,0.29735449523864355,-5.970761621951674,7.8160242966577576,-0.0060717988783998075,0.002278566754079951,-0.008103149815193127,-0.450649355277378,0.5498926742470378,-0.3862508419078524
2.1809506258682365,-6.075890275036228,7.326041936881344,-0.0023273605182902285,0.0011800580079216092,0.010521291798816527,-0.6908724241159405,0.1546668001524061,0.3692130800226065,0.2869432471205201,7.6094962954553775,6.1509306010104545,-0.008119004638422455,-0.0016625346051826306,-0.010587086821588125,0.20592376565561096,0.652078262479807,0.1940633406945498,-1.6966892381684537,-6.117862441727572,7.3926910702493505,-0.0047906647256338334,0.0029162565457976856,0.0028923494335332057,0.46657303508514464,0.21221833194119927,-0.25122990884950647,-1.911104417748271,-6.19121444525979,7.48625217834522,-0.003416460687072858,0.002908075435214072,0.005848689052838263,0.40135927138506844,0.5008259084826515,-0.6090587804405858,0.29837252802344527,-5.971785786637594,7.815202697640485,-0.005081945008996818,0.0006170217929517232,-0.009325705605076487,-0.44505726291363346,0.5540287734879866,-0.38853273170895447
2.177026808058401,-6.096282204303604,7.322739202779192,-0.00419340048570186,0.000630145962565286,0.011101840317369823,-0.6907025150416,0.14417544351832837,0.3674550163482622,0.2900766673319182,7.60572942805895,6.14013055291813,-0.0112214407268421,-0.0007497202911571241,-0.011632028133519825,0.20434385090053922,0.6430620872819284,0.19396148212660091,-1.6923525654366154,-6.126248061867741,7.3951068031571285,-0.0050420204617027935,0.0037586501153535744,0.0007290109561062171,0.4633291593372143,0.20465695264587683,-0.2528337773865937,-1.9313718020569088,-6.193566062742948,7.481320195224922,-0.00366886430036394,0.00299375942062389,0.0037955196320057063,0.4007710801917143,0.49226641437523194,-0.6131658155932366,0.3083223154344099,-5.970568706596717,7.817155835795022,-0.005704221517045537,0.0035195802905169373,-0.007352671110765082,-0.4468230365590137,0.5457287491562102,-0.3911848096725902
2.175088182919832,-6.097575097168555,7.3222384257710695,-0.0034800931088062666,0.0024649582729210006,0.01062521428804132,-0.6942407916452891,0.14317842493837343,0.3760495726269198,0.29514083976972166,7.622185863582094,6.164189593638673,-0.009933643640991198,-0.002066975125875361,-0.009967516683848975,0.20390977740131405,0.6469996425331769,0.1956118992982988,-1.7013833721758684,-6.0958508132127776,7.392057623292557,-0.005160948196703149,0.002250972011187963,0.002954828542537611,0.46023411215695625,0.2056928326439459,-0.24767038542185021,-1.924586763233623,-6.183722499667846,7.4852566275122845,-0.003344731872112198,0.0024042686153199952,0.005189250150943208,0.3989490811616842,0.4937637143070027,-0.606057910314683,0.3049378473616319,-5.981690504387294,7.803265832671558,-0.006447213235351799,0.0016999353341541944,-0.00943328316958622,-0.4513777991383538,0.5467221015865168,-0.3855039278928796
2.175241389617223,-6.078196051963207,7.315020796822661,-0.0035127272088213216,0.001764999850569058,0.011797755213764083,-0.689428253295936,0.1501951271136426,0.3855317291970034,0.29573881017436265,7.597455373935317,6.171387899427246,-0.01061339408610557,-0.0004380905195567066,-0.010171389859291297,0.20866619258678193,0.6530224662108265,0.21015583049077205,-1.6941043716214939,-6.127976052556205,7.393272952489487,-0.005629200763480058,0.0024091035440155346,0.0033672748445363536,0.4665444912430519,0.21136560393124634,-0.2355957561641154,-1.9286233259649395,-6.198139992749771,7.45922116998704,-0.001920033398689055,0.00281109835292963,0.0029038653202369557,0.40134533225576474,0.49794869154430743,-0.5956171459644375,0.30111046649303985,-5.974955649341604,7.812674534399229,-0.005089796353120807,0.001279402841957971,-0.009906360151526291,-0.44412924962808875,0.5535537325438423,-0.3748721261424637
2.1912556941711676,-6.093930391531264,7.33251798985499,-0.0022574236088599457,0.002394353768794709,0.010614617217781352,-0.6855258250490607,0.14633719088805225,0.37007346303105615,0.30962780523745936,7.628061273020785,6.181143500193339,-0.00955663680991611,-0.00238048235106627,-0.010335886157442836,0.2116873585618966,0.6444404169185959,0.19440695675019828,-1.7018394785682611,-6.114116417592054,7.407363543115242,-0.0031044205683047202,0.0034170515481344935,0.0035256092597561427,0.46941955020568904,0.20193518741434996,-0.25265466542816883,-1.936710974121151,-6.152381124404949,7.51256918682087,-0.0023876558480711223,0.004705851096427197,0.006813524932766205,0.4046967911478902,0.4917703573773227,-0.6120127679171253,0.31363885423245796,-5.972170567165349,7.805275031448198,-0.006071796660155908,0.002279566751015255,-0.008103150914637178,-0.44314040196466103,0.5457221329132029,-0.38977249679301806
2.1808647693031125,-6.081511137782607,7.314338987525024,-0.0035145564577968025,0.0018573059181390145,0.010579041857909657,-0.6881806294443735,0.14511867494482844,0.37254908608773035,0.29044396415214946,7.603228022835414,6.142797948268188,-0.012661010519709038,-0.002457290680468392,-0.011475739371887997,0.20660322247765484,0.6474615800500977,0.19608500430904902,-1.7027612253293851,-6.114880542452916,7.40652049263907,-0.006249834005929821,0.0025872063336692314,0.0012663934164962407,0.464367808058435,0.20517146762561858,-0.24870199131159806,-1.916161845616866,-6.202289712216189,7.4806364021567955,-0.0049491023581541,0.0015803130122338735,0.004762004896246731,0.3996819612153884,0.4937615014278749,-0.6060709843365804,0.3145040204235409,-5.973262446549592,7.804404693081774,-0.005861491695404506,0.003092456224858278,-0.010510285419627733,-0.4462755272645839,0.5457320902800284,-0.38704124026815095
2.1755786908887873,-6.112958764564734,7.319267825600034,-0.0035145564577968025,0.0018573059181390145,0.010579041857909657,-0.6815430994408779,0.14483064461521236,0.37562292895650506,0.282998553660798,7.618293039559043,6.184854103581437,-0.00917890619436234,0.0002651426672370499,-0.010406354906551432,0.2171173016192295,0.6478708538381943,0.19971033557268283,-1.688897695684529,-6.125290413457716,7.389265568140551,-0.005827134715936204,0.004051963976604478,0.00406926896808637,0.4729246379094816,0.20439615490276425,-0.24759598810996694,-1.9372010316279056,-6.159027708687055,7.458078587842506,-0.001877956730915506,0.004231792681060366,0.006928283064463595,0.4109145674752115,0.49080147309599187,-0.6055269081597152,0.30644135864502486,-5.9766025838443575,7.800755568269251,-0.006439400500318814,0.001039551076503607,-0.008855630511478786,-0.43572884197208295,0.5471770214932169,-0.3840197993651881
2.1878510793894765,-6.075357738415124,7.314901742002061,-0.00294010697469336,0.001260513384264654,0.009917736737050905,-0.6826018359041783,0.15243742475563554,0.3678593943235854,0.28950438589642463,7.621077665568856,6.128872781411384,-0.010617225759764197,-0.003408014376361784,-0.010458115517468287,0.21567768063110354,0.6514391878244056,0.19233524716823663,-1.6900886943508473,-6.089575192581856,7.385007392478906,-0.0032355140265031743,0.002416926891767908,0.0041714058043003125,0.4723626078274624,0.20825130220781546,-0.2544552019456235,-1.9145847118447084,-6.186028219813589,7.495649775092446,-0.00403311475942647,0.0027598503057316166,0.006347352332055427,0.40955490145663026,0.49687404488197934,-0.6143166266547493,0.3231223476869852,-5.963800367611835,7.806376136044637,-0.004649836084937609,0.002571586239037419,-0.009765037716179363,-0.43782324428401254,0.5532728994083834,-0.394740364900605
2.1726291138469667,-6.107242346858584,7.3294684068032385,-0.00469999861404471,0.00239659706471529,0.012465379037052016,-0.694182156577445,0.1442093299617636,0.36335670322077024,0.2930803522790151,7.6119865751416125,6.187306991710439,-0.01273456508976129,-0.0024921852728047463,-0.010417863626514227,0.20532703307957348,0.645138163437428,0.1868460731011551,-1.6947335809507469,-6.135872628424047,7.401331940402581,-0.0060106298253281825,0.0022523740654461963,0.0018507107208261024,0.46345796673777956,0.20215796015796592,-0.259896903125169,-1.9299057585250528,-6.20432738364215,7.476514907630293,-0.003524403884730956,0.0019871427498435075,0.0024766200655404785,0.3992243289453843,0.4895687961029501,-0.617278447018374,0.299065415591926,-5.981076230535218,7.796212707566698,-0.008797514586064334,0.003781017356902416,-0.007739606052945329,-0.4466553356480464,0.5445017347554779,-0.39631343698063826
2.1793018141231086,-6.117765131608902,7.317902767645663,-0.00232835006184835,0.001179058168796425,0.01052230230624863,-0.6882764094245097,0.14416863337990615,0.36644258256932266,0.28530137325444127,7.617241132228014,6.185619479885004,-0.00804869955926118,-0.001653169364065961,-0.011616560224888547,0.20773521943020223,0.6417416905222137,0.1903092251678224,-1.6978401855532779,-6.116370956144425,7.392616653365325,-0.0028763619784818928,0.003590774335951843,0.002530883331371348,0.46420567174152005,0.19948580757795728,-0.25768922089791474,-1.9386388403923354,-6.158092672425032,7.488331674183335,-0.0029335244486050497,0.004054833773251781,0.006655762719683835,0.39972487434909465,0.48908216084301315,-0.6165533750063571,0.2990338908269845,-5.975537415199306,7.82689042279883,-0.0046419946528520875,0.0019112041163967962,-0.009185385265102416,-0.44591647898429393,0.5440126208931509,-0.3958344667726834
2.1721224069438736,-6.077865089670857,7.313744744690345,-0.002292966921397301,0.001740055292839419,0.011178329180840907,-0.6929991257355127,0.15343320542934658,0.37436706472189984,0.2807962395231493,7.599991286798652,6.136435868552302,-0.01137150809063119,-0.0018120272009682142,-0.009605140663606165,0.2079151831578267,0.6538438112977824,0.19940221058463098,-1.7024615677547883,-6.08987913301912,7.402110319098075,-0.00600048211506985,0.0017418331582629888,0.0034307838223214286,0.4620022831827787,0.21204143277291504,-0.2462801129212607,-1.9232620777039484,-6.204117902322873,7.477297650707019,-0.0037357098693043566,0.0034945279433692016,0.004448882132108451,0.3994077500563615,0.5015637986549175,-0.6090268023656795,0.3072477144439393,-5.982747107407826,7.8064711492111645,-0.006773123233325025,0.0041437933946324,-0.009317203656075876,-0.4494082173263627,0.5542857158016508,-0.38554026644669986
2.176321773047994,-6.110334835090934,7.318736230809627,-0.003479248783062568,0.0023726523461108347,0.01184494249669674,-0.6965150038855651,0.15274480420562986,0.36806883786117384,0.30143362648309097,7.604237379530792,6.191623183371703,-0.011372451668753638,-0.002801693158985444,-0.009702055065023942,0.20322653548355482,0.6511368518085862,0.19408561954239384,-1.6996035090860935,-6.117957963947158,7.390896873625743,-0.005293025367691303,0.0012488693572123813,0.0036026548246525475,0.45990568593020315,0.2088106662080058,-0.25501518208890656,-1.9320699790205176,-6.158026494887809,7.488981285460487,-0.004467142209392985,0.002729078218199183,0.005570088379910173,0.39517791451357215,0.4978992430287858,-0.6128437518471295,0.3118864083949493,-5.974086199899612,7.818450585281492,-0.007512478392418369,0.003310315000999035,-0.0076035278652483345,-0.4531884358200915,0.5513555645025903,-0.39329670084043283
2.1763084361387053,-6.093748287735343,7.330898122107761,-0.0029046287939272744,0.001868156770240742,0.009964894071252955,-0.6822927551756633,0.150705798504651,0.37272972086604256,0.28922337866236425,7.612408535021389,6.150065385510111,-0.010023257063690422,0.00029556559357630944,-0.013569721950543935,0.21496724282309435,0.6515602716191492,0.19966036947681287,-1.6991394734421479,-6.098896542085096,7.403779290072888,-0.0023668270164340054,0.0047426708674284165,0.003404732576506398,0.47075465264115335,0.21123676507764325,-0.2485950983994648,-1.9289117342953492,-6.186467382399457,7.480772702768832,-0.003339848626091956,0.0024012303181712305,0.005183173749150897,0.40653540797529153,0.4959416794949535,-0.6054686479646061,0.2986124706544848,-5.969781549814821,7.824992128639887,-0.005763615618427374,0.0011614731180542434,-0.00938251172123208,-0.43794865269991806,0.5530383065597099,-0.3864364554644074
2.164779357329711,-6.09243627872798,7.320838099385093,-0.003584809091073358,0.00045740743332629646,0.012925198459617386,-0.6960095999794055,0.1476038283946548,0.3707239102900557,0.2889093449444473,7.601880705574094,6.184683055145033,-0.011604643108303066,-0.0024469688197742315,-0.011422991373714981,0.20466499940046617,0.6484735695405273,0.1968073460386434,-1.7158065647523628,-6.113282782350891,7.396485450736035,-0.006511994587470465,0.0005889647744081248,0.002558970493628592,0.4604885059901716,0.20910340120780455,-0.2484328746669161,-1.9427537743626766,-6.181081838361424,7.489853410681155,-0.001409373090435017,0.002336029184469672,0.003016609875549639,0.3942658341295764,0.49328027077250924,-0.6084138444362598,0.2995704619130208,-5.971116838251564,7.823937699154683,-0.008562704215476398,0.0026107571676583013,-0.008408795248416001,-0.4497123322166775,0.5508643610507142,-0.38919562891870335
2.199381083977678,-6.11867466467241,7.32704859389121,-0.0029410918979251425,0.0012605135250244443,0.009918751589851896,-0.6885923085025251,0.15292088447435492,0.3752760130780338,0.28994129543403313,7.621367207152685,6.168710888403648,-0.008122096260199286,-0.0036634527908870947,-0.010754579675142973,0.20892922291191282,0.6567644486784279,0.19959871164800885,-1.6874609309326656,-6.103047183682274,7.403982455488244,-0.005369991320308517,0.004401411110449655,0.0020807869801163052,0.46638739805529117,0.21444166078354734,-0.24807032521365657,-1.925094123015456,-6.179474394779854,7.493548612492516,-0.00398712818948451,0.003877861081357837,0.006381207035844254,0.40143112817333004,0.5030370691868004,-0.6054050175935459,0.3103549454593575,-5.9771038312099645,7.7938752369309245,-0.007049680403719913,0.0016321755727373391,-0.009520575355784282,-0.4461886514641907,0.5564787479759532,-0.3826595053421285
2.170759581544422,-6.095859229662862,7.31997545563523,-0.002940262526453327,0.001168212012237332,0.011137479920071629,-0.6901889484227212,0.14734392146031108,0.36819441195221325,0.2847773560906679,7.603413553968464,6.17217629657568,-0.01235974386065494,-0.0028234345243825665,-0.010770954237463229,0.20954379000802711,0.6488477879463151,0.1933689020893628,-1.6914169738268001,-6.1165544877897124,7.407673067953533,-0.00469466305550564,0.0020888844831423994,0.0025464417156804025,0.4658099577046962,0.20879928909147222,-0.2519243373218335,-1.920366083860181,-6.2053137125993745,7.475959371423955,-0.005297030902571901,0.00379160375586472,0.004058532810722473,0.3995781126232591,0.49398380593407387,-0.611929969075973,0.3264591290259411,-5.97970129963496,7.847777518148281,-0.006072835163840951,0.0022815657761605943,-0.008106138456865239,-0.4472726962924448,0.5471974416029608,-0.3887376722385688
2.1708644538319763,-6.080533603154769,7.341883198214916,-0.0017194268958088265,0.0011889135957960223,0.00990816514858834,-0.696016630900625,0.1468729201404786,0.37047675914171957,0.2901949547628604,7.619816891419656,6.1962631130338455,-0.008572670428306195,-0.0033858399596469134,-0.009328319167744136,0.20175613439685072,0.6506704374564515,0.1943410804911559,-1.7005717484551808,-6.112529944717544,7.3729956134252115,-0.003955085909719456,0.003416475604783731,0.002423521175615402,0.4565538021776699,0.20886826630200095,-0.2503295310627763,-1.9163942168384396,-6.164861553393033,7.478095162356228,-0.0027880849939161995,0.0030472102224862584,0.005335849410044717,0.39231816004629894,0.49645918344298173,-0.6086354316625135,0.29312428283933306,-5.9660719865570755,7.809873351045702,-0.00516220899606514,0.0012342297604123846,-0.009300210168563748,-0.4551228330203951,0.550629495465781,-0.39180301538986284
2.177900920964263,-6.089401592275606,7.320780264100224,-0.0035155367607022465,0.0018583060387837792,0.010580061056079539,-0.6911241248215901,0.13975789301746527,0.37330253289511706,0.28949138333828606,7.619068607530776,6.145563475397348,-0.011302332928135199,-0.0008189539387484343,-0.010536602575204172,0.20943702579175413,0.6391768244166082,0.19962147258550286,-1.6902008069414898,-6.105443277984637,7.401382750014454,-0.006480857901852527,0.002407541699491068,0.0022662086888032406,0.4672721714401781,0.19832725288033787,-0.24746822639587357,-1.9191458348537882,-6.213572688226893,7.504159283816487,-0.004309278792968719,0.004467341975684362,0.0049864410110577444,0.40111537670840797,0.48789531723756074,-0.6068059700981293,0.31516924095342425,-5.983149775072972,7.821847508517287,-0.00772449186982595,0.001511249159322362,-0.008995709384558853,-0.4443374383946425,0.5386477471530445,-0.38706148851162814
2.1833037927260235,-6.112168134304791,7.327251762748858,-0.0011078646839202278,0.0010131658765766302,0.011730465453197628,-0.688642750672381,0.14437929183614587,0.37450597100749944,0.2873167461733669,7.602516255642057,6.172784601368788,-0.01024261947846384,-0.0017707056312628248,-0.010604205240696128,0.21021907799023665,0.6433017226267538,0.19857913765143115,-1.7074756116296184,-6.116624081999949,7.402977512867733,-0.005163927670533805,0.002245022311293321,0.0029589180176697186,0.46877661198734255,0.20539590634121857,-0.24778909691497294,-1.9400924237675987,-6.170376227192114,7.4815330592762175,-0.003224052674037004,0.003018455768032093,0.004561612777458059,0.40261847208315266,0.49351055198690547,-0.6056343502774653,0.30458207829589834,-5.988220153321892,7.8274434106139985,-0.005399033504367421,0.002404493349730876,-0.008631992177349215,-0.44382303023161673,0.5442626817402738,-0.38609876382463443
2.1757779419331778,-6.076579588350159,7.352092414766849,-0.0035155218064303636,0.0018583016247607255,0.010581060934515227,-0.6868431188403222,0.14050434678478613,0.36542785115160503,0.2957188598555313,7.62574501303736,6.1515540880320305,-0.009255390838983376,-0.00274953408700941,-0.009625055881501985,0.2130716981448424,0.6385340247227888,0.1925397529186902,-1.7099452627921385,-6.100645175352904,7.385104666242182,-0.005023676298429465,0.0027316281128985853,0.0038952322525646855,0.4698669451772001,0.1992338767703014,-0.254349011480136,-1.9176420904782185,-6.184631624609555,7.471087837226564,-0.0015479355250769967,0.0033386084243321266,0.0043304189634702965,0.405165586432616,0.4834699262341803,-0.6117449418187539,0.30519737207070174,-5.967330799936023,7.809847461117282,-0.0064482759996015784,0.0017039322181601768,-0.009438272703671896,-0.4437022296359364,0.5408355473505859,-0.3941536724579524
