# sampling frequency: 40
# units are seconds/meters/radians/a.u.
seg1_acc_x,seg1_acc_y,seg1_acc_z,seg1_gyr_x,seg1_gyr_y,seg1_gyr_z,seg1_mag_x,seg1_mag_y,seg1_mag_z,seg2_acc_x,seg2_acc_y,seg2_acc_z,seg2_gyr_x,seg2_gyr_y,seg2_gyr_z,seg2_mag_x,seg2_mag_y,seg2_mag_z,seg3_acc_x,seg3_acc_y,seg3_acc_z,seg3_gyr_x,seg3_gyr_y,seg3_gyr_z,seg3_mag_x,seg3_mag_y,seg3_mag_z,seg4_acc_x,seg4_acc_y,seg4_acc_z,seg4_gyr_x,seg4_gyr_y,seg4_gyr_z,seg4_mag_x,seg4_mag_y,seg4_mag_z,seg5_acc_x,seg5_acc_y,seg5_acc_z,seg5_gyr_x,seg5_gyr_y,seg5_gyr_z,seg5_mag_x,seg5_mag_y,seg5_mag_z
1.869976,-7.411567,6.21807,-0.010911,0.001861,-0.003143,-0.478271,0.543701,0.170166,0.101736,8.482632,4.908235,-0.012071,0.005303,0.007122,-0.076172,0.634277,0.192871,-1.782234,-7.006931,6.684741,-0.007328,-0.01125,-5.1e-05,0.394775,0.219971,-0.106201,-1.320952,-7.143116,6.56539,0.002988,-0.007959,0.005811,0.425781,0.244629,-0.410645,0.467824,-6.725142,7.191102,-0.024421,-0.016741,-0.011424,-0.351074,0.611816,-0.330566
1.831088,-7.325186,6.263207,0.015322,0.003244,0.003846,-0.472412,0.546143,0.176025,0.029744,8.435486,4.938598,-0.017543,0.008691,0.003228,-0.06958,0.63623,0.195312,-1.798889,-6.895763,6.727367,0.028097,0.025542,-0.002281,0.39917,0.221436,-0.105713,-1.271189,-7.216396,6.555416,-0.034939,-0.000768,0.018425,0.43042,0.243164,-0.40918,0.440934,-6.788225,7.159232,-0.017773,0.018034,0.007685,-0.346436,0.613281,-0.331055
1.786128,-7.348736,6.250013,-0.003501,0.004871,-0.003068,-0.469482,0.546387,0.168945,0.025536,8.468528,4.885418,0.013125,0.004127,0.003518,-0.073242,0.636475,0.19165,-1.939319,-6.887926,6.830167,-0.01404,0.011603,0.010882,0.399658,0.219238,-0.11084,-1.375276,-7.291655,6.629687,0.014986,0.002291,0.010406,0.432861,0.244873,-0.412842,0.294108,-6.73399,7.108278,0.051332,0.016914,-0.009222,-0.345459,0.611084,-0.334229
1.800353,-7.294429,6.267768,0.015137,0.001564,0.00228,-0.468994,0.534668,0.172363,0.011837,8.526771,4.903235,-0.013942,0.007988,0.006735,-0.070557,0.627197,0.195068,-1.858371,-6.920323,6.807312,-0.004622,-0.003846,-0.007444,0.4021,0.210449,-0.106934,-1.285401,-7.176688,6.637208,-0.002799,-0.013129,0.000435,0.433838,0.235107,-0.409912,0.336688,-6.556854,7.205252,0.02636,-0.028507,-0.01203,-0.344238,0.600342,-0.329834
1.860929,-7.322852,6.266139,-0.030539,-0.003049,-0.003223,-0.471924,0.54126,0.16748,0.058486,8.44458,4.931166,-0.027929,-0.003603,0.006169,-0.072998,0.630371,0.189209,-1.856428,-6.920977,6.765475,-0.015617,-0.002792,-0.001479,0.399658,0.214111,-0.112793,-1.278075,-7.241962,6.536425,-0.018321,0.015767,0.016844,0.429688,0.240234,-0.414307,0.472294,-6.665154,7.175921,-0.072657,-0.009588,0.004492,-0.346436,0.606934,-0.337158
1.82733,-7.444635,6.214027,0.006644,0.003782,0.000977,-0.47876,0.54541,0.175293,0.074836,8.436688,4.917669,-0.007127,0.011848,0.005709,-0.076416,0.633301,0.196533,-1.782644,-6.920588,6.687055,-0.002246,-0.005039,-0.001292,0.394775,0.218262,-0.104004,-1.329368,-7.163579,6.531699,0.013589,0.005373,-0.000171,0.423584,0.244873,-0.405029,0.375966,-6.830243,7.131013,-0.038684,0.023325,-0.001948,-0.351318,0.612061,-0.328369
1.832328,-7.272655,6.274466,0.020629,0.003518,0.000955,-0.4729,0.542725,0.17334,0.007768,8.456367,4.928712,0.001481,0.007186,0.001908,-0.072998,0.631836,0.197998,-1.834429,-6.896134,6.760044,0.001369,0.024183,0.00472,0.397949,0.217041,-0.106689,-1.289357,-7.177819,6.593029,-0.014478,0.002786,0.022137,0.42749,0.240723,-0.408203,0.331889,-6.776624,7.156547,0.058016,-0.010601,-0.004571,-0.3479,0.611328,-0.332031
1.77947,-7.325276,6.268553,-0.013268,0.001796,-0.001089,-0.4729,0.540039,0.175293,0.035191,8.530446,4.906299,0.002958,0.003686,0.005345,-0.070068,0.630371,0.193604,-1.904261,-6.9077,6.824932,0.005084,0.001786,0.001433,0.399658,0.215088,-0.106689,-1.354395,-7.241756,6.668578,-0.004039,0.006419,0.007911,0.42749,0.239014,-0.408936,0.404126,-6.574241,7.153667,0.051271,-0.003331,-0.01194,-0.345947,0.606445,-0.331055
1.829763,-7.344388,6.267356,-0.005917,0.00035,0.0016,-0.475098,0.550537,0.18335,0.04695,8.478577,4.947537,-0.037408,0.005425,0.007638,-0.076172,0.639404,0.204102,-1.8327,-6.8678,6.759711,-0.019471,0.000218,-0.00646,0.394531,0.224854,-0.094971,-1.294828,-7.262108,6.585853,-0.026447,-0.019318,0.012066,0.426025,0.252441,-0.397461,0.357369,-6.582597,7.166086,-0.063594,0.004036,0.003437,-0.350098,0.618164,-0.318848
1.832642,-7.419984,6.238715,-0.009253,-0.000375,-0.004022,-0.476807,0.543701,0.174072,0.055792,8.402974,4.923136,-0.013318,0.001976,0.005772,-0.075439,0.635742,0.194336,-1.853007,-7.01573,6.709992,-0.032345,-0.001417,0.00744,0.396973,0.218506,-0.105225,-1.260187,-7.278281,6.516759,0.019274,0.012622,0.001828,0.428467,0.244141,-0.409668,0.400932,-6.8614,7.148428,-0.077202,-0.012858,0.004247,-0.349365,0.610352,-0.329102
1.832915,-7.311551,6.281252,0.029424,0.007736,0.005115,-0.473389,0.539551,0.179932,0.053047,8.494231,4.91191,0.018601,0.011975,0.004024,-0.073242,0.63208,0.202148,-1.802205,-6.943337,6.713988,0.043734,0.00679,-0.010137,0.396729,0.214844,-0.098633,-1.336341,-7.051167,6.579042,0.019385,0.009912,0.005282,0.429443,0.239014,-0.403076,0.419356,-6.842863,7.171293,0.0574,0.0129,-0.0103,-0.348145,0.608154,-0.32251
1.826372,-7.336224,6.256914,-0.029815,-0.006966,-0.0047,-0.476074,0.541748,0.170166,0.037037,8.493645,4.953357,-0.028307,-0.001159,0.007477,-0.076172,0.632324,0.195801,-1.889766,-6.833132,6.803125,-0.01841,0.015447,0.008494,0.393066,0.218506,-0.106934,-1.30278,-7.257725,6.646277,-0.068004,-0.004073,0.029973,0.425293,0.240234,-0.411133,0.341246,-6.597165,7.137254,0.057809,-0.006295,-0.00626,-0.353516,0.61084,-0.332764
1.832582,-7.378035,6.243257,0.031966,0.011564,0.001371,-0.475342,0.546875,0.170898,0.061218,8.459832,4.838804,-0.002356,0.010827,0.004685,-0.073975,0.634766,0.192627,-1.862825,-6.957691,6.775044,-0.017734,-0.009637,-0.000594,0.395996,0.220215,-0.110352,-1.30322,-7.341487,6.598352,0.026633,0.004537,0.000296,0.428467,0.24585,-0.409912,0.399314,-6.583629,7.194572,-0.028663,-0.005418,-0.004153,-0.349609,0.611328,-0.33374
1.811636,-7.195378,6.317374,-0.015971,-0.009933,0.000797,-0.462158,0.542969,0.176025,0.014005,8.485401,4.977365,-0.020402,0.001143,0.008324,-0.061768,0.631348,0.196777,-1.817585,-6.904243,6.717116,0.004086,0.009507,-0.008042,0.408447,0.217773,-0.102295,-1.32619,-7.134162,6.577036,0.004422,0.003145,-0.000856,0.440186,0.241455,-0.40918,0.407664,-6.761367,7.145306,-0.068873,0.007993,0.002229,-0.335693,0.611572,-0.327393
1.848274,-7.549239,6.186156,-0.039494,0.00847,-0.004035,-0.470703,0.54126,0.174072,0.088565,8.447121,4.954053,-0.009485,-0.001092,0.001127,-0.070801,0.631348,0.195312,-1.863762,-6.949976,6.763184,-0.018985,0.000222,0.008961,0.399902,0.215088,-0.106934,-1.298547,-7.176966,6.564907,-0.012149,-0.006426,0.017374,0.431641,0.240723,-0.4104,0.347078,-6.824716,7.122517,0.003218,-0.004965,-0.002927,-0.345215,0.606934,-0.330811
1.810226,-7.293653,6.274013,0.082051,-0.004427,0.005633,-0.468506,0.544434,0.170166,0.023236,8.456312,4.881796,-0.008396,0.013197,0.009192,-0.067383,0.635986,0.192871,-1.802799,-6.938077,6.718823,0.01275,0.008363,-0.004036,0.403076,0.220703,-0.108887,-1.272409,-7.233826,6.58466,-0.025342,0.002646,0.012808,0.434326,0.245117,-0.408936,0.439579,-6.744072,7.152707,0.042367,-0.007317,-0.011212,-0.342773,0.61499,-0.334717
1.825069,-7.180642,6.333605,-0.04953,0.007535,-0.003978,-0.472412,0.534424,0.168213,0.045509,8.475536,4.895392,0.010832,-0.002914,-0.002654,-0.072021,0.624512,0.188965,-1.913985,-6.874954,6.819636,0.004352,0.011345,0.004395,0.398682,0.208252,-0.111816,-1.349473,-7.283559,6.632676,0.022295,0.01053,0.010079,0.430908,0.232422,-0.415771,0.35792,-6.605566,7.183846,0.034772,0.015738,0.000257,-0.3479,0.601074,-0.337646
1.798911,-7.519229,6.194639,-0.01256,-0.003432,0.00062,-0.478271,0.539307,0.180908,0.024269,8.543156,4.954717,-0.030933,0.012697,0.013695,-0.076904,0.628906,0.202148,-1.839059,-6.874895,6.750766,-0.019851,-0.007632,-0.005044,0.392578,0.213135,-0.0979,-1.3083,-7.089946,6.636673,-0.005922,-0.004044,-0.001168,0.426025,0.239746,-0.399902,0.337895,-6.626175,7.192191,-0.06134,-0.011699,-0.008606,-0.351807,0.606445,-0.322266
1.853808,-7.26958,6.288243,0.037281,0.004306,0.001374,-0.478027,0.5354,0.17334,0.067192,8.364553,4.907494,-0.031248,-0.002142,0.002263,-0.075439,0.626953,0.195557,-1.818406,-7.000188,6.733134,-0.031266,0.008533,0.007014,0.395996,0.20874,-0.104492,-1.307939,-7.288606,6.529851,-0.041348,6.8e-05,0.026574,0.425293,0.233398,-0.407471,0.444797,-6.850195,7.096409,-0.05004,-0.008792,0.012286,-0.352295,0.604492,-0.326904
1.821304,-7.30821,6.243958,-0.025112,-0.000105,-0.001581,-0.464355,0.534912,0.171387,0.061569,8.48493,4.895434,0.035764,0.011482,0.003209,-0.062744,0.627441,0.192627,-1.837406,-6.957239,6.720129,0.035226,0.003269,-0.002517,0.406982,0.212646,-0.110596,-1.318236,-7.21955,6.564576,0.046857,0.008342,-0.009147,0.438965,0.234131,-0.412354,0.363997,-6.784716,7.153122,0.058853,0.017024,-0.020336,-0.338379,0.602539,-0.334717
1.820191,-7.39235,6.279251,0.00691,0.001626,0.002895,-0.468506,0.543457,0.167969,0.01839,8.53052,4.990771,-0.031876,0.003877,0.003238,-0.067627,0.632324,0.189697,-1.853029,-6.816478,6.796023,0.002198,0.015132,-0.001436,0.401123,0.21875,-0.111084,-1.304304,-7.138147,6.648277,-0.035856,-0.003168,0.024149,0.432861,0.244873,-0.415283,0.374921,-6.59994,7.178171,0.029255,-0.011967,0.000594,-0.343994,0.611084,-0.335938
1.81189,-7.318119,6.247874,0.007025,0.000413,-0.003124,-0.469971,0.544678,0.174561,0.054277,8.451781,4.892149,-0.015256,0.007242,0.008206,-0.070068,0.636719,0.198242,-1.906777,-6.949967,6.775032,-0.044566,-0.004091,0.008882,0.401123,0.218018,-0.10376,-1.32814,-7.312672,6.601626,-0.0127,0.004313,0.007921,0.432373,0.245117,-0.40625,0.388817,-6.653144,7.12928,-0.042261,-0.000636,-0.001789,-0.343994,0.614746,-0.327393
1.818152,-7.29333,6.27242,-0.005499,0.003494,0.001686,-0.47168,0.542969,0.177246,0.026032,8.44745,4.8971,-0.010804,0.004451,0.006545,-0.070801,0.635986,0.200928,-1.774719,-6.9786,6.700651,0.016636,-0.004336,-0.011739,0.402344,0.217285,-0.10083,-1.287111,-7.216134,6.540914,0.007773,-0.002829,0.006026,0.435547,0.241943,-0.400146,0.386654,-6.766347,7.142586,-0.033065,0.004854,-0.00104,-0.343262,0.611084,-0.320312
1.83885,-7.410298,6.235483,-0.022986,-0.001498,-0.002161,-0.47583,0.537842,0.170654,0.075059,8.487666,4.984066,0.003628,0.002528,0.001782,-0.075928,0.628418,0.191406,-1.851904,-6.87046,6.787235,0.001984,0.017993,0.006296,0.395508,0.210693,-0.108887,-1.324627,-7.167786,6.571778,0.010352,0.016578,0.006084,0.42749,0.239258,-0.411865,0.374456,-6.786101,7.157592,0.015899,-0.008195,-0.000407,-0.348877,0.604492,-0.331787
1.81979,-7.35896,6.242727,0.041724,0.007877,0.002223,-0.476562,0.539062,0.171631,0.057294,8.464747,4.893879,-0.0253,0.010662,0.008507,-0.077148,0.628174,0.197266,-1.852833,-6.918882,6.73209,-0.014469,-0.003822,0.001512,0.394043,0.214844,-0.105957,-1.330965,-7.18803,6.615921,-0.027401,-0.0097,0.019496,0.424805,0.237061,-0.407715,0.418471,-6.697056,7.137366,0.025392,0.002812,-0.013127,-0.350586,0.605713,-0.327393
1.799795,-7.204375,6.323031,-0.016478,-0.003788,0.000717,-0.46167,0.539062,0.167969,0.008294,8.442962,4.913629,0.003613,0.001476,0.000775,-0.063232,0.62915,0.19165,-1.869037,-6.920481,6.794041,-0.002951,0.015479,-0.000956,0.40918,0.213867,-0.110107,-1.308851,-7.339197,6.58035,-0.022231,0.006438,0.012274,0.439697,0.240723,-0.410889,0.33789,-6.642751,7.147048,-0.001915,0.005936,0.005526,-0.336914,0.603271,-0.332031
1.846361,-7.500335,6.230575,-0.027627,0.004149,-0.003847,-0.475098,0.546631,0.172119,0.082738,8.519458,4.94501,-0.010914,0.003292,0.008208,-0.076172,0.639648,0.196777,-1.862048,-6.940588,6.749842,-0.006899,-0.009064,-0.001446,0.396484,0.221924,-0.106445,-1.312985,-7.21904,6.616856,0.037086,0.000165,-0.001761,0.425293,0.245117,-0.410889,0.373223,-6.724254,7.164546,-0.03355,-0.014555,-0.010608,-0.350586,0.616211,-0.328369
1.816607,-7.293945,6.272154,0.048814,0.001055,0.005893,-0.469482,0.538086,0.175049,0.021006,8.421754,4.918222,-0.025395,0.012279,0.005565,-0.070068,0.628418,0.194336,-1.79804,-6.900495,6.737725,0.002274,0.009115,-0.004679,0.401123,0.212402,-0.106934,-1.290284,-7.124753,6.584325,-0.018148,0.001423,0.011062,0.432861,0.237061,-0.408691,0.431591,-6.790854,7.135068,-0.017321,0.0021,0.00672,-0.344971,0.606201,-0.328857
1.839516,-7.279981,6.28513,-0.037629,0.001689,-0.003649,-0.478516,0.544434,0.175781,0.065381,8.447855,4.929298,0.003673,-0.002814,0.003574,-0.075195,0.634033,0.198486,-1.891396,-6.937924,6.755079,-0.010422,0.007951,0.006807,0.394287,0.217285,-0.101074,-1.328802,-7.235095,6.593362,-0.016481,0.003045,0.019265,0.424805,0.24292,-0.404053,0.331181,-6.737917,7.105695,0.042552,0.013392,-0.011162,-0.353516,0.610596,-0.324463
1.833678,-7.45164,6.225353,0.014636,0.002258,0.001849,-0.473145,0.541992,0.177979,0.052676,8.511883,4.924171,-0.003519,0.013904,0.004648,-0.072754,0.63208,0.199219,-1.825378,-6.919262,6.770172,0.00159,0.001695,-0.00235,0.398926,0.214355,-0.101807,-1.29422,-7.252023,6.608471,-0.005278,-0.000143,0.005346,0.430664,0.240967,-0.407715,0.367878,-6.642235,7.191193,0.005339,-0.018511,-0.003641,-0.348145,0.608154,-0.325195
1.816989,-7.262106,6.2778,0.013518,-0.001104,-0.000314,-0.474609,0.545654,0.178467,0.0313,8.475828,4.946859,-0.028233,4.1e-05,0.005799,-0.074707,0.635742,0.199219,-1.893017,-6.919656,6.74391,-0.014629,0.009645,0.003305,0.396973,0.219482,-0.102295,-1.314759,-7.263545,6.603645,-0.001531,0.009354,0.011124,0.430176,0.244141,-0.403809,0.433697,-6.729769,7.121216,-0.042508,0.00429,0.005245,-0.348145,0.610352,-0.325439
1.831117,-7.375411,6.254635,-0.019586,0.000315,-0.002769,-0.476562,0.538086,0.177246,0.06981,8.435833,4.880408,-0.001592,0.007498,0.005955,-0.075195,0.63208,0.199707,-1.823228,-6.920132,6.737596,0.009063,-0.010941,-0.005461,0.393311,0.212402,-0.103271,-1.3269,-7.158641,6.576743,0.014157,-0.003191,0.001554,0.425293,0.235596,-0.405273,0.320167,-6.757914,7.120425,0.011249,0.012488,-0.008241,-0.352539,0.605713,-0.32666
1.833986,-7.334364,6.265093,0.00736,0.003235,0.003125,-0.467285,0.539062,0.180908,0.023594,8.499025,4.956984,-0.007011,0.006151,0.001983,-0.065186,0.631104,0.200439,-1.806412,-6.883413,6.74623,-0.007629,0.019222,0.001555,0.405273,0.216309,-0.100098,-1.284548,-7.169899,6.572357,-0.030067,-0.002086,0.015656,0.436279,0.240479,-0.401611,0.388227,-6.687243,7.179306,0.002619,-0.024222,-0.004917,-0.342041,0.608154,-0.320557
1.809585,-7.387736,6.251021,-0.007817,0.000608,-0.002991,-0.476562,0.539795,0.178467,0.046822,8.449786,4.94061,-0.019419,0.002264,0.008256,-0.076172,0.631836,0.200195,-1.920666,-6.979595,6.750988,-0.03554,-0.000389,0.009386,0.396484,0.213135,-0.102539,-1.338251,-7.322769,6.574069,-0.014377,0.007853,0.017199,0.424805,0.239746,-0.4021,0.453455,-6.744124,7.0959,-0.017189,0.013056,0.001409,-0.350586,0.610352,-0.323486
1.816117,-7.311733,6.277704,0.027854,0.002769,0.002734,-0.475586,0.542969,0.174316,0.019785,8.447109,4.879185,0.00132,0.009732,0.002677,-0.074707,0.635742,0.195557,-1.820959,-6.953481,6.730269,0.03901,0.002805,-0.010979,0.398682,0.21875,-0.104004,-1.304924,-7.235339,6.599364,0.022037,-0.001425,-0.001039,0.428955,0.241455,-0.408936,0.297118,-6.726821,7.135949,0.017415,0.012815,-0.006473,-0.346436,0.61084,-0.328369
1.812827,-7.287269,6.304295,-0.03037,-0.000601,-0.001743,-0.47583,0.543701,0.181885,0.044675,8.503112,4.928014,-0.007171,0.000111,0.006229,-0.074951,0.634033,0.200684,-1.883551,-6.814964,6.776958,-0.003401,0.009757,0.002389,0.396484,0.213867,-0.099854,-1.304707,-7.161899,6.606447,-0.00083,0.011776,0.01034,0.42749,0.239746,-0.402832,0.398869,-6.679806,7.136188,-0.000554,-0.031786,-0.003077,-0.350342,0.609619,-0.321777
1.831371,-7.422556,6.220723,0.00641,0.004405,-0.000796,-0.47168,0.54248,0.172363,0.070765,8.475585,4.885266,-0.027382,0.005332,0.005611,-0.071045,0.634521,0.195068,-1.821324,-6.934251,6.720453,-0.040637,-0.008163,0.003879,0.397461,0.217285,-0.103027,-1.337278,-7.190221,6.577973,-0.025279,-0.007751,0.014013,0.430176,0.240479,-0.406006,0.424771,-6.722166,7.119594,-0.017222,0.016399,0.000157,-0.345947,0.611572,-0.328369
1.813884,-7.266119,6.310361,0.019102,-0.000387,0.002403,-0.471436,0.537842,0.17627,0.031037,8.412296,4.933371,-0.006909,0.00559,0.005941,-0.071533,0.629883,0.198975,-1.837553,-7.004961,6.735592,0.003226,0.018903,0.001439,0.399902,0.212158,-0.10498,-1.265947,-7.300318,6.54123,-0.012289,-1e-06,0.013477,0.431885,0.23877,-0.403564,0.342498,-6.769028,7.157398,-0.014937,0.007158,-0.001476,-0.345947,0.605957,-0.320557
1.826678,-7.377023,6.246182,-0.022509,0.004021,-0.001436,-0.480957,0.534668,0.17749,0.050317,8.512243,4.917343,0.015056,0.006256,0.001349,-0.078613,0.628174,0.198975,-1.908142,-6.915305,6.779673,0.023941,-0.001588,-0.002985,0.390869,0.208008,-0.100098,-1.351382,-7.223165,6.611598,0.026259,0.014914,0.004657,0.423828,0.23584,-0.400635,0.374467,-6.742029,7.118041,0.024275,-0.014287,-0.00454,-0.354492,0.602783,-0.324463
1.817614,-7.336663,6.25109,0.024377,-0.00066,0.00263,-0.481201,0.544434,0.171143,0.031556,8.49915,4.91142,-0.034465,0.005562,0.009167,-0.077393,0.637939,0.193604,-1.818531,-6.827914,6.766574,-0.010085,0.004717,-0.003434,0.391357,0.21875,-0.109375,-1.320221,-7.159998,6.620136,-0.020909,-0.009891,0.010645,0.423096,0.242432,-0.409912,0.397851,-6.659281,7.156114,0.011934,0.006694,-0.00844,-0.355469,0.615479,-0.331299
1.833651,-7.321563,6.27492,-0.023101,0.003875,-0.002659,-0.463379,0.544434,0.175537,0.062535,8.417172,4.914329,-0.013436,0.003038,0.0047,-0.063721,0.635254,0.195312,-1.886194,-6.979909,6.736062,-0.045825,0.003836,0.00832,0.405762,0.218994,-0.104248,-1.285256,-7.280952,6.540271,-0.020912,0.004427,0.015849,0.438232,0.243408,-0.408203,0.365723,-6.710598,7.132661,-0.038346,-0.006951,0.003641,-0.336426,0.611816,-0.32666
1.80291,-7.400337,6.235607,0.012343,0.001205,0.000933,-0.474609,0.54541,0.171387,0.022532,8.468594,4.922655,0.00311,0.008549,0.004873,-0.073242,0.63623,0.193115,-1.820053,-7.019486,6.696002,0.02389,0.001089,-0.005058,0.398926,0.219238,-0.108887,-1.335694,-7.213865,6.570685,0.017828,0.005918,0.00425,0.428223,0.24292,-0.41333,0.423596,-6.815596,7.118782,-0.014391,0.002283,-0.00398,-0.348633,0.611328,-0.330811
1.810825,-7.28657,6.305677,0.006118,0.000566,4e-05,-0.476074,0.545654,0.166504,0.04647,8.503833,4.932751,-0.003648,0.003196,0.004066,-0.077148,0.637939,0.187744,-1.876978,-6.833436,6.785519,0.020065,0.016079,-0.001944,0.39502,0.221436,-0.113525,-1.314719,-7.174608,6.646015,-0.002487,0.001785,0.010589,0.423828,0.245117,-0.41748,0.35346,-6.731416,7.146701,0.037979,0.006954,-0.004385,-0.351562,0.614502,-0.335938
1.839525,-7.38051,6.223348,-0.014142,0.002495,-0.001052,-0.47583,0.543457,0.179688,0.046303,8.481123,4.897446,-0.024498,0.004802,0.006935,-0.075928,0.634277,0.200928,-1.857848,-6.896667,6.774892,-0.037672,-0.008798,0.003526,0.395996,0.218506,-0.100098,-1.302571,-7.239534,6.588738,-0.026815,-0.006353,0.015454,0.426025,0.243408,-0.403564,0.396823,-6.649894,7.17527,-0.002413,-0.019312,-0.007653,-0.348145,0.609375,-0.322998
1.809757,-7.336751,6.304997,0.017303,0.003314,0.002287,-0.477051,0.544678,0.168213,0.013202,8.427294,4.915137,-0.009268,0.009075,0.00568,-0.074707,0.636719,0.191406,-1.843394,-6.999496,6.720007,-0.009178,0.013293,-0.000743,0.395508,0.217529,-0.111084,-1.303284,-7.274269,6.530922,0.003163,0.00823,0.00583,0.429199,0.241211,-0.413574,0.430617,-6.73453,7.130422,-0.030874,0.014021,0.005822,-0.350586,0.611328,-0.332275
1.816066,-7.319271,6.289872,-0.015694,-0.003248,-0.003373,-0.473877,0.540039,0.176514,0.052086,8.486825,4.936946,0.003122,0.001679,0.00276,-0.069092,0.63208,0.200195,-1.877419,-6.92607,6.753403,0.019136,-0.000462,1.6e-05,0.401611,0.214844,-0.101318,-1.345001,-7.159424,6.587692,0.017616,0.007273,0.005306,0.43335,0.23877,-0.406738,0.316621,-6.762817,7.129637,-0.000433,0.004729,-0.00509,-0.344482,0.610107,-0.325684
1.831346,-7.401946,6.270742,0.01011,0.00253,0.000657,-0.476807,0.541992,0.179199,0.054707,8.471685,4.906781,-0.022875,0.007332,0.00612,-0.072998,0.633789,0.199219,-1.782878,-6.850213,6.768696,-0.003773,0.003883,-0.004879,0.397705,0.21875,-0.098877,-1.303965,-7.201631,6.622294,-0.032888,-0.007412,0.018271,0.426025,0.240967,-0.401855,0.419598,-6.744793,7.144643,0.011562,-0.027396,-0.006139,-0.348877,0.610596,-0.322266
1.810176,-7.302886,6.268793,0.005818,0.002179,0.001238,-0.473877,0.545898,0.169434,0.014384,8.460252,4.925773,-0.003524,0.005411,0.003422,-0.072021,0.63623,0.192139,-1.89698,-6.935212,6.765192,-0.027006,0.012116,0.007869,0.39917,0.221191,-0.108154,-1.310873,-7.29731,6.564483,-0.00444,0.010384,0.009887,0.43042,0.24585,-0.414551,0.416173,-6.704174,7.151148,-0.000574,0.020674,-0.001446,-0.3479,0.61499,-0.331543
1.803706,-7.387938,6.244643,-0.018977,-0.000308,-0.001484,-0.474854,0.538086,0.177246,0.035523,8.461597,4.945851,-0.015266,0.000973,0.004232,-0.074463,0.626953,0.198486,-1.851102,-6.982486,6.72861,-0.002264,-0.007135,-0.004025,0.39502,0.212158,-0.104736,-1.357331,-7.212826,6.5821,0.007465,-0.002473,0.004062,0.427734,0.235596,-0.406494,0.295592,-6.713997,7.096225,-0.011895,0.005108,-0.002985,-0.349854,0.60498,-0.324707
1.839265,-7.373081,6.263219,0.017203,-0.00013,-0.002182,-0.469482,0.54541,0.175781,0.070264,8.445526,4.900762,-0.007116,0.005466,0.006538,-0.069092,0.63501,0.199463,-1.823877,-6.907623,6.758977,0.014963,0.010759,-0.001405,0.401123,0.216797,-0.102539,-1.29061,-7.22802,6.599765,-0.008438,-0.003039,0.013239,0.43335,0.242188,-0.406006,0.422902,-6.765486,7.157468,-0.008706,-0.030604,-0.004128,-0.344971,0.613525,-0.324463
1.813327,-7.269762,6.282992,0.006168,0.006317,0.004299,-0.464844,0.538086,0.176025,0.03585,8.500733,4.901806,-0.000394,0.008244,0.002443,-0.062988,0.630127,0.19751,-1.843683,-6.873671,6.746433,-0.001751,0.001899,-0.001235,0.408691,0.214355,-0.102539,-1.320784,-7.192659,6.580633,0.002051,0.011185,0.004676,0.439941,0.239014,-0.406494,0.441347,-6.758459,7.119803,0.005629,0.017054,-0.005238,-0.338379,0.607178,-0.325928
1.800218,-7.372907,6.27336,-0.02812,-0.002694,-0.001405,-0.480225,0.536621,0.170898,0.026105,8.456705,4.943034,-0.028522,0.003678,0.005459,-0.077393,0.627686,0.192627,-1.847297,-6.926066,6.760467,-0.030951,0.007741,0.002707,0.391357,0.208008,-0.109863,-1.344519,-7.25074,6.594497,-0.024612,-0.004864,0.016902,0.427002,0.236328,-0.412842,0.292174,-6.703726,7.103238,0.016205,0.016848,0.000641,-0.351807,0.605225,-0.330811
1.824821,-7.405894,6.252292,0.022296,0.005967,0.000529,-0.476807,0.543457,0.164551,0.060608,8.44035,4.898482,0.001085,0.006345,0.005008,-0.074463,0.634766,0.186768,-1.858206,-6.995942,6.755093,0.003258,0.002819,0.000114,0.394531,0.215576,-0.112061,-1.290424,-7.253972,6.581968,0.007949,0.002536,0.004192,0.427002,0.243408,-0.416992,0.372292,-6.693428,7.162225,-0.017877,-0.034806,-0.011787,-0.349854,0.61377,-0.337891
1.823396,-7.258734,6.288067,0.002433,-0.000407,0.001913,-0.473633,0.544922,0.171143,0.031262,8.493339,4.915443,-0.006629,0.004677,0.006432,-0.069824,0.636475,0.190918,-1.816073,-6.871195,6.736152,0.017044,0.000661,-0.003725,0.399414,0.21875,-0.108643,-1.327085,-7.214121,6.581117,-0.010392,0.006796,0.012395,0.431641,0.244141,-0.410156,0.474202,-6.801789,7.094943,-0.026043,0.011441,0.005058,-0.345215,0.612061,-0.329346
1.823813,-7.405876,6.252607,-0.025943,0.003741,-0.000979,-0.476807,0.54541,0.174805,0.055647,8.501382,4.942082,-0.016539,0.003474,0.003965,-0.077881,0.637939,0.196533,-1.862633,-6.885668,6.765107,-0.01884,0.009897,0.004458,0.395752,0.220215,-0.104004,-1.341635,-7.222371,6.588685,0.006539,-0.00046,0.005541,0.426514,0.245117,-0.406982,0.28869,-6.754961,7.123555,0.02825,0.024025,-0.008559,-0.35083,0.61499,-0.326416
1.811388,-7.347833,6.245084,0.031695,0.001512,0.001938,-0.469971,0.541992,0.17334,0.025658,8.439669,4.904126,-0.016968,0.009042,0.006259,-0.066162,0.631836,0.194092,-1.849644,-6.958516,6.733474,-0.015704,0.000231,-0.000341,0.402588,0.213867,-0.105957,-1.294222,-7.183047,6.585662,-0.017844,-0.000142,0.013157,0.433838,0.240479,-0.408936,0.373457,-6.67563,7.146428,0.000761,-0.038615,-0.005941,-0.343262,0.610107,-0.328125
1.835871,-7.295789,6.301779,-0.018993,0.00046,-0.001557,-0.470215,0.541992,0.175537,0.039513,8.472831,4.906668,0.003792,-0.00062,0.002923,-0.070801,0.630127,0.199219,-1.841639,-6.962039,6.770561,0.007413,0.008228,-0.001126,0.403809,0.216309,-0.101318,-1.323563,-7.299051,6.567743,-0.012012,0.005166,0.014797,0.434082,0.23877,-0.403809,0.464273,-6.741621,7.094556,-0.020277,0.015115,0.004827,-0.343994,0.610107,-0.326172
1.825895,-7.420949,6.224249,0.000235,0.001461,-0.001478,-0.470947,0.539795,0.172852,0.04766,8.502732,4.91569,-0.011574,0.00885,0.006344,-0.071289,0.631836,0.195068,-1.845342,-6.870482,6.749016,0.008854,0.000777,-0.003048,0.398193,0.213623,-0.107666,-1.314282,-7.199766,6.602835,0.020921,-0.000994,-0.001899,0.430176,0.239014,-0.40918,0.314344,-6.756004,7.140196,-0.003957,0.014844,-0.009923,-0.348145,0.606445,-0.327148
1.80945,-7.301409,6.278588,0.014743,0.002336,0.00271,-0.475098,0.538086,0.173584,0.012779,8.432379,4.937354,-0.02462,0.004821,0.004853,-0.073242,0.631592,0.19458,-1.840673,-6.901945,6.744216,-0.02321,0.006329,0.002696,0.396973,0.215332,-0.102539,-1.318978,-7.185514,6.577098,-0.02183,0.007717,0.017179,0.427246,0.239258,-0.406494,0.389353,-6.750193,7.1095,0.003559,-0.028482,0.000119,-0.349609,0.607178,-0.326904
1.830669,-7.366808,6.244228,-0.020642,-0.000672,-0.0043,-0.482666,0.542725,0.17627,0.052348,8.45048,4.913068,0.007256,0.00444,0.005472,-0.080811,0.633789,0.199463,-1.863329,-6.970249,6.731048,-0.010282,0.002789,0.003634,0.389404,0.2146,-0.102295,-1.337411,-7.260525,6.606474,-0.012178,-0.003734,0.013295,0.421631,0.241211,-0.405762,0.40799,-6.709656,7.120608,0.011852,0.01536,-0.009101,-0.357178,0.61084,-0.323242
1.823294,-7.364787,6.256242,0.022885,0.004033,0.00501,-0.469971,0.544189,0.178955,0.031198,8.503712,4.909845,-0.011879,0.008719,0.004852,-0.070068,0.632812,0.199219,-1.827646,-6.916891,6.76775,0.020627,0.0036,-0.008494,0.400635,0.2146,-0.102295,-1.283147,-7.234606,6.58817,0.004412,-0.001574,0.007173,0.432373,0.242676,-0.406738,0.345823,-6.714774,7.183917,-0.020158,-0.002759,0.001235,-0.343506,0.611328,-0.322754
1.815629,-7.302834,6.267618,-0.012826,-0.001279,-0.001306,-0.476318,0.533936,0.180176,0.031258,8.439677,4.922199,-0.022485,0.000163,0.004685,-0.072998,0.625488,0.201904,-1.884137,-6.889055,6.772399,-0.017254,0.007161,0.00477,0.395264,0.210693,-0.102295,-1.350623,-7.204104,6.58939,-0.002505,0.011627,0.009458,0.427734,0.236328,-0.404541,0.393507,-6.773382,7.073638,-0.007865,-0.006542,-0.001916,-0.348145,0.605957,-0.321289
1.829127,-7.406785,6.242511,0.00362,0.004048,-0.002153,-0.46875,0.551025,0.171875,0.04593,8.467907,4.883357,0.000903,0.007844,0.004751,-0.067871,0.641602,0.193604,-1.831299,-6.956951,6.732811,-0.012722,-0.004285,-0.002004,0.399658,0.22583,-0.108887,-1.312395,-7.213247,6.594218,-0.009724,-0.010821,0.010788,0.432617,0.250488,-0.412354,0.371378,-6.728304,7.152184,0.019811,0.004074,-0.008875,-0.343262,0.619629,-0.329346
1.822455,-7.297114,6.295904,0.008266,0.001004,0.003224,-0.477051,0.543457,0.174805,0.037012,8.497418,4.932681,-0.008239,0.004364,0.004521,-0.07959,0.635498,0.195068,-1.834973,-6.928273,6.744693,0.00309,0.013291,-0.000103,0.39209,0.216309,-0.106934,-1.294995,-7.258274,6.577311,-0.013411,0.007296,0.01182,0.426758,0.242676,-0.407471,0.386808,-6.718951,7.149977,-0.018743,-0.012433,0.000768,-0.352539,0.613525,-0.325684
1.819521,-7.365968,6.248102,-0.012049,0.002634,-0.001774,-0.46875,0.539062,0.167725,0.052753,8.45402,4.913088,-0.018527,0.005018,0.005257,-0.068848,0.629639,0.191406,-1.873717,-6.923017,6.753459,-0.000931,-0.000806,-3.4e-05,0.400879,0.212402,-0.110107,-1.34797,-7.233977,6.595527,0.010344,0.007964,0.007725,0.433594,0.239746,-0.413574,0.384703,-6.762864,7.087993,-0.000259,0.012918,-0.004223,-0.342773,0.607178,-0.331787
1.834326,-7.32191,6.26682,0.015542,2.8e-05,0.001953,-0.4729,0.540283,0.174561,0.023903,8.44995,4.917624,-0.005413,0.006482,0.003924,-0.072266,0.631592,0.193359,-1.84013,-6.888783,6.747744,-0.005467,0.0061,-0.002013,0.398682,0.217529,-0.105957,-1.309437,-7.184971,6.588403,-0.007692,-0.005761,0.00557,0.430664,0.242188,-0.40918,0.332585,-6.718081,7.155761,0.004764,-0.006974,-0.005564,-0.348633,0.611084,-0.332275
1.835328,-7.350675,6.272226,-0.014984,0.001656,-0.000872,-0.475342,0.545654,0.176758,0.05688,8.495007,4.928166,-0.00547,0.002175,0.004618,-0.073975,0.634277,0.19873,-1.869787,-6.956002,6.746846,-0.020604,0.004368,0.003838,0.395264,0.218994,-0.102539,-1.314225,-7.248602,6.578299,-0.016978,0.00793,0.017991,0.427002,0.243164,-0.407471,0.432494,-6.743898,7.108688,-0.013222,-0.013566,0.000316,-0.348389,0.611328,-0.323486
1.804487,-7.36931,6.232482,0.014527,0.002189,0.001005,-0.468506,0.537842,0.17041,0.03782,8.471436,4.903268,-0.017668,0.009719,0.006967,-0.068115,0.630127,0.193115,-1.829508,-6.942391,6.738091,0.0141,0.001849,-0.007383,0.401611,0.213379,-0.107422,-1.335117,-7.231377,6.566741,0.009584,-0.000775,0.002361,0.432373,0.23877,-0.412354,0.383073,-6.762736,7.108176,0.003364,0.019035,-0.006012,-0.343994,0.608643,-0.329102
1.819055,-7.308196,6.28918,-0.009317,0.000613,-0.001058,-0.478027,0.54834,0.179688,0.013623,8.438993,4.938103,-0.009162,0.002808,0.003778,-0.078613,0.636963,0.199951,-1.866818,-6.878505,6.761238,-0.008971,0.011447,0.002232,0.393555,0.219727,-0.101562,-1.293942,-7.196871,6.584758,-0.011585,0.002454,0.012687,0.424805,0.247559,-0.405029,0.330955,-6.730647,7.127399,-0.002676,-0.011022,-0.001869,-0.352539,0.61499,-0.323242
1.835728,-7.386944,6.237951,0.002151,0.002519,-7.4e-05,-0.471436,0.547607,0.181396,0.073568,8.501281,4.88403,0.001478,0.006007,0.005718,-0.069092,0.638672,0.20166,-1.854816,-6.960101,6.730086,-0.01503,-0.004202,0.000622,0.400879,0.220459,-0.10083,-1.33398,-7.241278,6.611762,-0.002694,0.004375,0.011504,0.432617,0.245605,-0.399902,0.409371,-6.73319,7.124516,0.002263,-0.007849,-0.00473,-0.344482,0.615723,-0.318848
1.822493,-7.292421,6.265045,0.008458,-0.000683,0.001174,-0.468018,0.539795,0.172852,0.020517,8.466407,4.920574,-0.025837,0.004669,0.006514,-0.068115,0.629395,0.193604,-1.833338,-6.905635,6.748374,0.005896,0.011826,-0.00133,0.401367,0.214111,-0.109131,-1.298688,-7.217516,6.586456,-0.011456,-0.001723,0.008822,0.435791,0.23877,-0.410889,0.389602,-6.742283,7.134046,-0.007679,0.010791,-0.000589,-0.341553,0.607422,-0.328125
1.82383,-7.388913,6.23088,-0.021784,0.000101,-0.002921,-0.477783,0.541992,0.171875,0.054482,8.428397,4.932798,-0.006667,0.002582,0.00441,-0.076416,0.630615,0.193604,-1.890956,-6.928996,6.778521,-0.01315,-0.000494,0.00341,0.394775,0.210938,-0.106934,-1.321995,-7.23391,6.56022,0.001647,0.006938,0.011335,0.42749,0.238525,-0.412354,0.357787,-6.7633,7.11003,-0.006417,-0.005146,-0.001993,-0.35083,0.608154,-0.327393
1.812702,-7.342593,6.266558,0.029211,0.002147,0.003077,-0.475342,0.53833,0.163818,0.050636,8.492443,4.908735,0.00132,0.00914,0.004603,-0.073242,0.630127,0.186035,-1.813375,-6.928555,6.720302,0.005389,0.002796,-0.004123,0.395264,0.215576,-0.114258,-1.325102,-7.172121,6.609307,-0.001437,-0.002572,0.005033,0.426758,0.239258,-0.416992,0.397085,-6.743958,7.125221,0.007662,-0.006129,-0.007551,-0.349121,0.60791,-0.333252
1.824506,-7.2904,6.274681,-0.020726,0.001086,-0.001401,-0.471191,0.534912,0.175537,0.026466,8.486443,4.92851,-0.017376,0.001945,0.005304,-0.069092,0.62915,0.196289,-1.879749,-6.912241,6.775536,-0.012158,0.009489,0.002217,0.399902,0.209717,-0.104004,-1.319939,-7.251216,6.574773,-0.019684,0.004547,0.01604,0.43042,0.23877,-0.407715,0.384723,-6.733298,7.126779,-0.003677,0.002495,-0.000773,-0.343994,0.605957,-0.326416
1.822201,-7.429198,6.228828,0.00396,0.003502,0.000478,-0.475342,0.543701,0.172119,0.059572,8.453506,4.888482,-0.015909,0.007021,0.005253,-0.074707,0.634277,0.19043,-1.830778,-6.938976,6.741009,-0.003026,-0.004112,-0.001127,0.393311,0.216064,-0.109619,-1.3224,-7.232762,6.569248,0.008455,0.001984,0.004969,0.427246,0.242188,-0.412598,0.367681,-6.734767,7.100522,-0.00419,0.001457,-0.005675,-0.349609,0.613281,-0.33252
1.818182,-7.267514,6.292409,0.013309,0.001353,0.001678,-0.47876,0.543945,0.170898,0.025658,8.46692,4.93777,-0.001522,0.005975,0.004185,-0.077393,0.632324,0.189941,-1.837717,-6.918568,6.743791,0.001835,0.010819,-0.001959,0.391846,0.216797,-0.108887,-1.309095,-7.200221,6.578097,-0.006323,0.002387,0.011106,0.423096,0.240967,-0.409912,0.373488,-6.752934,7.141914,-0.003457,-0.005727,-0.002792,-0.355469,0.610596,-0.328857
1.829423,-7.383018,6.25974,-0.02355,0.002265,-0.002903,-0.468994,0.549072,0.175293,0.058452,8.5016,4.929201,-0.009067,0.002816,0.005863,-0.068115,0.638184,0.19458,-1.860408,-6.936228,6.746184,-0.013046,-0.001418,0.004902,0.401123,0.219971,-0.10498,-1.323938,-7.237626,6.59146,-0.006323,0.002387,0.011106,0.434326,0.246582,-0.407471,0.398786,-6.745824,7.110199,-0.000255,-0.001498,-0.00337,-0.342041,0.617676,-0.32666
1.820439,-7.342645,6.264612,0.025309,0.001024,0.003244,-0.477051,0.537354,0.166504,0.039223,8.451985,4.918624,-0.01928,0.009423,0.005058,-0.078125,0.630859,0.188721,-1.817658,-6.93387,6.755795,0.003536,0.008609,-0.004829,0.396729,0.212646,-0.11499,-1.306954,-7.224895,6.562032,-0.007826,-0.000343,0.009288,0.427002,0.236328,-0.418457,0.364024,-6.744823,7.107762,0.00047,0.003777,-0.003175,-0.349609,0.608398,-0.334473
1.812056,-7.311447,6.271687,-0.018349,0.000381,-0.003387,-0.473145,0.54541,0.174072,0.047184,8.455316,4.942842,0.000399,0.000132,0.00358,-0.075195,0.63916,0.193848,-1.89256,-6.933425,6.741053,-0.013988,0.006091,0.003529,0.398926,0.224609,-0.106445,-1.328368,-7.238926,6.589141,-0.002189,0.00631,0.011995,0.429199,0.245361,-0.411865,0.358257,-6.754351,7.115614,-0.004796,-0.004707,-0.001659,-0.347656,0.616699,-0.326904
1.826935,-7.394457,6.252337,0.008984,0.002538,0.002116,-0.478271,0.537842,0.177734,0.054724,8.490099,4.900149,-0.012185,0.009067,0.006263,-0.076904,0.627686,0.19751,-1.803751,-6.947025,6.739339,0.00467,-0.002842,-0.003186,0.394775,0.209717,-0.10376,-1.326868,-7.221719,6.575694,0.001587,-0.004301,0.00575,0.424561,0.236816,-0.404785,0.394302,-6.765489,7.118097,-0.000537,-0.002961,-0.00484,-0.350342,0.606934,-0.323242
1.814972,-7.278885,6.285296,0.002791,0.000359,0.00136,-0.470215,0.543457,0.17334,0.02471,8.453812,4.942164,-0.017455,0.004045,0.005255,-0.070312,0.631348,0.197998,-1.859335,-6.891455,6.775543,-0.005428,0.014726,0.000756,0.398926,0.214844,-0.105469,-1.301037,-7.22026,6.584085,-0.014003,0.006681,0.011788,0.430908,0.243408,-0.406982,0.376018,-6.735347,7.125842,-0.001945,0.0034,-0.001215,-0.344727,0.611084,-0.327148
1.832909,-7.386619,6.239165,-0.012656,0.003256,-0.00307,-0.47876,0.536621,0.177002,0.061472,8.464694,4.912475,-0.004664,0.003145,0.005156,-0.077393,0.630127,0.197021,-1.863708,-6.950761,6.749879,-0.013907,-0.004351,0.00294,0.394043,0.211426,-0.101562,-1.334291,-7.230422,6.584638,0.003592,0.000363,0.008057,0.425537,0.237061,-0.406006,0.366508,-6.74597,7.106546,3.1e-05,-0.001994,-0.003741,-0.351807,0.607178,-0.320557
1.81848,-7.322953,6.261984,0.019567,0.000456,0.002718,-0.472412,0.544678,0.174316,0.028488,8.474163,4.918881,-0.007793,0.008351,0.004539,-0.073975,0.637207,0.195068,-1.836948,-6.926454,6.764912,0.006025,0.011457,-0.003825,0.399658,0.218506,-0.107422,-1.308588,-7.209482,6.589125,-0.010559,0.002843,0.010324,0.429443,0.241699,-0.407471,0.389163,-6.73674,7.110125,-0.001394,-0.001473,-0.003731,-0.348389,0.613281,-0.326172
1.819104,-7.342042,6.265706,-0.018274,0.001992,-0.002676,-0.477051,0.547852,0.169434,0.066424,8.475684,4.899063,-0.013195,0.00111,0.004164,-0.072266,0.63623,0.190186,-1.877027,-6.931537,6.772532,-0.01138,0.001144,0.002661,0.395508,0.220215,-0.106934,-1.338938,-7.250393,6.587051,-0.002291,0.004529,0.012803,0.430176,0.244385,-0.411865,0.373993,-6.756766,7.098794,-0.0033,-0.00142,-0.003697,-0.348633,0.61499,-0.328613
1.80551,-7.365161,6.252758,0.013808,0.000656,0.002119,-0.477051,0.548096,0.178955,0.017372,8.45379,4.918518,-0.012081,0.009658,0.006484,-0.075684,0.636475,0.201172,-1.827734,-6.927597,6.720614,-0.000691,0.002337,-0.003708,0.395508,0.221924,-0.098389,-1.313048,-7.210384,6.587251,-0.003863,-0.002048,0.004554,0.426758,0.246582,-0.401367,0.378455,-6.755942,7.125649,-0.002532,-0.001448,-0.004092,-0.349121,0.616699,-0.320068
1.839212,-7.320855,6.267009,-0.005898,0.001663,-0.001594,-0.474365,0.54126,0.177979,0.037011,8.464412,4.928594,-0.005219,-0.000835,0.003062,-0.07251,0.629883,0.198975,-1.870119,-6.944528,6.767469,-0.011214,0.009398,0.002933,0.39624,0.212646,-0.102783,-1.326933,-7.235821,6.56601,-0.010076,0.0052,0.014503,0.428955,0.237305,-0.406738,0.376371,-6.747829,7.09741,-0.001676,-0.002936,-0.005202,-0.3479,0.608398,-0.327148
1.822336,-7.38591,6.242711,0.002119,0.004057,-0.000214,-0.472412,0.536865,0.176514,0.054701,8.474306,4.90927,-0.010374,0.01009,0.005734,-0.071045,0.628418,0.197754,-1.831531,-6.940534,6.758333,0.003829,-0.003676,-0.002415,0.398193,0.21167,-0.104248,-1.31138,-7.218169,6.599596,0.003193,-0.001027,0.0069,0.431885,0.236816,-0.408203,0.371512,-6.74761,7.104729,-0.002818,-0.000953,-0.003722,-0.343018,0.604492,-0.325928
1.828774,-7.310931,6.268165,0.004916,-0.001039,0.000786,-0.476074,0.550049,0.180176,0.031785,8.458357,4.939758,-0.01339,0.001573,0.002882,-0.07666,0.63916,0.20459,-1.851051,-6.907631,6.744794,-0.003856,0.012885,0.000387,0.392578,0.222412,-0.099121,-1.304127,-7.227705,6.603788,-0.016026,0.002447,0.013167,0.425781,0.245605,-0.405518,0.369516,-6.768047,7.091758,-0.000719,0.001915,-0.001571,-0.354248,0.620117,-0.321045
1.823867,-7.374324,6.250563,-0.009881,0.004384,-0.001783,-0.467773,0.544922,0.177979,0.065302,8.462482,4.903708,-0.006136,0.005519,0.005492,-0.065918,0.638916,0.19873,-1.874281,-6.945843,6.755297,-0.012777,-0.003053,0.000573,0.403809,0.220703,-0.101562,-1.330744,-7.241846,6.586524,0.006935,0.003349,0.006425,0.43457,0.24585,-0.403076,0.366447,-6.757031,7.112652,0.000802,-0.003981,-0.005977,-0.338867,0.61499,-0.321533
1.826598,-7.332006,6.262521,0.013808,0.000657,0.002121,-0.473389,0.543457,0.179443,0.012006,8.479648,4.911788,-0.012325,0.006395,0.004019,-0.073975,0.633789,0.199707,-1.815793,-6.924617,6.732943,0.002783,0.007746,-0.003253,0.39917,0.218262,-0.098389,-1.314132,-7.202475,6.583654,-0.01198,-0.00014,0.011664,0.428955,0.240967,-0.405273,0.379596,-6.748742,7.096369,-0.004666,-0.000365,-0.000662,-0.348877,0.613037,-0.321533
1.822501,-7.354865,6.247492,-0.01434,0.001577,-0.002701,-0.473145,0.542725,0.166504,0.055976,8.469366,4.917775,-0.005971,0.002968,0.004735,-0.074707,0.637207,0.190186,-1.889405,-6.926141,6.7683,-0.008518,0.004421,0.002872,0.395996,0.217529,-0.114014,-1.325639,-7.251443,6.590213,-0.000559,0.002397,0.010228,0.429199,0.242432,-0.416016,0.371903,-6.75904,7.090441,-0.00089,0.000916,-0.003819,-0.34668,0.614746,-0.334473
1.822683,-7.364487,6.249301,0.013776,0.002195,0.00198,-0.4729,0.539307,0.174805,0.03295,8.469337,4.914638,-0.012479,0.009994,0.005799,-0.073242,0.631104,0.196045,-1.811347,-6.917566,6.750903,0.001205,-0.000824,-0.004276,0.397705,0.215088,-0.104492,-1.314596,-7.195711,6.571,-0.002965,-0.001188,0.00648,0.429199,0.241211,-0.406494,0.382227,-6.758439,7.10992,-0.000934,-0.002929,-0.003695,-0.349121,0.611816,-0.325684
1.827443,-7.310666,6.268863,-0.00835,0.000757,-0.000325,-0.475342,0.539795,0.168701,0.03325,8.468062,4.916832,-0.008196,0.001237,0.003559,-0.074951,0.631104,0.192871,-1.872334,-6.919736,6.753047,-0.010535,0.012387,0.003273,0.396729,0.213867,-0.109131,-1.320152,-7.242071,6.589536,-0.011072,0.005645,0.013034,0.428467,0.23877,-0.412109,0.383074,-6.748799,7.109287,-0.000609,0.002379,-0.002349,-0.349854,0.609619,-0.329102
1.813941,-7.400688,6.217413,0.001094,0.001532,-0.001594,-0.472412,0.541992,0.173096,0.054023,8.484707,4.904055,-0.010809,0.007748,0.004878,-0.072021,0.634033,0.191406,-1.847569,-6.943974,6.74421,-0.0032,-0.00405,-0.002741,0.398193,0.21875,-0.108398,-1.325396,-7.211667,6.591305,0.004611,-0.001119,0.005908,0.429443,0.240479,-0.412354,0.362679,-6.739003,7.104193,-0.003953,-0.002888,-0.005925,-0.347412,0.611572,-0.329834
1.809914,-7.28926,6.279872,0.009268,0.001695,0.000851,-0.463135,0.551025,0.170166,0.035296,8.455947,4.931324,-0.013059,0.004385,0.00455,-0.061523,0.644531,0.191406,-1.836294,-6.915854,6.733435,0.000583,0.011338,-0.001789,0.408447,0.226318,-0.106934,-1.295915,-7.228693,6.56291,-0.015915,0.004854,0.012289,0.441162,0.251953,-0.412598,0.397336,-6.779759,7.107786,-0.005942,-0.00077,0.001658,-0.338135,0.618652,-0.327881
1.829856,-7.385386,6.24152,-0.016433,0.001438,-0.001988,-0.466553,0.546387,0.176025,0.061974,8.47638,4.911306,-0.003331,0.005999,0.005758,-0.06543,0.63623,0.199707,-1.879403,-6.940719,6.739583,-0.012154,0.001167,0.003524,0.404541,0.22168,-0.101807,-1.348174,-7.23324,6.58715,0.005408,0.001033,0.008295,0.435059,0.246338,-0.405762,0.369218,-6.760009,7.096521,0.004706,0.001647,-0.008135,-0.342773,0.616943,-0.319824
1.799109,-7.337229,6.240087,0.017457,0.001088,0.003368,-0.468506,0.542236,0.172119,0.020215,8.474866,4.919301,-0.016619,0.00771,0.005967,-0.066162,0.631348,0.197754,-1.816242,-6.931384,6.745251,0.001156,0.004844,-0.004329,0.403564,0.216553,-0.105225,-1.306448,-7.206319,6.574808,-0.012377,-0.000286,0.010365,0.433838,0.239746,-0.411133,0.374445,-6.738896,7.123131,-0.001638,-0.004325,-0.002116,-0.342529,0.611328,-0.325195
1.839244,-7.328033,6.279582,-0.014323,0.000808,-0.002633,-0.481201,0.539062,0.175049,0.071598,8.458439,4.928706,-0.005702,0.001004,0.004192,-0.079346,0.628174,0.200928,-1.887925,-6.941934,6.74916,-0.010166,0.005396,0.003121,0.387451,0.212402,-0.101807,-1.343302,-7.262399,6.594598,-0.004705,0.005055,0.012329,0.421143,0.236572,-0.405762,0.371173,-6.760155,7.09628,-0.003873,-0.000431,-0.00296,-0.354248,0.608154,-0.319336
1.821689,-7.373805,6.25181,0.011934,0.002749,0.001289,-0.473877,0.542236,0.172607,0.042641,8.470632,4.899238,-0.010164,0.01127,0.006181,-0.073486,0.633789,0.191895,-1.816426,-6.912524,6.735176,0.005823,-0.00243,-0.00484,0.397217,0.216553,-0.107666,-1.307977,-7.202355,6.594172,0.003712,-0.001364,0.003911,0.429932,0.240723,-0.410156,0.381558,-6.749986,7.115101,-1.3e-05,0.001352,-0.004993,-0.348877,0.609863,-0.328613
1.813674,-7.30261,6.26094,-0.006902,0.000974,0.000781,-0.473877,0.540283,0.171875,0.030602,8.465994,4.957944,-0.012434,-0.000588,0.004524,-0.075439,0.631836,0.19165,-1.85076,-6.909541,6.762139,-0.012184,0.013362,0.003522,0.395996,0.212646,-0.110107,-1.318933,-7.239412,6.56593,-0.018954,0.007017,0.01526,0.428223,0.237305,-0.413086,0.372418,-6.750946,7.095217,-0.00287,-0.000883,8.1e-05,-0.348389,0.609863,-0.328613
1.836789,-7.416143,6.235396,-0.000639,0.00216,-0.001434,-0.477295,0.544678,0.179688,0.058472,8.482227,4.895937,-0.00712,0.007105,0.005726,-0.077393,0.632568,0.20166,-1.846748,-6.979721,6.733772,-0.006997,-0.005148,-0.000974,0.396484,0.216797,-0.101074,-1.318813,-7.2449,6.587881,0.004899,-0.002137,0.007942,0.427246,0.240234,-0.403076,0.382826,-6.760298,7.11498,-0.00134,-0.003505,-0.009384,-0.348877,0.611084,-0.322021
1.805656,-7.290579,6.271702,0.015632,0.000874,0.002746,-0.476807,0.544922,0.17749,0.006098,8.45383,4.908374,-0.011939,0.006072,0.004718,-0.077881,0.635254,0.199219,-1.822147,-6.904992,6.754371,0.010874,0.011548,-0.003352,0.393311,0.219971,-0.101318,-1.314271,-7.203991,6.591134,-0.007106,0.003937,0.008302,0.422607,0.244873,-0.403809,0.38949,-6.760901,7.107184,0.000414,0.00385,0.000632,-0.353271,0.612793,-0.322266
1.837657,-7.385549,6.239439,-0.030583,-0.000755,-0.003488,-0.470215,0.539307,0.176025,0.067017,8.484154,4.922377,-0.008216,0.000653,0.005427,-0.071045,0.633301,0.199219,-1.884846,-6.916701,6.756042,-0.019406,0.001187,0.004881,0.399902,0.213623,-0.10376,-1.33836,-7.232469,6.599079,-0.004397,0.002396,0.010813,0.431641,0.237305,-0.404297,0.367262,-6.74135,7.088572,0.00258,-0.001186,-0.008389,-0.346436,0.609863,-0.322021
1.80727,-7.396705,6.239357,0.031661,0.003057,0.001824,-0.471924,0.546875,0.172119,0.036171,8.469373,4.878102,-0.01466,0.012,0.005831,-0.073486,0.640869,0.190674,-1.812583,-6.947894,6.735677,-0.002422,0.003349,-0.004259,0.396729,0.22168,-0.109375,-1.302424,-7.19928,6.571952,-0.008445,-0.00404,0.009595,0.429932,0.244873,-0.414795,0.379545,-6.760233,7.122083,-0.011673,-0.006459,-0.001863,-0.349854,0.616943,-0.331787
1.823649,-7.263673,6.303497,-0.012482,0.000253,-0.001941,-0.474609,0.543945,0.174072,0.026651,8.46147,4.923542,-0.006843,-0.001721,0.003003,-0.075684,0.633301,0.193359,-1.887633,-6.928488,6.753018,-0.000392,0.010868,0.001482,0.395508,0.218262,-0.106934,-1.335425,-7.263729,6.553185,-0.002055,0.009933,0.01099,0.427734,0.242432,-0.408936,0.387717,-6.773115,7.079085,0.003351,0.008544,-0.001475,-0.35083,0.612549,-0.324951
1.813097,-7.429099,6.223783,-0.006757,0.001593,-0.001481,-0.473877,0.545654,0.178467,0.050605,8.485154,4.916826,-0.010275,0.010687,0.005974,-0.071533,0.638184,0.196289,-1.833942,-6.917086,6.761765,-0.000999,-0.004653,-0.002176,0.39624,0.221436,-0.102783,-1.328916,-7.19199,6.603469,0.001782,-0.003829,0.004479,0.429443,0.245605,-0.408691,0.353706,-6.729696,7.124394,0.007997,-0.004726,-0.009902,-0.347412,0.616211,-0.326416
1.836962,-7.308205,6.277205,0.017865,-0.000451,0.003027,-0.473877,0.540039,0.181885,0.024754,8.462306,4.940854,-0.012008,0.001762,0.005391,-0.07251,0.634277,0.201172,-1.842739,-6.907523,6.762817,-0.014939,0.013593,0.002122,0.39624,0.214355,-0.100098,-1.301937,-7.233501,6.557668,-0.020783,0.001427,0.015576,0.43042,0.239014,-0.402588,0.40347,-6.761101,7.125694,-0.017575,-0.008623,0.002885,-0.348877,0.611084,-0.320068
1.816997,-7.355517,6.240486,-0.016073,0.002204,-0.002545,-0.468018,0.543701,0.177002,0.066047,8.486719,4.893988,-0.005343,0.005443,0.005022,-0.065186,0.637207,0.199707,-1.877374,-6.962139,6.734122,-0.003155,-0.003745,0.001365,0.403564,0.218506,-0.102539,-1.338717,-7.251024,6.569155,0.008761,0.004621,0.006599,0.435791,0.244141,-0.406494,0.362081,-6.792773,7.082407,0.002192,0.011879,-0.004986,-0.341553,0.614258,-0.322998
1.80491,-7.350416,6.272773,0.010464,0.001219,0.003369,-0.4729,0.541016,0.162109,0.007686,8.454516,4.913617,-0.016831,0.007142,0.003673,-0.072021,0.634766,0.186035,-1.822286,-6.891557,6.75819,0.011722,0.009401,-0.006139,0.39624,0.220215,-0.114502,-1.324664,-7.190321,6.571446,-0.009549,-0.002913,0.008653,0.429443,0.23999,-0.41748,0.345827,-6.750974,7.104642,0.010008,-0.007586,-0.005659,-0.346924,0.612549,-0.336426
1.830616,-7.352467,6.256179,-0.011141,0.000397,-0.001688,-0.472656,0.539062,0.177002,0.050622,8.463672,4.929269,-0.003318,0.00018,0.004609,-0.071777,0.630127,0.196777,-1.873971,-6.925886,6.775223,-0.026138,0.003365,0.00566,0.397217,0.212402,-0.104736,-1.320949,-7.262181,6.566989,-0.008139,0.005831,0.014144,0.431396,0.235596,-0.407715,0.408718,-6.753206,7.089965,-0.008076,-0.009451,-0.002218,-0.345703,0.608154,-0.322754
1.828505,-7.363754,6.248852,0.012949,0.000587,0.00224,-0.474121,0.546387,0.177979,0.027605,8.479838,4.892516,-0.009475,0.010612,0.005497,-0.072754,0.638428,0.198242,-1.81885,-6.962961,6.728314,0.00661,-0.000361,-0.002985,0.396484,0.220703,-0.10083,-1.335593,-7.206382,6.591606,0.0036,-0.002538,0.004646,0.429688,0.245361,-0.405273,0.369629,-6.762154,7.108207,-0.006335,0.009723,-0.003618,-0.347656,0.616943,-0.321045
1.814929,-7.319673,6.274703,-0.010534,-0.000226,-0.000395,-0.477295,0.541748,0.175781,0.019376,8.462044,4.948375,-0.017008,0.002245,0.004123,-0.077881,0.636475,0.200439,-1.880775,-6.896845,6.777147,-0.001068,0.0153,0.000495,0.392822,0.216309,-0.102051,-1.318639,-7.231484,6.571258,-0.013692,0.005096,0.013892,0.422607,0.242676,-0.406494,0.343951,-6.773254,7.076734,0.001119,-0.001946,0.000422,-0.356201,0.610352,-0.323486
1.808962,-7.421329,6.213102,0.001079,0.002302,-0.001664,-0.474609,0.545898,0.173096,0.049828,8.459363,4.906334,-0.003093,0.008804,0.005364,-0.074219,0.637207,0.194824,-1.8549,-6.949833,6.745687,-0.013516,-0.007803,0.000776,0.397461,0.220703,-0.103271,-1.336709,-7.228839,6.584617,-0.00054,0.000744,0.006679,0.428223,0.245361,-0.407227,0.379193,-6.742505,7.113171,0.004141,-0.008468,-0.009716,-0.347656,0.615967,-0.326172
1.820495,-7.292129,6.258473,0.016008,0.000872,0.002264,-0.47583,0.53833,0.173096,0.020253,8.485925,4.938273,-0.009989,0.00291,0.00427,-0.075439,0.631836,0.194824,-1.824838,-6.924937,6.729855,0.00112,0.012604,-0.001657,0.395508,0.211182,-0.107422,-1.304101,-7.221978,6.573271,-0.008533,0.000957,0.009638,0.426514,0.237305,-0.408936,0.391771,-6.763259,7.098511,-0.006337,0.004489,-0.000405,-0.349365,0.606445,-0.327881
1.825742,-7.375177,6.241557,-0.026156,0.003589,-0.002715,-0.476562,0.539795,0.174072,0.062753,8.474452,4.915814,-0.01499,0.003844,0.005895,-0.077393,0.632324,0.196289,-1.891369,-6.926669,6.753698,-0.002331,0.00097,0.001932,0.394043,0.213623,-0.104736,-1.327979,-7.221326,6.575264,0.003513,0.006558,0.00797,0.423828,0.236816,-0.408203,0.348656,-6.763114,7.089553,-0.000763,0.003302,-0.004662,-0.352051,0.60791,-0.324219
1.816434,-7.38499,6.245518,0.022517,0.000668,0.001899,-0.473877,0.544922,0.186768,0.021983,8.453086,4.914714,-0.009216,0.007606,0.00393,-0.074219,0.636719,0.208984,-1.813427,-6.918073,6.736446,-0.005682,0.003515,-0.002368,0.395752,0.220215,-0.091553,-1.321305,-7.214599,6.607389,-0.016128,-0.003398,0.010687,0.429443,0.243408,-0.394043,0.370987,-6.763645,7.093554,-0.001371,-0.006745,-0.00243,-0.347168,0.61499,-0.30957
1.841411,-7.299691,6.265279,-0.004916,0.001039,-0.000788,-0.470215,0.540039,0.172852,0.066587,8.479292,4.925538,0.000303,0.001618,0.005414,-0.069336,0.629883,0.194092,-1.88279,-6.94023,6.758191,-0.008954,0.009647,0.003582,0.399414,0.21167,-0.104492,-1.316523,-7.264606,6.566474,-4.6e-05,0.003705,0.010794,0.433105,0.237549,-0.409668,0.399238,-6.78423,7.090781,-0.000824,-0.002467,-0.00448,-0.345459,0.609375,-0.32666
1.812595,-7.366912,6.2337,-0.002786,0.002246,0.002324,-0.4729,0.537842,0.17627,0.049605,8.482885,4.91562,-0.020916,0.00964,0.00606,-0.073486,0.630859,0.197754,-1.833749,-6.916968,6.73896,0.00768,-0.002903,-0.007474,0.397705,0.212158,-0.099854,-1.327694,-7.191267,6.578451,0.002921,0.004274,0.004386,0.427979,0.239258,-0.405273,0.373512,-6.74394,7.092662,0.004494,0.004606,-0.004801,-0.3479,0.60791,-0.323242
1.830849,-7.350446,6.266336,-0.001342,-0.000143,-0.000254,-0.462158,0.538574,0.177246,0.03521,8.440679,4.940416,-0.012439,0.000469,0.005542,-0.064453,0.630859,0.198975,-1.855655,-6.896324,6.764354,-0.017781,0.011505,0.005295,0.40625,0.213867,-0.100098,-1.333028,-7.244627,6.566539,-0.018757,0.001381,0.014681,0.438965,0.239502,-0.404053,0.375332,-6.76302,7.107085,-0.007291,-0.005601,-0.000833,-0.336914,0.608643,-0.319092
1.838183,-7.361517,6.2569,0.005946,0.00357,-0.001088,-0.46582,0.543457,0.168701,0.05216,8.486663,4.896932,0.004895,0.006833,0.004269,-0.064941,0.636475,0.192383,-1.850475,-6.987576,6.753557,-0.00582,-0.003543,0.000769,0.405273,0.219238,-0.106445,-1.323255,-7.239715,6.589955,0.008744,0.000296,0.007085,0.438477,0.242432,-0.411377,0.389927,-6.784016,7.105235,-0.00481,-0.003367,-0.006666,-0.338867,0.614502,-0.327881
1.818857,-7.2942,6.300675,0.000681,0.00099,0.002005,-0.474609,0.537354,0.165283,0.01196,8.485946,4.933821,-0.022803,0.003863,0.004362,-0.074463,0.628174,0.186523,-1.821416,-6.901917,6.744403,0.012831,0.010147,-0.004476,0.396973,0.209961,-0.111572,-1.319051,-7.208621,6.595091,-0.014484,0.004189,0.011364,0.428711,0.237305,-0.414062,0.377271,-6.763773,7.106265,0.007535,0.006494,-0.002629,-0.348877,0.608154,-0.333496
1.83286,-7.425159,6.239135,-0.015337,0.002971,-0.003588,-0.473877,0.53418,0.167236,0.054178,8.448312,4.925293,-0.005475,0.004265,0.006681,-0.071045,0.626221,0.188477,-1.890012,-6.934119,6.775564,-0.023142,0.000941,0.006715,0.399658,0.211914,-0.11084,-1.339708,-7.255749,6.565585,-0.001767,0.001731,0.010095,0.430664,0.232666,-0.414795,0.363149,-6.733973,7.093548,0.000385,-0.005873,-0.004778,-0.3479,0.604248,-0.330811
1.807106,-7.322401,6.258071,0.031156,0.001675,0.00465,-0.477295,0.547119,0.176514,0.032966,8.481277,4.884485,-0.003584,0.009596,0.005491,-0.073975,0.640137,0.199219,-1.812907,-6.954413,6.725279,0.002916,-3.5e-05,-0.005108,0.395508,0.219971,-0.10083,-1.307125,-7.203591,6.576328,-0.001549,-0.00066,0.005416,0.428711,0.245605,-0.405273,0.398734,-6.774514,7.097164,-0.009044,-0.003202,-0.003544,-0.349854,0.616699,-0.320801
1.829309,-7.290019,6.266615,-0.030116,8.3e-05,-0.0032,-0.478271,0.54541,0.170654,0.041341,8.478483,4.961194,-0.01645,0.000417,0.005068,-0.081299,0.635498,0.192383,-1.878062,-6.897572,6.763891,-0.000732,0.013082,0.000989,0.390381,0.21875,-0.106689,-1.327943,-7.224668,6.572905,-0.011648,0.0075,0.012728,0.424561,0.240967,-0.411621,0.369595,-6.774703,7.08658,0.00363,0.008053,-0.001843,-0.353516,0.615479,-0.327637
1.816914,-7.459385,6.219136,0.012595,0.001903,-0.000457,-0.466553,0.543945,0.176025,0.045518,8.459785,4.889076,-0.009715,0.008854,0.006945,-0.067139,0.635498,0.198486,-1.849302,-6.930783,6.733802,-0.008699,-0.005928,-0.000157,0.404541,0.21875,-0.100586,-1.333428,-7.232913,6.582742,-0.001883,-0.004157,0.007619,0.435303,0.242432,-0.405518,0.368629,-6.753013,7.120982,-6.7e-05,-0.008337,-0.008506,-0.342285,0.615479,-0.322998
1.82053,-7.241475,6.311952,0.016383,0.000872,0.001784,-0.479248,0.544189,0.176758,0.017044,8.466617,4.911651,-0.004178,0.002944,0.003191,-0.077637,0.634766,0.196045,-1.836256,-6.934468,6.749584,-0.001765,0.013203,-0.000549,0.394287,0.214111,-0.103516,-1.313538,-7.234208,6.579312,-0.00772,0.004345,0.011891,0.423096,0.241211,-0.406982,0.399535,-6.76565,7.082629,-0.002126,-0.000878,0.001592,-0.354004,0.61377,-0.320801
1.828291,-7.397607,6.225499,-0.037639,0.002449,-0.003787,-0.471924,0.548096,0.178955,0.052841,8.481802,4.924006,-0.011386,0.004247,0.005679,-0.072021,0.642578,0.198242,-1.866312,-6.951373,6.763753,-0.005212,-0.001416,0.001006,0.398438,0.222412,-0.100586,-1.340999,-7.241267,6.592036,-0.001554,0.002215,0.008832,0.43335,0.249268,-0.401611,0.359025,-6.744751,7.086996,0.002432,0.00558,-0.007082,-0.3479,0.618652,-0.318604
1.822827,-7.384541,6.244577,0.035089,0.001259,0.004633,-0.4729,0.54248,0.172363,0.026472,8.448382,4.92926,-0.018232,0.008497,0.005091,-0.073242,0.632812,0.194092,-1.801098,-6.919666,6.72146,8.2e-05,0.005303,-0.002556,0.39624,0.217285,-0.107422,-1.301765,-7.238813,6.562571,-0.01005,-0.00175,0.007808,0.43042,0.241455,-0.4104,0.390215,-6.774509,7.111388,-0.012939,-0.00884,-0.001392,-0.347168,0.612061,-0.325684
1.801455,-7.268142,6.280752,-0.013855,0.001648,-0.002342,-0.480713,0.54248,0.174561,0.035727,8.457705,4.930627,-0.001289,0.002363,0.004518,-0.080322,0.634277,0.194824,-1.8859,-6.930073,6.757819,-0.010324,0.006646,0.0049,0.390381,0.217773,-0.104492,-1.328906,-7.226863,6.570972,0.000385,0.008775,0.011548,0.422607,0.243896,-0.408203,0.377147,-6.796537,7.064845,0.006875,0.006988,-0.003013,-0.355225,0.614014,-0.326416
1.825989,-7.418873,6.219669,-0.007851,6e-05,0.00011,-0.472412,0.533447,0.176514,0.040854,8.496225,4.901508,-0.009916,0.00828,0.004645,-0.07373,0.626953,0.196777,-1.82699,-6.918807,6.745117,0.003792,-0.000985,-0.004482,0.39917,0.204346,-0.101318,-1.327896,-7.203007,6.58756,-0.002784,-0.004393,0.005619,0.429443,0.231445,-0.405273,0.335689,-6.733386,7.103697,0.009501,-0.002777,-0.006953,-0.345215,0.604492,-0.320068
1.833931,-7.322892,6.250854,0.015009,0.002266,0.00139,-0.471436,0.536621,0.178955,0.040858,8.452462,4.951072,-0.019924,0.0033,0.005688,-0.072021,0.627197,0.197754,-1.856174,-6.91578,6.750622,-0.012252,0.011595,0.004071,0.400146,0.209961,-0.098389,-1.298619,-7.249371,6.564938,-0.01611,0.003811,0.013618,0.429443,0.236084,-0.404297,0.404761,-6.775589,7.095797,-0.020895,-0.010039,0.00108,-0.344971,0.606201,-0.317383
1.808452,-7.339468,6.271803,-0.006756,0.001592,-0.001484,-0.470215,0.531982,0.172119,0.042528,8.463544,4.877795,0.001075,0.006304,0.005088,-0.071045,0.622559,0.193359,-1.86613,-6.9644,6.73728,-0.002076,-0.004198,-0.000412,0.401367,0.204346,-0.108398,-1.35366,-7.238795,6.564095,0.011417,0.006996,0.005553,0.432373,0.232666,-0.409912,0.375232,-6.796088,7.085429,0.006515,0.014141,-0.007041,-0.342529,0.602051,-0.326416
1.832643,-7.353234,6.247239,0.001267,-0.00147,-0.000458,-0.473145,0.547363,0.173584,0.037949,8.489358,4.944046,-0.012282,0.00434,0.004079,-0.07251,0.639404,0.194824,-1.826577,-6.901235,6.743663,0.003784,0.012402,-0.001059,0.398438,0.22168,-0.103027,-1.32186,-7.189449,6.607196,-0.014112,-0.003444,0.009787,0.43042,0.247314,-0.40625,0.337627,-6.744006,7.103258,0.008435,-0.009409,-0.002914,-0.346436,0.616943,-0.322021
1.823963,-7.372503,6.253072,-0.003124,0.002793,-0.000307,-0.480225,0.537109,0.174561,0.052197,8.455989,4.913665,-0.011174,0.005423,0.006121,-0.080322,0.631104,0.196289,-1.882344,-6.944329,6.75048,-0.017557,0.002788,0.004901,0.391846,0.210449,-0.10498,-1.321162,-7.266398,6.581,-0.007916,0.005711,0.012951,0.422607,0.235107,-0.408447,0.421174,-6.766157,7.093513,-0.008819,-0.007513,-0.001891,-0.355225,0.607666,-0.321533
1.807183,-7.319858,6.26887,0.015476,0.003109,0.001689,-0.469971,0.540771,0.178955,0.035133,8.459665,4.903743,-0.009635,0.00736,0.005122,-0.070557,0.632812,0.202148,-1.8254,-6.932671,6.727933,0.006571,0.002327,-0.005052,0.401611,0.2146,-0.099609,-1.329283,-7.224295,6.58986,0.002903,0.000571,0.0048,0.430908,0.239502,-0.401611,0.365297,-6.794849,7.100929,-0.004957,0.016427,-0.003087,-0.345459,0.611328,-0.318115
1.82941,-7.354866,6.23842,-0.023392,2.8e-05,-0.001863,-0.478516,0.541504,0.169922,0.05911,8.451418,4.96297,-0.006917,0.001426,0.003987,-0.079346,0.635498,0.19165,-1.888868,-6.915129,6.752709,-0.006862,0.009964,0.002643,0.393066,0.216309,-0.106445,-1.321663,-7.214089,6.590692,-0.005208,0.001898,0.011975,0.425293,0.241455,-0.409912,0.352379,-6.765223,7.101176,0.003945,-0.010744,-0.003172,-0.353027,0.611084,-0.325928
1.824186,-7.408599,6.219113,0.019303,0.002619,0.000817,-0.470459,0.54248,0.167969,0.05659,8.475241,4.893186,-0.013633,0.008352,0.005676,-0.070068,0.634521,0.194092,-1.83966,-6.941433,6.718544,-0.006136,-0.005204,-0.00107,0.402832,0.21582,-0.110107,-1.326258,-7.209871,6.566312,-0.006512,0.000283,0.008814,0.433838,0.242676,-0.410645,0.417521,-6.756882,7.099663,-0.001802,-0.00729,-0.006225,-0.343018,0.613525,-0.330078
1.811509,-7.265856,6.28873,0.000213,0.000149,0.001707,-0.467285,0.537842,0.17041,0.034856,8.449578,4.933086,-0.009092,0.003431,0.004012,-0.067383,0.626953,0.190674,-1.842694,-6.923124,6.739857,-0.001387,0.013638,-0.001334,0.403564,0.210693,-0.108398,-1.298344,-7.258957,6.57592,-0.011559,0.003755,0.01254,0.43457,0.237305,-0.4104,0.369849,-6.774837,7.113397,-0.001801,0.013547,0.001521,-0.342285,0.606445,-0.328125
1.836832,-7.435642,6.2314,-0.020219,0.00247,-0.004242,-0.474365,0.540771,0.175537,0.051852,8.479289,4.923474,-0.005671,0.004732,0.005411,-0.075439,0.63623,0.196289,-1.876238,-6.949113,6.743758,-0.008155,-0.002577,0.002685,0.396729,0.216553,-0.099854,-1.33416,-7.218491,6.575248,0.007659,0.003245,0.005947,0.428467,0.241211,-0.40625,0.345142,-6.766091,7.081304,0.000855,-0.009287,-0.006594,-0.350342,0.612793,-0.323242
1.816236,-7.32968,6.268256,0.029632,-0.000154,0.002838,-0.473633,0.53833,0.177246,0.026995,8.452667,4.904991,-0.018273,0.006876,0.005938,-0.072021,0.630371,0.199951,-1.825287,-6.927141,6.733586,-0.000648,0.007981,-0.002959,0.397949,0.212646,-0.101562,-1.314693,-7.203443,6.600005,-0.015122,-0.001344,0.011869,0.429932,0.237305,-0.403564,0.411165,-6.777187,7.093903,-0.005272,-0.005193,-0.001649,-0.345215,0.606934,-0.31958
1.822248,-7.311699,6.25384,-0.020741,0.001851,-0.001497,-0.465576,0.535889,0.169189,0.049487,8.459742,4.902436,-0.001184,0.002945,0.004743,-0.06665,0.627441,0.189453,-1.864875,-6.942989,6.749643,-0.008444,0.004378,0.003635,0.407227,0.210205,-0.108643,-1.33861,-7.257853,6.5816,-0.000327,0.004096,0.008834,0.439209,0.234863,-0.414062,0.35488,-6.766587,7.086588,0.002308,0.009037,-0.00261,-0.338623,0.605469,-0.327148
1.817673,-7.385278,6.237376,0.008392,0.002395,0.000902,-0.468018,0.537109,0.177002,0.037179,8.470926,4.927648,-0.016223,0.010104,0.006881,-0.06665,0.628174,0.19873,-1.82322,-6.919352,6.742107,0.004726,-0.000177,-0.004436,0.40332,0.210938,-0.101807,-1.314968,-7.196613,6.587463,0.000978,-3.7e-05,0.005159,0.436279,0.235596,-0.407227,0.370876,-6.765929,7.098902,0.002317,-0.005958,-0.006725,-0.340576,0.605225,-0.32251
1.836219,-7.317895,6.271745,0.001186,0.002377,-0.000811,-0.473633,0.542725,0.183594,0.029941,8.449352,4.940643,-0.007421,0.001181,0.003075,-0.076904,0.63623,0.203857,-1.863954,-6.945083,6.757495,-0.016231,0.010554,0.004202,0.395508,0.218506,-0.097412,-1.323806,-7.24767,6.584607,-0.014389,0.004565,0.014453,0.427734,0.241943,-0.400146,0.395642,-6.775619,7.116915,-0.005576,-0.006622,-0.001219,-0.348389,0.613281,-0.315918
1.82858,-7.373247,6.24341,-0.002715,0.001252,-0.000651,-0.480469,0.542725,0.184326,0.054023,8.479044,4.882003,-0.009444,0.007938,0.007437,-0.078613,0.634277,0.208496,-1.849224,-6.957812,6.741585,-0.000529,-0.004246,-0.002161,0.391113,0.216064,-0.094482,-1.325505,-7.219646,6.57718,0.003285,-0.001132,0.006302,0.422852,0.241943,-0.395508,0.392703,-6.777862,7.088594,-0.005708,0.00534,-0.005018,-0.354004,0.611816,-0.3125
1.810196,-7.325561,6.290139,0.003755,0.000506,0.002101,-0.473389,0.546875,0.177734,0.012352,8.471685,4.941969,-0.010465,0.005362,0.003556,-0.071289,0.638428,0.197021,-1.843251,-6.898897,6.735191,0.004092,0.011976,-0.001948,0.39917,0.219727,-0.102051,-1.306099,-7.23985,6.578247,-0.009408,0.006083,0.010783,0.430908,0.244873,-0.408447,0.363719,-6.767769,7.078096,0.006861,-0.000164,0.00026,-0.345215,0.615479,-0.321533
1.825999,-7.385004,6.235673,-0.008505,0.00299,-0.001398,-0.474121,0.54248,0.176025,0.059062,8.457744,4.935217,-0.009988,0.005012,0.006335,-0.074219,0.631836,0.195312,-1.883516,-6.93525,6.75934,-0.018384,-0.00193,0.004308,0.39502,0.213867,-0.105225,-1.336504,-7.225714,6.595676,0.00014,-0.000131,0.010009,0.426758,0.23999,-0.40625,0.394122,-6.76765,7.088485,-0.003422,-0.007739,-0.006566,-0.348145,0.611572,-0.322021
1.825896,-7.327101,6.276705,0.018673,0.00193,0.002713,-0.468506,0.541016,0.168213,0.030618,8.470061,4.906452,-0.01276,0.007229,0.006259,-0.067627,0.635498,0.19043,-1.819048,-6.954703,6.74264,0.005549,0.004539,-0.00386,0.406006,0.216309,-0.110596,-1.300518,-7.211588,6.57331,-0.009751,-0.000286,0.009563,0.434814,0.241455,-0.409668,0.394936,-6.768057,7.088051,-0.001567,0.005322,-0.000516,-0.340088,0.612061,-0.328125
1.813696,-7.328958,6.269835,-0.019506,0.00192,-0.002099,-0.468506,0.544922,0.172363,0.035746,8.466074,4.924626,-0.006848,0.000376,0.005045,-0.068359,0.637451,0.19165,-1.880359,-6.907453,6.759371,-0.005911,0.006892,0.001342,0.403564,0.219727,-0.106201,-1.34684,-7.24837,6.585813,-0.000616,0.006754,0.010359,0.435303,0.246338,-0.413574,0.360035,-6.767084,7.085854,0.003796,-0.000704,-0.006917,-0.341309,0.616943,-0.324707
1.826014,-7.404116,6.239553,0.010788,0.00092,-0.001006,-0.47583,0.541748,0.175293,0.040735,8.478478,4.909429,-0.00749,0.010136,0.005271,-0.073486,0.634033,0.194092,-1.832411,-6.943451,6.724669,-0.007655,-0.001608,-0.001303,0.396729,0.215088,-0.103027,-1.314281,-7.196501,6.596642,-0.003821,-0.004762,0.007969,0.428467,0.242188,-0.404541,0.378881,-6.766499,7.111105,-0.007213,-0.008996,-0.001498,-0.349854,0.61084,-0.322998
1.824693,-7.307579,6.273649,0.002307,0.000288,0.000994,-0.474365,0.534912,0.174316,0.052327,8.458131,4.911889,-0.019358,0.002078,0.004762,-0.076416,0.625,0.197998,-1.840656,-6.944347,6.734702,-0.008599,0.01097,0.002078,0.395752,0.207764,-0.104004,-1.303854,-7.253594,6.569614,-0.015398,0.003177,0.013186,0.428955,0.233643,-0.408447,0.389033,-6.798835,7.082048,-0.008711,0.00402,-0.002252,-0.348389,0.604492,-0.322021
1.817363,-7.372591,6.247054,-0.003966,0.001953,-0.000123,-0.475586,0.543701,0.171875,0.032484,8.455174,4.895495,0.000289,0.008455,0.007651,-0.075439,0.633789,0.192139,-1.88543,-6.929156,6.75527,0.009454,-0.000623,-0.000751,0.393555,0.216064,-0.104492,-1.339943,-7.22216,6.571492,0.016699,0.008075,0.003861,0.427246,0.241699,-0.411377,0.347946,-6.777074,7.087388,0.019599,0.009043,-0.0056,-0.348877,0.611328,-0.325684
1.812239,-7.309179,6.267153,0.008408,0.001627,0.000974,-0.477051,0.542236,0.175781,0.039491,8.477888,4.92901,-0.014828,0.00297,0.004285,-0.077637,0.634766,0.196045,-1.842864,-6.884876,6.739893,-0.005652,0.007066,-0.004359,0.39502,0.217041,-0.102295,-1.323259,-7.185531,6.601656,-0.016864,-0.004522,0.011295,0.42627,0.239746,-0.40625,0.358207,-6.726317,7.092653,0.001263,-0.014554,-0.004537,-0.349609,0.612305,-0.321777
1.853517,-7.386949,6.27072,-0.019532,-0.002001,-0.0026,-0.475098,0.540771,0.173584,0.066398,8.472309,4.922947,-0.002397,0.003801,0.007438,-0.072754,0.634766,0.195801,-1.868991,-6.974442,6.76504,-0.027935,0.001702,0.006269,0.396973,0.213623,-0.104248,-1.326181,-7.270787,6.585466,-0.016112,0.002614,0.013748,0.425781,0.239746,-0.40918,0.409586,-6.787743,7.107448,-0.028816,-0.004147,-0.001629,-0.349121,0.612305,-0.325195
1.838496,-7.388428,6.21313,0.017578,0.007941,0.00141,-0.469971,0.545898,0.181396,0.072993,8.484092,4.938686,-0.027578,0.008285,0.003728,-0.068604,0.635742,0.199951,-1.794388,-6.983359,6.696381,0.007602,0.000127,-0.006222,0.401123,0.218506,-0.099121,-1.281034,-7.275796,6.569991,-0.00018,-0.005683,0.004961,0.433838,0.244385,-0.398682,0.404668,-6.861415,7.079436,-0.01825,0.004249,-0.002085,-0.343018,0.614502,-0.315186
1.772526,-7.281534,6.314189,0.007206,2e-05,0.001715,-0.480225,0.539307,0.177734,-0.013076,8.41691,4.887489,0.007833,0.008891,0.005834,-0.080078,0.632324,0.200928,-1.912635,-6.880474,6.791989,0.018603,0.019091,0.002879,0.393311,0.213135,-0.099609,-1.346449,-7.175094,6.55876,0.028108,0.02084,0.005664,0.423096,0.237793,-0.405029,0.317152,-6.799472,7.04899,0.050139,0.016069,-0.002554,-0.352051,0.609863,-0.319824
1.851096,-7.364662,6.227144,-0.018582,-0.001088,-0.001933,-0.473877,0.537598,0.171387,0.070926,8.567889,4.955918,-0.004122,-0.006003,0.000997,-0.073975,0.62915,0.193115,-1.851751,-6.877218,6.748772,-0.019515,-0.013368,-0.002864,0.396484,0.208496,-0.106445,-1.366778,-7.161314,6.665143,-0.036347,-0.012248,0.016257,0.429932,0.234863,-0.409424,0.329894,-6.64455,7.102135,0.018167,-0.024284,-0.013714,-0.348389,0.605225,-0.324463
1.833641,-7.396236,6.277969,0.010184,0.004151,0.001387,-0.466309,0.54126,0.166016,0.069772,8.427701,4.913061,-0.038087,0.01888,0.010358,-0.070557,0.633789,0.189209,-1.807296,-6.986109,6.736011,-0.030085,0.014466,0.006491,0.401855,0.216553,-0.112305,-1.24478,-7.370006,6.517204,-0.028603,-0.003273,0.017848,0.43335,0.242676,-0.414307,0.498094,-6.789877,7.10989,-0.076388,-0.011001,0.008629,-0.342529,0.611328,-0.330566
1.806961,-7.291118,6.255717,0.007608,0.00394,0.001731,-0.470215,0.542725,0.169678,-0.009547,8.465632,4.896523,0.015318,-0.002292,-0.000476,-0.069336,0.638184,0.190186,-1.914831,-6.97965,6.708551,0.025658,0.001023,-0.004914,0.400146,0.217041,-0.108887,-1.403306,-7.197415,6.551448,0.056121,0.02695,-0.008853,0.432617,0.243652,-0.408447,0.318738,-6.923033,7.014888,0.011305,0.046841,-0.002762,-0.341797,0.61377,-0.323486
1.809846,-7.359155,6.267138,-0.019001,-0.004238,-0.002021,-0.476074,0.544678,0.177734,0.070518,8.491658,4.950921,-0.017653,0.003996,0.007942,-0.076416,0.63623,0.198975,-1.82079,-6.84623,6.782177,0.006102,0.00491,-0.003029,0.394043,0.217529,-0.100098,-1.34621,-7.087858,6.635805,-0.026429,-0.01955,0.016913,0.42627,0.241943,-0.404541,0.270348,-6.716865,7.081091,0.061319,-0.034502,-0.016484,-0.348877,0.61377,-0.320068
1.869018,-7.415047,6.221539,0.014175,0.003512,-0.001674,-0.462646,0.54541,0.171875,0.037058,8.470906,4.899988,-0.005547,0.00592,0.00378,-0.063477,0.637451,0.192139,-1.868678,-6.940207,6.761143,-0.0407,0.007251,0.009514,0.408447,0.219238,-0.107666,-1.258405,-7.3434,6.591803,-0.04555,0.00078,0.021945,0.440186,0.243896,-0.411133,0.515837,-6.677969,7.140667,-0.034381,-0.02902,9e-06,-0.335938,0.616943,-0.325195
1.790819,-7.248096,6.273132,0.013218,0.003125,0.004599,-0.474854,0.55127,0.176025,0.050438,8.46713,4.898667,-0.019089,0.008024,0.007465,-0.073486,0.642334,0.196289,-1.818332,-6.996253,6.702978,0.01262,-0.001934,-0.006842,0.397217,0.223633,-0.103271,-1.363933,-7.306662,6.523501,0.034847,0.010469,-0.003852,0.428955,0.251465,-0.406738,0.397022,-6.863428,7.032114,-0.045336,0.056954,0.00293,-0.345947,0.62085,-0.32251
1.825487,-7.411214,6.252391,-0.040239,-0.001688,-0.003968,-0.47998,0.542969,0.169434,0.012786,8.446543,4.95569,-0.005973,0.00462,0.003925,-0.082031,0.633545,0.190186,-1.89189,-6.87846,6.760097,0.00838,0.014673,-0.000246,0.390869,0.217285,-0.108887,-1.32927,-7.097409,6.600051,0.013711,0.000515,0.003562,0.422119,0.240479,-0.41333,0.216553,-6.809579,7.052795,0.043182,-0.01221,-0.006514,-0.353027,0.614014,-0.328125
1.840006,-7.414509,6.229422,0.045089,0.001122,0.000791,-0.473389,0.541992,0.175293,0.081022,8.483376,4.868156,-0.004947,0.001372,0.006609,-0.073975,0.634033,0.195068,-1.825746,-6.936494,6.730149,-0.016226,-0.010256,0.001383,0.397217,0.216309,-0.104248,-1.305836,-7.218709,6.602416,-0.041061,-0.002571,0.024958,0.431396,0.242432,-0.405273,0.494263,-6.728503,7.136917,0.014036,-0.051617,-0.013968,-0.345947,0.611084,-0.323242
1.826235,-7.191941,6.295465,-0.009797,0.003145,0.002241,-0.4646,0.54248,0.17334,0.038219,8.495817,4.936956,-0.008384,0.010238,0.003686,-0.065674,0.629883,0.198242,-1.815076,-6.929884,6.726637,-0.004617,0.014368,-0.003457,0.406006,0.214355,-0.105957,-1.315041,-7.314574,6.542036,-0.01041,0.002449,0.006029,0.436768,0.239502,-0.406494,0.459339,-6.770764,7.086221,-0.031371,0.049064,0.010174,-0.340088,0.612061,-0.318604
1.818797,-7.503321,6.189123,-0.040426,0.002087,-0.005177,-0.476562,0.538818,0.169434,0.040505,8.438148,4.954408,-0.029668,0.000152,0.007364,-0.076416,0.630615,0.194092,-1.89843,-6.980092,6.748196,-0.012046,0.003769,0.002969,0.393555,0.212891,-0.112061,-1.337934,-7.222426,6.589463,0.027077,0.005792,0.005292,0.425781,0.237793,-0.412109,0.228452,-6.828887,7.072767,-0.01527,0.003637,-0.004799,-0.35083,0.612549,-0.329102
1.828335,-7.317646,6.266484,0.071752,0.001536,0.004404,-0.480225,0.550537,0.175537,0.034806,8.429423,4.892079,0.006167,0.009657,0.002866,-0.078369,0.641602,0.192871,-1.828153,-6.928949,6.717673,0.015992,-0.000939,-0.004492,0.390381,0.221924,-0.107178,-1.332975,-7.144541,6.618844,-0.006389,0.002081,0.008011,0.422607,0.250244,-0.408203,0.426126,-6.822756,7.062228,0.030256,-0.039308,-0.005097,-0.353271,0.621094,-0.324219
1.831211,-7.20677,6.318588,-0.044321,-0.001904,-0.00169,-0.474121,0.546143,0.174316,0.056125,8.512973,4.912746,-0.002504,-0.002606,0.006014,-0.073486,0.638672,0.195068,-1.866946,-6.866901,6.781747,-0.006871,0.009957,0.002625,0.395996,0.220459,-0.10376,-1.311594,-7.268816,6.566345,-0.035786,-0.003093,0.019695,0.429199,0.243652,-0.410156,0.432596,-6.698657,7.1226,0.014556,0.02167,-0.006659,-0.349121,0.61377,-0.324707
1.824598,-7.545232,6.175594,-0.012258,0.005093,0.000181,-0.470215,0.543457,0.171875,0.054409,8.468378,4.932996,-0.030345,0.012621,0.005728,-0.069336,0.632324,0.192627,-1.839493,-6.960094,6.7349,-0.024226,0.000754,0.000956,0.400635,0.217041,-0.104492,-1.320477,-7.301256,6.558539,0.015808,0.007191,0.001943,0.434082,0.24292,-0.411377,0.308199,-6.757567,7.104456,-0.039547,0.007229,0.002418,-0.342285,0.614258,-0.325439
1.780394,-7.267168,6.279685,0.048532,-0.001444,0.003667,-0.472412,0.540283,0.176025,0.008474,8.423165,4.930118,-0.009046,0.001353,0.004044,-0.071533,0.62915,0.199219,-1.877008,-6.98562,6.718421,0.00109,0.009057,0.000326,0.399902,0.211426,-0.101318,-1.342734,-7.170704,6.597817,0.004148,0.005919,0.008165,0.431641,0.23584,-0.405762,0.387562,-6.864761,7.031963,-0.008771,-0.014761,-0.002453,-0.344482,0.607178,-0.318848
1.848942,-7.315041,6.272188,-0.043437,-0.000516,-0.004992,-0.467529,0.537842,0.17749,0.086451,8.501235,4.898835,0.014655,0.001472,0.00333,-0.067383,0.628174,0.198242,-1.830816,-6.923266,6.755621,0.020953,-0.004758,-0.004525,0.403076,0.211182,-0.10083,-1.307686,-7.214047,6.588041,-0.01501,-0.009433,0.011529,0.433838,0.23584,-0.407715,0.393106,-6.770747,7.09311,0.044582,0.001636,-0.011184,-0.34082,0.607666,-0.322754
1.815797,-7.447049,6.221258,0.012612,0.003745,0.003308,-0.477539,0.539307,0.170166,0.019973,8.504888,4.943317,-0.032494,0.010903,0.006616,-0.074707,0.630371,0.189697,-1.808146,-6.866234,6.735344,-0.020654,0.012652,0.002301,0.394043,0.213623,-0.106445,-1.3005,-7.260427,6.56683,-0.015051,0.005477,0.011122,0.430176,0.239014,-0.409912,0.404883,-6.728847,7.112777,-0.021115,-0.005776,-0.000578,-0.350342,0.609375,-0.326904
1.801973,-7.284659,6.287846,0.012596,0.001908,-0.000448,-0.467529,0.540527,0.166016,0.028403,8.41132,4.905697,-0.010679,-0.000563,0.002945,-0.064941,0.63501,0.186768,-1.905985,-7.015429,6.748823,-0.02779,0.002521,0.00713,0.406494,0.217285,-0.111328,-1.358792,-7.247152,6.575066,0.012455,0.007707,0.006914,0.437744,0.240967,-0.41333,0.362071,-6.823974,7.021369,-0.021071,0.014954,0.001464,-0.342285,0.612061,-0.329346
1.830464,-7.351529,6.242463,-0.012841,-0.000518,-0.001401,-0.472412,0.533936,0.175049,0.049367,8.484488,4.907845,0.006641,0.009291,0.005655,-0.070557,0.624756,0.194092,-1.810971,-6.958547,6.733997,0.034033,-0.003307,-0.009294,0.400635,0.208496,-0.103516,-1.297899,-7.167519,6.622742,-0.006078,-0.007414,0.00662,0.430908,0.234863,-0.407959,0.331126,-6.790406,7.093649,0.020551,-0.0108,-0.01151,-0.346924,0.603516,-0.323975
1.819407,-7.38292,6.240066,0.002422,0.005056,0.002276,-0.475098,0.538818,0.171631,0.037124,8.505829,4.951846,-0.017074,0.001287,0.003084,-0.076172,0.628662,0.192383,-1.86126,-6.852057,6.765835,-0.0069,0.011748,0.001232,0.39502,0.211914,-0.107178,-1.322696,-7.2579,6.579085,-0.021901,0.010564,0.018098,0.427246,0.237305,-0.411621,0.444467,-6.752588,7.079173,0.000672,-0.011568,-4.6e-05,-0.349365,0.609375,-0.324951
1.811975,-7.330178,6.253606,0.011615,0.002532,-0.001257,-0.473633,0.537598,0.182129,0.045886,8.428774,4.881114,-0.0228,0.008723,0.006633,-0.074463,0.629395,0.203369,-1.864758,-6.961265,6.723822,-0.030318,-0.005057,0.004652,0.394531,0.209229,-0.094971,-1.361157,-7.221708,6.557281,0.017735,-0.001527,0.001994,0.428467,0.237549,-0.396484,0.356129,-6.771846,7.049626,-0.003206,0.021145,-0.005545,-0.347412,0.60791,-0.315918
1.832375,-7.301417,6.294701,-0.005513,-0.001193,0.00124,-0.480225,0.547119,0.179443,0.035079,8.446468,4.883372,0.005943,0.003099,0.004116,-0.081299,0.635986,0.200195,-1.803197,-6.961613,6.729535,0.019456,0.012789,-0.005315,0.389404,0.219238,-0.099609,-1.290202,-7.157294,6.580797,-0.00483,-0.002048,0.009982,0.421143,0.244141,-0.405518,0.337646,-6.768232,7.121282,-0.000747,-0.013013,-0.001886,-0.354004,0.615967,-0.317627
1.825727,-7.43528,6.227282,-0.023326,-0.003053,-0.001596,-0.474121,0.536865,0.179199,0.046776,8.542043,4.986774,-0.007755,0.00048,0.00344,-0.072754,0.627441,0.204834,-1.893768,-6.89214,6.784755,-0.014361,0.000857,0.003539,0.397217,0.208252,-0.097412,-1.344707,-7.255804,6.590876,-0.034244,0.007315,0.017565,0.430176,0.235352,-0.401367,0.414471,-6.795919,6.785184,0.002591,-0.015534,-0.003784,-0.346191,0.607422,-0.314453
1.911603,-7.310059,6.285768,0.039181,0.023838,-0.020266,-0.479004,0.540283,0.171875,0.150448,8.44027,4.985506,-0.026103,0.026444,-0.004376,-0.078613,0.629883,0.19458,-1.713157,-6.99453,6.705534,-0.005819,0.003877,0.000101,0.391113,0.215088,-0.104492,-1.236771,-7.280681,6.487805,0.033886,-0.007832,0.006107,0.422852,0.237305,-0.408447,0.167045,-6.459767,6.690897,0.152525,-0.025811,-0.054586,-0.355469,0.607422,-0.323975
1.590893,-7.293704,6.283142,-0.037292,-0.018953,-0.009706,-0.473389,0.539062,0.171387,-0.236348,8.396203,4.798985,0.004959,0.009707,0.014296,-0.06958,0.632568,0.19458,-2.083418,-6.943623,6.747671,0.009849,0.022984,0.008118,0.39917,0.214844,-0.106445,-1.497043,-7.132651,6.627638,-0.024779,0.064407,0.014775,0.431885,0.240479,-0.410889,0.501231,-6.630535,8.123872,-0.284002,-0.155288,-0.013133,-0.349121,0.611572,-0.31958
2.217748,-7.473351,6.248992,0.018381,0.000452,0.014259,-0.474854,0.541016,0.178467,0.361312,8.580994,4.822661,0.029326,-0.054856,-0.019218,-0.074219,0.630859,0.199707,-1.606769,-6.942662,6.790183,0.015023,-0.05787,-0.01775,0.39624,0.213867,-0.100586,-1.236345,-7.372335,6.6598,0.016853,-0.103004,0.014267,0.428955,0.240967,-0.404053,0.999774,-7.759283,6.598193,-0.169323,0.079531,0.075893,-0.348633,0.615479,-0.310791
