# sampling frequency: 40
# units are seconds/meters/radians/a.u.
seg1_acc_x,seg1_acc_y,seg1_acc_z,seg1_gyr_x,seg1_gyr_y,seg1_gyr_z,seg1_mag_x,seg1_mag_y,seg1_mag_z,seg2_acc_x,seg2_acc_y,seg2_acc_z,seg2_gyr_x,seg2_gyr_y,seg2_gyr_z,seg2_mag_x,seg2_mag_y,seg2_mag_z,seg3_acc_x,seg3_acc_y,seg3_acc_z,seg3_gyr_x,seg3_gyr_y,seg3_gyr_z,seg3_mag_x,seg3_mag_y,seg3_mag_z,seg4_acc_x,seg4_acc_y,seg4_acc_z,seg4_gyr_x,seg4_gyr_y,seg4_gyr_z,seg4_mag_x,seg4_mag_y,seg4_mag_z,seg5_acc_x,seg5_acc_y,seg5_acc_z,seg5_gyr_x,seg5_gyr_y,seg5_gyr_z,seg5_mag_x,seg5_mag_y,seg5_mag_z
0.8332540237429608,-0.10465455715852473,9.725693882521911,-0.006236991027070071,-0.00030522798863968686,0.010544283797546348,-0.3401819068781098,-0.03214256172867262,-0.539372844228639,0.0784667577115881,2.289404959221149,9.560131524062513,-0.009605245358150884,-0.003404791723417542,-0.011077972374485698,-0.8106134573543076,-0.03744433954974954,0.02417519161825489,-0.08086217993710154,1.7077531069698764,9.570310487705639,-0.0057515593550766355,0.0031275051197092573,0.0026550323371331702,0.5283602539322941,-0.026645011965762737,1.181610960746364,0.3166394041771742,1.6944570678459483,9.740079999307975,-0.004415436918773638,0.003503002372054586,0.004752718821654686,0.6315322500190771,-0.08856749269694253,-0.5552202576853793,-0.31502838787954945,1.6700729812712425,9.673934888533765,-0.0059836404303283425,0.0031375632861223037,-0.006708778340809708,0.3905404062173438,-0.324313363055851,-0.7098217151510623
0.8249323910103726,-0.10305552729155529,9.730120386576859,-0.0005030306403956166,0.00036610411374744854,0.012789169204945269,-0.34748930668101297,-0.041431530534662406,-0.5390896346915829,0.09489362499178769,2.2916256957422183,9.550666551549995,-0.009669151899988475,-0.0038505017762757595,-0.009760655593035053,-0.8067076581690835,-0.03842775383004653,0.023451085218606255,-0.08984944993864435,1.7328387980888231,9.569567051088194,-0.004645010059975739,0.0032107965684912442,0.0008789942767100531,0.5300597444842131,-0.02618972251586358,1.1798832667975558,0.3210862388692458,1.7371484106247377,9.748814955573765,-0.002961081158103795,0.0034775496598122317,0.0071048811206565945,0.6327455790315335,-0.0885809559557576,-0.5562056857386604,-0.31603542410021823,1.7002539946411446,9.661934258049659,-0.004820182216194237,0.0036344013561280053,-0.009743419327179743,0.39347693029217096,-0.3257727852376098,-0.7086107493161392
0.8383518943135547,-0.08023822240190523,9.741693475476051,-0.0006420475029985008,0.0012731277305410896,0.011204061173771797,-0.34610117675036967,-0.03067190507673596,-0.5466470792531257,0.0938318106467979,2.306352497955453,9.53779242944909,-0.010845439770342382,-0.0034333862937273706,-0.01167586381155248,-0.8081793998776607,-0.039716513801664764,0.020801676779201514,-0.09055686402882537,1.7105093993024776,9.590163990014776,-0.006048546291130925,0.0019275889930842455,0.003565861107472752,0.5286042617478101,-0.024958541085364286,1.1796384744585702,0.31689906998868583,1.7266893864834085,9.788006885352445,-0.005157797464130668,0.003987547519946738,0.005378876006674058,0.6336885487355242,-0.08839033969923761,-0.5606107468710517,-0.2983588366437722,1.6808768328367847,9.678890166320887,-0.007715726096358128,0.003960159365200279,-0.004416392261585772,0.3949379444280135,-0.3260157635578618,-0.7098357228794276
0.8265942300068578,-0.09158188509769354,9.726192338721116,-0.007373171268147356,0.00012132880260815688,0.011366203357859825,-0.3569978127000322,-0.03681345503205967,-0.5365636382666973,0.09861309628029329,2.2964426329888235,9.542608836619802,-0.010016530915911398,-0.002336713817010203,-0.009374566440533916,-0.8059804585554762,-0.04218638348421834,0.019387353332180987,-0.08676166442999227,1.7242392731999834,9.563687692846107,-0.0039034608684911138,0.004683867337270789,0.004923158134267723,0.5298040967943524,-0.025961003535710223,1.1781738561134933,0.30597624224242115,1.7344304908735153,9.75020528616872,-0.0017978025924151914,0.003789734918509569,0.005148909407450716,0.6329477520097989,-0.09229776212658579,-0.5608029217534143,-0.31292451956789324,1.6779569615412133,9.675812803396033,-0.005881888464096613,0.0038437793427483443,-0.008727835897872294,0.3920019447652572,-0.3289519849979973,-0.7127524591778926
0.8310782598057649,-0.08543274746811605,9.730038325353313,-0.003771970379608432,0.0002463985490772934,0.010645823792002629,-0.35166092659197246,-0.031182597263453016,-0.539767715896737,0.09174068713089921,2.311082676518313,9.558447801830258,-0.009829214372279647,-0.0046207325312540015,-0.011620133635134415,-0.8084441826482497,-0.03389497840747451,0.019197539086050014,-0.09196561172906405,1.7221254906115842,9.577004018828806,-0.006518630756896094,0.004416588534926556,0.002635047014457911,0.5261726285286218,-0.020581090403533772,1.1757070081398182,0.3256782798073961,1.732915570599249,9.742238274850106,-0.00405914960533796,0.0028286171596668655,0.006465052006405117,0.6317352292839057,-0.08546316090430263,-0.5611180213750547,-0.3120562790307232,1.6998608865898632,9.658711453746584,-0.00694146718483199,0.004232076416405068,-0.006758426261165293,0.39221955490334093,-0.32065540233742185,-0.7166672687497673
0.8205455112631203,-0.09690527841528368,9.738421998820455,-0.0032671265523952294,0.0008360201227694939,0.010236996065494924,-0.35019281610270087,-0.029472787384375296,-0.5390438845844143,0.07774920289583231,2.2908470787097275,9.565994318657845,-0.01012801913625316,-0.00294470694356163,-0.00964664866117916,-0.8113452337685011,-0.038934202038945,0.023236367330691867,-0.11051570611810894,1.70779979324095,9.577914637850421,-0.00633458443180892,0.003703910591307285,0.002355842611017504,0.5241763941488795,-0.02857877468719522,1.1797118038150067,0.3143873645839726,1.7202306336128221,9.775284374424304,-0.0031769939573482505,0.00321395649411216,0.005248490454304645,0.6295884908052138,-0.08879394936422597,-0.5539812647490133,-0.3195287998258922,1.6749002463939835,9.692715373637936,-0.007049602282782979,0.0029871021365804992,-0.007601845399652456,0.3907862020226669,-0.3272426997003408,-0.7105527673005938
0.8447316505605855,-0.08744752983763013,9.713388209260634,-0.002761282757947232,0.0014256432672078451,0.00982816039782259,-0.3584517560729484,-0.03266923081224495,-0.5343456021343824,0.09853838865414694,2.3221635577275825,9.557565527141229,-0.008231814546970079,-0.00434376726376682,-0.010006225323393406,-0.8157340081228137,-0.03989760425878972,0.024253051071944157,-0.08039670041812087,1.7301611610892356,9.560669657896888,-0.0038907441055489583,0.0032997699904843635,0.0029091000868025937,0.5215423928185864,-0.02848825713340275,1.1860799156673905,0.32475312473199547,1.7312437219315537,9.742566246066506,-0.002538602424896643,0.0024643921705854235,0.006219429472054985,0.6291154693340425,-0.09023216918178173,-0.551763393597616,-0.310145554832156,1.6963144921647624,9.642810968577297,-0.0049168638796444255,0.0031190982523349527,-0.006781557688417095,0.38591079063365735,-0.3282253777428168,-0.7088254553273962
0.8257048653790996,-0.09630734547540803,9.726222814572921,-0.004728000911608361,0.001364921214361069,0.011622721774972401,-0.3489634490625723,-0.03801485250986448,-0.5395590050291134,0.08241442697540857,2.2999294448981744,9.541367896065305,-0.011023825997620508,-0.004486025392253833,-0.010627642803286154,-0.8162202885520352,-0.043362693292743115,0.022384424214882535,-0.09876629748720016,1.716149200726677,9.561521575919798,-0.006377154732801644,0.0035264112471742725,0.003237089314447218,0.5200308040058028,-0.030945303373268774,1.1831882431347154,0.3263006015940277,1.7153943705903028,9.761392822426084,-0.00530010027412683,0.004931622969775796,0.005530877504355024,0.6246741747069993,-0.09321720564753361,-0.5570650128157348,-0.3154082533614615,1.6949525595341752,9.659465126487543,-0.008396608086225164,0.003852698115527912,-0.006954882520714918,0.3864054680891126,-0.32968869836145653,-0.7078487967472732
0.8322964399495293,-0.09543593915911114,9.737899609925858,-0.005856639680573763,0.0018951946191538016,0.010140714472238105,-0.35088906861233615,-0.03314385413275256,-0.5351396727085315,0.08798127527193368,2.305506952915451,9.572908753209028,-0.009159374328964876,-0.004293312557751225,-0.011179341759842342,-0.8027779296874039,-0.04397265650665968,0.026012278957307837,-0.07731282899227064,1.7084431283794548,9.597665790360239,-0.0056101183325225025,0.0022353074799862393,0.0032550955078173216,0.5315043186245033,-0.033225157269705693,1.185559243663051,0.31098711900514386,1.7097062017331266,9.749361407876988,-0.002859062135058268,0.00374464261893413,0.005513776325200198,0.6371557136269717,-0.09611519421030296,-0.5527330297272094,-0.32686201331711917,1.685954863563729,9.703790877243753,-0.006372001222019937,0.00273972091673185,-0.006977013954765922,0.39667385877854633,-0.3323554748551016,-0.7049527482701076
0.8425541298765946,-0.1093613352821461,9.701315627075754,-0.001597055789302255,0.0023926458746057417,0.01218395315669706,-0.34749470078827704,-0.04045454332481055,-0.5395756253246128,0.08865105703122891,2.3071409833977365,9.556969376252011,-0.009396264026507943,-0.002170510305610726,-0.010520190889779063,-0.8057354118988599,-0.03696656064929463,0.023168345623642346,-0.0688031896068186,1.7309636629528706,9.580643528699191,-0.006419734374479317,0.0033479120002239916,0.004118346367158164,0.530768040610807,-0.02767402229246789,1.1786716312210626,0.3130907253148891,1.7407493033475883,9.718431001904097,-0.00483983764139864,0.004521268789375259,0.005647126184097716,0.6354285378704269,-0.09053813058179344,-0.5562035995924565,-0.305588049877724,1.7114275173557476,9.633586097403835,-0.00704650514358507,0.0031720169233916203,-0.006654028471470971,0.39421319846569114,-0.3291899166095721,-0.7088540728937321
0.8232094165641873,-0.09457622324972889,9.742385696031741,-0.001993906761794468,-0.0004865736107760859,0.011005222712265601,-0.3580409772277502,-0.03289264282735803,-0.5441156473651806,0.08322184899714705,2.2931117583639136,9.543001926052602,-0.009584493461071774,-0.0049803335033482415,-0.010875195505833423,-0.8071630462833832,-0.04243821145400955,0.029410732549761967,-0.09588047724888447,1.7136954903664772,9.57847769410824,-0.006987971658430385,0.0025452316099621427,0.0018080304623051074,0.5310744707997236,-0.02952881369630083,1.1884550273281198,0.31678063368639214,1.709820787419431,9.755917408316177,-0.004803477293969458,0.0033142125905667526,0.0070952125965927666,0.632771690514722,-0.09146371415732023,-0.5522655207241248,-0.3118003289185403,1.667611302648218,9.697341935158684,-0.007512235299528779,0.005376589541534902,-0.008456511201811965,0.392766956307758,-0.32894193143832223,-0.7034781285138622
0.8440634304865602,-0.09332259155752005,9.737386400790832,-0.00535079260550877,0.002487815724155252,0.009732884896857589,-0.35355475117495394,-0.038034028807117114,-0.5336633708662379,0.09467458000083914,2.299004431130054,9.545793927167978,-0.009741049657521319,-0.004288042498545847,-0.008435502836249208,-0.8064735551767771,-0.04097382903523589,0.019116015110924825,-0.09610858278903603,1.7346113680013286,9.58762947080058,-0.0036779165297706634,0.004142678198876765,0.0037607773585511383,0.5283314985620355,-0.027404534557514897,1.178932767594013,0.3068878295184313,1.7347080058034767,9.741888054952632,-0.0019395461713609715,0.002922924148917562,0.005745293384052161,0.6349195369096692,-0.08740097748044838,-0.5594109133346196,-0.3220571797975549,1.7118687223791247,9.659609462382468,-0.005021901838397505,0.002059038759321506,-0.0066771598987227735,0.39078383114640836,-0.32797664064063164,-0.7115280570396514
0.82120707301857,-0.09652565609345612,9.7185428453441,-0.0021028835235940664,0.001808016625029401,0.012595798933367184,-0.3570322602737987,-0.03460753481939761,-0.5404650187121334,0.0908239160825135,2.3080055496515675,9.525675359655606,-0.009619234138674798,-0.0033874722797707013,-0.01106333164734468,-0.8127973765398288,-0.04208069698832276,0.024538613814742302,-0.09261611445642672,1.720265285145805,9.588299409341168,-0.00623569739007709,0.0026342341537874507,0.0038391523129989885,0.5249638321191334,-0.02875691555553263,1.186787817330683,0.3202001386940656,1.721348832482187,9.730523262759895,-0.005122382597642591,0.002785563286746565,0.006832910631560903,0.6276250245683572,-0.09197321605556447,-0.5546605089187127,-0.3208020713995515,1.7021848942452829,9.654712309680798,-0.00821534704712164,0.0021344211690710953,-0.006482865814465924,0.38738690758447275,-0.330418053646522,-0.7066305773971172
0.8336060008527422,-0.09194926280706996,9.718002613864721,0.00034762707609707193,0.001656861683030825,0.011108974470187088,-0.34142986143210663,-0.03408954415633024,-0.5432730126682772,0.09101884459927934,2.305992121349086,9.526161078035042,-0.0075020677227225635,-0.0035635294569941463,-0.01087790447157996,-0.8098725702134707,-0.03837720763002383,0.02590433140131121,-0.09751459852538022,1.7312023965566445,9.558760480301459,-0.003266236154754085,0.0028958224074245582,0.0023221033495594216,0.5257094865008174,-0.025610186121873206,1.1847962344390066,0.3275803149536163,1.7266176245585614,9.75006840945758,-0.001976890847200786,0.004130005524600874,0.004299214573037734,0.6293616789400301,-0.08876766459804553,-0.5517825809407139,-0.31055913549873837,1.69412651641724,9.669531734194333,-0.004136394399033863,0.0037618497019399045,-0.00722295882555452,0.3898271942738538,-0.3223555738104419,-0.7037180251200872
0.8152353426635286,-0.06443177306054657,9.731245850242022,-0.009335327996234608,0.00018730436842314833,0.01086390842543732,-0.3565837370730567,-0.03166886006593313,-0.5448567653614457,0.090182888131052,2.2958376482884235,9.559677638220172,-0.013292218441720538,-0.0033189945773430115,-0.011268414834977994,-0.8057517547581442,-0.038809755949498155,0.017595978981338734,-0.10666179697669367,1.727679783471101,9.585263591638464,-0.011335302539831695,0.0025935469399647423,0.001876014552364841,0.5312439216099877,-0.026971778731924377,1.17621932266456,0.2992458058114058,1.7368324388177252,9.76288487766535,-0.009758121718513353,0.004487549718317379,0.0051249320046521185,0.6351563262427745,-0.08838692721210702,-0.5601332172445976,-0.3231648146236413,1.6829876340965224,9.661301294142598,-0.010809591482592322,0.004568829082244974,-0.007204987633348169,0.3939460439856943,-0.3265094716109579,-0.7142267459801225
0.8268603359157299,-0.13524094871797607,9.729783736839591,-0.011620206364571587,0.0003426395962296886,0.010919377415945725,-0.34873574813245295,-0.03312900566810604,-0.5407719386321196,0.09191870662521387,2.2760843510370776,9.573686170757712,-0.008397886153393524,-0.005101872766541859,-0.011859970254122049,-0.8101293999931793,-0.03945411499036554,0.021778901120540893,-0.09045919742364061,1.687540000212692,9.573809753998123,-0.001491501948495257,0.0027151491857407128,0.0043436514405286245,0.5264028459040726,-0.02711455882010491,1.1816317588864493,0.3221816499305111,1.6877796088580652,9.768509201046234,-0.001941066271020327,0.004733870902045606,0.005305918206519316,0.6300525828689262,-0.09199727706413523,-0.5563883815312642,-0.31428220520419736,1.6530492645209247,9.7460111554697,-0.004631730869140663,0.0022909564415788688,-0.007374777131455415,0.3924950565162265,-0.32772936928556384,-0.7108023810715681
0.8479848865440329,-0.07864169057686618,9.713509240453273,0.007869226687845544,0.001676941453051704,0.011409271129144766,-0.34631009066993296,-0.025800205171997506,-0.5412643512261506,0.11880358306637184,2.3639575099332357,9.543706745323686,-0.00512034139520699,-0.0023562379944972386,-0.008555012303311862,-0.8013258362820509,-0.04256395364453088,0.02353037122567065,-0.07628574692344585,1.7784759586224321,9.570380601913351,-0.002471410266777957,0.003160324489748341,0.0034719991953860523,0.5351412890959575,-0.0323263976716088,1.1813699720110096,0.3404400849827121,1.7748424535123408,9.713271807044073,-0.0007021077188543764,0.0026308800888541132,0.0062411082116236435,0.638824445053725,-0.09374328715701993,-0.558389599302133,-0.2895405956911352,1.7400777273649983,9.582563982016925,-0.0038500999143763533,0.00310663224371952,-0.006855342788774418,0.39835992048517227,-0.33040533378102266,-0.7105766696522609
0.8241536697156467,-0.08730678096089138,9.762488624096955,0.010494339069202148,0.002113040945887018,0.012380334060986493,-0.3491912534110586,-0.02972169534767356,-0.5358782401001874,0.0699134369934277,2.2768671033697228,9.540247140206302,-0.014248934051310037,-0.005308062880833735,-0.010934054959370396,-0.8096496996844368,-0.048200368598231035,0.01343947029819504,-0.09583600363311039,1.6916655821433302,9.580472819862978,-0.010497921490433531,0.003036517449734514,0.0021416536036790966,0.5257650247098636,-0.03767215359284381,1.1753968868958746,0.2926235973667995,1.693925270499351,9.768126874442808,-0.009722286295305416,0.005093426739889088,0.006132611942516767,0.6299677748525655,-0.09894501605800482,-0.565828779323382,-0.3272640289791311,1.6514834615713392,9.703017577116652,-0.011768421788648691,0.005663339746280607,-0.0072556319864404,0.3895566113934737,-0.3353074091255671,-0.7166436479242202
0.815344970258418,-0.07128493262502984,9.715235532232246,-0.011454596240214415,0.0003508239279796688,0.009486030178384564,-0.3518836685940111,-0.03362943142110307,-0.5375738385971861,0.091612209955448,2.2867058751038543,9.561852031613258,-0.008386045142184008,-0.00334673099997784,-0.010458703623635164,-0.810625338121619,-0.0367759845526352,0.02147240686078707,-0.1004502509819318,1.7099980200494844,9.573569546159804,-0.00517071847288957,0.00254001683410438,0.0029443528926718205,0.5276616516274777,-0.023700878141059076,1.1823184767122203,0.30946628040014046,1.7160365286420078,9.738984655968792,-0.0008438777846954069,0.0017620341039136802,0.006834516083904016,0.6283479423933135,-0.08662967612079678,-0.5569273657258144,-0.3012868417083929,1.6944331802264259,9.662983393398859,-0.0034620463454517938,0.00315763277267328,-0.00850478432265531,0.38908049330207983,-0.3248023835700074,-0.7085960389227787
0.8478073811354552,-0.0984970260869564,9.725259748085358,-0.012043132044529848,-0.00332808431479487,0.010456271771125436,-0.35070132257597403,-0.03312910160454535,-0.5422213723483595,0.1064786675049321,2.30627442091508,9.538993760205221,-0.010659756185282181,-0.002481357957096492,-0.008203366489380576,-0.8032752551317617,-0.04006317489819215,0.026164387324758294,-0.08330517622350266,1.7214252132789214,9.573205216055381,-0.006150626791172269,0.0029851921381120077,0.0020727006475292488,0.5312874347771689,-0.028846841597885482,1.1838068834618767,0.31469212012494874,1.7362150469517306,9.739917067355893,-0.005761266261033105,0.005349107902354542,0.0054255529412632056,0.6364152845256815,-0.09222843519287918,-0.5544822224228373,-0.31375471228001817,1.6995136407718658,9.648616765052047,-0.008000120910111246,0.004632359527541976,-0.004805031595233467,0.39666089401956267,-0.32893960197008065,-0.7071540143486186
0.839777040115401,-0.11616752437138787,9.741399223153698,-0.002057721968485045,0.0034140022280045013,0.011170651685895249,-0.3506849585708139,-0.031181064215209428,-0.5397754664734157,0.0784371114122984,2.308615596672714,9.533863070000628,-0.006596358934704127,-0.005350916593989124,-0.011096451523289816,-0.8091459643180193,-0.04015414017827429,0.023013410338455408,-0.11469175108898085,1.7109906717542642,9.577195872440482,-0.0016330223148149664,0.003602306218704993,0.0037396403605153934,0.5268611876169305,-0.028604079018737787,1.1796901537638462,0.3038193107112553,1.7011172535434578,9.765026252633872,3.926698454522692e-05,0.0021453601885786412,0.005616970425877863,0.6324962934221936,-0.08956224651030349,-0.5566802187011981,-0.32959453820960793,1.6593455758115103,9.721360407061924,-0.0045247480726901355,0.003364009263097555,-0.007489194453109142,0.38956040083424365,-0.3262697100759632,-0.711769352125961
0.8370823042361284,-0.07484473036316112,9.734128253624492,-0.0007413997912118973,0.0036844112943266952,0.010503720758085148,-0.3526654276712476,-0.03093319565890377,-0.54317734423739,0.10018881201316275,2.3190694012503528,9.55533097138439,-0.01092931955556519,-0.0038576253350984554,-0.010336981659379437,-0.807951400798975,-0.037095107019086075,0.018051138668145988,-0.08002813787876824,1.7355137905561495,9.576182997106889,-0.007003830557971315,0.003919296562563426,0.0038162167089809936,0.5290458026152443,-0.027192533684485806,1.1764835500966473,0.3388867192137945,1.7511024373032282,9.71965538340682,-0.005938848542480317,0.00387940811335448,0.005013221686652092,0.6300408772393873,-0.08714340295809313,-0.5588877458786395,-0.309924176466123,1.7197065724606915,9.615423414706097,-0.008004513633376837,0.004097603334646201,-0.007668519244611744,0.3907767803135051,-0.3267570567113631,-0.7129942191470683
0.8167792700849957,-0.08279372841877258,9.723065043097263,-0.00232256845709272,-0.0003692498497161972,0.01157609102031435,-0.34404840437133744,-0.02630110274976693,-0.5332270652598974,0.0900802145238202,2.312388915086574,9.537187361065214,-0.009064880543942883,-0.0036629610584816025,-0.010890727983385366,-0.8042394890278531,-0.035770453654681816,0.032169758447273815,-0.11175129036359535,1.7163896736816031,9.557768741156861,-0.005753726048851698,0.0031174324816877754,0.002646152731208732,0.529679932557505,-0.025566752997994165,1.1925760586449052,0.30828105357511465,1.7201036288715421,9.766194712953226,-0.004240720594138583,0.004983882984014974,0.005179942204706044,0.6355044701961707,-0.08944898889689698,-0.5466950784313016,-0.31885430237700074,1.6727816850153818,9.719204198184837,-0.00828657482176948,0.005115655097881454,-0.006132487639020205,0.3954688843869223,-0.32624748312098356,-0.6978743075031395
0.8295695012150865,-0.09751669799214738,9.734232927390194,-0.006483934263335313,0.0029303609384917677,0.010562813036256393,-0.3516587354216552,-0.023862089896231165,-0.5380438179632088,0.07483101247863091,2.3095060205635933,9.531261315827928,-0.008921652504941039,-0.004641742541419553,-0.010426643360173743,-0.8140316283284116,-0.04018405682540249,0.022300034440501267,-0.10315415809438848,1.733018333509022,9.576837399974139,-0.005796305690529369,0.0029389332347374932,0.0035274097839196787,0.5187848538543772,-0.030242004669358835,1.1792838490519875,0.29108245220401036,1.7162666065022525,9.724934299210569,-0.0028982572260968856,0.0013349913758581833,0.0049594265875967415,0.6234685640306095,-0.09002808098370944,-0.5558720514686813,-0.32449579193962724,1.6959794629106848,9.64235236160148,-0.004912954500798365,0.003139087814721617,-0.006798591013184375,0.3851736822085332,-0.3294493596910894,-0.7107746637205431
0.8373698280424909,-0.1013795856395301,9.729825970797558,-0.0011507905174136647,0.0007004673449624017,0.011628954840555197,-0.3514193005507806,-0.032158218330404886,-0.5402606321065919,0.10403145058576113,2.318237259978515,9.564215301393121,-0.009945849688214997,-0.003452201239580336,-0.010473393985756174,-0.8079288033286314,-0.042906553477319836,0.020144076416244626,-0.09083981387988951,1.721213500672126,9.580638514055535,-0.00677622216889728,0.003384098265577024,0.002654757624843297,0.5263404610782119,-0.031052786259901072,1.178498456353029,0.3269132214389397,1.7268290770761214,9.755783705694476,-0.004418312209066478,0.0035131714801460603,0.004766622847918894,0.6322327156992753,-0.09494974069599253,-0.5580798026333538,-0.3079497158728216,1.686566007541086,9.717012068015288,-0.008002404855479574,0.004279518555809362,-0.006718695889789944,0.39224463554726935,-0.33212726335983916,-0.7144592695098118
0.8253394821653919,-0.08921225968804736,9.742564666541933,-0.004608445066623799,-0.0002099182353858882,0.01163257608624862,-0.3475361152359221,-0.02628863378042817,-0.5419886269043682,0.08197498160429642,2.2840055018831658,9.533479184660992,-0.011281673650813616,-0.0023447058104908627,-0.009944851446793367,-0.8018515520271075,-0.03660351024003479,0.017528573296949748,-0.0913886772674837,1.7269305420333065,9.574102698187849,-0.004333357285461032,0.002979997908590441,0.0032110229057635813,0.534461423906347,-0.022843565583973387,1.1768827148396779,0.3190353260829525,1.723396991153862,9.749870168006902,-0.004488467429375727,0.0038500092491359425,0.007369461982872355,0.6356688338816424,-0.08542915097450976,-0.5577308439079977,-0.31352551019431946,1.6937647040158181,9.646249482521618,-0.007041603440457536,0.003190005094113884,-0.006674063416455079,0.39760905704351085,-0.3243057999462918,-0.7130209016565825
0.8331634604753846,-0.09351510164104052,9.738152628970433,-0.00646839575156344,0.0036301379101609152,0.012154163325970595,-0.35234908638613527,-0.03632014482331488,-0.5351345201132789,0.08450363420119204,2.3238287958536232,9.538361966080092,-0.009599487917008287,-0.004957970069216585,-0.010858671489826199,-0.8081606537361022,-0.039843309469940205,0.025689088818377587,-0.10088275673375556,1.722892928703988,9.571213401094951,-0.005540908994358083,0.003958351157613737,0.00349885061545355,0.5308266516289555,-0.028565649776558514,1.1869820280333794,0.3045227973948053,1.7345209758923605,9.761671732590186,-0.006080143564264191,0.004823493743140907,0.005166215282759446,0.632770399501686,-0.08854354842731836,-0.5530320032370422,-0.3350781435909125,1.6881135086942634,9.699626006594563,-0.007509351780522835,0.005399571806527159,-0.008479543805094443,0.3939774242633254,-0.32772245692680646,-0.7059246303520604
0.8341750130418712,-0.10008768746462898,9.722058712386929,-0.004164240517748143,-0.0019140795714297333,0.011067569484967331,-0.35239664785579095,-0.03191575375293023,-0.5402523753482108,0.07879945478647209,2.3058269024013236,9.54083467559331,-0.010261472075387284,-0.0035301624470360157,-0.009894182833543338,-0.8074185381131482,-0.046484262072337405,0.023647038394200612,-0.07573353744323445,1.7009754123766354,9.57851097172616,-0.005356853328585963,0.0032466731168117355,0.0032196358627319113,0.5312127623519136,-0.03641911942500999,1.1833972488225397,0.3182282497435848,1.6981494548653226,9.742498299509615,-0.004561088549573,0.0026453152445063857,0.005359026823979909,0.6339466455542847,-0.09543282309775201,-0.5573554395716106,-0.31057140033466796,1.6869536498136695,9.654075596537687,-0.006367250873676376,0.0025827881696242738,-0.007955886033781298,0.39470950511281333,-0.3357808787192404,-0.709581482118955
0.8224493882524778,-0.08783884617028502,9.734777152080708,-0.0011663017440664619,8.68019916099794e-06,0.01004262071851417,-0.35191221878653345,-0.0289849953070759,-0.5402502756073225,0.08968738900463372,2.296560293174198,9.516794506128583,-0.008360309216869252,-0.004923379775351382,-0.01026092015298784,-0.8137613056811712,-0.04671496667372855,0.024897460708834328,-0.11089228302911869,1.7247507192933045,9.561755180254398,-0.003310896166955764,0.0027113117727304583,0.003200438882823861,0.5234342808549,-0.03292531263629558,1.1836688528058494,0.3154072544729961,1.7384130027184332,9.74524710397039,-0.00363964725063154,0.005443435251519974,0.004707778515763028,0.6271309404125242,-0.09977525279415951,-0.553832610629931,-0.3199483585277234,1.6859042301147504,9.687087206727758,-0.005585349644466234,0.0037532990425445476,-0.005525782175067624,0.38762973261974176,-0.33310509725855614,-0.7080938578313719
0.8327484020607785,-0.09664476728652678,9.738157574668339,-0.0028892227213336173,0.00294370552072077,0.012151335888444845,-0.3495118127967057,-0.034095757842993124,-0.5463829240062985,0.0956978452751532,2.3061898905154345,9.531851660257628,-0.009639222659486815,-0.0033630501171256423,-0.011043837622427138,-0.8101367629740268,-0.03453739332974149,0.02312638317922049,-0.09794215964156362,1.7283469173623796,9.58125524009264,-0.006892196370043023,0.001470501746007315,0.003283416789223571,0.5281818020335262,-0.02173511016869131,1.1840031825719777,0.32114251016799256,1.7359575124022408,9.738327501928358,-0.0034997977271943818,0.002690454686524722,0.004998159506106443,0.6298108678108462,-0.08419882822166945,-0.5576995319734872,-0.33016822660730494,1.6827821186467318,9.667573460433998,-0.00743108219016462,0.002609246110303531,-0.007895124965374778,0.3929772459497935,-0.3208917031222042,-0.7098336908276801
0.8166702964918404,-0.09753711307845389,9.730982252424587,-0.00565789491881251,0.003316915694056225,0.011900080183183602,-0.3555991796431707,-0.03654930936964494,-0.5448744927739836,0.0760048931761434,2.285369824509351,9.568075788337245,-0.010881403306298517,-0.003392577493932928,-0.011638698425225025,-0.8110975542494554,-0.04139143352829968,0.022562194308709288,-0.09455558772025932,1.6915458888444723,9.572962954843929,-0.005385641558762562,0.0016920663212811353,0.0020867440103941085,0.5248932399919953,-0.029569108680123128,1.17898306543969,0.3167762203422794,1.7121817050983523,9.766914718043367,-0.004843706593582795,0.004530451359472687,0.005662049709666513,0.6280830153151133,-0.09542916534711751,-0.5577976737167587,-0.30452669813582683,1.6675872143345176,9.680641957883553,-0.008105457065233176,0.0032194582036458646,-0.006618305193827111,0.3905528283496645,-0.3296831768690582,-0.7085965676896854
0.8280333368925944,-0.09352254381703871,9.706549306951391,-0.00315054349546037,-0.0007358321673249144,0.010250880191707553,-0.3506768255726046,-0.031427044259662355,-0.5387999975235916,0.09657276327051195,2.3167003205061816,9.559838537681001,-0.008929651581816708,-0.004630574083700371,-0.010418879319903884,-0.8069374209702294,-0.04280450937533101,0.02429017398150989,-0.08102888825158042,1.7386386241958296,9.581128487013425,-0.0030544820469349727,0.0037317304472600237,0.0031728612156765447,0.5258914973560416,-0.030034661694633334,1.1821539751870351,0.3257841211915374,1.7287551112546424,9.718335089672326,-0.001060782732284378,0.001498454329477689,0.004979133119063684,0.6295764853944025,-0.09295228285250066,-0.5546642306855025,-0.31329927450309986,1.7088937341770556,9.666736212977998,-0.004521674195961054,0.0035549201792584363,-0.006545383257279982,0.3907996303675713,-0.33212404227159764,-0.7088390916073574
0.8305449029279101,-0.09494316397904509,9.754307076417788,-0.001032260713135467,-0.000893359406058754,0.011631778530892143,-0.35160865169214794,-0.02241047153333266,-0.5314500480439186,0.07334840567154846,2.2999596769863424,9.515677219532002,-0.010266465497467094,-0.003524032918388188,-0.009888309621944194,-0.8013420113795026,-0.04763192734682191,0.015837735206781618,-0.10414736790007265,1.7085502127176713,9.579251077504749,-0.007843350279089703,0.0034692531232239808,0.003541667003898605,0.5348337880168645,-0.035540433597376554,1.1772541453438343,0.29910296928546076,1.7341721017560254,9.746918751227009,-0.004984010980568949,0.005473523668736907,0.005814047402055216,0.6365992292161742,-0.09792112050257293,-0.5610092219873872,-0.31808983939923263,1.6708362907790653,9.66655299729995,-0.009065282300407243,0.004312968333574809,-0.006667945033329537,0.39786808008119173,-0.3360251216288534,-0.7137425160734231
0.8393429382765061,-0.08505469888613792,9.722105168475691,-0.003490476271517789,0.004761388472684267,0.0118517914768258,-0.3546487241724459,-0.03385733377250299,-0.5475626703690398,0.09648767332877045,2.2929828745121936,9.550525042943576,-0.008931652006133993,-0.004627532042009655,-0.010416944304425198,-0.8018059005449875,-0.041024477011069246,0.026670147491342604,-0.09117695908242675,1.7329849013553318,9.57852315355013,-0.004731318613256637,0.00284472618822252,0.0026336102775263203,0.5340232440196012,-0.024465029509282636,1.1849606432328845,0.3337500641670625,1.714392062610635,9.743426583752203,-0.002510654241747931,0.0030724468944503783,0.007241146826240671,0.6362043635557548,-0.08925509178067723,-0.5508532526933464,-0.3121054092784376,1.6784815329846652,9.691791490455188,-0.005690924593093317,0.0019835703732459077,-0.00924172342423786,0.39519804807510694,-0.32747662462720734,-0.7059292119004543
0.8292375807680656,-0.08320377258288068,9.702697553077437,-0.00458735362078234,0.0006015660933183203,0.010923031630150347,-0.34452078523584906,-0.03509233553884501,-0.5329971470851445,0.07793290409153224,2.3205962285886113,9.534424713903359,-0.009244271358903893,-0.004709532469493004,-0.00983964795923819,-0.8135339164617503,-0.04880732655687001,0.019086096818807182,-0.08313990788124655,1.7274717588594626,9.5886170767126,-0.00633680480849419,0.003689817795680531,0.002345004574350374,0.523350815655012,-0.03785549531982721,1.1790807876071612,0.32441655581368506,1.7299549095874787,9.73212102260767,-0.0044536102809460765,0.004725308218866913,0.0033254689446994092,0.6265896266910149,-0.102291099754934,-0.5601463583699716,-0.3059529837159401,1.6952401066148834,9.629589994327052,-0.007922179896626028,0.001495186199237341,-0.006144289862555688,0.38663949439430306,-0.3375062117174919,-0.7139461250652077
0.8126605638562747,-0.09727761049266088,9.723276374758852,-0.002445006947495071,0.0012425401156826578,0.011588335345838943,-0.34848484164427856,-0.03508360639516821,-0.5402898826893495,0.0773086181775037,2.299258268486917,9.524535970009616,-0.009065012166579164,-0.0018995401442235644,-0.009476611771105477,-0.8086345745722764,-0.045213981728452896,0.02581971627598879,-0.11498913878718292,1.708518959310719,9.57011808230843,-0.00549839119567583,0.004132819973790649,0.002614635218066102,0.5263976583488389,-0.03146299149856291,1.186070855453341,0.3047194645927477,1.724234704427417,9.756310888406405,-0.003430125051588612,0.003898224009553074,0.0070145820760618505,0.631062934130101,-0.09511407218633205,-0.5514760576926626,-0.3049221935227828,1.6765488184305366,9.712086928855477,-0.0056640802709565855,0.006025862939406341,-0.008985719143154292,0.3890941202854089,-0.3321256643618411,-0.7078560134169446
0.8322720200434217,-0.09120981968789049,9.73440126347601,-0.0053968318649083,0.0009257796961573698,0.011182129125354132,-0.35090724069076185,-0.031430896035260544,-0.5370891173299049,0.10860291363594499,2.298640723793038,9.537907680270868,-0.00964721911596901,-0.0033528813684501444,-0.011036049603802165,-0.8057240521116974,-0.042353557129086464,0.022565349038290456,-0.09769668166472621,1.7278104644628958,9.59235670350291,-0.0072624043922816925,0.002887825893531306,0.003836924947352723,0.5322775933545748,-0.028597013267284838,1.1852613623365322,0.310824604367529,1.7216427828533167,9.749403002993047,-0.004705836826194278,0.001780497364779976,0.0059544107096542575,0.6359260705295612,-0.09052452390993683,-0.554986528883099,-0.3084944171282407,1.7077650149219665,9.624080911907082,-0.007142411258000245,0.00248777701825484,-0.004669013164367222,0.3959227856019034,-0.33016358541932617,-0.7091032191813011
0.8287756821513594,-0.10487849404966065,9.714417626456278,-0.0006844852280039614,-0.00019820807187201153,0.010354383590194501,-0.3499169527290665,-0.02752832842895554,-0.5346479819729163,0.08874283758479554,2.3181736422083232,9.554767735977311,-0.010162963252033641,-0.0029098698793360005,-0.009608343469253525,-0.8067270301465714,-0.04227608249904273,0.01572919560647957,-0.0809100771371294,1.716777703280336,9.583091267348973,-0.00640918076351302,0.001956710904363597,0.0020923779241234734,0.5336650327332325,-0.03184370204481268,1.1794238920837237,0.3190685491307919,1.7169973212452363,9.771724518335608,-0.00626068841662388,0.003357845630576316,0.0047578598414803165,0.6324678384075391,-0.09325851929298476,-0.5595667220925267,-0.31075034968036724,1.6840368418025244,9.69414732139647,-0.00877814123261661,0.0034818304948159495,-0.007260168724320794,0.3961515125303835,-0.33041146020754925,-0.7134978238371891
0.828380610283651,-0.10119579520150462,9.754427584284462,-0.005672396336379525,0.002634124000690268,0.010316756396853406,-0.35654157542915266,-0.023869759849687554,-0.5380050412563214,0.05124896934642431,2.294577569239914,9.56081657231112,-0.009866206722255605,-0.004568929462685763,-0.011583228240810949,-0.8049960787480441,-0.03344227545971396,0.027477333137503022,-0.10316828893113372,1.7157723312904885,9.5834602563668,-0.005570776491379607,0.002398713179656445,0.0023620189171204334,0.5304034156282156,-0.021000306237657987,1.1861756922310651,0.29677059139471473,1.7219508899187352,9.764135746946438,-0.004987447081991785,0.003665643659703645,0.006258425693767251,0.632059977785528,-0.0843686494408342,-0.5511224605069978,-0.32726593374165,1.672959773220016,9.702267848271807,-0.007038820642061984,0.003028076109940206,-0.007645923622512294,0.3932398582854201,-0.32113038753617734,-0.7047073602187843
0.835745842795443,-0.08631647610936935,9.738354730449451,0.0007140523670117412,0.003056764241298796,0.011437915701310353,-0.3557613373988187,-0.036815500876543464,-0.5346204000816029,0.09893401605352377,2.2988789021757783,9.564116542237741,-0.007477482840219742,-0.0033707855825408375,-0.009267144594250923,-0.8164786749421583,-0.03998144767418619,0.02083881768656145,-0.09464817613975737,1.731670567179407,9.573244527041757,-0.0033119591136302664,0.0027063011366399623,0.003198498864696166,0.5217852831130014,-0.026078884100009667,1.1831239273570555,0.31532034487274796,1.7389530527590205,9.750915985842068,-0.002124031364456779,0.0014553768853359395,0.005344991944281462,0.6224737360402567,-0.09175840866026302,-0.5577970715728265,-0.3066418556635167,1.6881900653629789,9.66709950629117,-0.004909040058534947,0.003158078343974671,-0.006814623384826002,0.38566057584066404,-0.32871562838341073,-0.7107771048519689
0.8368023856523154,-0.09158699645472212,9.722265099208157,-0.0007355921877479923,-0.0017932214015652728,0.011788600643769914,-0.3557583875952675,-0.029982991902250407,-0.53289749862915,0.09690546503623798,2.2951947238207517,9.540812574321984,-0.007586978497424634,-0.003978821623651928,-0.009541233765440194,-0.8113845480680845,-0.03447223979887564,0.015803289613215515,-0.07350800611936405,1.7233814581450841,9.580023760326279,-0.00349604162085749,0.0034159690986393285,0.003476734402046459,0.5234554766489309,-0.023490515481457593,1.1752700317346887,0.3214508304696969,1.7236143907949304,9.733345063712113,-0.002404650985456567,0.0033395098597374024,0.005648011024675805,0.6285242052226027,-0.08673365323852585,-0.5657173979313299,-0.3000308590860393,1.6914224570028518,9.66339183228459,-0.005584685200584394,0.003413453865564304,-0.007448469568846861,0.3878257827836962,-0.3231039367989827,-0.717626274250889
0.8414057771273749,-0.08006837171954403,9.766129380544314,-0.004079487441938976,0.001197184241260441,0.010518192197499523,-0.3511849603647445,-0.030934858241326663,-0.541236043696465,0.07513871122343219,2.316813406948479,9.517517836111915,-0.011665850949566911,-0.002563481610859351,-0.010933470156051768,-0.8101424607805564,-0.03482231780543537,0.021423737420951515,-0.10456546955745494,1.7347382923773134,9.593032640832046,-0.007588015425913836,0.0044846406153268535,0.003510149490755975,0.5249550752693403,-0.024425050091704897,1.1806388575876954,0.3147456236718435,1.7543501815828506,9.775087433451255,-0.005584490719663657,0.006833067590057666,0.005859724627633453,0.6285655353198274,-0.08837634435083555,-0.5600817972772202,-0.3158326367856874,1.7139844180035022,9.712038623374404,-0.00877789025765878,0.0038376607376329735,-0.005354500134216957,0.3880893635910441,-0.3245638547955793,-0.7127427699147375
0.8247452925535778,-0.104829027817084,9.706713486674191,-0.01435224827290507,0.002283088560389474,0.011561041524807015,-0.3536282463489735,-0.03191469676169455,-0.5417076378792889,0.0680117135731976,2.2753155544869212,9.526021219178219,-0.011113381878876836,-0.0045933510078754675,-0.012173191559024337,-0.8103508026279862,-0.04526517923199783,0.023872734746434518,-0.08850191034491828,1.687277363293778,9.58827172516876,-0.007505069081827205,0.0004902586749317612,0.001846364402997283,0.5270698375788329,-0.03154513079276991,1.1787415834418034,0.302733805772364,1.688446882643541,9.765779144582417,-0.00488394705895633,0.002121730937643877,0.005101696575998679,0.6293151250175416,-0.09687488067503458,-0.5560810983843578,-0.3182962185565322,1.66760446730466,9.706652124044476,-0.007427032683805836,0.002802152732608503,-0.006957319209064263,0.3878666395634997,-0.3340833206921334,-0.7107797749957685
0.8386615663965982,-0.10680438503145008,9.690055361893723,0.0007638953175342823,-0.0008358437620601647,0.0112776140716587,-0.3485249820764526,-0.02921569824212658,-0.5441837854427798,0.09826259925680286,2.307009425064637,9.553019727602953,-0.009074002284236321,-0.0018903496473119197,-0.009467796298853378,-0.8047773225172604,-0.03435015669786089,0.020171147582172925,-0.07472610017522964,1.733098127311445,9.567302784255924,-0.0031715016939850593,0.0018141334675851864,0.003800569926581702,0.5303521915399633,-0.020582581039948426,1.1793352301303017,0.33153928250636283,1.739752058037915,9.727733419081652,-0.0028648684643281424,0.0037539226852240665,0.005536714653606256,0.6358781560698904,-0.08694334940159007,-0.561865048589062,-0.30700434651126934,1.697155035583386,9.645744997555717,-0.005091503483094245,0.004716425125551077,-0.008253488009121335,0.39468144863541355,-0.3240657256312339,-0.7125227105967593
0.8232129012839114,-0.07875399493379255,9.751117073985712,-0.00020267199255845722,-0.00040809430346811957,0.010665140369583012,-0.3477740335116109,-0.030196004176039855,-0.5419946672347115,0.07047798275562497,2.31310785130036,9.531561145069853,-0.008737529354734064,-0.005137331219446835,-0.011257682786295652,-0.8057545184702959,-0.040565107242910674,0.01568453340308909,-0.11036805876480865,1.7073666534832088,9.597846598220874,-0.007035812246457429,0.0023526164745407536,0.0026734740986811725,0.5302148634659819,-0.030646785426666556,1.1740682886969402,0.2929479933862459,1.7160129526681829,9.765296737762144,-0.005906889891390418,0.004494455919412894,0.006034825250116534,0.6356279426139823,-0.09231070197855112,-0.56155580347419,-0.32876411481013373,1.69142145922597,9.699049337854921,-0.008284710594786594,0.005139631033938033,-0.00616051760776737,0.39296820836630614,-0.3316405201575943,-0.7169033311765092
0.8392157964005632,-0.08962845826930224,9.702294229854608,-0.003969199977020192,0.004990248910587954,0.011556049167115839,-0.35488331488254277,-0.03117519439357919,-0.5458463054454986,0.09137795081235991,2.3043729717517327,9.54260843245176,-0.009198370811381308,-0.004238491435478832,-0.011141501055409946,-0.8077028632434512,-0.04128527723601219,0.016441256487152736,-0.09758431495022911,1.7240561756157886,9.574589825893888,-0.003099152580421332,0.0035452302800994843,0.004052217361437257,0.5299973769018222,-0.02844017944105945,1.1747794557790616,0.3119096684518806,1.7235437548191503,9.754783651979738,-0.0019463819828980915,0.002928170746996176,0.0057652870052657,0.6321844319341863,-0.09161254892662861,-0.5649554436778322,-0.30241559196651663,1.6874041420951513,9.67722529242265,-0.005501563993535457,0.0004462147595609086,-0.007822903745629507,0.39052679984518074,-0.3279805417116417,-0.7151891633877153
0.8353073438728746,-0.09894845907855444,9.722321037706944,-0.004656977755724348,-0.001676241153610772,0.01077195672928694,-0.3495563800161621,-0.0328638611113553,-0.5517512502077816,0.10415196101217841,2.2928960368086058,9.558745127767907,-0.011633116382002146,-0.004148254271554629,-0.010741519480097871,-0.8059831604493052,-0.046424019731342775,0.015825966420200368,-0.0629427182913634,1.7340929310057183,9.587282130616321,-0.008058324686673434,0.0026192617120938057,0.0026800791644481176,0.5335938101245146,-0.03651736490268301,1.1760541965735964,0.32298292126909817,1.7249581846112458,9.72487039770326,-0.006226810803209725,0.003965784650024613,0.005770531286689277,0.6343948465553036,-0.09403201080863552,-0.5627469932246262,-0.311696456748367,1.6949680386775676,9.622894652546137,-0.009840030866461904,0.0035162788761399803,-0.007212422367851784,0.39517508081993213,-0.3335883342296789,-0.7149562920618491
0.8247791413906637,-0.10562250104491828,9.770633756139308,-0.0017945631335673292,0.001037838878839789,0.010467714871031288,-0.3498420611367893,-0.03828515956133067,-0.527345163048763,0.07895654988984055,2.300448208019699,9.561122094400972,-0.009620485821356103,-0.004928527904073273,-0.01083829388141221,-0.807918049711973,-0.04209177581022946,0.02354349323577993,-0.09031633842273203,1.7018950087774447,9.569166717231981,-0.004820602455519946,0.002478714900454227,0.004391250210145312,0.5280675453943635,-0.03080485265865807,1.1804349828037333,0.2974839228300481,1.7110816781374911,9.7588497402762,-0.004386358098616971,0.004125219498430095,0.005788261804762243,0.6322437332402894,-0.09395943129497743,-0.5568714393171068,-0.3281687472360513,1.6587096384676219,9.724400967173871,-0.007322914250646856,0.004051118106349243,-0.006116889648022311,0.3922559660511687,-0.3304144957206979,-0.7105549365790805
0.8287838935034375,-0.08510871236126943,9.72288796987122,-0.0041783926893488,0.0035017678264646344,0.012119709056868225,-0.35063402836953533,-0.03900394678466158,-0.5349095844958952,0.10135605179237617,2.3186549065200617,9.549807958762965,-0.009864327439000708,-0.002812549426293179,-0.010170951130589292,-0.811116001779459,-0.03505701064442083,0.02192112378464137,-0.09863503681548325,1.7422964614927494,9.584319851777133,-0.00393859177717441,0.0031012170771679472,0.003780605302468907,0.5271550230166472,-0.025166140576019826,1.1818496233797369,0.32245797219057637,1.7528876203903787,9.759763827737068,-0.0027255390722719366,0.002811887267703502,0.005387712664874211,0.6298124665925249,-0.08565797320679105,-0.5571942970219136,-0.31474050693753103,1.7120240182330102,9.646367182274528,-0.004906231392834338,0.002993155156222321,-0.007780480751903867,0.3900496045164829,-0.3218718638923352,-0.7095783234400621
0.8331861228567634,-0.10159208827414062,9.6984827226642,-0.002646648345860806,-0.0001332304732064761,0.00985108664941901,-0.3435906136941077,-0.03117341027524996,-0.5381227553106424,0.09635738165902924,2.308667117132924,9.519331102001546,-0.009405490114793942,-0.003708371156557027,-0.01028619755136607,-0.8079112372071384,-0.039069906957779454,0.027379109513299152,-0.09577373104516095,1.6986391986190252,9.582648857862349,-0.006779415627206794,0.0033720249730849515,0.002644906866881279,0.5278851113740122,-0.025899964167618472,1.1823392466296476,0.3086118348538016,1.7023135848153776,9.731757347995591,-0.004670448127868731,0.004199425462839146,0.0065316831725785425,0.6317676221537376,-0.09174741131968805,-0.5556726662517673,-0.30115371200590585,1.6926464049168002,9.679679757837718,-0.009062396322820172,0.004331949639662367,-0.006691973790113386,0.3927514522374142,-0.3284579381026995,-0.7076285687404977
0.8224923853627029,-0.0899144895348521,9.735121609438941,-0.004615362638981333,-0.00017596384505223287,0.01164970052988186,-0.3528376584000793,-0.03095191191264541,-0.5341427102504543,0.08018191121405548,2.2976267370068753,9.546322871720408,-0.009406489016755847,-0.0037073499902335115,-0.01028521805444917,-0.8064697324608116,-0.03821834973125906,0.021979746277113087,-0.09580432965779342,1.7265453882108306,9.585179640387794,-0.004063239257789955,0.0026192581546128526,0.0011643485103046268,0.5300745461087601,-0.02544776704155896,1.1808516071230923,0.30884211864639954,1.7182811194928154,9.755808765930917,-0.0033285656849323716,0.002357396785849468,0.005864832467782629,0.6346728979750342,-0.08789142686801185,-0.5596472280276895,-0.3274343248999648,1.6850203391078624,9.696850768995784,-0.006073085088790302,0.001951557583847048,-0.007614321342131678,0.39370418742214675,-0.32504366158154735,-0.713006291818612
0.8411279358678005,-0.10168236081171189,9.734045642439815,-0.00045966471859355465,0.0019990235700360973,0.011395091930867449,-0.34752628706831173,-0.03385711364236141,-0.5422480743684772,0.0917763379007164,2.3076607481982445,9.53271517319277,-0.009515987294354213,-0.004314386322300918,-0.010559331203993553,-0.814524898856255,-0.03922715897780122,0.021545687242178698,-0.08319806498500187,1.7362397862386008,9.568676759673245,-0.005587701879394243,0.003764798607219719,0.004371295935313749,0.5202961986857507,-0.02633664747048763,1.18045249653943,0.32122062620673975,1.7275206298088677,9.752383730938663,-0.003145428805150341,0.005641137946674979,0.0058466976404047185,0.6244341262737607,-0.08809592793973428,-0.5576115477087631,-0.3201344377158041,1.6990523788177587,9.658342981982265,-0.00586720892950887,0.0039147438278453826,-0.008787957051547184,0.38418927159535055,-0.3279872426010497,-0.7122375814761491
0.838318096466294,-0.09710988317256898,9.726292984264886,-0.004405139565146258,0.001318508642271338,0.011091044782699186,-0.35459728208155944,-0.027037213216367716,-0.5397359741112905,0.08842222140108709,2.29132723954375,9.558865123222175,-0.01142410884642448,-0.002923969944184655,-0.010183498211840107,-0.8108404466113468,-0.04428482113353868,0.024096099399735317,-0.08868582323880442,1.7047139233224082,9.5796863582916,-0.006013377969407266,0.0020819202598781348,0.0026619108603701063,0.5244274304161769,-0.03267298707701108,1.1853673026170204,0.3136623690476704,1.7147426030816697,9.74911510589495,-0.0059088368541567226,0.004498529561416459,0.006040793061843912,0.6290706418921882,-0.09468339569354552,-0.5565930657439865,-0.3062884252797927,1.6637298680383492,9.697633066823869,-0.008980984168762923,0.0017105445473715854,-0.005153722704209749,0.3883508636095352,-0.3304201229946765,-0.7102970310651109
0.8285705971116846,-0.1139652379950184,9.718528951862764,-0.006346793174752636,0.002076281237175854,0.01217404430011099,-0.34963189102849956,-0.02900285067100259,-0.5297700752513217,0.0867128935446346,2.30219926577715,9.562632773665015,-0.008949652116866364,-0.004600129678806643,-0.01039852945974726,-0.8152493113856782,-0.04215130870606467,0.02186261129287769,-0.08452891287957885,1.7124100326904494,9.589367207317409,-0.004504770809657635,0.002306496514443965,0.0014681906488308455,0.5212499989311459,-0.030717857774482753,1.1826869146659342,0.3202930786610779,1.7292046265687113,9.766070506470664,-0.0016642419435062299,0.0028560385660744373,0.005027857044762717,0.6224753963587112,-0.09443459165128207,-0.5570334677213937,-0.32858003785135076,1.7034049780502205,9.680529989425184,-0.006440565519415751,0.005591006504932662,-0.007618526566988763,0.38249137449902454,-0.33189438741788213,-0.7107627571372572
0.8163518306659514,-0.10194729569484132,9.731311842788303,-0.0011546529205743573,0.0007244163326794713,0.011651034872918213,-0.352435481934103,-0.03312534419464032,-0.5453816941994507,0.07983426677544625,2.305597379610625,9.535322720183833,-0.009668202830619744,-0.003327414051495007,-0.011014576376597964,-0.807200915156849,-0.04168990932637586,0.019868111165980605,-0.10251406236586111,1.7126547567383965,9.576584353406938,-0.00517496553718864,0.002523932808339081,0.002932551767300876,0.5261354785874026,-0.030036961231652476,1.1821520077335963,0.3124492072142854,1.7129215456649118,9.749474090923728,-0.0049913503410050734,0.003672779228841924,0.006269373215045971,0.6297849395918749,-0.09251938260210443,-0.5593104275410784,-0.3187108331376115,1.6951810439473527,9.695355903905917,-0.007034784821555576,0.003222979833238345,-0.006711119765653882,0.3929794765396557,-0.3269965785843869,-0.7117808191274354
0.8347951019122607,-0.07613970708917696,9.706907880669501,0.0016401050378690744,0.001140708562015739,0.011187661661013015,-0.34702520318709645,-0.031663316508141505,-0.5402945370440643,0.09847728346660914,2.3102210249872788,9.549520860839706,-0.007856699249344614,-0.003584718100063189,-0.010262899982384468,-0.8069320379357261,-0.044507159062266245,0.024575081100618675,-0.09377939587317942,1.743588528812084,9.582222775221132,-0.004034507071723034,0.004167865533239839,0.0022973024583298205,0.5285662916925101,-0.03344904022327333,1.184853457456056,0.3106036973763239,1.743901263399601,9.75496095665172,-0.0024075681503125273,0.003342632320579094,0.005657998035614782,0.6342001859534889,-0.09541882464647646,-0.5561364652858551,-0.3170337259972392,1.6966113502207705,9.655541283706748,-0.005580774317338637,0.0034324434295433066,-0.007465501933689285,0.3903095643181624,-0.33017154232942836,-0.7085952304931024
0.8275029622153426,-0.0749348930582874,9.73524020962057,-0.00934424361695335,0.00027623311100865406,0.010892160689937008,-0.347536408268578,-0.03483013712667882,-0.5437150180825548,0.08014018960447716,2.3012589821720306,9.536367963163947,-0.01137520373183576,-0.0024589915362720842,-0.011488217863697225,-0.8145345799290217,-0.04326086197825791,0.016269929156278933,-0.09938404282897678,1.7118459455237698,9.593252555803051,-0.009295749691477753,0.0020399459692900545,0.0018280547354410776,0.5236159570128645,-0.03179952836085815,1.1746220263159246,0.31115698885545495,1.7107832740136637,9.749891438570867,-0.006971079463863534,0.004459450228653858,0.006406596894347197,0.625840569477085,-0.0940326807314003,-0.563901206905132,-0.3019886914317606,1.6898049622898732,9.706575655185759,-0.009162459232021577,0.003271890894595951,-0.006594593755145396,0.3851590108522543,-0.3306738346894902,-0.7154114610775122
0.8463648705960756,-0.12995945982385224,9.71746709111259,-0.009958062719395293,0.001396149885627195,0.008998246349898006,-0.348168709045914,-0.035345555321252456,-0.531259622231291,0.09756994087239206,2.282477853880597,9.556538795889429,-0.008331421447420745,-0.004422982405313225,-0.011546409541833653,-0.8106126019382228,-0.039176278568277295,0.023239458480889097,-0.09542437698494534,1.7253423828735392,9.566981332358617,-0.004079130901784663,0.003986364880165644,0.003176606857684374,0.5252070023197983,-0.026106083160909885,1.1835843248819438,0.3105288097318402,1.7094620985730313,9.750142946908154,-0.0035056666159353394,0.002699640467928864,0.00501309863476047,0.6297954077577834,-0.08811894213460554,-0.5588743276563035,-0.29668142274073284,1.679775487675069,9.685279302916127,-0.00635830061837149,0.0027966839231485466,-0.007037118109028666,0.3895779137707371,-0.32577676189295923,-0.7066428554288072
0.8328167258705326,-0.0945476126333763,9.734709172253046,0.0016566720136423194,0.001837481025638478,0.012781997782805038,-0.3506650187018594,-0.037775518566561056,-0.5385689681478613,0.10512912972163957,2.319432340012122,9.549279162861763,-0.00791259821033043,-0.004040524937637216,-0.008950372103449523,-0.8025446166040986,-0.036353536834430836,0.02802623983712003,-0.08260458003917241,1.743311585832557,9.572991638364703,-0.003269459996317906,0.0028787701471823354,0.0023143041658711815,0.5323645177116851,-0.020767215711681757,1.186889356315149,0.32115550581435226,1.7335536366016693,9.728182716654702,-0.003754919424510865,0.0033757371281411992,0.006765254833124913,0.6364567943577205,-0.08242284284056106,-0.5511797815749181,-0.3140248049570443,1.6991862045096078,9.628792907595944,-0.00480227634965691,0.004075199599394516,-0.007898896004292036,0.3956829439376449,-0.321370252218623,-0.704227820408124
0.8264608473842988,-0.078393649589177,9.735301470855843,0.0031155507591859666,0.0012955808944806544,0.011394261477287261,-0.34429083155435863,-0.037284486104138925,-0.5352004970808217,0.08373901499740435,2.3006913809285074,9.545214840444636,-0.01044564243779396,-0.0025114645869481486,-0.01031606071571233,-0.8064653492321932,-0.04340241267342682,0.019662402496197166,-0.10135633660568641,1.7153733249624663,9.587127885399362,-0.005728241004004497,0.004649946410217416,0.0037672974905292155,0.5322081269086228,-0.03013209827170186,1.1784411123820144,0.30237859681954393,1.718589622575432,9.754935587002072,-0.0030115790913835933,0.002888167015599865,0.006137125440003824,0.6363698983752409,-0.09327054235302804,-0.5600851461028559,-0.3228375744003052,1.683572776018775,9.720314965912513,-0.008484129407350738,0.0026726770654377954,-0.007879438273329466,0.395669560793594,-0.3321202478536308,-0.7125184524551257
0.8366633228107647,-0.08754570163278193,9.738671957551189,-0.009290112579538462,0.0018812409722217555,0.009462940064479716,-0.3499295543518713,-0.03313786057623126,-0.5373443573710728,0.08885939699323345,2.29090566928877,9.549873965675912,-0.009483976437170652,-0.005578473947403978,-0.01326192325258018,-0.8096468496926843,-0.03874935608935974,0.020539840952935914,-0.09720289522227724,1.7373113482713847,9.583329293032188,-0.003879199912188259,0.001907559567474655,0.0008831339297153687,0.5273710864926003,-0.026892324219015423,1.1804004689348921,0.3208219480074582,1.7356547071137163,9.741779922797614,-0.0033608560320428785,0.003569540493220976,0.004424655059904302,0.6295563473617786,-0.08738083897459385,-0.558392108979516,-0.3014175995033922,1.6939786634703418,9.65640025274128,-0.005294334641751046,0.00294914399810762,-0.006142045862705734,0.3900535734113631,-0.3279772682991881,-0.7110374540979038
0.8223927495485293,-0.11221109268039933,9.726979875049114,-0.0032999974265965145,9.743146330008247e-05,0.010988783467446047,-0.3526062341246272,-0.035341557997978036,-0.5365955402588845,0.0952207749777097,2.304332295370921,9.548624931173295,-0.009986810354374138,-0.003405286899124629,-0.010431355093199333,-0.8069513767077109,-0.04239764259103921,0.020861455612026708,-0.08952893196168951,1.7238223626360565,9.570865174715797,-0.006707164538778536,0.005096081373205974,0.0028926270909702175,0.5283511374237867,-0.027620917115417393,1.1816210616448461,0.3134625816173878,1.723055782418648,9.738459626445673,-0.004353424200397224,0.004734242552064946,0.006807928553503876,0.6324727624515305,-0.09252081969800273,-0.5590874068921061,-0.3161044662936171,1.69097552671035,9.653236400897882,-0.008181800160719014,0.0062276643138425986,-0.0062889349912484925,0.3932230357219771,-0.3301716214193599,-0.7132436311183602
0.8313555782680955,-0.0978340847042294,9.734802113155748,-0.0022336702736844016,0.00276097553312615,0.011048720026045435,-0.3557923255052844,-0.024360570611221936,-0.5360589242639633,0.07688756538130812,2.295400014069944,9.535461302013573,-0.008893858574582107,-0.0023908990174114205,-0.010296701342851187,-0.8020851698651615,-0.035295638983347505,0.021161136645561053,-0.10360084553684913,1.7117224438213519,9.587756761024098,-0.0037110008888705318,0.002565008604196179,0.002618156653678632,0.5325088090304048,-0.02596123106392563,1.180592995974762,0.29439363168534716,1.7080023732516771,9.765226835544516,-0.0031518585050212943,0.003832274610954384,0.006292111034506572,0.6383541180145701,-0.08518947941478862,-0.5577546697114042,-0.31686751632654403,1.6751037370294004,9.711973836600938,-0.005190481823583707,0.0038472771905215413,-0.007209289677793496,0.39761403667971457,-0.3235711514601208,-0.7113126169013411
0.835609144120882,-0.09097847100957589,9.738730367272488,-0.002307350402380034,0.00046818234818378637,0.010887646596463617,-0.3467365151697941,-0.029233329706180797,-0.5341876933936207,0.08867359577532646,2.320805604755896,9.548778092522145,-0.008079703426626611,-0.004788683856655268,-0.010806352458566554,-0.8076680298167056,-0.04403773701138143,0.02383333121738615,-0.07754231810795063,1.7262109403538015,9.590606523727645,-0.005176035463348619,0.002519901528729658,0.00292860157202433,0.5290733525518524,-0.03077643046515983,1.184088797815589,0.3238270037175819,1.7367708504723391,9.719370027345336,-0.004424107943508775,0.0035294510512428818,0.0047894785917741685,0.6322675734931419,-0.08953883743313981,-0.5547255104853356,-0.2900229602760544,1.7141904065736207,9.643450101097152,-0.006745521840233568,0.0025697591525601048,-0.006351516275722319,0.39348925591209716,-0.32992112897605064,-0.7068977772478225
0.8249642921423523,-0.08403615689438466,9.735380910886564,-0.006095745510423751,-0.0003098684550930406,0.011455182897391336,-0.35406152791457673,-0.03656583800095744,-0.5356094304986452,0.08517562912558654,2.289738810174244,9.547836015700044,-0.009421474078848196,-0.003690009089306839,-0.01026957385203614,-0.8118777325016499,-0.04095332315927802,0.010343978064127657,-0.10005007609420431,1.7173212505834243,9.56837660098332,-0.006412371860623064,0.0019466168711698671,0.002080506639731372,0.5240941621473966,-0.02747577795123391,1.1682251549521576,0.30493292386913995,1.721454591417519,9.746173970492686,-0.005312233887180054,0.003148156424582403,0.006009039461865468,0.6280136071611497,-0.08968755385784824,-0.567875807473286,-0.3148258615421924,1.6716645641585177,9.696098782122114,-0.007994664249920886,0.004326479329229332,-0.006771769129613635,0.38733310665685156,-0.3270132563159746,-0.7203057654615675
0.8284273653234406,-0.11438763215318906,9.738690910245568,-0.004080395883429954,0.0012251480758300756,0.010535256742328483,-0.35041155091681075,-0.02826011169118881,-0.5356215706385217,0.08654640608890035,2.310713297482194,9.542489221643274,-0.009111859293144432,-0.0036019460357218872,-0.010844003641537788,-0.8076923132145222,-0.04320256659801387,0.01795265458138363,-0.08750199248762473,1.7127836468456388,9.565385565690795,-0.004063301100785375,0.002615227723839482,0.0011613901656281251,0.5263350558684223,-0.03057737722332137,1.1772725109906064,0.3123193156243016,1.713225247223732,9.755194099537187,-0.003222540734586049,0.0026284830393904462,0.004273649274983894,0.6293068124934783,-0.09104218813843368,-0.5583470018852651,-0.31963634966582083,1.6967822481502186,9.672014493531718,-0.00703370039909873,0.003406887758599437,-0.005767294729422423,0.38857584637564696,-0.33164641035367115,-0.7161556879135805
0.8443735937681535,-0.08375512583365163,9.706557318103192,4.07617100582429e-05,0.0024918987168944013,0.0133071809662202,-0.3517115739307993,-0.02604471136541386,-0.5451290661320602,0.10528519002200804,2.315117470964647,9.55674328834877,-0.010409919470457923,-0.004093254516378744,-0.010125192989900294,-0.8042818101613372,-0.041752779156283164,0.016927928618983824,-0.06559686086671866,1.7402886762835614,9.56789447009109,-0.0061995665080138655,0.002784556384980218,0.0029352353996875045,0.5299973503176674,-0.03012894985847701,1.1767499746134167,0.31565927545570605,1.734944518423603,9.727120198136223,-0.005243517287342968,0.004353998208412205,0.008031492828763451,0.6334233601324462,-0.08915066320689208,-0.563040955332996,-0.29534896122268955,1.7007519302447263,9.655490110103552,-0.008198556714820804,0.0023622912623992337,-0.0056031395472055595,0.3912636350481423,-0.3282224990023693,-0.7142155456222958
0.8450721625928599,-0.08054754811574645,9.770475427092594,-0.0057429829686574665,0.0003832947985255461,0.010175744234164574,-0.35116379820003074,-0.024594806597493957,-0.53731721258039,0.10772939665845419,2.2992853967069555,9.554121231976897,-0.011290863943459064,-0.003890468381840389,-0.00970666746006044,-0.8028010428971096,-0.04288185094919077,0.020613607823099716,-0.0843746852897974,1.6974614378405626,9.595580052950812,-0.008855330046795843,0.0023476353343598586,0.0015162730951843065,0.53345008677838,-0.030840420554811718,1.1818565485511094,0.3487589123715455,1.6974688118807568,9.699915313921176,-0.0071624462730845015,0.009642779409722324,0.003242688181218342,0.637619065398864,-0.09225628868238875,-0.5566885283382719,-0.2835158384092362,1.7245059509482406,9.566088458810645,-0.015522294980123827,0.0067812226470995276,-0.009830368454970905,0.39494241314527706,-0.33187593282796896,-0.711051090377865
0.8466580641503318,-0.08801008267155257,9.778298945498873,-0.009167774218181,0.005687306181675471,0.010509727983175005,-0.34723030525150766,-0.03362611002598816,-0.5356577353716316,0.08528011676631296,2.3163961519181058,9.54755709011155,-0.011595284089482207,-0.0019235697795074818,-0.01061898936752299,-0.8123525321259413,-0.03615392572341517,0.01706859207308057,-0.1016527528208286,1.745420950530865,9.565477756528415,-0.023834922050055333,0.004923041883386731,0.0010560106449302863,0.5259203336593644,-0.02420783822097928,1.1789196015731054,0.3291549341841854,1.7269502082182389,9.78557872847034,-0.0210235147219528,0.01516250387694302,0.004205123769584186,0.6280631265414497,-0.08717766285991677,-0.562045192067561,-0.30755713853046895,1.6704307227180049,9.61403554563903,-0.02867407156041075,0.011564702461918966,-0.004353141178014859,0.3897876921460641,-0.3238308825606009,-0.7154345401170309
1.005811072529007,-0.27616069014941264,9.903375921140793,0.025131672129359107,0.03883192330798642,0.009928490680111252,-0.3526607503599044,-0.03020268370550198,-0.5424438741230051,0.12136860706154476,2.2345530868592864,9.546230128925634,-0.0015571898182329983,-0.006274579907949661,-0.009828607014666214,-0.817233190779909,-0.037392804963426056,0.016871350261791367,-0.06521124062516245,1.6588704221587782,9.506369451583968,0.0036131814011255026,0.002791553308678098,0.0010659297760026766,0.5183055024365717,-0.026365888703640886,1.1758306434052652,0.30426337564241224,1.6614505983839944,9.819597734671628,0.0027710885265275357,0.006304409886544849,0.0035733863995631656,0.6248807390780353,-0.08840499628766721,-0.5629829349373442,-0.3061253046237349,1.5632962340495429,9.918775935850782,-0.0029625293768431394,0.0052262502715690546,-0.005522538618268394,0.3824637117394565,-0.3250631117363035,-0.7156522859830668
1.5891354747747846,-0.6532182788338954,10.757536244137624,0.27803486315360987,0.27180263237793395,0.036479060206907124,-0.34334510664820844,-0.043375525846267644,-0.5403475453865689,0.117176082935248,2.28343630036811,9.639396515087713,0.0052001328347643224,0.003709512694803372,-0.0014676989023292878,-0.8064643000603339,-0.038183207330945344,0.023444314643808625,-0.09762859924965969,1.777169878186845,9.642819413523405,0.008012906209401701,0.0014922441074351276,0.0033765745368874657,0.5300722485575637,-0.027380503473222108,1.182825651096002,0.303289027751964,1.8264437266545748,9.82315616517906,0.008432950435167934,-0.0026374382379727632,0.006654804392232731,0.6347164375983827,-0.08806923340277717,-0.5540299110402483,-0.35749912906016107,1.7993752209782596,9.631146939630849,0.007304598018430011,0.003558370477369723,-0.012109514331092386,0.3937165487283173,-0.32748330145909593,-0.7105629642789676
0.7416630658055356,0.7026176122777084,9.678731339236622,0.12700075521711865,0.410178297392822,-0.052652227523697394,-0.3407246620997438,-0.04555195858675836,-0.5489180684099637,0.21492061922645958,2.0907723055025524,9.70357659701864,0.008609694750637017,0.0304026138520234,0.052931371881575186,-0.8064602082301933,-0.03517792196360179,0.02654712290694008,-0.016319972454328494,1.731174984525956,9.484552820071785,-0.022042775270532847,0.0019316401098120816,0.004305397410106388,0.527159240036256,-0.028297198470425416,1.1860321148236763,0.40089891951425954,1.718853219002309,9.640057566584533,-0.020656293072407045,-0.000352720134293983,0.006784366515282936,0.6349561828883823,-0.08710232129331504,-0.5547752560398952,-0.21217091201230034,1.6293482192889572,9.547429267379192,-0.01582306214683236,-0.0013168044238995621,-0.014582513514709298,0.3902974091879557,-0.32382425901819845,-0.7093333191190755
-0.09489039216460865,1.4854694658591001,10.438898606122255,-0.6191954544694358,0.3384686831662835,-0.1504210121428217,-0.3341421965918449,-0.03455662328782989,-0.5479710142924714,-0.06809744600396239,2.324543838385004,9.327826647182292,0.04454432909380197,0.02076029183696252,0.07438074135438028,-0.8011036265094041,-0.04022159681164504,0.01932211894183913,-0.20199261417354142,1.6185046559256535,9.677833040767302,-0.0021254375937991236,0.0030810928222198206,0.004922114795058207,0.533884546025723,-0.0306712707185541,1.175014676768089,0.2385285847115656,1.7395585383497028,9.836373904752763,-0.004904941977443086,0.010323778667101267,0.007003384840962368,0.6383020798259572,-0.09062627566440284,-0.5633057420913238,-0.43307341312562597,1.722956908819459,9.747305464241798,-0.012397420876771469,0.013402529378193556,-0.01129389126345962,0.40005353791050213,-0.3294305405326,-0.714489664814467
0.07301139289482117,1.7037317468328597,8.620288576904338,-0.9649208411791305,0.21815266326850521,-0.31488616708267336,-0.32953973719313656,-0.02111841708841048,-0.5499333701789322,-0.13481262314076875,2.641106447156755,9.298021554190866,-0.014508514621825307,-0.003155327326533391,-0.024496728167874023,-0.8037872582610858,-0.04319853472624605,0.017694001232956565,-0.18970447478432467,1.8357204909699167,9.567342764238667,-0.0038853103692576773,0.006181440364352231,0.006043721647833867,0.53414221136053,-0.029208712628273972,1.1749975476176455,0.18157250903532707,1.7155707266316718,9.802950665150014,-0.00014290326432339254,-0.004167170523909211,0.007535983975680147,0.6368578213583251,-0.09205428790596851,-0.5603473221555114,-0.4117945492096163,1.586658839993772,9.852664013732724,0.004053822893415372,-0.006959863311191049,-0.004115737435546416,0.39712476107476835,-0.3313884063276226,-0.714965354603247
0.35344932781020155,-0.5016137938279048,9.887320398752188,-1.1368666330427757,0.14505198133964767,-0.10080933576522312,-0.3239744267783114,-0.005478206989611253,-0.5531199473476287,0.15234030015938071,2.888381140687974,9.73059058166766,-0.05509152435864602,-0.0425007626031726,-0.09562938142636643,-0.8111230831937835,-0.03411055996139094,0.02067808035894643,-0.03861155314073306,1.5617900891823697,9.539179542286682,-0.010923546514652164,-0.0043862679782107694,-0.0015339340812281816,0.5298132133028598,-0.02498509838605556,1.1781637552150113,0.39027663822963404,1.4547605105156762,9.62174029368421,-0.0013249258661210933,0.0021203032306044193,-0.004395067878835517,0.6317771101023462,-0.08296378451879079,-0.5562643200368396,-0.15413925508523452,1.4889565314491195,9.50600196646807,-0.0063094611287215305,0.002915938873129853,0.009819707569643926,0.3880936432620402,-0.3216315032271696,-0.7103045990914232
0.9312957100692255,-2.4329620453604126,8.731670156310953,-1.449487853240002,0.021190062797168202,-0.03199483622934418,-0.33126952564760603,0.015979363209494987,-0.5452061771565222,0.2742081703660623,1.8744755288802317,9.445627275975411,-0.03200757034767259,-0.035051375978823754,-0.1204129773547267,-0.8101214594546471,-0.04213248070393663,0.022087211114239797,0.001808906966649898,1.779479214506573,9.59768838654369,0.02146283628628966,-0.0013512016609325255,-0.00459865323974542,0.5267996497466055,-0.03350566806994099,1.1777878470420893,0.4457744037099812,1.7364823634788324,9.841011974700468,0.02435523001347185,0.0042845798970353845,-0.007616714586801853,0.6302590810777827,-0.09351724026051315,-0.561011545098714,-0.17399987718212392,1.9177541915163396,9.686073967864177,0.013888476604411051,0.010636531344321618,-0.0066457416869744905,0.389090976016836,-0.3340803109053592,-0.7095631270638607
0.3667981196936621,-2.384647651545055,8.590733039455822,-0.955041141192396,-0.15680457003184853,-0.17367090489789305,-0.3222305829747324,0.028194069744568978,-0.5420790900745043,0.10514576147919835,1.753342453400752,9.877941291584728,0.008186406236964882,0.020030515738404125,0.04058811053962634,-0.8074467715716989,-0.043440025043509425,0.018201513554102024,-0.13436688157581383,1.5903716823912901,9.573616254251236,0.022655688209725362,0.007662878929959052,0.002198594835002733,0.5287670662470948,-0.02964604711568413,1.1750459062325416,0.25320724406423617,1.7663899228253475,9.684879740242284,0.01604960451960584,0.00241347935406171,-0.0024071919681997738,0.6334213922127855,-0.09548669959580054,-0.5619891606735115,-0.42750889660794933,1.6602410325911812,9.539843787463063,0.008471427643990817,0.0046159680242675825,-0.012275689099662283,0.3927342359561396,-0.33261529457945427,-0.7142165392720684
0.3819049243914842,-2.3001196287428347,9.123914503903872,-0.06142474906382531,-0.2222252242962271,-0.1728708506889975,-0.3339711255157143,0.03355011299629733,-0.543684002697985,-0.029408740966248424,2.419489606396722,9.347876534193688,0.01932265415707511,0.013045744904347045,0.07174454617750935,-0.8059620505579764,-0.035862622639275095,0.028515280146172797,-0.14204802977972408,2.076089983740142,9.584762026591246,0.0025645055112153404,7.194906066962237e-05,0.0031786078423761094,0.5325799866308984,-0.024665098767722354,1.1879047290675335,0.23550723313697067,2.2314531542012594,9.567700377381883,-0.007923493098533347,0.013219979927561085,0.013142470309358754,0.6354970856861121,-0.08678143297292819,-0.5481906090600452,-0.5467230239463509,1.9677843854814865,9.677572145472345,-0.021116407285849303,0.007060935810857218,-0.012821749249345213,0.3937431183550643,-0.3272309956899186,-0.7029942509237285
0.6814384179224254,-2.1609050801540794,9.53359622217475,0.8321104246325441,-0.23864088325843025,0.10758070808227306,-0.3375682754202546,0.020594005540167357,-0.5380655319852841,0.08929899246388832,2.544196870130102,9.503346681334587,-0.015004457115062752,0.009107590543905888,0.01823553835692269,-0.8142794028712829,-0.04120238552255916,0.0206158846726801,-0.03535244928008044,1.5537519305564547,9.715236677643162,-0.08181072464077213,0.00419059385991758,0.004349906188986177,0.5224872094762482,-0.02540152049996465,1.178471840520601,0.37976620550389495,1.4560753683782799,9.99535736145778,-0.07516831824245086,0.017917199620703404,0.012727919325384418,0.6258730298552069,-0.08643256002623606,-0.5613047730833708,-0.17124138776508274,1.4402142773326674,9.836811132132274,-0.06705539771093579,0.005255647607568023,-0.014045517293901733,0.3836996726908799,-0.3275002113798422,-0.7124803107539676
0.5956736147142462,-2.109867180448199,9.311232676713102,1.7909308440969571,-0.21616652567898828,0.16403401777691184,-0.3417301134526336,-0.0003980459153233441,-0.5436912625940382,0.012044739991358407,2.32217820554637,9.484428356451906,-0.03949423472734481,-0.011614328326742702,-0.033215732519696346,-0.8032796715658833,-0.040836957096247635,0.024473466982139494,-0.2102650386758811,1.7959617496369344,9.406952184218897,0.02944667246440905,0.0014358194484010635,0.006061483917771875,0.5349283701267366,-0.029630839208357095,1.1820760782946085,0.17474877991050827,1.734403428993477,9.82567034403381,0.028065400182216645,-0.011696326671007172,0.010932472365257542,0.6381143728920069,-0.09370759015929798,-0.5554551737621838,-0.43492789946508537,1.6989774886339644,10.001916942258765,0.02787781463885775,-0.003866286427686679,-0.009604550911967429,0.39543652604541274,-0.3301638468404514,-0.7086134849928066
0.9438320484092655,0.8479988067964347,10.607526521164415,2.1769388364925844,-0.12536820080385203,0.05925919502083897,-0.34389197626420476,-0.046046430193519866,-0.5481608842753494,0.07779954664178085,2.162724265000051,9.47822067954209,-0.01395766515839761,0.014075905985488444,0.013820175940043018,-0.8055283721769931,-0.036212763681554655,0.013869756177656721,-0.14223540410247473,1.5628438656368964,9.46243569106691,-0.04345680837827547,-0.02526953455966811,0.00888997456192003,0.5333945925022093,-0.030669178297531727,1.1747746326751172,0.28466075679846015,1.7063079662861094,9.741661558345399,-0.038610210666870426,-0.010417660067959316,0.01598930720726608,0.637309171830517,-0.08797055470980542,-0.5660155479743906,-0.35054447709508146,1.7220236019895,9.47596979833142,-0.019736893938921318,-0.008793078416860656,-0.030598476360739105,0.39709806678692156,-0.3257783642286675,-0.720097709721801
0.7838246396120925,2.157126447099878,10.490936705676297,0.6483789533258942,-0.037776609944867194,-0.03798289332174537,-0.3413916149736827,-0.04996196041041462,-0.5415964741314414,0.1432936722484087,2.2853644186703055,9.667301637866188,0.01696972664586085,0.01694535369131637,0.014969999861087206,-0.8096595375978357,-0.03461229368349893,0.01995147485340599,0.035550446441500974,1.7627946859826709,9.71627266176938,0.06711560787347746,-0.023625757162459595,0.02245997534001538,0.5312749838721278,-0.024278519805691803,1.1769234614947206,0.37540369348560465,1.865242086316782,9.986980358394373,0.06659164845362572,-0.02745186545929941,0.030841879855697016,0.6310312105143961,-0.08712483007269425,-0.5571865389387471,-0.3532184364372417,1.569369299351017,10.295787242342827,0.0709243779619494,-0.0004619611330712553,-0.0350642136033603,0.3900450542843551,-0.32578168592404183,-0.7125045530919808
0.8088474211955157,1.8842508679897672,10.993676999737904,-0.7747242578092645,0.05993056552817725,0.07848494838093012,-0.346070696081795,-0.0353168343732029,-0.5437276504117825,-0.06629169736277288,2.9936735530890117,9.37984420258408,-0.0069132746184859765,-0.03506858344874766,-0.09680666218782476,-0.8079427097001384,-0.040761894605779087,0.017895019294348204,-0.052178354272006594,2.217498604444544,9.74847605809318,-0.030377712393377148,0.013442204451399408,0.019339455168955466,0.5319530381079628,-0.031108210537353298,1.1782092017340857,0.29860625969494525,2.3687388550983384,9.820162205345307,-0.009184019380636026,-0.0546849073465247,0.05179449450972671,0.6297586403865019,-0.09353372101573315,-0.5624725835989658,-0.6831673833788475,0.6832959650996758,10.006651874179683,0.03499993336305173,-0.04528664598661459,-0.166916986259233,0.3939481760085441,-0.3313938779620561,-0.7156870487062142
0.7704437340102028,-0.6727998600645092,10.117368952423679,-1.1417635450176606,0.14902481066646428,0.16294149644436484,-0.34267545071434435,-0.01700201352980212,-0.5429844274513344,0.12301064899803728,2.2915339247887894,9.632764680153052,0.004585682875059306,-0.029157255177515464,-0.07643510052379492,-0.808928440093669,-0.03883537160681064,0.01687516061506189,0.007989275840114995,2.4444441128070475,9.496618959366987,-0.1787463468871353,0.05328567047269246,0.0466581884644006,0.5278093836793502,-0.02768403876548098,1.175033563900051,0.2865492581949068,2.7234994718101,9.900115417570447,-0.14841286786828173,-0.08225422938338797,0.05856685364313967,0.6251031160836676,-0.0838098751451107,-0.566701202161818,-0.979541786229359,-0.9387666993021716,10.708565183365785,-0.07313594609446335,-0.10182821622841151,-0.5761163328734984,0.39806814407065955,-0.32357961032478216,-0.7208362896658316
0.7343538452442994,-0.3509817359195637,10.119734890861855,-1.038585808937791,0.2882823546108862,0.10628654345700282,-0.33368449860940236,-0.001358415468646564,-0.5452221803303735,0.12077674250766421,2.008148802534003,9.705963368805463,0.012656053174752081,-0.032964827858341435,-0.02825049380644105,-0.8023022126433826,-0.03785263549129979,0.026595879904514685,-0.1350251081726931,1.8242007732566854,9.651517164514274,-0.22850424951788054,0.06765397110853232,0.07623815505713695,0.5316691580122043,-0.034533615714991736,1.1772696271174428,0.25792077930117036,2.0206597374869735,10.63573227037959,-0.2094980172917531,-0.17748128711013805,0.08672666135942893,0.6278224595438323,-0.08498042650039421,-0.5620692082423159,-0.9676483050478727,-0.7666488848132397,12.280196399236399,-0.11407651721724145,-0.2334054104594138,-1.0911501184259005,0.4144079810515819,-0.3196523629335367,-0.7243162579652332
0.6168267712624186,-0.8204990019764141,10.140800362509987,-1.6303625071443864,0.38120481424960684,0.035220024698935946,-0.32659650529859985,0.01207322692467127,-0.5415881073476108,0.1809305238614833,2.8060311516589964,9.861502546650206,0.05135637797763135,-0.008158431604029558,0.0920984035463212,-0.8069797285621195,-0.034390835072874756,0.018715861396100295,-0.05142088529380519,2.541618362887114,9.41930680997623,-0.5771253405586646,0.0954470017478096,0.03913121673803546,0.5286599350556479,-0.037742391109012126,1.1712236265659655,0.2633886724089567,1.8886539162713003,10.177832476866708,-0.5713161636249859,-0.3086474726567933,0.07684894086714673,0.6169900168144573,-0.07194700726637085,-0.5763005296351101,-0.9136132873442633,0.06716544672244971,12.898696433623188,-0.3794347180444038,-0.5005526668728746,-1.432454154183657,0.4167213696302645,-0.2955034813801198,-0.749981976151231
0.0773843043602141,-1.5014317100093788,9.870894814802353,-1.7473799516513788,0.4992357477929408,0.08984503860229312,-0.3178380374628222,0.0465039742779807,-0.5386587099928253,-0.513081675802179,2.4455688947239294,10.04313330707443,0.21416825778277845,0.03754015684342521,0.208772835729317,-0.8040652228353036,-0.027781631948745493,0.01903460648603275,-0.788667234316624,2.0406380660456125,9.498153243821557,-0.9907910519644098,0.15965958305306766,-0.020156005074883694,0.5172352314019503,-0.059836346560144006,1.1730089816983096,-0.4012303676014728,2.426335310193919,10.700000083161894,-0.9751802651235899,-0.45265741241787916,0.07235492698935506,0.6069491170698037,-0.058581563558437764,-0.5829711976532239,-2.220654185253657,0.6860688936958,13.053680857594474,-0.6637642343653709,-0.8237592125765992,-1.656727762403508,0.41878908687781463,-0.26842549913865676,-0.7751626440755572
-0.29704526673703435,-2.1269230196909246,9.171653436332948,-1.6591029866142621,0.5825843975687277,0.02562173776537814,-0.30986588292049894,0.06850243901930285,-0.5450246103987473,-0.8815245014232093,2.6190748591472945,8.451862643257645,0.1524521597941731,0.01526879736093769,0.25497454411615783,-0.7992022980646614,-0.02715462082618749,0.01411708457685286,-0.9649319724691924,1.4687860054054278,9.320080985449904,-0.9059890571997173,0.15027586925835223,0.011953167405078242,0.5105248172328486,-0.07608699809776348,1.1773810612129096,-0.3597530383407586,2.248667348755786,10.772842945165088,-0.8540654060253928,-0.6043830232290505,0.10358411967185754,0.5973836404906132,-0.04913515495378411,-0.5905774888182324,-2.6015344380448284,0.9758906591258544,10.799650334098677,-0.4452169151784111,-0.9380020245528881,-1.8352965146754086,0.41913883532665064,-0.23719956122469305,-0.8008292049362534
0.12590950203131512,-1.8947259712066442,8.908295741436252,-1.7314956665871293,0.6078670310256468,-0.10566825069082189,-0.3023190559032613,0.10317378959518984,-0.5408640576451057,-0.15568018111942306,2.923953999123818,9.907443544539301,0.15094382881908508,-0.0905631622122813,0.20321058158852542,-0.7967816851773019,-0.020082209479216236,0.013450259270808857,-0.43797077700868126,1.247439306188667,10.019259044632737,0.06891665754603844,0.14426512550726467,0.19951474579101974,0.5001900059747535,-0.06492788842628011,1.18467538253839,0.4558275437534752,1.6115038805738768,10.70334056714655,0.12608117032866184,-0.7757590730359736,0.16211806486607794,0.5832181760736701,-0.04546794387871117,-0.591975075947243,-1.2372849330055413,0.2630588228415584,8.164988110487345,0.5353014022106497,-0.6333873198562467,-2.1278942227852005,0.4237082257654616,-0.21058865236051943,-0.8091712110163491
0.29927978795321797,-3.0922846476940595,12.871259134576047,-0.40707499133193054,0.7831571184984644,0.1854246401487439,-0.28481660903395817,0.10468522512095313,-0.5502773520332931,0.892452528635001,2.475770510174745,10.155642085635504,0.20402119524951834,-0.12988946439430532,0.18869984768228723,-0.7978149878013676,-0.013001932980192754,0.0032712502628319856,0.3458338839714107,0.30911021944626954,10.073888445993736,0.7031793259092799,0.12101924660080819,0.17408572861364474,0.4885198757493805,-0.030190641267522838,1.1805073914930249,1.830049448037857,-0.7046143528692699,9.187511480708633,0.7306165383982439,-0.7496356780178058,0.08011455519911463,0.5650917094382787,-0.05113121628418672,-0.598358221564995,1.3887994603353073,0.5349257231917968,6.396919382229707,1.0335147312973043,-0.2531461348212442,-2.1174063384623474,0.4334199312253265,-0.1971549725529761,-0.8184968057367532
1.7078720769093643,-3.008942847364783,9.690623015534895,-0.6089583641487564,0.9907088439724587,0.34953822653899425,-0.2691917055548648,0.1169117736802047,-0.5479355884676698,0.5418969634393471,2.988223032504109,8.395096574687939,-0.022279573153047114,-0.15515872494562574,0.21989834951487397,-0.7926961614051087,-0.0028657368901664456,0.007893483938177376,0.2193653905276029,1.4180966238117139,9.159846967858494,0.6632265596598745,0.1142932932592383,0.09132772077351242,0.4822219556251811,-0.0008092864298173304,1.18269813200939,1.5488546951230402,0.8976830674199574,9.217048306023182,0.7031152913974611,-0.5960020985927426,0.013838317893088588,0.5526601928625107,-0.051082455618468976,-0.5958203287335534,0.06931935885909574,0.730141701311328,7.106029819681561,0.9473835581986839,-0.05016440845914227,-2.1038856371596686,0.4512034878347499,-0.18321695683766193,-0.823455585449454
-0.13209828491236766,-2.8516154895042267,10.277696416734626,-0.6306442840870708,1.4583502364015384,0.2189952236302956,-0.23920522475710176,0.12746334885966693,-0.5513265104068399,0.8730083891798757,2.0305760284439085,10.150178896524608,-0.0444048835369691,-0.09946287547607699,0.1657504079816958,-0.7824873779452263,-0.002138333433475149,-0.0036402186104591613,0.27198258921040763,0.7753802086747892,9.641573801199046,1.1007127463473754,0.0747674135480786,0.17678120687377713,0.4888161475758141,0.03249187679735986,1.1742454869065178,1.8534499509909805,1.8809002410169033,9.586832566282832,1.1041715113603123,-0.6483118461951365,-0.025578355798169593,0.5500863695976328,-0.0658923842395188,-0.6097870546577125,-1.172362925062819,0.691771057801632,8.421136968726499,1.2607914832203941,0.16965169221287482,-2.3598849848696495,0.48655199854382813,-0.1756069094602506,-0.8350638161313337
-1.6339059432413277,-2.9809039589076516,11.120201219878684,-1.02581066282358,1.0083962214564914,-0.0012740501236860272,-0.22266017168207775,0.14068229927431833,-0.5558252726454591,-0.5100211892365012,1.5271855394384266,9.94824917026262,0.02109055849446066,-0.07789929330930677,0.1515160820319161,-0.7863896790184655,0.0038320633200867355,0.0013595068758903877,-1.1027328781222803,1.2095201361829293,9.837621477177354,0.9290030947370719,0.1132594245648742,0.2124730092204102,0.4788864711195489,0.06701167513284405,1.1742158836736776,0.6925286131178497,1.2001986640336806,9.49549924203361,0.950770276955088,-0.5860134914232327,0.056790246968100054,0.5315661991023559,-0.07092592813270551,-0.6042113470164134,-1.5114924543166086,1.2827274683651604,8.247848323596553,1.1105423813034228,0.2141095390187898,-2.5371793651289383,0.5089936420403873,-0.1553061645912225,-0.8319892612146061
-1.6259775450437426,-3.780186393039718,6.973286639916137,-0.37960760392196846,0.9685782282493514,-0.07451998590961599,-0.21189176060419504,0.13410323178332048,-0.5539711108923673,-0.12100107356493822,3.256172609210812,9.991397429935333,0.25434257490286977,0.017195391114372467,0.2274513976483808,-0.7810798499365077,0.014868410670379412,-0.00747252455997326,-1.2591138109229802,4.456682209607394,10.215599448216826,0.5259284507290697,0.057869905382622606,0.13438743797590225,0.4704847953805732,0.09163745534668764,1.163288516807109,1.298612761046513,2.9825011465006517,9.720603698239294,0.5975222285384771,-0.4480222553380189,0.04558619160718334,0.5205371280189421,-0.07316655776047878,-0.6092261948613782,-2.0180752738283423,2.4058765967633793,9.945317655526843,0.7767276121758488,0.16446184350210574,-2.5511654839324893,0.5352798841848152,-0.11962995135065266,-0.8396863040713068
-1.8489907812253659,-2.4972892544364176,10.040617160248965,-0.3280033175466578,1.168960786824173,-0.22470630904092917,-0.1782478265799001,0.14002454761378466,-0.5588655368244645,-0.4996372444033509,4.568604978220952,9.31660903640277,0.557085336916072,0.1866189626553897,0.39122291187446173,-0.7662330387431358,0.024039855670706285,-0.013608390676043733,-0.9739551317803108,4.244665303776415,7.5109938393081155,0.5262681655326655,0.09762708589062931,0.12322627307675353,0.46688496440698396,0.12462755708901499,1.1627349312288304,-0.2750188008009563,1.5089155604598437,8.230824474999402,0.4322128779334717,-0.45987031645975474,-0.339861020232787,0.5262223457584932,-0.06819796227103694,-0.6012714150959673,-0.3619783012057789,11.695793700292876,2.449813297768353,0.6008843672454532,-0.02596723019140535,-2.0253242631732378,0.5506355811912347,-0.08957249172097395,-0.8341539313382675
-2.954931278938865,-3.552950757047559,9.755969039668479,0.1426237276340997,0.7400286053073438,-0.14664705146923895,-0.17114166341653037,0.1405167298623895,-0.5555028786899338,0.7880318894519464,2.1130604280949017,10.413878058931706,0.7516742412631385,0.3627666672423812,0.6447246127420143,-0.7558714495784395,0.032865317295445756,-0.04389644155576031,-0.20829173630251052,0.673748449727199,10.334764621056992,0.06430984525254974,0.2768086614673902,-0.1739774493037097,0.44624354619508744,0.1428131240709098,1.1553909115019643,2.6937996600885756,3.6249878458411056,9.447071969145568,0.12973874734853,-0.5747506457062478,-0.09786755084135697,0.5161148601463007,-0.06735458890950777,-0.6138995781045916,-2.1554800078948815,17.40127796672996,11.824843788839576,0.5411899030400055,-0.20948350786211356,0.31946227666084975,0.5326053881771159,-0.10473181533951449,-0.830169101567502
-2.250436731375398,-1.8883440508824934,10.68103980368204,0.08597832745709812,0.15294259415832398,-0.14761759818125422,-0.16676620334837355,0.1293030853907386,-0.5601995554784066,1.2703599915425534,3.655510691452088,11.319636114434395,1.4780794097374115,0.5685010898569411,-0.06899842606738057,-0.7529535383283937,0.025851300573822483,-0.051554265617832086,0.7109158075709304,0.7674425301793832,9.810767175669731,-0.46393676411207296,0.1597453114010961,-0.025866553144662553,0.42768902832570355,0.1371962827669216,1.162192606099675,2.7604740080544357,2.782364354803457,9.323916093200271,-0.5273903490812435,-0.36517393438326134,0.2574777112509227,0.5061626986206881,-0.06457313982642975,-0.607017845549024,-1.2825834764005113,3.633502551509018,9.201015971092206,-0.09549618188023627,-0.6915491550835663,0.9809210765349587,0.4867945768861158,-0.11283742727843456,-0.8090020920253862
-2.6797849826547098,-3.0018578500704023,10.813107194201073,0.4718364525874214,-0.3306721263956482,0.19664506047114044,-0.16582864253310953,0.11784402549435417,-0.5673104996498057,0.1489519819197808,4.207547320878738,9.883947188859587,1.1235435746756617,0.616524474484738,-0.32116604402606763,-0.7318078742245235,0.027771408524627953,-0.07561182395328152,-0.43318349028081177,2.8434604819943488,9.93015011687218,-0.239213541966418,0.3117039222361538,-0.0013322985695968844,0.4165287070648027,0.15162295745635865,1.1540787692909487,2.2457267360386086,1.8878800756698233,8.977995823598954,-0.25054803178550344,-0.4000638462107199,0.17615488674883756,0.49684362088321643,-0.04976413009359043,-0.6154213448115712,0.36474193978039016,1.3273255128907362,7.306490322432829,0.09386350188191663,-0.45536400487570255,0.8370571805193624,0.4631398603106099,-0.11066772855448777,-0.8003749401674561
-1.116538859002002,-3.2045206154174815,10.31715623846789,0.0923165330750917,-0.5521378723525502,0.19861568679486163,-0.16400231420313163,0.11342448104945832,-0.5534175113200507,0.27840930430464206,3.8001158007565614,9.43536744183028,1.118090535860631,0.7984555708232212,-0.4640260750661011,-0.7030470915903103,0.028534060576553038,-0.08770332948879009,-0.09412175152313568,2.538893865049579,9.711009347633686,-0.06972064637976827,0.31281331287472125,0.05775031301845075,0.4145062008498305,0.17188714608023972,1.152177932100086,2.4351702043045265,2.219863009651314,9.340027981012385,-0.07987979402575746,-0.2981085202266626,0.11592564183851672,0.5008059759983329,-0.03385360230827585,-0.611488452042318,-0.1372881021922123,2.048398560076098,7.014960040942545,0.16035293298108155,-0.24766677138371185,0.63587069080178,0.45343408838064364,-0.1072469523581934,-0.7822775760925875
-1.0593512783801715,-3.905372763551096,9.431120715554094,0.06970772146664422,-0.5721538390601248,0.2141661982145864,-0.16598628082774447,0.11342934083329387,-0.5573078709197437,-0.516688991383393,4.477707954813564,8.817496649353917,1.1079191945535294,0.8928101668070301,-0.44451698729279293,-0.6835958864077353,0.01788535689624631,-0.11633645217693553,-0.9049453412546249,2.6187651396892813,9.465955115302613,0.7369454521158046,0.40712314398177074,0.18427887800079154,0.40003344306259914,0.2062602429496905,1.133874335113824,1.727248078123028,2.1532417913203075,9.644493512970861,0.762525036660276,-0.403725984256816,-0.020368775591818503,0.49266795015941284,-0.037861489121413475,-0.6211445437329634,-0.020536922473172566,0.4377325795915203,6.162751461170042,0.8168911608428957,0.308611652802522,0.4606929074559774,0.45177928015838303,-0.1282393565287669,-0.7759033798384056
-0.9843462432769554,-4.076788726297474,8.763627512341586,0.4585348709730531,-0.38530742292653936,0.18657550886553792,-0.16646683652777836,0.10366458731834385,-0.5582999046950944,-1.4783523363298752,3.527444388988622,9.500731826900424,1.4230927683795416,0.8295638470459659,-0.22772966576217193,-0.6609039787482359,0.006690603961564222,-0.1273863126061072,-1.7187157923509448,2.288040000367091,11.811512019623803,0.7525036854515458,0.22744406232897765,0.1730418277704356,0.3879476346379644,0.23547631332143124,1.114872179295167,3.0813415995045546,2.8503977826744626,10.329380691977434,0.8123413415761244,-0.17694768273208822,-0.09617463952127253,0.48735987816545406,-0.04798816580671325,-0.6109726683887432,-0.610560202703969,0.5273444711936008,9.825933771132677,0.6691325873814399,0.48542091969400364,-0.007809072009352386,0.45970048103788297,-0.1448057448725618,-0.7522334194905471
-1.6257384695120107,-2.120840774366643,8.708482808844124,0.8230879556256198,0.02766485365275954,0.19725588302610736,-0.15147619656584976,0.08731220453287403,-0.5491748768721614,-2.005982798094216,3.601769142169701,9.249285360739295,1.7756037086233125,0.43766185315922723,-0.19151721070799188,-0.6411892795628479,-0.0015912890431718412,-0.14899511780879637,-1.6053763508415035,2.1642720663487025,11.012109847415005,0.4118531913214953,0.15299582353868554,0.19218203142598747,0.3689699099366129,0.25303734516812565,1.0723629731082824,2.123846026502429,3.1841200723039167,9.879336104649903,0.3810133832309821,0.11834995114019328,0.07707038350750958,0.476662794336754,-0.04303071256810805,-0.6060639534908491,-1.6255926058121912,1.1040141579953178,9.773620289406102,0.09255417371484714,0.2929841946982775,-0.5453659200334796,0.46531688830958073,-0.13478385590538333,-0.7476250509193535
-1.0779289556995986,-2.8356960668431013,9.434032371146387,0.41998748236946026,0.10276366607418425,0.07129143548811358,-0.14710844417806102,0.06609453759946496,-0.5568208953119694,-0.8644413484743889,4.232825946030858,9.745770881932417,1.0886762733890822,0.4415791831855734,-0.16219032742682932,-0.6109329122032026,-0.011797026631403472,-0.1603408398430412,-1.2293424364397647,1.7242486654204057,10.026899019653149,-0.004835653890735134,0.013074363462910696,0.24822250777979163,0.364491228378405,0.25242115248122654,1.0323634071722276,2.4795109123410017,3.022479493978095,10.255946534407139,0.08966162136403448,0.2588846586554058,0.21894363938979036,0.47840628863622003,-0.03908457404097964,-0.602461734820024,-1.5077718435351386,1.3981588467002577,9.99027350606611,-0.14227209582496325,0.21889809765833496,-0.9575924586180358,0.4794683217216834,-0.11229503777770095,-0.7408610780037624
-1.266024853283602,-3.758036604997762,9.645147823933812,-0.08054464251653531,0.11782488574682438,-0.3260139525612843,-0.145373695261991,0.06072078075806183,-0.5546485100773327,-1.764513983487375,7.131519326021828,10.486210800290621,-0.19646989460063866,0.5133529106532317,0.07779415236037354,-0.5826446146271941,-0.019381040343035387,-0.17418388969749773,-1.2075027255542763,4.782004771113028,9.290320568773728,0.3521488177606471,0.11327582154283407,0.318005103571585,0.34613542617565257,0.25946324547674066,0.9884910715524323,0.3202641114871067,2.1614192935124823,10.273796607525737,0.3635552058483294,0.12066238071726122,0.033574300949112054,0.46997044192045456,-0.04012488310936471,-0.5882220819720664,0.24702351371110753,8.129004940219343,9.917832554775531,0.14285239558433543,0.34038856694119324,-0.7655621876631168,0.48513255571899017,-0.10054948228756942,-0.7220934471875939
-1.6848171522407611,-3.9124653899814166,10.015981898854996,-0.2930213224164551,0.1166568667141775,-0.7213656251962264,-0.14631967863654777,0.07071732199774994,-0.5487615084043013,-2.1179747033003764,6.300402882469459,7.655265204077204,-0.44860960362030666,0.5772012661975486,0.39543411030610115,-0.5514904857799833,-0.014459582524827576,-0.19639601327258588,-1.5198759111153308,1.9046610478231512,8.459260470154028,0.8758272810527604,0.4590324359897285,0.20771033421586127,0.3150926697365886,0.29613380274565076,0.9412445939667696,0.7800810450339407,2.1119967748164266,9.382268163594013,0.953473409958726,-0.20606172826194905,-0.05306284364202549,0.46045873337247767,-0.0366860861014498,-0.5877001771563206,-1.7020367810688157,6.981875448890939,9.02453451540343,0.7738363747768503,0.621469624505307,0.417194850765748,0.48568674095419645,-0.11103306481576115,-0.7079252036796756
-2.809710503605924,1.3264946193995508,10.891367637950873,0.06310518507885149,-0.1259597894241095,-0.1780259566338513,-0.135543917896597,0.05876727062366876,-0.5469183061277846,-0.2085429993934405,4.484209617247183,8.363975423194514,0.9962120496221782,0.611939099979944,0.13618886144363965,-0.5146740784939389,-0.0275846823595152,-0.2181971115907345,0.36763577089986,4.219451249199488,7.9954500667462565,1.4060218630240087,0.6734668602358626,0.1303103188375535,0.28870849184881225,0.3344760236309768,0.8946759870435745,2.34995892605053,1.8888270204239226,10.17818963102422,1.4857022463505742,-0.5644355079357863,-0.21477736055769106,0.4536661222202352,-0.044647097834643316,-0.5804725110102962,1.7401818663132256,1.7043593376475157,10.878658454373378,1.4940086344240073,0.8648663586072192,0.7160928326914054,0.49337655633812977,-0.1417631540471191,-0.686682764479014
-1.482133390087001,-1.3936437902154564,9.736243398060678,0.3308376790801815,-0.39931644862123494,0.591804169748206,-0.13046316620582324,0.0497577132766099,-0.5545452111794262,-1.0808375201542952,5.438519806725979,7.948195517402357,2.066147681099392,0.20998878844695562,-0.4350769251916087,-0.4775085718635641,-0.05095124026092075,-0.2189956444628371,-0.2738542038505039,3.7573226157918214,10.157660297933903,1.6928000699735626,0.6708187380567726,0.34673501568549525,0.2735414696584134,0.3710060528839009,0.8482774787630656,3.1203076781888863,5.918476325566676,8.393042106562332,1.7198193876785934,-0.7400023484177377,-0.29327283066636195,0.44710802151826484,-0.0538419176567532,-0.5742082339074094,-3.4957804625128857,2.9950824787706596,10.793303854871974,1.7063273101587277,0.8160170100371288,0.28097238131094865,0.5081592528195321,-0.17174608025643465,-0.6618032654554108
-0.10564519208072781,-4.3235413275384795,8.245400587754062,0.4290551904496615,-0.19500328370113154,0.6869057581298768,-0.130995338119242,0.05074484428766153,-0.5599101603331077,-1.5486247679136493,6.578872706477928,8.46849365567603,2.2951167600514597,0.17121784667918902,-0.20493812806413153,-0.46286400736910444,-0.0608695739693494,-0.22687034758205737,-1.9320515613858997,4.105050847267334,11.514057799060156,0.490527494133437,0.6376344346324272,0.14429314687869296,0.24598275422298166,0.3929443674231942,0.796270508194459,3.8769882920089476,4.574616878241281,9.459418789226193,0.4968810895929589,-0.4305366122032776,-0.04747518934599919,0.42176286338992564,-0.04106864072842473,-0.570986255018324,-1.8640371157670426,4.045027536176524,12.133608079764468,0.6618521792208192,0.09224708991249488,-0.15287362673570817,0.4920720174809268,-0.16223844056870793,-0.6505251114961546
-0.6908967309428536,-5.062434986513743,9.496353453918356,0.39178904477135373,0.06350523184353851,0.07152078409559448,-0.11730021418096595,0.036849870144918716,-0.5598031561847452,-2.143281272806805,7.873228952849109,8.861676558582756,0.28554176004398635,0.2229974718268015,0.22179826409563574,-0.426474141355228,-0.07285416707859553,-0.2316021935746833,-2.6189033460963147,4.546181513399168,10.652464604620807,-0.6821954796613332,0.4812949969042637,-0.10676584009208301,0.23098813320185,0.3706226828375008,0.7492551335634995,2.6415236557717634,4.6177377142777525,9.981792089133297,-0.6731300926011903,-0.09447942182194229,0.19905824250179763,0.41251791802974325,-0.03199261381215107,-0.5685796859454905,-2.5504193063707867,4.2671017253656185,13.148717465585529,-0.37555449916739025,-0.5622412807450323,-0.4369106486300333,0.4788837970599916,-0.143208661107263,-0.6436604966651829
-1.0634034850806395,-2.181474063925535,9.9912064870741,0.37394843294530905,0.2226667610911078,-0.14431971224660622,-0.10757808650964541,0.022477104845760126,-0.5682108451179685,-1.588850230517209,5.890177521666797,8.659232424895325,-0.30240757105412513,0.2969892019012824,0.3910284003358113,-0.389724135011239,-0.06977930182443666,-0.26014163553463654,-1.1309652087794648,3.044798650748878,9.341495031001314,-1.3971233541781762,0.5251214203003367,-0.25061658461618225,0.21342330790635838,0.34575031489852126,0.6893458258855862,2.0219661936073994,3.2800313701386097,9.02276174100017,-1.3659082306432424,-0.05819905158497653,0.3496161958800762,0.40074829426917813,-0.00525881250556401,-0.5805229171345223,-1.7477797833841833,5.3186108743124745,12.311135167958664,-0.8667928164320872,-1.0964693516779898,-0.5131681647789333,0.4587538414685984,-0.10809755405684456,-0.6599798565969508
-1.693072078659381,-1.0032200568676717,10.503949362864352,0.4400496114412447,0.09393435832598548,0.12979710216062199,-0.09793583854951998,0.015383839915275605,-0.5543853778961559,-0.693336486605499,6.961866298822978,9.558099927176237,0.1892645275457228,0.1675628983040635,0.4256420942961779,-0.3596511434830568,-0.0855501068521046,-0.259141545376119,-1.0163378633155065,2.0878785085038234,8.340899146096428,-1.5531521164800148,0.8979641964171146,-0.3216237644509748,0.18762311287407435,0.30873462733766754,0.6518473987093251,2.0398702040408523,1.9341006492188206,8.570100068163011,-1.5418424147568137,-0.28781674140378616,0.3406542778060826,0.3846675855088188,0.008211375384798433,-0.57909077818776,-0.5952629787691534,10.90297854463827,10.096307836025769,-0.780765142391104,-1.3890532690167656,0.2984876034860342,0.4223612212657009,-0.09643370255982903,-0.6593735893099966
-1.1450731918091182,-2.7865882127139,10.376224128515394,0.29833616287984394,-0.10455107880366889,0.1628431961247391,-0.09186635800083187,0.01003334619005449,-0.5598156376289373,-1.6372592079835737,6.3777139431221395,8.085565894712344,0.43191702222792555,0.3262164726630614,0.37749734424368037,-0.338649879240448,-0.10234011449104857,-0.26907358845377044,-2.217438943946553,2.7634224995822154,11.117636239467496,-1.8351277409398288,0.9539839987792794,-0.4859334616839804,0.15638666655122388,0.267583838156856,0.6110175256760167,3.5528889332719995,3.524389572161838,10.078555727870151,-1.8067371319349141,-0.3071402388107543,0.5801854367397317,0.3577965644313582,0.024792020233895505,-0.5844475974532183,-1.4616875125491007,5.590794054658129,10.856177336598474,-0.8983399494539959,-1.5393515167194098,0.9109012972247016,0.3693622376443851,-0.09163376522155739,-0.6628516218941108
-1.5716783041835796,-2.1995821247493605,10.507300995954086,0.2399677586679664,-0.3392557831471021,0.06989042351509335,-0.09452026411409917,0.004408199054010441,-0.5568758718151661,-1.421699430272631,7.92896167603608,8.205279533987772,0.6811333798716224,0.42074805729053344,0.3244509678393671,-0.3073982843383255,-0.12160889377071837,-0.2816709655674793,-3.1017651578545196,3.390004154288143,11.496846075207793,-1.8590896091253577,0.7689372024822702,-0.4564273744768881,0.13623532387487053,0.2239749325653005,0.5549851414732453,4.153052270545358,2.780780931865239,12.439534543280859,-1.843367112900812,-0.20567651932221118,0.5561216617451844,0.3348649081369419,0.03898211689545883,-0.584923559983513,0.3669788471509607,3.6810236984951503,9.94427233227157,-1.0561090165803306,-1.550907621956712,0.7507438659864649,0.32636265130585773,-0.08560016228624359,-0.6688084501889758
-2.1066976387876575,-2.0919764680391455,11.167432957742616,0.10481372955055837,-0.5592293879105775,-0.039428990107067526,-0.09315350881535196,0.002727271055916857,-0.569585568586473,-2.415952425233725,7.793364947201382,7.727309214576382,0.289020555987764,0.5297813326817631,0.24066879698967794,-0.2681045082844133,-0.12680476249309594,-0.28877412610662073,-3.631347097792549,2.333212551936545,12.513094571376232,-1.5306772457883562,0.4567497899826885,-0.339073993421116,0.13700438537787082,0.20595663709566006,0.48972835444098844,4.620227391835277,2.8286458383677924,11.527720937940794,-1.5237022192485603,-0.06286228946991074,0.45965910124636206,0.3180820252857454,0.06711194665318018,-0.5826826220092196,0.32702860651933824,4.059330366870685,8.339112432464052,-0.993393232750182,-1.2359480524524797,0.5566853176607629,0.30266197702535336,-0.061461267410221926,-0.664108367762697
-2.137864328453405,-0.9983250055805704,10.870018187062845,0.11132764644927869,-0.6335967006219095,0.10562420452763023,-0.091395655150259,-0.007532433433722237,-0.5654702178994235,-2.1319205121338856,6.812095947290547,7.377878704039834,0.43489921604833653,0.5397923476868088,0.12726830563932862,-0.23809356046360994,-0.1417355881371819,-0.3036676380323864,-3.0297834356358924,1.930656698616114,11.352558401655903,-1.509737311675234,0.16140742204299027,-0.3066149696509834,0.13311027082715932,0.1779924951582945,0.4028819365380444,4.080461920804012,1.3316205947206619,10.780606490401698,-1.4953834308191694,0.2544670721835475,0.4515029139937223,0.2909758678879932,0.08516839586292428,-0.587077899595927,1.9196916094040148,2.8735737049617955,7.263220381638296,-1.1773282098686677,-0.9767852302145849,0.367213494087675,0.2735557490311642,-0.04100303539644879,-0.6703725685753231
-1.7017366094916975,-1.0467454767053708,10.009234229000016,0.26805071126128616,-0.7391150759995501,0.3503222125693686,-0.10067867611238338,-0.010962020688142084,-0.5668684779185473,-2.2239308751743465,7.710030176576462,7.756931936120593,0.36459217721740567,0.393888225119176,-0.04794966558107773,-0.20946816270795662,-0.1725451875770692,-0.308407120671276,-2.8306575886929113,1.3881338244080061,10.266958513014048,-0.6324708192752927,0.033609999998232616,-0.08357845868020558,0.13019639802073493,0.14447390853068653,0.32292017405899737,3.168705796902663,0.8131002076095765,11.369895389601027,-0.613099054633836,0.2677030479320823,0.2128496417214976,0.2656065635865785,0.07695866084369851,-0.582632311875915,2.368283330413381,1.9603385820847974,5.87818494081063,-0.5976448619356879,-0.281513967742512,0.2766646478459804,0.25725297343368403,-0.047607322698018116,-0.6576120850007663
-1.1168709163397552,-1.668786658883294,9.25474302206677,0.40984328127834474,-0.6241439351970456,0.5759206876894993,-0.09287485222172581,-0.027054274293154275,-0.5711132770416595,-2.454032067426594,6.51759049595808,7.277467141894964,0.23071132718456686,0.15026213795985144,-0.07023568572649021,-0.18064378958942068,-0.19147664370369577,-0.3168513654124613,-2.7737183239471066,1.6073982328497902,10.271108700826868,0.6297275758669991,0.021037718546130915,0.21999217919063985,0.13035848947449555,0.132584389247008,0.23587550280587785,2.8303393061484146,1.3836240265922741,11.098177241311202,0.6636304956719795,0.12481876182161021,-0.12227984371302972,0.23680007640321243,0.06799457449107173,-0.5803481713335631,1.5082968036066673,2.1874107743947633,6.464266446039613,0.3451754792273283,0.5957061815442312,0.29997253422801196,0.25875966103335346,-0.05394439434378073,-0.6485782688949627
-0.8950656444167091,-1.470890084712574,8.913842106842656,0.556831540747639,-0.3134170232461827,0.6374376681881236,-0.08821981462466193,-0.04120545330479952,-0.5719120057504793,-2.4714458490056197,6.757897078322677,7.321644259188487,0.10104776682218888,-0.10574535675165038,0.031596229833869914,-0.15965335694226412,-0.20237909100304388,-0.325704281099969,-3.057981175123489,1.9539792607432704,10.979093758332587,1.3074912612820284,-0.020115518589766783,0.4580318310532524,0.13479717538760974,0.1294980727050232,0.15407694890932422,3.600857434901088,2.6614955404653298,9.852124700391572,1.3634580396310976,0.17728040876827852,-0.2166061769439567,0.21017809671908133,0.06022585516805342,-0.5800484001243525,0.1400623143786084,2.4943868149133177,6.99860333380929,0.7751755674747309,1.1464759773836164,0.09060908902262785,0.26858557149096046,-0.05855435262737418,-0.6337156885569926
-0.45324699549998526,-1.5348487684606145,9.172080019893043,0.45727758317881245,-0.11071729999740068,0.6022657676245843,-0.07923141934382073,-0.04386486952073714,-0.5780920178593477,-1.5693892260906395,6.434807304962906,7.193173743946454,-0.2926916177650758,-0.24872916368735623,0.15860857929649044,-0.14156944976556485,-0.22009364844545207,-0.33316059874637777,-2.6605802711244584,1.7989618375856078,10.946882680854301,1.2639605890156163,-0.17170002042224158,0.5137480934030786,0.14222315828768664,0.10347118717099259,0.07590800312286605,4.214467483231411,2.3106666903188833,9.646382462039844,1.3510644436521353,0.4694650958223055,-0.19268144160893944,0.18647338818443307,0.04098688350201536,-0.5789031732818624,0.22235461194707262,2.6448810163703227,7.579025132327161,0.5581765927893116,1.3212019544276485,-0.23634148924950965,0.2879380431432614,-0.07267336218486253,-0.6213198513499928
-0.45097699208620734,-1.5815597017266265,9.320617176971398,0.50465906850956,-0.09536129270630156,0.5570649991252782,-0.07678893828185558,-0.06606953747220734,-0.5823076291349392,-1.804875854034685,7.108097058217428,6.855949735428368,-0.520809306726197,-0.20674266640869998,0.24877486197081675,-0.12672493347588618,-0.22482934805752794,-0.34897570375107656,-2.6859691534253582,1.8766560611054135,11.179026670227634,0.969280562829824,-0.39266362724979953,0.4193795818650806,0.147280298458793,0.08527855666432387,-0.0023221005875190314,3.851813698346784,2.2372786596169636,9.975619247306234,1.0844611047440897,0.7689095773493173,-0.07945843140738758,0.16906387970289788,0.027260240956261245,-0.5856859336972423,0.04140101751155089,3.3012262407227233,9.250411960450343,0.15229867580057518,1.3418626939817153,-0.547502021494464,0.30284483952402513,-0.066296656179681,-0.6147880157591401
-0.505029892110713,-0.8569842314412326,9.274527610021371,0.6392493836961365,0.012877117242105246,0.6046550429771034,-0.06704007576434198,-0.07019823932507994,-0.5853225582592645,-1.335494047845406,6.897249124680146,7.550761739891841,-0.9295409527523011,-0.332242433787228,0.3010213694017145,-0.11770813094251602,-0.24005825859310823,-0.363785191587376,-2.4226980282983224,2.43365473137424,11.01985351501576,0.560664699283148,-0.5573098057852942,0.3213119196891003,0.14324495896632986,0.049242233602943136,-0.067110540763189,3.616883162053536,2.97372544197754,9.702780621152016,0.6478654660046124,1.03412578437252,0.02620855262212605,0.1504643256015922,0.0062753775419384,-0.5870022986598641,-1.042814310007329,4.266244771688216,10.361006745761046,-0.35387442805220715,1.1732451213773833,-0.672321628984887,0.3109335048015007,-0.0626122002325567,-0.6040772871470118
-0.8145987339892173,-1.0428349367460352,9.803842530990645,0.5342304206543729,0.05662115126201612,0.5703009761101727,-0.07240002372935306,-0.08094715276178369,-0.5860348164586722,-1.8158228478790914,5.985960117171475,7.1740798648499675,-0.7984445059018163,-0.2878474303708844,0.4385438191538942,-0.10258399735513381,-0.24257737693005343,-0.3686652829835983,-2.5596479988174896,3.5530058158857645,9.421684208249209,-0.07280360738269584,-0.6489000156844958,0.20716517249703786,0.14817953971851133,0.02444981925610639,-0.12256488346648828,1.0078814444138475,2.043807642613423,7.983911551094627,-0.07842618425664453,1.3443375326283753,0.042781728232908274,0.1453668634469509,0.006814734111134648,-0.5833064237873521,-0.34323630594620824,9.396478893584137,9.508344055983525,-1.0801624506929595,0.7557772562191393,-0.2249667445309401,0.32095077107530007,-0.04378854399841565,-0.5941220410737758
-0.3926137940386405,-1.0327225747018771,9.295352566666082,0.4459289635027012,0.032528158098538755,0.4687531616417356,-0.057292186573103185,-0.0911659466444321,-0.5917907714658089,-1.1346751045801902,5.25513901680003,7.788745110810467,-0.027442704082703488,-0.20214794689481924,0.5907319306528457,-0.0933111623479403,-0.25747975002846274,-0.3800645484408624,-1.9242058940047237,-0.06433529865402311,9.525642447153922,-0.3491429501457398,-0.5519380875970428,-0.05784778976113632,0.1460648353672842,3.219156125395216e-06,-0.1745469571655868,1.5306564144866348,0.27158168792507953,10.44213914956479,-0.30955287646909485,1.3422458328731637,0.17506300787241472,0.14042250396990094,0.004536523043143555,-0.5908106597705411,0.11651566542803912,5.188573473524623,10.464283072137407,-1.2153688767178152,0.7047334389677462,0.769557490772047,0.3216736220004727,-0.03597475017958877,-0.5933991512503309
-0.6090015854976291,-1.2316430859315028,9.511548173264933,0.44884277968635355,-0.0016363301968461263,0.3521527547995534,-0.060199995650602446,-0.10289050076188816,-0.5913034500978626,-1.3601183251282993,6.311106716564679,7.766316935034287,-0.24884582299928476,-0.3098907836480438,0.4492157594695559,-0.08647861253210395,-0.26741200307985497,-0.3876658692035473,-1.9896018193687146,2.141703058941234,9.590586670101077,-0.35143469189211984,-0.6406608545417324,0.06326679881697922,0.1438061011795178,-0.020696666374631544,-0.2185086559144133,1.0700250532812074,2.60184711311529,10.844450898814202,-0.37318668810374367,1.2733447170864622,0.12466762070063497,0.1347869750954025,0.0015927303683376023,-0.5926850834132786,-1.4793679225996192,4.582223775380262,11.972853400718149,-1.226285786318262,0.5539071569436917,1.2126979459446439,0.31873719781014864,-0.029874685195633577,-0.5929065853501679
-0.5242442699220622,-0.527319565237284,9.544144392590562,0.5533785883829136,0.047353370307308684,0.3942541288824668,-0.04393953295707985,-0.10845303392114752,-0.6046273662205608,-1.0568696011934793,7.080914686385815,8.368124618915747,-1.5109988073903737,-0.2603447414322707,0.48195211354908746,-0.07824174269259251,-0.27003345578267335,-0.40619398810358226,-1.4625327747806818,1.6811343782450887,8.563970884352642,-0.3026767453235316,-0.6349731534395812,0.06544868689552202,0.1430515157063294,-0.04184314421397656,-0.2571075791734078,0.3892776438988044,1.6854503949408057,10.20939706847052,-0.29699015545376034,1.0693422505949697,0.14333993031962983,0.13302032695062557,-0.0050679868218965005,-0.5986963690365273,-1.2793480767216547,3.6107434831125254,10.727281802377712,-1.0191677870718183,0.5189283904410126,1.5738730291260574,0.31998575404464324,-0.03499419030388705,-0.5870470474182256
-0.46300563714414883,-0.32009355153486585,9.36484144126656,0.6980988375867185,0.021992524230999504,0.4617092174724491,-0.047800705471542054,-0.12848257183971373,-0.6029282857097316,-0.9607075682156748,7.181200956555554,9.171019929789473,-3.1068301060543595,-0.4449180979704509,0.35225398280447395,-0.08329725768656668,-0.24808533529870797,-0.4374729485781096,-1.0073079751699983,0.8888515388391875,8.714345408150178,0.0029302053453629595,-0.46142489638711753,0.14554791155414037,0.13190999383964871,-0.05551471637582088,-0.29057009303769715,0.3177636897327748,1.1929267175904141,10.169807034967299,0.016485213814403824,0.7952196735210308,0.13200514181121373,0.11663268410821664,-0.008010799164455396,-0.6019518615624173,-1.1772228237776152,2.8752779466545904,9.833459185315602,-0.5622592502091354,0.5910176325894969,1.8986425058729637,0.3099779958713782,-0.03867238534663696,-0.5882278871926807
-0.9538677388469488,0.38825372848669537,9.740934293927928,0.7142100748647413,0.04105495190934039,0.4752653682306576,-0.03312140758390823,-0.13578849200963242,-0.6006186532721162,-0.782037067071504,5.95315274264643,7.8383141461858665,-4.570386135906132,-0.531359510778435,0.2441077211525987,-0.07406340917037418,-0.20598525040530496,-0.48540620768437387,-1.6021446929780148,2.579434316061578,8.032297984177028,0.6401345749548533,-0.36589745766292225,0.21029447265484538,0.13409727261257848,-0.07739563986947331,-0.32674326830106626,0.051542387206097565,2.333686947936005,9.644843799351818,0.6426821556104414,0.542280953164885,0.06012316999709832,0.1162907089680833,-0.018631390078231842,-0.6123230546300321,-2.214016522680774,2.118659906083175,8.459306153016225,0.09142786981704587,0.8310585698789158,2.10297970591029,0.3146347830088718,-0.05868845573472316,-0.5913991613491125
-1.236498393288094,-0.19242337564529863,10.291295593296852,0.42267116511558295,-0.07418210565762236,0.2556041897270798,-0.02752610989208983,-0.15066072247536696,-0.6060644713662144,-0.9540687928567996,4.289344539923614,6.726464885410556,-5.038327842056576,-0.18628378116151595,0.33175005676366515,-0.06698751139745775,-0.16016331541716017,-0.5204769548484915,-1.9336555141599863,2.5909872733372863,7.161541512562005,1.1874536926045638,-0.4662753040846383,0.26945259202049693,0.13223581476144555,-0.10465978131984585,-0.3440274771242243,-0.512146823454699,2.6083294003747675,8.57988645393416,1.2100325146575397,0.4298832884895034,0.005112700069554776,0.10772786749729339,-0.045681232611714986,-0.60900796324971,-2.9361124874926636,1.8383519501127772,7.863229626458533,0.6194059587251628,1.0993391038591482,2.115289742027774,0.3200987713528863,-0.09162755842608115,-0.5791797294365952
-1.0147508166261083,0.4072188656739004,10.148520162573552,0.1392153447485853,-0.24871657168459974,-0.037134007715191604,-0.03219965666340688,-0.15578409153002623,-0.6114089209268402,-0.7446632890205491,2.6231995679732596,8.58243367173554,-5.069739895683399,0.10009535440928813,0.4267158574693122,-0.06434063766496831,-0.10589200150216302,-0.5591540247657448,-1.3206210572023034,2.1223475926515736,7.34619440574376,1.4138056191032369,-0.4406733381592811,0.25174700386036364,0.11666682468010645,-0.13328904083383136,-0.3641160485898123,-0.31793097782867685,1.9361494515431588,8.041527897532847,1.4338342106030786,0.3152630853304128,-0.013904447604831602,0.09815709084803464,-0.07180147403557507,-0.6098453611773803,-2.4306147824362694,1.6014390066717783,9.895642055901394,0.9604710939511942,1.1098537502453085,2.1502209731773196,0.31723621634291505,-0.12654012882406587,-0.5752298144981882
-1.3822011504658986,1.214366150841762,10.629498635622166,0.314187402464426,-0.33431869231563754,0.07542700322178326,-0.03197383896240136,-0.16529725221769434,-0.6155811626619893,-0.9734386288655746,-0.55188152910301,9.338373524311619,-4.1827391980741675,0.10643739604633216,0.1929177328027239,-0.05698285386840373,-0.0506408526650558,-0.5778461794243934,-0.8903167557947987,2.0995826555627195,7.461623888578693,1.1903393140446845,-0.26298687580737734,0.21743215170647034,0.11394063714704154,-0.15654205022427992,-0.3721566126137022,-0.308353894035658,1.9820765613309672,7.342952847174932,1.201293825889901,0.19907933480556092,-0.0014014500271885746,0.08791647295454182,-0.08832828607230618,-0.6046869856518843,-2.2996328280680007,0.9503470807398103,10.144684064241494,0.892241577523966,0.8250108084601026,2.0899623450212093,0.31512441387109336,-0.1548518337934134,-0.5632318884253775
-1.1747608797677211,1.446035254344392,10.220159083559391,0.38589082753588133,-0.4443876015567232,0.16309492232848866,-0.03609194985732571,-0.17824570150532273,-0.6141096771191378,-1.005019264865718,-1.7287802577408091,8.5941377857324,-2.0395858441964565,0.19144918593900856,-0.12369488918187575,-0.039785200613899216,-0.03236566152342971,-0.6017923907588585,-0.6669860224349451,1.660373018427905,6.850190941492215,1.008181134913963,0.07737844621112247,0.2391498169590477,0.12240108979443001,-0.17633807090737175,-0.3898458052215037,-0.5016256208459277,3.308189024235902,7.577922678302217,1.0501580409836184,0.009170251534875067,0.10536429623091381,0.08734737834801863,-0.10793481159982966,-0.6110440964002822,-3.1995860553158253,0.6001787029357386,10.446863076696511,0.905299506490328,0.5606833985577683,1.8299072518439503,0.3185817185989585,-0.1851220708884367,-0.5646799838054388
-0.007981882968068815,1.7772696064209257,8.267429402940838,0.3617294718874997,-0.28759436814608075,0.2829411181582613,-0.031460855536710255,-0.1782364339659387,-0.6151224833722174,-0.659748005698479,-0.6873821900301937,9.505347904571993,-0.6711819008543668,0.007585725189631628,-0.3657348976620444,-0.03058221791364888,-0.015701207061976568,-0.6105298375782129,-0.3004239436301255,4.869551406539861,8.285889899796302,0.7823866860336054,0.47426444874302004,0.30556575844952255,0.12327146076477698,-0.18395969357466363,-0.3941699814773239,0.426068786537002,5.993904862109835,7.850003584513128,0.8592977933926517,-0.23492260412041374,0.27747581061203,0.0761057213508198,-0.11207512538652367,-0.6116404509131703,-3.33051390639342,1.3488488233979725,12.179182157779804,0.8429190977690441,0.19629304124909433,1.3111874744956962,0.3103251741750058,-0.19953261399613823,-0.5585326466976844
