# sampling frequency: 40
# units are seconds/meters/radians/a.u.
seg1_acc_x,seg1_acc_y,seg1_acc_z,seg1_gyr_x,seg1_gyr_y,seg1_gyr_z,seg1_mag_x,seg1_mag_y,seg1_mag_z,seg2_acc_x,seg2_acc_y,seg2_acc_z,seg2_gyr_x,seg2_gyr_y,seg2_gyr_z,seg2_mag_x,seg2_mag_y,seg2_mag_z,seg3_acc_x,seg3_acc_y,seg3_acc_z,seg3_gyr_x,seg3_gyr_y,seg3_gyr_z,seg3_mag_x,seg3_mag_y,seg3_mag_z,seg4_acc_x,seg4_acc_y,seg4_acc_z,seg4_gyr_x,seg4_gyr_y,seg4_gyr_z,seg4_mag_x,seg4_mag_y,seg4_mag_z,seg5_acc_x,seg5_acc_y,seg5_acc_z,seg5_gyr_x,seg5_gyr_y,seg5_gyr_z,seg5_mag_x,seg5_mag_y,seg5_mag_z
1.812887,-7.392915,6.268335,0.018178,-0.001136,0.000181,-0.2854,0.524902,-0.035889,-0.071944,8.287844,5.316269,0.016114,0.016693,0.004104,-0.079346,0.448242,0.465576,-1.251302,-7.386766,6.540123,-0.038819,0.016169,0.017471,0.647949,0.108887,-0.108154,1.887789,-7.298573,6.176475,0.013682,-0.004906,0.007905,0.156006,0.321289,-0.559814,0.706529,-5.872837,7.799132,0.005709,0.013696,0.001732,-0.242188,0.399902,-0.450928
1.735876,-7.310457,6.29712,0.023955,0.004971,-0.001496,-0.294678,0.523682,-0.034668,-0.02516,8.247535,5.238871,-0.005279,-0.006276,0.008548,-0.077637,0.445068,0.467285,-1.279085,-7.277133,6.649239,0.108224,0.028832,0.002226,0.63916,0.109619,-0.106934,2.022521,-7.311412,6.320845,0.040088,0.018028,0.002806,0.14917,0.323486,-0.561035,0.605251,-5.92725,7.770419,0.008403,0.005111,-0.003481,-0.249512,0.400635,-0.449219
1.794847,-7.276959,6.317032,0.006597,-0.003963,-0.004546,-0.289062,0.524658,-0.032715,-0.047391,8.268266,5.220507,0.015313,0.013877,0.005363,-0.081055,0.450439,0.462891,-1.330188,-6.895836,6.769037,0.059279,0.021103,0.000703,0.642822,0.113037,-0.107178,1.959702,-7.260069,6.535542,0.027579,0.028022,0.005515,0.152832,0.324951,-0.559814,0.668651,-5.8903,7.809416,0.029384,-0.01378,-0.010665,-0.249023,0.404053,-0.448242
1.767152,-7.313718,6.290894,-0.003256,0.00218,0.001813,-0.289551,0.519287,-0.029541,-0.0577,8.321797,5.234694,-0.007076,0.000762,0.007048,-0.072754,0.449951,0.459717,-1.320575,-7.070255,6.760236,-0.086802,-0.006382,0.009554,0.644775,0.108887,-0.102051,2.005648,-7.260166,6.585836,-0.012887,-0.017262,0.007035,0.153809,0.321289,-0.556641,0.690285,-5.866939,7.809884,-0.015165,-0.001216,0.001062,-0.246582,0.398438,-0.44458
1.804018,-7.296567,6.339136,0.002446,-0.001767,4.4e-05,-0.285645,0.522217,-0.036865,-0.020964,8.309698,5.222559,-0.024777,0.010385,0.008873,-0.078125,0.443359,0.462158,-1.270037,-7.31191,6.671234,-0.030746,-0.008093,-0.008169,0.648193,0.110352,-0.104736,2.015099,-7.28949,6.437378,-0.040755,-0.012855,0.01781,0.156738,0.322021,-0.556885,0.663206,-5.906146,7.783508,-0.002401,0.003836,-0.003222,-0.241211,0.403076,-0.44751
1.745136,-7.300932,6.271583,-0.029215,0.007959,0.00396,-0.277832,0.52832,-0.036377,-0.086048,8.250942,5.304221,-0.045247,0.00768,0.007828,-0.080078,0.447998,0.467529,-1.304442,-7.109119,6.636839,0.02762,-0.005076,-0.021528,0.656006,0.117676,-0.107422,1.968748,-7.297986,6.259839,-0.032088,-0.015312,0.010186,0.166016,0.329102,-0.55835,0.656166,-5.891787,7.822147,-0.023877,-0.010115,-0.004691,-0.234863,0.40625,-0.44751
1.81259,-7.447332,6.25431,-0.004437,-0.012986,-0.003236,-0.298584,0.518555,-0.034424,-0.001194,8.18319,5.27795,-0.005253,-0.007056,0.011353,-0.08252,0.451416,0.453857,-1.215813,-7.100163,6.609811,-0.05742,-0.022805,0.002464,0.637695,0.107178,-0.109131,1.912472,-7.301277,6.114179,-0.021838,0.008781,0.018669,0.142822,0.321533,-0.559814,0.69731,-6.001967,7.705892,-0.004533,-0.003473,0.00528,-0.253906,0.397217,-0.450439
1.798764,-7.278651,6.287115,0.031993,0.01817,-0.000275,-0.286133,0.519531,-0.041748,-0.003747,8.323208,5.260243,0.018045,0.024943,0.001829,-0.071289,0.450195,0.465332,-1.166867,-7.266222,6.548847,0.002142,0.025489,0.006428,0.646973,0.107178,-0.112549,1.912546,-7.243802,6.167935,0.03771,0.003537,-0.004968,0.154297,0.320068,-0.568604,0.662119,-5.862984,7.866861,0.031574,-0.002276,-0.021409,-0.24292,0.398193,-0.458984
1.787241,-7.331006,6.30551,-0.025925,-0.015665,-0.001217,-0.288574,0.516113,-0.037109,-0.097168,8.250949,5.281929,-0.031501,-0.00667,0.013399,-0.084717,0.446045,0.461914,-1.326491,-7.144606,6.649357,0.045472,0.019618,0.007458,0.645508,0.104004,-0.111084,1.997349,-7.209584,6.294362,-0.004049,0.011191,0.012542,0.152832,0.316406,-0.564209,0.760696,-6.018362,7.795466,-0.056049,-0.009996,0.017894,-0.24585,0.395508,-0.452148
1.814227,-7.400274,6.266628,0.0309,0.020053,6.1e-05,-0.286133,0.523193,-0.03418,0.044987,8.222823,5.226627,0.026829,0.008467,-0.003621,-0.078125,0.441406,0.460938,-1.239367,-7.121727,6.708952,0.009525,0.013825,0.009271,0.649658,0.113281,-0.105469,1.983925,-7.409324,6.422318,0.004355,0.016573,0.01606,0.158203,0.324707,-0.557129,0.633338,-5.980799,7.73437,0.081257,0.036991,-0.012622,-0.242676,0.402832,-0.447754
1.663676,-7.20568,6.322596,0.022211,-0.011046,-0.000966,-0.292725,0.525391,-0.040771,-0.149577,8.336403,5.232525,0.000912,0.018717,0.014337,-0.076904,0.446045,0.461914,-1.393879,-7.083056,6.737644,0.022473,0.024752,0.000532,0.64502,0.114258,-0.112061,1.973545,-7.20446,6.554779,0.060153,0.011741,-0.012636,0.152588,0.325195,-0.565674,0.594059,-5.742502,7.807998,0.019656,-0.023615,-0.011922,-0.248047,0.403809,-0.454834
1.858583,-7.27184,6.343782,-0.033314,0.004883,0.000203,-0.289795,0.526855,-0.038574,0.007929,8.30541,5.25164,-0.025998,-0.014862,0.002798,-0.084961,0.447266,0.463867,-1.29221,-7.101758,6.709404,-0.046957,-0.031853,-0.006819,0.644531,0.114502,-0.11084,1.969421,-7.214621,6.489082,-0.076503,-0.013495,0.030863,0.153076,0.325684,-0.562744,0.725373,-5.835473,7.777699,-0.025903,-0.010622,0.009914,-0.248047,0.404785,-0.453125
1.72274,-7.421183,6.23722,-0.0139,-6.6e-05,-0.004411,-0.281006,0.522217,-0.040283,-0.02235,8.241791,5.242426,-0.0394,0.024896,0.015465,-0.072998,0.44458,0.465332,-1.221308,-7.208134,6.633979,-0.025402,0.00808,-0.004208,0.653076,0.108643,-0.114502,1.981335,-7.409143,6.29162,-0.023524,-0.022501,0.009858,0.160889,0.321533,-0.568604,0.668566,-5.948028,7.833244,-0.061797,0.007628,-0.019727,-0.238281,0.401611,-0.456299
1.854696,-7.306533,6.339458,0.028111,-0.000208,0.006004,-0.290527,0.525635,-0.046631,-0.070154,8.201058,5.245086,-0.001397,-0.006047,0.004413,-0.083252,0.444336,0.467285,-1.307179,-7.131274,6.623043,-0.004545,-0.01573,-0.010466,0.645264,0.110596,-0.118408,1.968979,-7.182335,6.199074,0.014015,0.005622,-0.001565,0.154785,0.322998,-0.568115,0.69754,-6.101324,7.769679,0.009975,-0.016404,0.022104,-0.247803,0.401611,-0.461182
1.761045,-7.299244,6.275403,-0.033898,0.003759,-0.003318,-0.285156,0.522705,-0.041504,0.028728,8.3238,5.312281,0.002633,0.011868,0.007808,-0.085693,0.44458,0.469727,-1.152673,-7.176431,6.565771,-0.023993,0.004707,0.006536,0.649902,0.111328,-0.116943,1.88292,-7.270234,6.190363,-0.04174,0.001057,0.027483,0.162109,0.324219,-0.56665,0.682747,-5.847016,7.820128,0.068729,0.008268,-0.03786,-0.241943,0.401123,-0.455078
1.800767,-7.46903,6.227011,0.018904,-0.001944,-0.000755,-0.293701,0.523438,-0.046631,-0.083777,8.207796,5.257097,-0.037852,0.005678,0.009468,-0.073486,0.442627,0.468262,-1.303532,-7.195909,6.596421,0.02931,0.026019,0.007129,0.641357,0.108643,-0.12085,1.961541,-7.327006,6.241322,0.034888,0.010482,-0.004242,0.148193,0.322998,-0.572021,0.691961,-5.840309,7.78682,-0.044426,-0.002149,0.027925,-0.248535,0.401367,-0.460205
1.777775,-7.212257,6.361193,0.039241,0.006284,-0.001044,-0.285156,0.523926,-0.038086,-0.00979,8.220482,5.239329,0.043225,0.004122,0.003738,-0.078125,0.445312,0.459229,-1.25909,-7.112415,6.707147,0.023213,0.009197,0.00362,0.651123,0.110352,-0.109619,1.961685,-7.26782,6.41163,0.014991,0.017246,0.010237,0.156738,0.324219,-0.565186,0.66498,-6.008216,7.776298,0.005293,0.004822,-0.021226,-0.241943,0.402344,-0.452148
1.774131,-7.326732,6.280988,-0.037798,-0.001186,-0.004634,-0.289307,0.521729,-0.03418,-0.080543,8.387665,5.272334,0.002945,0.014503,0.00803,-0.070312,0.439697,0.463867,-1.330069,-7.129868,6.697425,0.00722,0.024526,0.007954,0.645996,0.106934,-0.105957,1.997177,-7.298686,6.5098,0.017016,-0.000337,0.002875,0.153076,0.321777,-0.561035,0.675562,-5.916455,7.818866,0.026377,-0.006332,0.003233,-0.246338,0.400391,-0.450195
1.792195,-7.350114,6.282802,0.032798,0.00026,0.00499,-0.287354,0.530273,-0.038086,-0.025013,8.272645,5.222329,-0.045281,-0.007323,0.009076,-0.075684,0.444092,0.458984,-1.315026,-7.099078,6.731641,-0.007494,-0.015277,-0.007072,0.648193,0.114258,-0.11084,2.022378,-7.217894,6.501494,-0.013911,0.001484,0.013368,0.156006,0.329102,-0.563965,0.670938,-5.861104,7.780429,0.012487,0.000784,-0.003216,-0.246094,0.40625,-0.453369
1.750843,-7.199781,6.309725,-0.015545,0.00422,-0.001499,-0.288086,0.519531,-0.037109,-0.04536,8.239608,5.265775,-0.008108,0.020971,0.008719,-0.082275,0.446533,0.46167,-1.270517,-7.126146,6.657166,-0.03597,0.002045,-0.005549,0.646729,0.106201,-0.109863,1.944705,-7.324724,6.386865,-0.049548,-0.009186,0.019778,0.153809,0.318604,-0.562988,0.646391,-5.830227,7.80162,-0.019962,0.001926,-0.00906,-0.246338,0.397217,-0.454102
1.776595,-7.420785,6.255022,-0.03146,-0.003403,-0.001614,-0.289795,0.523682,-0.041016,-0.079177,8.287534,5.266829,-0.012848,-0.007388,0.00694,-0.078613,0.449219,0.470459,-1.303557,-7.196897,6.624223,-0.024441,-0.014118,-0.005566,0.644775,0.109375,-0.11377,1.950323,-7.301061,6.235113,-0.002486,-0.01017,0.005516,0.154053,0.324219,-0.56543,0.66858,-5.976489,7.780483,-0.03466,-0.013301,0.009825,-0.246094,0.402344,-0.453369
1.802195,-7.33582,6.282318,0.032639,0.00192,0.000357,-0.28833,0.519531,-0.044922,0.023281,8.261375,5.273002,-0.019758,0.010831,0.009784,-0.072754,0.449463,0.460449,-1.172669,-7.166651,6.557278,0.007026,-0.002532,-0.005589,0.645508,0.104248,-0.115234,1.935007,-7.223861,6.192023,-0.00583,-6e-06,0.00991,0.153564,0.320068,-0.570801,0.690218,-5.959584,7.811125,0.022053,-3.3e-05,-0.019076,-0.244873,0.395996,-0.459961
1.805968,-7.302409,6.28522,-0.017102,0.00058,-0.002658,-0.291016,0.525146,-0.037109,-0.054271,8.209784,5.256637,-0.012948,0.005869,0.008154,-0.08374,0.447754,0.461426,-1.25616,-7.149905,6.606474,0.004336,0.02317,0.008294,0.64502,0.110107,-0.109863,1.98505,-7.251493,6.232167,0.006445,0.005881,0.008046,0.154297,0.326416,-0.5625,0.714372,-5.937967,7.852951,-0.007359,-0.009013,0.008587,-0.246582,0.403564,-0.450928
1.799762,-7.395135,6.316983,0.016939,0.004018,0.002833,-0.290283,0.518799,-0.039062,-0.035858,8.273964,5.242962,0.035459,0.007556,0.003495,-0.076172,0.44751,0.468262,-1.277996,-7.175656,6.6726,0.007825,0.009007,0.007755,0.644531,0.106689,-0.115234,1.959648,-7.293124,6.326334,0.005699,0.019558,0.012901,0.151367,0.320557,-0.567871,0.674418,-5.951662,7.7962,0.020867,0.024115,-0.008206,-0.249756,0.397217,-0.455078
1.752359,-7.254614,6.281356,0.018485,0.000662,-0.001299,-0.286621,0.523682,-0.032959,-0.063185,8.349015,5.271413,-0.022664,0.006812,0.007724,-0.081543,0.451904,0.459229,-1.312477,-7.129773,6.681384,0.024155,0.018972,0.003652,0.645264,0.109375,-0.104736,1.972089,-7.304655,6.464368,0.023292,0.005411,0.002445,0.155273,0.324707,-0.55542,0.60778,-5.850129,7.767337,0.026163,-0.007807,-0.003571,-0.245117,0.402588,-0.446045
1.804612,-7.323954,6.30173,-0.020111,-0.001442,-0.001938,-0.292236,0.522705,-0.040283,-0.00655,8.197448,5.216809,-0.025717,0.000862,0.012206,-0.074951,0.44043,0.46167,-1.314004,-7.093695,6.734752,-0.006853,-0.002069,1.4e-05,0.64502,0.111328,-0.113037,1.997265,-7.24527,6.501786,-0.008927,0.001324,0.009629,0.153564,0.322754,-0.566162,0.713851,-5.856742,7.770082,-0.00289,-0.012513,-0.005743,-0.246826,0.401367,-0.457275
1.770497,-7.334056,6.267216,0.010259,0.003847,8e-06,-0.280518,0.515625,-0.044922,-0.056435,8.291533,5.229933,0.019778,0.017624,0.005855,-0.082031,0.446045,0.460938,-1.286134,-7.129145,6.682295,-0.024216,-0.000981,-0.00411,0.653564,0.101318,-0.116699,1.970916,-7.297959,6.413416,-0.028423,-0.008642,0.01543,0.159912,0.317627,-0.568359,0.659705,-5.900852,7.846015,-0.032333,0.009341,-0.003681,-0.23877,0.394043,-0.458984
1.804548,-7.268796,6.316645,-0.006924,-0.002694,0.002073,-0.285156,0.522217,-0.041748,-0.052718,8.339676,5.274868,-0.039787,-0.003886,0.009286,-0.081055,0.451904,0.465332,-1.286871,-7.14918,6.64224,-0.016364,-0.011509,-0.006463,0.64917,0.110107,-0.113037,1.967275,-7.247506,6.293229,-0.005247,-0.010314,0.00606,0.156738,0.322021,-0.565186,0.679881,-6.028917,7.759478,-0.012591,-0.01367,0.004011,-0.244873,0.400146,-0.456299
1.78274,-7.367329,6.266293,-0.021137,0.005103,0.000148,-0.293213,0.527588,-0.039795,0.006522,8.175954,5.261245,-0.031836,0.011447,0.007796,-0.071045,0.443604,0.46167,-1.200199,-7.140461,6.614758,-0.018224,-0.001126,-0.003975,0.640137,0.114502,-0.113281,1.935749,-7.243422,6.209798,-0.031124,0.001899,0.018493,0.147217,0.327393,-0.563232,0.694941,-5.889104,7.789882,0.043955,0.004948,-0.01601,-0.250977,0.4021,-0.450928
1.771915,-7.396122,6.270721,0.018906,-0.001941,-0.000753,-0.287598,0.519531,-0.040771,-0.074149,8.227107,5.288586,0.013792,0.009093,0.006688,-0.083496,0.448486,0.469482,-1.291478,-7.211561,6.579783,-0.006604,0.013808,0.007275,0.647705,0.107422,-0.115234,1.907964,-7.331471,6.20715,0.000374,0.007431,0.009987,0.156006,0.320801,-0.567383,0.671098,-5.860278,7.844573,-0.032841,-0.00701,0.003384,-0.245605,0.399902,-0.452881
1.802294,-7.256132,6.324823,0.022761,0.002399,-0.000716,-0.28833,0.527832,-0.039795,-0.015272,8.332357,5.235864,0.013674,0.001879,0.005154,-0.07373,0.445312,0.46582,-1.238913,-7.171227,6.638647,0.032478,0.008361,0.000891,0.647705,0.111572,-0.111572,1.955862,-7.282931,6.31558,0.033829,0.006881,0.000442,0.153809,0.324951,-0.563721,0.6967,-6.009795,7.741464,0.001181,0.004317,-0.002324,-0.245605,0.402344,-0.455078
1.789395,-7.323623,6.286649,-0.017288,0.001112,-0.002958,-0.293213,0.51709,-0.041016,-0.037308,8.284844,5.245905,-0.027486,0.00939,0.009086,-0.076904,0.446777,0.468994,-1.281812,-7.066669,6.705718,0.026909,0.024139,0.005268,0.64502,0.106445,-0.11377,2.006658,-7.211188,6.449149,0.015076,0.006466,0.00375,0.151123,0.318848,-0.565918,0.662749,-5.886358,7.812512,0.041199,-0.002626,-0.010997,-0.248047,0.395508,-0.456055
1.782212,-7.37638,6.276546,0.009374,0.001731,0.001448,-0.289551,0.520508,-0.040283,-0.049611,8.235028,5.231607,-0.000368,0.003434,0.005028,-0.077148,0.445801,0.461182,-1.340371,-7.117063,6.741816,-0.033066,-0.000668,0.006642,0.644043,0.108398,-0.112793,2.001005,-7.265607,6.473185,-0.025923,0.005162,0.016239,0.152344,0.324707,-0.568604,0.703997,-5.87985,7.811723,-0.012823,-0.004582,0.003572,-0.247803,0.401367,-0.453857
1.765929,-7.251887,6.300436,0.0155,0.002706,-0.000106,-0.292725,0.521729,-0.036133,-0.055407,8.339203,5.223111,0.006064,0.013254,0.007605,-0.078125,0.453369,0.46582,-1.279173,-7.214679,6.666209,-0.012305,-0.003222,-0.005994,0.641602,0.109375,-0.106934,1.956479,-7.355353,6.419598,-0.016523,-0.002795,0.013077,0.148926,0.322998,-0.561035,0.645142,-5.912804,7.783481,-0.004082,0.008844,-0.006175,-0.250244,0.401611,-0.453857
1.792619,-7.291643,6.288022,-0.03495,-0.001295,-0.001379,-0.286621,0.521729,-0.042725,-0.045759,8.273095,5.264376,-0.054829,-0.003336,0.010866,-0.077393,0.451172,0.465576,-1.296306,-7.106571,6.64752,0.010975,-0.004572,-0.011053,0.647461,0.108398,-0.114014,1.952498,-7.228662,6.322045,0.005929,-0.007697,0.002548,0.154053,0.319336,-0.565674,0.672142,-5.892892,7.770489,-0.000585,-0.015691,-0.000279,-0.244629,0.402832,-0.454834
1.807548,-7.453009,6.283339,0.002096,0.002563,-0.003556,-0.287598,0.52124,-0.036621,0.003366,8.178913,5.248503,0.002155,0.013806,0.008904,-0.080078,0.445312,0.468018,-1.230152,-7.129803,6.636661,-0.039535,-0.004218,0.001724,0.647217,0.109375,-0.109863,1.949261,-7.23071,6.250904,-0.034255,-0.00294,0.018701,0.154297,0.320312,-0.562988,0.723613,-5.922394,7.85475,-0.009889,-0.002646,-0.00663,-0.242676,0.39917,-0.451904
1.780487,-7.252987,6.314832,0.027332,0.001341,0.003529,-0.284424,0.526367,-0.042725,-0.088291,8.343719,5.247424,0.01286,0.006134,0.0064,-0.087646,0.445312,0.460449,-1.276347,-7.244794,6.594463,-0.007702,0.009456,0.006217,0.652344,0.114014,-0.114014,1.949372,-7.32105,6.223081,0.001381,-0.001509,0.009455,0.158691,0.330322,-0.568115,0.663174,-5.967628,7.818652,-0.014489,0.007895,-0.000623,-0.240967,0.407227,-0.456787
1.817191,-7.318183,6.284381,-0.025589,0.001765,-0.002073,-0.28833,0.521484,-0.037354,0.020305,8.267199,5.29494,-0.03574,-0.002131,0.00908,-0.077148,0.440674,0.465088,-1.239821,-7.149574,6.648343,0.033958,0.006265,-0.003402,0.646729,0.107422,-0.108887,2.003152,-7.264577,6.304748,0.015804,0.014362,0.004756,0.152588,0.319824,-0.564453,0.702437,-5.975731,7.747233,0.030996,-0.010941,-0.003044,-0.245605,0.399414,-0.451904
1.75045,-7.40975,6.228652,0.014535,0.005584,0.000592,-0.289062,0.519043,-0.037598,-0.053667,8.198011,5.236509,-0.001151,0.015464,0.007455,-0.081787,0.442139,0.457031,-1.29471,-7.122332,6.670369,0.004324,0.022534,0.01071,0.64624,0.106934,-0.114258,1.931127,-7.264821,6.411692,0.007806,0.017925,0.010887,0.152832,0.318359,-0.564941,0.678454,-5.826502,7.788853,0.015526,0.012498,-0.012252,-0.245117,0.397949,-0.454102
1.787564,-7.233847,6.334169,0.032465,-0.005061,0.000387,-0.287109,0.526611,-0.037598,-0.048936,8.294899,5.230981,0.021814,-0.002364,0.005242,-0.07959,0.452148,0.467041,-1.312362,-7.143066,6.703704,-0.006595,-0.004704,-0.003426,0.649902,0.111816,-0.110596,1.965677,-7.279878,6.430702,-0.00128,-0.011034,0.00632,0.155273,0.326172,-0.562256,0.665485,-5.911264,7.770105,-0.014361,-0.005066,0.007958,-0.241943,0.404785,-0.451172
1.79286,-7.269471,6.312811,-0.036763,0.006785,-0.001774,-0.289795,0.521484,-0.052246,-0.026905,8.346729,5.258784,-0.023633,0.012898,0.009422,-0.074463,0.443115,0.46167,-1.262504,-7.13918,6.686049,-0.007598,0.00788,-0.001076,0.64624,0.107666,-0.123535,2.011022,-7.282592,6.409228,-0.01544,-0.004062,0.011727,0.154785,0.322021,-0.579102,0.68981,-5.890963,7.810818,0.014952,-0.007699,-0.016199,-0.245605,0.401855,-0.467773
1.773325,-7.440728,6.274036,-0.001644,-0.004039,-0.000237,-0.289062,0.528564,-0.036621,-0.055115,8.219518,5.253346,-0.042214,0.000553,0.010513,-0.081055,0.444824,0.45874,-1.331794,-7.132353,6.674405,-0.016664,-0.001871,-0.003763,0.644775,0.113037,-0.109863,1.973589,-7.278238,6.347948,-0.011571,0.004906,0.009354,0.15332,0.327881,-0.561523,0.696122,-5.90948,7.822336,-0.030915,-0.000141,0.006972,-0.244629,0.404541,-0.450684
1.800681,-7.242112,6.320965,0.029022,0.005982,0.005043,-0.289551,0.523193,-0.037354,0.001963,8.242335,5.239615,0.011313,0.005671,0.006836,-0.072021,0.442627,0.463379,-1.225871,-7.171653,6.621162,-0.011922,-0.011505,-0.004187,0.64502,0.109863,-0.110596,1.946506,-7.25554,6.280961,-0.015555,-0.003879,0.012561,0.151855,0.324219,-0.563232,0.666129,-5.978036,7.75081,0.009654,0.002891,-0.007784,-0.246338,0.400146,-0.450684
1.777248,-7.327458,6.279312,-0.039,-0.003771,-0.003863,-0.288574,0.531006,-0.043457,-0.03522,8.308994,5.281404,-0.017129,0.00878,0.009569,-0.077393,0.447754,0.463867,-1.253768,-7.161195,6.614189,-0.001184,0.014032,0.000327,0.643555,0.115967,-0.115234,1.942358,-7.279806,6.254682,-0.010148,0.002166,0.008827,0.154297,0.331787,-0.570312,0.696922,-5.895569,7.788579,0.015618,-0.013654,-0.008772,-0.244873,0.407471,-0.456787
1.804248,-7.427136,6.286647,0.022566,0.005069,0.000325,-0.283447,0.528076,-0.037109,-0.03025,8.23791,5.252523,-0.012216,0.002178,0.006536,-0.080811,0.442871,0.466309,-1.28043,-7.14666,6.647981,-0.000908,0.003568,0.004211,0.651855,0.114014,-0.10791,1.920311,-7.273221,6.290546,0.011409,0.004044,0.007806,0.159424,0.329346,-0.564941,0.698124,-5.898949,7.820993,-0.011452,0.007444,0.004116,-0.240479,0.407471,-0.449707
1.783339,-7.254041,6.32621,0.016887,-0.002774,-0.000254,-0.289795,0.519775,-0.037109,-0.035791,8.281627,5.240667,0.010909,0.01067,0.006251,-0.07666,0.443848,0.461426,-1.267314,-7.160559,6.643678,0.0106,0.014997,0.002776,0.647949,0.105957,-0.108398,1.999607,-7.254439,6.363933,0.006189,0.000953,0.006887,0.153564,0.320801,-0.5625,0.646869,-5.977702,7.810971,-0.006169,-2.4e-05,-0.006267,-0.244385,0.398926,-0.449707
1.800975,-7.328289,6.278051,-0.018554,0.002197,-0.000787,-0.290771,0.522705,-0.039795,-0.047674,8.286606,5.258086,-0.013656,0.001186,0.007304,-0.067627,0.449951,0.460205,-1.295934,-7.128471,6.685423,0.009166,0.006333,0.002583,0.643555,0.111328,-0.113281,1.988296,-7.273407,6.438999,0.000985,0.014752,0.012,0.151123,0.323242,-0.564453,0.697764,-5.91545,7.783904,0.031161,-0.007551,-0.000887,-0.249268,0.400391,-0.453857
1.755178,-7.351848,6.318829,0.013975,0.001799,0.001354,-0.282715,0.533203,-0.033691,-0.030226,8.270873,5.215762,-0.008881,0.011882,0.00717,-0.081299,0.445801,0.471191,-1.299348,-7.110514,6.700685,-0.010224,0.003274,-0.001797,0.65332,0.120361,-0.108154,1.937523,-7.286581,6.430083,-0.010548,0.001397,0.008496,0.160156,0.334229,-0.561279,0.672008,-5.840138,7.810129,0.005258,0.009177,-0.010916,-0.238525,0.414307,-0.448242
1.789443,-7.256805,6.321307,0.002382,0.001899,0.001438,-0.292969,0.518555,-0.039062,-0.066985,8.28501,5.269257,-0.011269,0.001528,0.008844,-0.076172,0.450195,0.462158,-1.307993,-7.150302,6.665409,-0.023469,-0.001589,0.000201,0.641602,0.109131,-0.111816,1.970884,-7.263866,6.36972,-0.012459,-0.012905,0.009655,0.147461,0.321533,-0.562988,0.646713,-5.920452,7.781428,-0.030804,-0.009825,0.006967,-0.251221,0.400635,-0.452148
1.789642,-7.357648,6.281982,-0.022949,-0.002671,-0.003064,-0.292969,0.515381,-0.044922,0.00167,8.271558,5.26965,-0.022395,0.005788,0.008349,-0.077148,0.439453,0.466797,-1.234342,-7.15775,6.631125,-0.006747,-0.003648,-0.007281,0.642822,0.102295,-0.118408,1.993287,-7.294645,6.286123,-0.017058,0.000694,0.010436,0.148926,0.316162,-0.571289,0.711091,-5.956523,7.777849,0.004812,-0.00437,-0.011724,-0.248291,0.393311,-0.460449
1.788076,-7.390053,6.266238,0.014536,0.005586,0.000592,-0.296387,0.513184,-0.03833,-0.046199,8.247277,5.255283,-0.008454,0.011831,0.008154,-0.074951,0.442871,0.457031,-1.289656,-7.148906,6.621891,-0.003942,0.008247,0.001114,0.639404,0.102295,-0.110352,1.950393,-7.255297,6.27532,8.7e-05,0.005693,0.009001,0.147461,0.313477,-0.563477,0.685304,-5.908866,7.828726,0.003971,0.000998,-0.000447,-0.254883,0.393066,-0.453369
1.787658,-7.289088,6.305793,0.00773,-0.002307,0.001213,-0.290039,0.520264,-0.030518,-0.018659,8.268742,5.235778,-0.000277,-0.002071,0.004978,-0.080566,0.45166,0.468506,-1.262401,-7.161275,6.626695,-0.005661,-0.001149,0.000962,0.646729,0.108154,-0.105225,1.928553,-7.266126,6.274259,-0.004094,0.003614,0.010229,0.155273,0.320557,-0.560791,0.700843,-5.957607,7.772613,9e-06,-0.004507,-0.00367,-0.246582,0.400146,-0.447021
1.777129,-7.305292,6.304204,-0.003508,0.005577,-0.000574,-0.290039,0.52002,-0.027832,-0.039379,8.298474,5.278818,-0.008779,0.010663,0.006313,-0.076416,0.451172,0.462646,-1.260505,-7.145854,6.655055,0.021115,0.018057,0.002571,0.647949,0.106445,-0.099121,1.961887,-7.272959,6.334183,0.013901,0.003955,0.005939,0.154541,0.317383,-0.552246,0.656936,-5.858819,7.777706,0.030241,0.007513,-0.008759,-0.24585,0.396973,-0.441162
1.761611,-7.386419,6.284962,-0.005673,-0.002453,-0.002242,-0.29248,0.52832,-0.041992,-0.0369,8.247554,5.224517,-0.008267,0.003647,0.008849,-0.077637,0.449951,0.475342,-1.33187,-7.114981,6.701563,-0.011656,0.008336,0.004078,0.643066,0.113525,-0.11377,2.00251,-7.266558,6.400728,-0.008032,0.005834,0.009634,0.151855,0.328857,-0.567383,0.679302,-5.887924,7.872201,-0.025099,-0.01261,0.002587,-0.250488,0.407227,-0.45752
1.808273,-7.302917,6.324283,0.024962,0.004838,0.000425,-0.287109,0.518311,-0.044678,-0.022396,8.303883,5.256552,0.008946,0.008127,0.006107,-0.08374,0.444092,0.465088,-1.268268,-7.196249,6.655136,-0.009505,-0.0013,0.001532,0.646973,0.10498,-0.116211,1.968159,-7.32298,6.416901,-0.004419,0.004924,0.012568,0.156006,0.317871,-0.569824,0.690258,-5.948963,7.765645,0.003827,0.006491,-0.007783,-0.244385,0.394531,-0.461182
1.763596,-7.280083,6.276389,-0.017311,-0.002955,-0.003434,-0.286865,0.521729,-0.040527,-0.055563,8.300329,5.268122,-0.031568,0.003372,0.0084,-0.073975,0.449463,0.465088,-1.294203,-7.105055,6.651435,0.021719,0.006635,-0.010195,0.648193,0.10791,-0.114258,1.972827,-7.239358,6.412573,0.008318,-0.002176,0.001189,0.15625,0.318848,-0.56665,0.66405,-5.897424,7.784413,0.005688,-0.008678,-0.004114,-0.242188,0.398926,-0.45459
1.823649,-7.37846,6.288685,-0.004523,0.003267,0.003984,-0.283691,0.514893,-0.035889,-0.006758,8.229054,5.205782,-0.013939,0.005657,0.007047,-0.069092,0.447754,0.460693,-1.273946,-7.095961,6.659887,-0.034687,-0.006693,-0.000391,0.648682,0.101318,-0.110596,1.954214,-7.228517,6.320172,-0.032557,-0.004709,0.019326,0.156982,0.314209,-0.561279,0.696703,-5.871666,7.79089,0.007057,0.001796,-0.002593,-0.242676,0.393799,-0.450195
1.746258,-7.338477,6.256324,0.003874,7.4e-05,-0.002632,-0.287109,0.524414,-0.027588,-0.054508,8.280462,5.290451,-0.007522,0.00983,0.008059,-0.078613,0.445068,0.469482,-1.276688,-7.211631,6.610718,-0.02417,0.006328,0.000265,0.64624,0.112061,-0.104004,1.969326,-7.318863,6.271979,-0.01615,-0.006554,0.010397,0.158203,0.324463,-0.555176,0.652876,-5.922542,7.771528,-0.036632,-0.001564,-0.00555,-0.241699,0.403809,-0.44458
1.843076,-7.313471,6.322096,0.002652,0.001762,0.00082,-0.282959,0.518799,-0.043701,-0.003827,8.243143,5.239407,-0.012805,0.001092,0.009248,-0.08252,0.453369,0.45459,-1.258489,-7.199807,6.628853,0.014698,-0.002426,-0.002515,0.652832,0.107422,-0.114014,1.95492,-7.276802,6.269707,0.010038,0.012171,0.008032,0.159424,0.320801,-0.56958,0.700025,-6.008449,7.774526,0.018407,-0.006557,0.006082,-0.241455,0.400146,-0.459229
1.748516,-7.341885,6.278583,-0.000251,0.003397,-0.002384,-0.288574,0.519531,-0.043945,-0.019527,8.279325,5.239468,0.00454,0.012104,0.006866,-0.078125,0.44873,0.464111,-1.259292,-7.102186,6.639382,0.02483,0.01826,-0.001267,0.64502,0.105957,-0.115234,1.92667,-7.243172,6.361494,0.014556,0.005084,0.004438,0.154297,0.319336,-0.568848,0.684862,-5.85275,7.843666,0.031527,0.002181,-0.02066,-0.245361,0.396973,-0.456543
1.797385,-7.318885,6.323072,0.011974,-0.002498,0.002659,-0.288574,0.524902,-0.03833,-0.057235,8.292939,5.246852,-0.011485,-0.000177,0.007331,-0.076416,0.452148,0.471191,-1.316039,-7.083889,6.690451,-0.015453,0.006164,0.005788,0.646973,0.108398,-0.108643,1.979048,-7.235376,6.38585,-0.006548,-0.003424,0.011913,0.155762,0.32373,-0.562012,0.684307,-5.895951,7.770943,-0.022006,-0.002976,0.014398,-0.243896,0.400879,-0.452393
1.754636,-7.300288,6.296555,-0.003693,0.006112,-0.000876,-0.28833,0.526611,-0.035889,-0.012486,8.285462,5.243846,-0.006494,0.010881,0.006307,-0.074951,0.444824,0.465088,-1.260146,-7.195398,6.66952,-0.017498,0.004258,0.000187,0.647217,0.11377,-0.108643,1.991154,-7.324745,6.38481,-0.019658,0.008642,0.016331,0.155518,0.325684,-0.562744,0.666795,-5.938033,7.774373,0.011401,0.006432,-0.015922,-0.245605,0.406738,-0.449463
1.776565,-7.334983,6.277964,-0.00039,-0.002993,-0.001074,-0.284912,0.527832,-0.039307,-0.08302,8.275694,5.24077,-0.011128,0.005946,0.009569,-0.081299,0.44873,0.464355,-1.340395,-7.148723,6.669857,0.019013,0.007588,-0.002623,0.648926,0.113281,-0.112549,1.941778,-7.293514,6.400827,0.018549,0.00526,0.001381,0.158447,0.327148,-0.565186,0.656423,-5.891324,7.81034,-2.9e-05,-0.007301,0.004206,-0.24292,0.403809,-0.45166
1.782834,-7.30652,6.301207,0.006614,0.003037,0.000743,-0.285156,0.522217,-0.046631,0.000288,8.28994,5.236989,-0.011795,-0.002132,0.008291,-0.072998,0.444824,0.462646,-1.254118,-7.066374,6.66987,-0.009886,-0.011728,-0.006786,0.649902,0.110352,-0.121582,1.960245,-7.222125,6.349084,-0.022714,-0.008737,0.012657,0.158936,0.320312,-0.571777,0.699429,-5.90267,7.778966,0.001449,-0.004932,-0.004828,-0.24292,0.401855,-0.462158
1.785876,-7.342706,6.293254,-0.014226,0.001595,-0.00374,-0.284668,0.517578,-0.041748,-0.04472,8.262002,5.23103,-0.018798,0.016566,0.009261,-0.075928,0.444336,0.459473,-1.258719,-7.151265,6.625303,-0.0282,0.01137,0.00402,0.650879,0.102051,-0.113525,1.976784,-7.294011,6.293439,-0.017419,-0.003422,0.01309,0.160645,0.316406,-0.563721,0.684193,-5.896435,7.823778,-0.009483,0.000639,-0.006262,-0.241455,0.395996,-0.454346
1.782755,-7.351107,6.278107,0.008163,0.001288,0.003566,-0.285156,0.523193,-0.04541,-0.044703,8.244743,5.249178,-0.0082,-0.001057,0.005973,-0.08374,0.445312,0.472412,-1.314702,-7.193005,6.646237,-0.003555,-0.003786,-0.002301,0.647949,0.108398,-0.117432,1.965133,-7.256954,6.281545,-0.000406,0.006001,0.006189,0.156738,0.32373,-0.566406,0.675334,-5.955951,7.786141,-0.006628,-0.001618,0.00492,-0.241943,0.401123,-0.458496
1.789491,-7.298023,6.288669,0.004103,0.00014,-0.001053,-0.287842,0.519531,-0.045898,-0.004441,8.298861,5.262186,0.005464,0.01009,0.006783,-0.087158,0.443359,0.460449,-1.2251,-7.157481,6.627995,0.014205,0.008032,0.000591,0.644531,0.108643,-0.12085,1.938352,-7.29881,6.305607,-0.001096,0.007119,0.011199,0.156006,0.323486,-0.573486,0.677156,-5.907597,7.766595,0.02943,0.002337,-0.013413,-0.244385,0.399414,-0.459961
1.768591,-7.33843,6.256508,-0.002134,0.001424,-0.002863,-0.29126,0.520264,-0.040771,-0.052365,8.276046,5.245666,-0.017418,0.005519,0.008084,-0.075195,0.441895,0.468506,-1.295192,-7.103426,6.650187,0.008879,0.01556,0.003512,0.644775,0.110107,-0.111572,1.968701,-7.26192,6.366692,0.01479,0.004696,0.002774,0.153564,0.320068,-0.564209,0.673843,-5.865133,7.82346,-0.00594,-0.00757,0.002775,-0.245117,0.398193,-0.453857
1.812892,-7.311448,6.293456,0.014702,0.000991,0.000419,-0.284424,0.5271,-0.038574,-0.016382,8.256339,5.217486,0.000494,0.005453,0.006597,-0.06958,0.442871,0.464111,-1.277338,-7.142217,6.691511,-0.011842,-0.00019,0.001184,0.648926,0.114746,-0.108887,1.979454,-7.270652,6.397149,-0.013203,-0.000763,0.014861,0.158447,0.328125,-0.5625,0.69822,-5.939931,7.789929,-0.00569,0.002777,-0.005189,-0.242432,0.40625,-0.450684
1.763004,-7.301556,6.279373,-0.007903,0.001512,0.000625,-0.282471,0.520996,-0.030762,-0.039018,8.305333,5.236692,-0.010185,0.008224,0.008669,-0.084229,0.447266,0.465088,-1.29776,-7.164547,6.693532,0.000992,0.008361,-0.001203,0.65332,0.108887,-0.103516,1.992019,-7.27977,6.381525,0.000915,0.000273,0.006312,0.158447,0.321777,-0.561523,0.64707,-5.92468,7.792444,0.009388,2.1e-05,-0.001072,-0.239014,0.400391,-0.446777
1.796687,-7.348767,6.296664,-0.003648,-0.000813,0.000735,-0.28418,0.526367,-0.043457,-0.027162,8.258709,5.238953,-0.02226,0.003155,0.009037,-0.077148,0.447754,0.461914,-1.305959,-7.107612,6.667914,-0.006743,-0.004259,-0.0049,0.649414,0.111328,-0.114258,1.952544,-7.235185,6.358445,-0.014647,0.005312,0.012412,0.155762,0.322754,-0.568359,0.676733,-5.900384,7.790222,0.009117,-0.005644,-0.005628,-0.244385,0.402344,-0.457031
1.768775,-7.330083,6.285812,0.004751,0.004324,-0.002739,-0.292236,0.519287,-0.043457,-0.039665,8.253494,5.244485,-0.007805,0.011488,0.007016,-0.077148,0.441162,0.460449,-1.257919,-7.170563,6.644263,-0.026668,0.002277,0.000413,0.642578,0.104248,-0.115234,1.936994,-7.304385,6.30434,-0.021482,-0.005854,0.01664,0.152588,0.31665,-0.568359,0.691979,-5.886985,7.802975,-0.017067,-0.000699,-0.003758,-0.247314,0.39624,-0.456055
1.797206,-7.33613,6.290621,-0.000476,-0.00339,-0.000154,-0.284424,0.530518,-0.039307,-0.043316,8.268386,5.243956,-0.01125,0.001551,0.008804,-0.078857,0.446533,0.462891,-1.278196,-7.169227,6.629345,0.006186,0.004636,-0.002183,0.654053,0.117432,-0.114746,1.956377,-7.277824,6.296249,0.013471,-0.001359,0.002604,0.157471,0.327881,-0.56543,0.699787,-5.983408,7.777807,-0.011982,-0.002517,0.000627,-0.240234,0.408936,-0.455322
1.78818,-7.332857,6.310311,0.001515,0.003042,-0.000124,-0.290527,0.529053,-0.040771,-0.021099,8.274628,5.253316,-0.001963,0.008485,0.005507,-0.078125,0.446289,0.465576,-1.243902,-7.102406,6.658947,0.011065,0.005545,-0.000861,0.644775,0.114258,-0.11377,1.958519,-7.238059,6.313007,-0.003819,0.003796,0.011566,0.150146,0.331055,-0.56543,0.674759,-5.919419,7.804585,0.031025,0.002334,-0.00751,-0.247314,0.405518,-0.455322
1.78261,-7.336473,6.274592,8.6e-05,0.000397,-0.00092,-0.289307,0.516846,-0.033691,-0.047323,8.267208,5.259632,-0.012255,0.00772,0.006548,-0.080322,0.452393,0.453369,-1.29861,-7.135,6.650825,-0.011489,0.011843,0.006546,0.643555,0.104492,-0.104492,1.971447,-7.28261,6.3378,-0.006076,0.007419,0.011786,0.151611,0.316162,-0.558105,0.690085,-5.877869,7.793093,-0.005856,-0.005105,-0.001428,-0.245361,0.397217,-0.447266
1.784817,-7.295926,6.319198,0.013934,0.001202,7.8e-05,-0.285645,0.518555,-0.038086,-0.036716,8.265163,5.23524,-0.000553,0.003055,0.005939,-0.078613,0.449219,0.467529,-1.285592,-7.172892,6.670246,-0.000414,-0.001297,-0.000844,0.649414,0.106201,-0.112061,1.944469,-7.29046,6.389736,-0.001443,0.00783,0.010547,0.157227,0.320068,-0.561768,0.668197,-5.933106,7.780545,0.000603,0.006504,-0.000451,-0.241943,0.397705,-0.451172
1.781846,-7.303716,6.304736,-0.012462,0.001239,-0.00148,-0.282959,0.528076,-0.041504,-0.031003,8.30119,5.273616,-0.009441,0.010133,0.008684,-0.075928,0.449707,0.460205,-1.266991,-7.137587,6.664243,0.006758,0.011082,-0.001833,0.651855,0.115234,-0.11084,1.96583,-7.281024,6.414515,0.0023,-0.003218,0.005943,0.157959,0.32959,-0.564941,0.664236,-5.888341,7.80413,0.007534,-0.008743,-0.009559,-0.241211,0.40332,-0.453369
1.802367,-7.370648,6.270639,0.00288,0.001023,-0.001077,-0.294922,0.517822,-0.041016,-0.040613,8.254863,5.237445,-0.019906,1.2e-05,0.008561,-0.067383,0.455078,0.466553,-1.30436,-7.140376,6.6902,-0.015372,-0.004985,-0.000556,0.640137,0.104004,-0.11377,1.996579,-7.253216,6.364105,-0.011943,-0.003901,0.012165,0.150391,0.317871,-0.566406,0.709163,-5.913262,7.80647,-0.009571,-0.00479,0.002864,-0.250244,0.394531,-0.454834
1.789776,-7.274827,6.314585,0.013782,0.004473,0.002389,-0.282715,0.519287,-0.040283,-0.038658,8.277143,5.23935,-0.004617,0.011154,0.005325,-0.074219,0.446777,0.462646,-1.250937,-7.144201,6.643556,-0.009729,0.002767,-0.00403,0.652588,0.107178,-0.112305,1.964072,-7.278868,6.330322,-0.011685,0.000398,0.010349,0.157715,0.318115,-0.566895,0.657283,-5.919735,7.80313,0.007567,0.007409,-0.009393,-0.23999,0.396729,-0.455811
1.785129,-7.315351,6.284098,-0.023309,-0.002938,-0.001529,-0.288574,0.517578,-0.041504,-0.053724,8.269236,5.265354,-0.01627,0.003105,0.009859,-0.085693,0.448486,0.467529,-1.293425,-7.145881,6.647759,-0.00522,0.004729,0.000415,0.646973,0.103516,-0.11377,1.955065,-7.245651,6.310195,-0.00352,0.001735,0.00939,0.155762,0.317871,-0.565918,0.683927,-5.899001,7.79064,-0.004764,-0.010715,0.001707,-0.243896,0.394531,-0.457031
1.808312,-7.386597,6.271065,0.012125,0.001761,1.6e-05,-0.283936,0.514648,-0.034668,-0.019849,8.245848,5.259205,-0.006297,0.004841,0.006586,-0.07373,0.453857,0.464355,-1.249243,-7.164709,6.625095,-0.01016,-0.000379,0.002298,0.650879,0.104004,-0.109863,1.943183,-7.287662,6.313953,-0.014066,0.003285,0.014732,0.157959,0.314941,-0.561523,0.684332,-5.920369,7.784915,0.001974,0.002065,-0.005991,-0.243652,0.393066,-0.44873
1.767597,-7.278973,6.27659,0.014876,0.001787,-0.00142,-0.284424,0.522705,-0.037598,-0.047268,8.258018,5.241428,-0.006443,0.008632,0.010706,-0.085938,0.444336,0.467773,-1.28787,-7.166494,6.651903,0.01275,0.015321,0.001141,0.650391,0.109863,-0.113037,1.978762,-7.285819,6.324414,0.01682,0.001417,0.00423,0.157959,0.322266,-0.566406,0.658115,-5.931304,7.795652,-0.003413,-0.001631,-0.002412,-0.241455,0.39917,-0.455078
1.800344,-7.305192,6.330979,-0.007179,0.000699,-0.000312,-0.285889,0.522705,-0.039795,-0.032461,8.276421,5.224321,0.000474,0.002633,0.005795,-0.077393,0.451904,0.462402,-1.288919,-7.0946,6.677271,0.01151,0.001474,-0.002271,0.648438,0.110596,-0.114258,1.984261,-7.219588,6.398594,0.00494,0.007947,0.009616,0.157959,0.323975,-0.567383,0.689448,-5.922258,7.764926,0.022053,-0.003397,-0.003839,-0.24292,0.404053,-0.455811
1.759347,-7.355543,6.28038,-0.003173,0.002577,0.000888,-0.289795,0.520508,-0.047852,-0.046243,8.293064,5.248652,-0.011073,0.01025,0.008748,-0.077881,0.44873,0.455566,-1.290371,-7.106358,6.689135,-0.019537,0.009443,0.003192,0.645264,0.108154,-0.119141,1.952815,-7.271326,6.401616,-0.020573,-0.000405,0.013319,0.151611,0.321533,-0.572266,0.660055,-5.844923,7.811104,-0.00208,0.003106,-0.007244,-0.249023,0.398193,-0.463623
1.79219,-7.309836,6.308203,0.007178,-0.0007,0.000313,-0.282227,0.523193,-0.035645,-0.038878,8.262375,5.248625,-0.024213,0.000668,0.008822,-0.078613,0.445312,0.464844,-1.318163,-7.19477,6.662698,-0.021087,-0.004132,-0.000745,0.653076,0.108398,-0.10791,1.971214,-7.312077,6.366821,-0.011396,0.001347,0.011515,0.15918,0.321777,-0.562988,0.680817,-5.944212,7.762078,-0.022836,-0.007873,0.006085,-0.237305,0.401855,-0.44751
1.797223,-7.301186,6.309691,-0.002545,0.002698,-0.001269,-0.289795,0.519043,-0.040039,-0.022885,8.251821,5.242534,0.000546,0.010401,0.007013,-0.074463,0.448486,0.470703,-1.248367,-7.155401,6.639658,0.014146,0.002333,-0.006756,0.644287,0.105957,-0.114746,1.955554,-7.282879,6.336238,0.002658,-3.1e-05,0.006618,0.152588,0.320801,-0.566406,0.680059,-5.928875,7.790525,0.022804,0.002142,-0.012427,-0.246338,0.399902,-0.456055
1.77864,-7.346841,6.297651,-0.008477,-0.000948,-0.000751,-0.279785,0.527832,-0.041016,-0.061922,8.292982,5.241329,-0.013692,0.004606,0.007689,-0.076416,0.452881,0.464111,-1.297622,-7.078733,6.667459,-0.001608,0.00773,-0.000922,0.6521,0.111816,-0.112793,1.957096,-7.207914,6.312521,0.001401,-0.003833,0.005954,0.15918,0.324219,-0.565918,0.684808,-5.873246,7.809881,-0.005757,-0.008712,0.001261,-0.239746,0.404785,-0.453613
1.79736,-7.345202,6.28725,0.013609,0.002875,0.000754,-0.283936,0.523926,-0.034668,-0.015246,8.265097,5.263464,-0.015233,0.005637,0.006502,-0.078857,0.448486,0.460449,-1.250215,-7.154551,6.647397,-0.027465,-0.003581,0.004628,0.650391,0.109619,-0.107422,1.977746,-7.274816,6.314131,-0.026079,0.002322,0.017756,0.158936,0.324463,-0.55957,0.698197,-5.929492,7.775614,-0.006884,0.001569,-0.004828,-0.242432,0.401123,-0.450195
1.768613,-7.294275,6.30593,-0.00249,0.001165,-0.001326,-0.285889,0.517578,-0.038818,-0.067383,8.258142,5.245149,-0.00561,0.009314,0.009869,-0.07373,0.445312,0.465088,-1.283627,-7.193819,6.64137,0.011191,0.016062,0.000925,0.650146,0.105957,-0.112061,1.962075,-7.32144,6.330794,0.010399,0.010805,0.005719,0.157471,0.317871,-0.56665,0.664336,-5.929161,7.796754,0.00662,0.001627,-0.004918,-0.242676,0.396484,-0.453857
1.798909,-7.356321,6.281101,-0.000953,0.000745,-0.000643,-0.291504,0.524902,-0.035889,-0.039175,8.272532,5.255651,0.000258,0.000119,0.007099,-0.071777,0.449219,0.462891,-1.293754,-7.111101,6.683438,0.013277,-0.001102,-0.001839,0.644287,0.112549,-0.107178,1.943273,-7.234576,6.376575,0.007474,0.005434,0.007404,0.150879,0.32251,-0.562744,0.672455,-5.907668,7.791498,0.013067,-0.006023,-0.002138,-0.247803,0.401123,-0.449219
1.776547,-7.321169,6.300289,0.010362,0.002922,0.001228,-0.292725,0.527832,-0.036377,-0.023891,8.298859,5.25392,-0.011981,0.011599,0.007632,-0.084229,0.447998,0.464844,-1.272015,-7.10744,6.664918,-0.010888,0.008545,0.001808,0.641846,0.114258,-0.108643,1.981093,-7.285828,6.389596,-0.011505,-0.00557,0.012148,0.150635,0.328125,-0.562256,0.685492,-5.873245,7.802022,-0.001227,0.000524,-0.007239,-0.249756,0.406738,-0.450439
1.782878,-7.280577,6.316969,-0.003746,0.000118,-0.000486,-0.291504,0.521729,-0.03833,-0.054789,8.253904,5.224362,-0.018734,0.003356,0.007932,-0.072266,0.447998,0.474365,-1.31908,-7.159127,6.670011,-0.009583,0.001703,-0.000185,0.645996,0.106201,-0.111084,1.993897,-7.255716,6.365879,-0.003895,0.001703,0.0089,0.15332,0.31958,-0.566406,0.688286,-5.924228,7.801123,-0.011786,-0.00228,0.00474,-0.249023,0.398193,-0.450439
1.794252,-7.34449,6.302346,-0.007547,0.001769,-0.000916,-0.288574,0.521729,-0.044189,-0.015004,8.291233,5.254586,0.00185,0.006982,0.005502,-0.068848,0.44458,0.462646,-1.271505,-7.137096,6.668351,-0.003885,-0.002505,-0.003402,0.645508,0.108887,-0.117188,1.955735,-7.272582,6.349808,-0.013831,0.002907,0.013064,0.154785,0.323242,-0.570312,0.671912,-5.909726,7.782201,0.011566,-0.000755,-0.010545,-0.246338,0.39917,-0.460205
1.775017,-7.341593,6.277951,0.002793,0.000627,-0.000157,-0.29248,0.52124,-0.039307,-0.042638,8.295768,5.267496,-0.021267,0.006157,0.009291,-0.08252,0.445801,0.475098,-1.283284,-7.14365,6.646986,-0.008965,0.006133,0.001306,0.644043,0.107178,-0.110596,1.954852,-7.282518,6.307493,-0.005105,-0.000604,0.007908,0.151855,0.320557,-0.563721,0.687588,-5.898981,7.82791,-0.008481,-0.00589,9.8e-05,-0.250732,0.398193,-0.454834
1.790971,-7.308176,6.310473,0.009972,-7.2e-05,0.000157,-0.284424,0.524902,-0.044922,-0.031542,8.248238,5.22464,-0.009673,0.004153,0.007962,-0.080566,0.446289,0.461914,-1.274721,-7.155454,6.629206,-0.002957,0.001655,-0.001388,0.65332,0.111816,-0.117188,1.959884,-7.279112,6.317791,-0.003719,0.002832,0.010903,0.158447,0.324707,-0.569824,0.701055,-5.929567,7.767513,0.003449,0.002872,-0.004472,-0.240723,0.401367,-0.459961
1.778678,-7.308286,6.280693,-0.008132,0.001444,-0.000956,-0.285156,0.523438,-0.040527,-0.046519,8.285685,5.269348,0.004349,0.008891,0.007012,-0.073486,0.447754,0.464111,-1.273863,-7.150087,6.678725,0.005629,0.011495,0.001762,0.651367,0.108643,-0.11377,1.963215,-7.262048,6.333341,0.00329,0.000359,0.00528,0.158936,0.32251,-0.568359,0.657661,-5.897728,7.796257,0.009874,-0.00166,-0.003662,-0.239258,0.397949,-0.456299
1.793023,-7.363792,6.281234,0.002664,-0.000371,-0.000514,-0.287354,0.524414,-0.036377,-0.040539,8.284178,5.258,-0.01883,0.002446,0.009173,-0.076172,0.444092,0.466309,-1.303542,-7.113986,6.656473,-0.006891,0.00328,0.002257,0.646973,0.109131,-0.107178,1.995727,-7.26544,6.356051,-0.004741,0.005585,0.011935,0.156494,0.325439,-0.559326,0.695068,-5.916503,7.779116,-0.004577,-0.005953,-8e-05,-0.244385,0.401367,-0.449707
1.782243,-7.291879,6.324594,0.012431,0.003554,-0.001467,-0.284424,0.515625,-0.039551,-0.050898,8.274398,5.226893,-0.007238,0.010901,0.008336,-0.081299,0.447754,0.459229,-1.273389,-7.157727,6.64904,-0.002808,0.006184,0.000514,0.649902,0.104492,-0.11377,1.947414,-7.296229,6.378341,-0.008033,0.008221,0.010004,0.158936,0.317871,-0.567383,0.680001,-5.915192,7.794296,0.005468,0.00461,-0.006798,-0.243896,0.394531,-0.456055
1.776418,-7.307609,6.295496,-0.01059,-0.002183,0.000668,-0.290039,0.530518,-0.036621,-0.064639,8.290877,5.251449,-0.005275,0.002286,0.006824,-0.079102,0.444824,0.468506,-1.305229,-7.13935,6.671256,0.002057,0.003745,-0.001561,0.641113,0.115723,-0.108887,1.956258,-7.278805,6.372447,0.003161,-0.003384,0.006094,0.1521,0.326904,-0.563965,0.675018,-5.918986,7.776289,-0.002544,-0.005773,-0.001421,-0.249756,0.408936,-0.449707
1.803171,-7.34651,6.284171,0.002425,0.001697,-0.00076,-0.289062,0.520752,-0.039551,-0.011739,8.286836,5.259178,-0.013235,0.008179,0.006662,-0.073975,0.448486,0.465088,-1.269941,-7.108925,6.646633,-0.009908,-0.001379,-0.004113,0.643799,0.107178,-0.108887,1.976586,-7.243624,6.360246,-0.013173,-0.003046,0.011355,0.151367,0.321533,-0.563477,0.685074,-5.88711,7.777342,0.009569,0.000298,-0.006523,-0.24707,0.400635,-0.452148
1.778128,-7.319732,6.288136,0.001169,0.00065,8e-05,-0.290527,0.529053,-0.043945,-0.0597,8.263207,5.244229,-0.017947,0.008091,0.008748,-0.076904,0.441162,0.461426,-1.281764,-7.165431,6.656283,-0.0138,0.008177,0.001559,0.64624,0.115479,-0.115723,1.965149,-7.272233,6.322884,-0.011391,0.001333,0.01152,0.15332,0.327881,-0.569336,0.686146,-5.891232,7.809174,-0.014073,-0.000829,-0.002677,-0.248779,0.403564,-0.455811
1.775374,-7.332155,6.30844,-0.001224,0.000883,-2.4e-05,-0.282471,0.522461,-0.042236,-0.037917,8.260665,5.239551,-0.000866,0.001085,0.006894,-0.084717,0.444092,0.465576,-1.280578,-7.157717,6.63282,0.000137,-0.003794,-0.001947,0.651123,0.108643,-0.116455,1.962046,-7.282777,6.325761,-0.003146,0.004903,0.010077,0.161377,0.321045,-0.568359,0.688193,-5.959722,7.770545,-0.000483,-0.002807,-0.001068,-0.239746,0.400146,-0.458252
1.791571,-7.326938,6.276098,-0.001191,0.002813,-0.000889,-0.291504,0.525635,-0.039062,-0.024462,8.291963,5.273844,-0.00847,0.010286,0.00818,-0.077148,0.449219,0.459717,-1.255355,-7.13971,6.642038,0.006827,0.013035,0.000339,0.646484,0.109619,-0.112305,1.95785,-7.270419,6.330299,0.001549,0.003632,0.008328,0.154785,0.325439,-0.5625,0.684718,-5.893415,7.799861,0.012789,0.001685,-0.008223,-0.246338,0.403076,-0.453857
1.795856,-7.342435,6.290911,0.006465,-0.002022,-8.3e-05,-0.287842,0.524414,-0.041016,-0.044625,8.254781,5.232458,-0.015228,0.003523,0.006866,-0.073486,0.448486,0.469482,-1.294664,-7.128445,6.665132,-0.007672,0.003646,0.002143,0.645508,0.112793,-0.113281,1.955119,-7.254154,6.367029,-0.001861,0.002349,0.010374,0.1521,0.323242,-0.567871,0.683776,-5.903912,7.79336,-0.002124,-0.004034,-8.3e-05,-0.245361,0.40332,-0.454102
1.762192,-7.299846,6.308395,0.003725,0.003345,-0.000323,-0.291748,0.520508,-0.040039,-0.046219,8.302517,5.245244,0.006499,0.007486,0.007081,-0.074219,0.44751,0.467041,-1.274736,-7.159021,6.683822,-0.000806,0.006348,-0.000233,0.642822,0.110107,-0.111816,1.975395,-7.280337,6.362428,-0.00725,0.001903,0.010624,0.14917,0.321045,-0.563477,0.659416,-5.90274,7.811805,0.006309,0.003589,-0.007778,-0.248535,0.400146,-0.452637
1.787063,-7.326658,6.304451,-0.008575,-1.8e-05,-0.001973,-0.295166,0.519531,-0.038086,-0.05287,8.306004,5.25114,-0.022301,0.003796,0.008591,-0.081055,0.445312,0.460693,-1.318434,-7.121759,6.669593,-0.002442,0.004515,-0.000217,0.640137,0.108643,-0.107178,1.984593,-7.268313,6.392465,-0.000709,0.003334,0.00853,0.14624,0.319824,-0.563721,0.683626,-5.91516,7.786223,-0.008226,-0.007521,-0.000701,-0.252197,0.397949,-0.450684
1.774603,-7.343411,6.316165,0.009279,0.00267,0.000229,-0.281494,0.517822,-0.035645,-0.02689,8.241916,5.230004,-0.012205,0.006294,0.008106,-0.086426,0.448242,0.458252,-1.273508,-7.140413,6.647294,-0.010488,-0.003466,-0.00164,0.651367,0.104248,-0.108887,1.952816,-7.275049,6.351627,-0.012401,0.000908,0.012366,0.160889,0.317139,-0.559082,0.6986,-5.92771,7.763896,0.009922,0.000973,-0.004916,-0.241455,0.395752,-0.447266
1.785363,-7.302107,6.305658,-0.001992,0.001093,-0.000366,-0.279785,0.521973,-0.043945,-0.070763,8.283841,5.241634,-0.000167,0.008493,0.006997,-0.068359,0.449951,0.466553,-1.294681,-7.136266,6.642326,-0.00382,0.009394,-0.000362,0.655029,0.106934,-0.115234,1.944903,-7.272513,6.334964,-0.004201,-0.003186,0.007711,0.163086,0.320312,-0.568848,0.64545,-5.891336,7.825402,-0.004223,-0.002328,-0.003389,-0.236816,0.399902,-0.456543
1.775837,-7.350818,6.27423,-0.006908,0.00056,-0.000933,-0.283447,0.528809,-0.039551,-0.040779,8.285205,5.247154,-0.015483,-0.001796,0.007344,-0.072021,0.444824,0.462402,-1.282088,-7.147505,6.655163,-0.008106,-0.001618,0.000282,0.651123,0.113525,-0.110352,1.965245,-7.268375,6.326187,-0.009621,0.001784,0.011663,0.161621,0.327881,-0.56543,0.682919,-5.938255,7.771533,-0.00345,-0.005819,-0.000168,-0.241211,0.405029,-0.45166
1.788734,-7.326081,6.291276,0.009583,0.004461,-0.001254,-0.293213,0.518311,-0.045166,-0.025456,8.258719,5.25669,-0.012142,0.011256,0.008524,-0.081543,0.435303,0.461914,-1.266056,-7.15386,6.627509,0.002592,0.010571,0.00063,0.640381,0.104004,-0.11792,1.971484,-7.277863,6.332315,0.002415,0.006651,0.008671,0.14624,0.317871,-0.570557,0.671525,-5.91326,7.801608,0.009148,0.004466,-0.008137,-0.25293,0.39502,-0.456787
1.789804,-7.30552,6.313878,0.000509,-0.002206,-0.000372,-0.292236,0.519531,-0.036621,-0.082461,8.260564,5.220243,-0.001047,0.002855,0.007406,-0.085938,0.445068,0.469482,-1.321526,-7.125076,6.665437,0.002619,0.004594,0.000747,0.640625,0.105957,-0.108887,1.950234,-7.253358,6.360398,0.000622,0.005444,0.008692,0.150146,0.317871,-0.563477,0.682341,-5.921775,7.800811,-0.003849,-0.006172,0.00412,-0.249268,0.396973,-0.449463
1.795479,-7.328708,6.286392,-7.6e-05,0.004996,-0.000754,-0.293945,0.522705,-0.039795,-0.01837,8.308834,5.236133,-0.002447,0.006156,0.007375,-0.07959,0.447754,0.454834,-1.244291,-7.13156,6.655139,-0.004364,0.001948,-0.000159,0.641846,0.109619,-0.110352,1.965494,-7.271517,6.372739,-0.010951,-0.000335,0.011503,0.149902,0.321533,-0.566406,0.683504,-5.895768,7.774838,0.014815,0.001873,-0.009562,-0.251465,0.400146,-0.451416
1.766638,-7.334412,6.288616,-0.000714,-0.001323,-0.000397,-0.288818,0.526611,-0.041748,-0.069035,8.274616,5.272197,-0.026547,0.008759,0.008059,-0.079346,0.442383,0.466797,-1.304013,-7.140351,6.689746,-0.006661,0.010986,0.001532,0.648682,0.113037,-0.115479,1.984625,-7.284656,6.372561,0.00242,0.000486,0.005131,0.156982,0.325439,-0.568115,0.679774,-5.882427,7.794225,-0.014499,-0.003975,-7.9e-05,-0.246094,0.404053,-0.454346
1.816689,-7.331392,6.297093,0.003963,0.001278,-7.6e-05,-0.290283,0.517822,-0.036621,-0.030111,8.257728,5.223686,-0.00035,0.000467,0.008218,-0.075195,0.443359,0.459961,-1.286875,-7.161177,6.664333,-0.011447,-0.007235,-0.001841,0.643066,0.107178,-0.110596,1.95806,-7.273913,6.347175,-0.016632,0.004434,0.014125,0.148438,0.318115,-0.563232,0.690525,-5.944698,7.782923,-0.000195,-0.000249,-0.004107,-0.249756,0.397705,-0.45166
1.77488,-7.305703,6.298141,-0.002263,0.001231,0.000252,-0.286621,0.52124,-0.042725,-0.035716,8.314309,5.263977,-0.006308,0.008896,0.008236,-0.077148,0.453857,0.458008,-1.265716,-7.142565,6.651411,0.005489,0.007582,-0.002517,0.647705,0.107422,-0.111572,1.96022,-7.292725,6.332742,0.000343,-0.001856,0.007148,0.153809,0.320801,-0.56665,0.665119,-5.902729,7.803554,0.010499,-0.002762,-0.005802,-0.243408,0.397461,-0.454834
1.80883,-7.335485,6.274893,0.000856,0.000187,-0.000578,-0.289062,0.525391,-0.042969,-0.040476,8.260443,5.244467,-0.022827,0.000819,0.00922,-0.080566,0.45166,0.462891,-1.303034,-7.109149,6.649121,-0.006678,0.002051,6.6e-05,0.642822,0.110352,-0.111816,1.973451,-7.236009,6.342918,-0.003652,0.001126,0.010399,0.152832,0.324219,-0.56665,0.703171,-5.899919,7.792118,-0.001159,-0.00432,0.002331,-0.249512,0.402344,-0.455078
1.781388,-7.309057,6.292477,0.002598,0.003297,0.000874,-0.28833,0.524902,-0.036377,-0.044549,8.267109,5.229435,0.00243,0.010644,0.006065,-0.071045,0.451172,0.465088,-1.258271,-7.166065,6.645596,-0.010656,0.006296,0.000191,0.64624,0.110107,-0.108154,1.964653,-7.273224,6.333796,-0.014771,0.000784,0.013406,0.153076,0.325439,-0.559814,0.670161,-5.905716,7.782742,-0.001717,0.003618,-0.008579,-0.248047,0.4021,-0.450439
1.775664,-7.329586,6.297972,-0.004364,-0.002138,0.000338,-0.285645,0.523438,-0.039551,-0.049758,8.295803,5.27871,-0.008948,0.003259,0.007154,-0.073486,0.451904,0.459473,-1.303185,-7.151289,6.656522,0.004724,0.006328,0.000327,0.650146,0.11084,-0.11084,1.976368,-7.265405,6.35526,0.005951,0.004567,0.005606,0.158691,0.322266,-0.565918,0.677,-5.932911,7.796782,-0.00601,-0.005536,0.001084,-0.242676,0.404297,-0.452148
1.792699,-7.316177,6.294524,0.009183,0.003602,-0.000993,-0.283936,0.52417,-0.040039,-0.015955,8.279938,5.242269,-0.010449,0.00564,0.008373,-0.069336,0.447021,0.466797,-1.265093,-7.130134,6.67662,0.002188,-0.000664,-0.001115,0.652832,0.108887,-0.112305,1.961381,-7.271037,6.365556,-0.005595,0.005696,0.011796,0.157959,0.324219,-0.56543,0.685241,-5.912246,7.790847,0.017087,-0.000963,-0.007771,-0.242432,0.401611,-0.457031
1.784336,-7.287928,6.301828,0.000943,0.000583,-0.001499,-0.292725,0.523926,-0.042725,-0.042259,8.263966,5.234419,-0.012063,0.007904,0.008044,-0.088135,0.453125,0.463623,-1.301495,-7.123382,6.680986,-0.001877,0.010948,0.000153,0.646484,0.111084,-0.112549,1.969728,-7.262406,6.363857,0.002423,-0.002693,0.004943,0.150146,0.323975,-0.567627,0.677913,-5.868965,7.805757,-0.002869,0.002239,-0.001611,-0.246338,0.402344,-0.454346
1.799081,-7.331051,6.296101,-0.002664,0.000371,0.000513,-0.284424,0.519531,-0.04126,-0.043031,8.275033,5.242431,-0.005289,0.000148,0.007198,-0.062744,0.456299,0.467529,-1.293721,-7.133059,6.672522,-0.011416,-0.002654,-0.003217,0.650391,0.10791,-0.112549,1.988434,-7.245258,6.359722,-0.014771,0.000783,0.013406,0.157959,0.320801,-0.56665,0.680417,-5.915645,7.773148,-0.004446,-0.003819,-0.000616,-0.24292,0.399414,-0.454834
1.789007,-7.335764,6.287174,-0.000693,0.002741,7e-05,-0.277832,0.521973,-0.041504,-0.044572,8.277721,5.235959,-0.014997,0.010776,0.008418,-0.077393,0.446777,0.464355,-1.256992,-7.143798,6.656722,-0.009075,0.004548,0.000984,0.656738,0.107666,-0.113281,1.976854,-7.304472,6.325896,-0.010023,0.001005,0.011334,0.166016,0.319092,-0.566406,0.685301,-5.892348,7.787603,0.004368,-0.003133,-0.008387,-0.236572,0.397461,-0.456787
1.777375,-7.32821,6.285723,0.003119,-0.001044,-0.00083,-0.284424,0.523926,-0.034912,-0.058604,8.248823,5.241591,-0.013782,0.002397,0.006473,-0.078857,0.445557,0.45459,-1.299291,-7.15821,6.664696,0.002057,0.003745,-0.001553,0.652588,0.110107,-0.106934,1.963087,-7.262197,6.323928,0.004337,0.004481,0.007633,0.159424,0.324951,-0.559814,0.694648,-5.938517,7.805359,-0.011146,-0.003413,0.0026,-0.240723,0.400635,-0.447998
1.785258,-7.311498,6.301988,0.003053,0.002624,0.000557,-0.286621,0.526611,-0.041748,-0.018512,8.293705,5.241564,0.00415,0.007825,0.006742,-0.078613,0.447021,0.471436,-1.252507,-7.134848,6.664512,5.3e-05,0.003576,-0.000805,0.648682,0.112549,-0.11499,1.958356,-7.258961,6.332204,-0.008747,0.001622,0.011818,0.154297,0.328857,-0.566895,0.684305,-5.925378,7.774589,0.014181,0.002996,-0.007421,-0.244141,0.406982,-0.457764
1.786274,-7.330982,6.266701,-0.003876,-0.000881,-0.000844,-0.289551,0.516846,-0.039307,-0.054585,8.287392,5.273434,-0.01998,0.006179,0.00817,-0.08252,0.443848,0.4646,-1.309961,-7.136517,6.667956,-0.00488,0.012363,0.002982,0.645264,0.102539,-0.112549,1.978326,-7.268608,6.36409,-0.001078,0.000119,0.007853,0.152344,0.31665,-0.566162,0.676465,-5.903592,7.783809,-0.003385,-0.004752,-0.000435,-0.247559,0.394775,-0.454346
1.788755,-7.334509,6.28871,0.01136,0.001976,-0.000325,-0.291748,0.521484,-0.029297,-0.010868,8.262532,5.242048,-0.00668,0.003453,0.007164,-0.08252,0.442871,0.457031,-1.272797,-7.162066,6.646668,-0.006549,-0.00236,0.000502,0.643555,0.107422,-0.101562,1.95702,-7.270677,6.358331,-0.008048,0.006501,0.013513,0.151123,0.319336,-0.557129,0.688607,-5.921813,7.784689,0.006685,0.001152,-0.0042,-0.249512,0.396484,-0.442871
1.769087,-7.287083,6.287376,-0.004353,0.003254,-0.001338,-0.289795,0.528809,-0.035645,-0.055036,8.296579,5.238678,-0.003011,0.008663,0.008111,-0.075684,0.453613,0.461914,-1.283725,-7.124529,6.65657,0.006026,0.009435,-0.000768,0.646729,0.114258,-0.108398,1.944512,-7.280881,6.359477,0.002335,0.0014,0.005809,0.154785,0.32666,-0.558594,0.668691,-5.876158,7.823174,-0.001132,-0.003078,-0.004545,-0.246094,0.407715,-0.448975
1.7928,-7.350302,6.303246,-0.002068,-0.001439,-0.000779,-0.285889,0.520752,-0.041016,-0.049227,8.287266,5.257812,-0.016463,0.000806,0.007053,-0.087646,0.45459,0.470703,-1.300599,-7.107809,6.670438,-0.009321,-0.001541,-0.001254,0.648682,0.105469,-0.112305,1.969862,-7.228105,6.363484,-0.008983,-0.001001,0.010136,0.155518,0.323242,-0.563965,0.692752,-5.940759,7.788286,-0.004431,-0.005378,0.000371,-0.245605,0.39917,-0.455078
1.775382,-7.302607,6.288226,0.009139,0.003809,0.001204,-0.290771,0.532227,-0.039307,-0.036508,8.272235,5.22885,-0.011897,0.011653,0.007603,-0.070801,0.446289,0.462646,-1.253843,-7.156181,6.644463,-0.012193,0.006021,0.000529,0.64624,0.118896,-0.112061,1.969742,-7.299576,6.327803,-0.013085,-0.001017,0.014035,0.15332,0.332764,-0.56665,0.683788,-5.910318,7.795001,0.006297,0.003599,-0.007776,-0.248535,0.410889,-0.456055
1.779429,-7.318152,6.303048,-0.004093,-0.002277,-0.00028,-0.289062,0.519531,-0.036133,-0.067341,8.265184,5.248248,-0.007706,0.002406,0.008891,-0.069092,0.445557,0.466064,-1.309521,-7.160657,6.637969,0.001118,0.00394,-0.000731,0.645752,0.10498,-0.10791,1.965435,-7.257231,6.328023,0.003263,0.005918,0.005831,0.154785,0.319336,-0.560547,0.675041,-5.910201,7.798427,-0.000857,-0.003319,0.000276,-0.246094,0.397461,-0.449219
1.790178,-7.333471,6.276159,2.1e-05,0.004065,0.000466,-0.291504,0.518311,-0.042969,-0.007485,8.284547,5.242447,-0.005089,0.006702,0.007574,-0.073975,0.447754,0.466553,-1.244466,-7.125149,6.656699,-0.003736,0.002019,-0.001501,0.643555,0.105225,-0.112305,1.956587,-7.268011,6.352555,-0.011695,0.002591,0.013875,0.150391,0.318115,-0.565918,0.684284,-5.899274,7.794166,0.009669,-0.001887,-0.007764,-0.247803,0.396729,-0.457764
1.783566,-7.317391,6.276045,0.0056,-0.00088,-0.001645,-0.290771,0.516357,-0.031494,-0.057068,8.274045,5.232567,-0.018184,0.008337,0.009254,-0.076416,0.45459,0.468506,-1.293968,-7.146775,6.665404,-0.004389,0.011254,0.003143,0.643799,0.102539,-0.104248,1.967324,-7.294542,6.345541,0.004831,0.001131,0.007103,0.150635,0.317627,-0.559326,0.680098,-5.907372,7.807897,-0.012248,-0.003713,-0.000254,-0.248535,0.394775,-0.446533
1.78893,-7.312765,6.312913,0.004277,0.001742,0.000582,-0.285156,0.525635,-0.039307,-0.033589,8.259302,5.221631,0.000183,0.002792,0.006359,-0.084961,0.446533,0.460449,-1.282357,-7.143925,6.675682,0.000791,0.000251,-0.002275,0.651367,0.112061,-0.113037,1.963975,-7.256266,6.383093,-0.00171,0.002876,0.009387,0.159668,0.325928,-0.567139,0.671539,-5.935029,7.77494,0.009399,-0.000104,-0.00402,-0.240967,0.403564,-0.453857
1.773608,-7.321267,6.268067,-0.00718,0.000697,-0.000316,-0.28833,0.527832,-0.033936,-0.04536,8.308015,5.260261,-0.007811,0.009951,0.007042,-0.074951,0.447998,0.458008,-1.275289,-7.139162,6.665023,-0.001981,0.009375,-0.000164,0.648438,0.114258,-0.105713,1.968624,-7.278553,6.360744,-0.007677,0.000359,0.01046,0.155518,0.327148,-0.560547,0.67276,-5.881357,7.785236,0.008761,-0.001932,-0.006513,-0.242432,0.405273,-0.44751
1.787199,-7.345086,6.297457,0.003834,0.00028,-0.000433,-0.291748,0.520752,-0.038086,-0.044919,8.261875,5.242575,-0.022072,0.002098,0.007994,-0.083496,0.453613,0.471191,-1.288829,-7.143465,6.65281,-0.012325,-0.000127,0.001568,0.645996,0.106445,-0.109863,1.970363,-7.266555,6.342931,-0.007182,0.003366,0.010311,0.152588,0.320801,-0.56543,0.689985,-5.916751,7.798743,-0.007787,-0.001451,0.001345,-0.246826,0.398193,-0.452637
1.784445,-7.296606,6.298927,0.005188,0.000396,-5.1e-05,-0.284912,0.520996,-0.036865,-0.023333,8.25912,5.238186,0.001325,0.010138,0.007469,-0.07959,0.445312,0.463379,-1.258993,-7.160823,6.638485,-0.002409,0.004122,-0.002034,0.650635,0.107666,-0.106689,1.959647,-7.290444,6.338638,-0.007412,0.00055,0.011792,0.157471,0.32251,-0.560303,0.671061,-5.908437,7.802692,0.004472,0.000567,-0.009908,-0.242676,0.400635,-0.448975
1.792285,-7.336462,6.298893,-0.009791,-0.000466,0.000142,-0.285889,0.519775,-0.041504,-0.05688,8.292716,5.25411,-0.012636,0.002106,0.007856,-0.082764,0.450195,0.466797,-1.283575,-7.12431,6.646948,0.00107,0.005949,-0.001858,0.647217,0.106201,-0.117188,1.964677,-7.256005,6.345945,0.00416,0.000167,0.00544,0.155029,0.320801,-0.566895,0.68927,-5.918924,7.789393,-0.003569,-0.007958,0.000379,-0.244629,0.397705,-0.457275
1.803178,-7.355912,6.307327,0.009682,0.003532,-3.3e-05,-0.288086,0.526123,-0.047607,-0.004955,8.27147,5.233274,-0.013815,0.005787,0.006923,-0.084717,0.439941,0.461182,-1.264287,-7.128169,6.659165,-0.009726,0.000503,0.001303,0.647217,0.114258,-0.116455,1.973736,-7.269733,6.343285,-0.012994,0.004392,0.013746,0.15332,0.322754,-0.572021,0.690438,-5.921968,7.822015,0.010097,0.004196,-0.005726,-0.244873,0.402832,-0.459717
1.778879,-7.304333,6.298669,0.001528,0.000908,-0.001459,-0.287598,0.526367,-0.040771,-0.05161,8.265488,5.24613,-0.003918,0.008538,0.008593,-0.08252,0.444092,0.465576,-1.283554,-7.166271,6.654525,-0.002797,0.010126,0.001551,0.647949,0.113281,-0.111572,1.9711,-7.271356,6.342244,-0.000347,0.002557,0.009199,0.155762,0.327148,-0.568115,0.671373,-5.887483,7.800219,3.4e-05,-0.001715,-0.001958,-0.244873,0.404297,-0.454346
1.797007,-7.327547,6.300772,-0.005188,-0.000396,5.1e-05,-0.294678,0.522705,-0.041504,-0.028303,8.287277,5.240407,-0.006399,0.001133,0.006976,-0.083008,0.445068,0.462402,-1.295379,-7.13998,6.677017,0.001249,-0.000466,-0.000296,0.63916,0.10791,-0.112305,1.964815,-7.254994,6.355227,-0.001737,0.002118,0.009551,0.147217,0.321533,-0.565918,0.676286,-5.9218,7.77541,0.000301,-0.004896,-0.001771,-0.253662,0.39917,-0.455078
1.793947,-7.335484,6.286208,0.005351,0.003324,-0.00056,-0.293457,0.522217,-0.0354,-0.033184,8.278222,5.240632,-0.015256,0.010991,0.008956,-0.082031,0.450439,0.473389,-1.260369,-7.122529,6.656096,-0.005956,0.008646,-0.000491,0.640869,0.109619,-0.106445,1.972518,-7.28637,6.360664,-0.005446,-0.000107,0.010423,0.148682,0.325439,-0.562012,0.68197,-5.907765,7.791907,0.002204,0.00045,-0.006783,-0.252441,0.401611,-0.448486
1.786889,-7.331265,6.293023,0.00325,-4.5e-05,-0.000473,-0.284668,0.520264,-0.045654,-0.04448,8.253301,5.224189,-0.00821,0.003031,0.007551,-0.07666,0.447021,0.467041,-1.296854,-7.141167,6.675461,-0.003302,0.002305,-8.6e-05,0.650391,0.106445,-0.119385,1.97467,-7.27356,6.343666,-0.000119,0.002198,0.007526,0.157715,0.319824,-0.570068,0.678498,-5.92529,7.807601,-0.003633,-0.00313,0.000367,-0.23999,0.397217,-0.459717
1.778354,-7.303884,6.299338,-0.003542,0.003646,0.00028,-0.289062,0.522705,-0.036133,-0.029983,8.299904,5.243844,-0.001896,0.007013,0.007112,-0.077637,0.445801,0.464844,-1.262345,-7.12165,6.663915,-0.002944,0.002269,-0.003775,0.645752,0.11084,-0.105469,1.967808,-7.266789,6.359792,-0.010918,0.000387,0.011347,0.155273,0.322266,-0.560059,0.686316,-5.904743,7.801576,0.013375,0.000762,-0.007413,-0.246338,0.399414,-0.450684
1.782468,-7.359647,6.256114,-0.00538,0.001466,-0.002394,-0.295898,0.52417,-0.042969,-0.057159,8.267986,5.251478,-0.026205,0.005059,0.009383,-0.074707,0.44458,0.458496,-1.283364,-7.130951,6.66201,-0.01211,0.006952,0.003245,0.63916,0.110596,-0.112305,1.976959,-7.267231,6.31608,-0.007208,0.002609,0.010475,0.147461,0.323486,-0.56543,0.675672,-5.885781,7.801132,-0.00992,-0.003934,0.000283,-0.25415,0.401611,-0.455322
1.793829,-7.32684,6.315845,0.017047,0.002303,0.000586,-0.293213,0.520508,-0.038086,-0.022734,8.259892,5.230547,0.000537,0.00542,0.006617,-0.071533,0.44458,0.467529,-1.272635,-7.171832,6.641152,-0.001213,8.1e-05,-0.001528,0.642578,0.108643,-0.109375,1.956486,-7.274322,6.346487,-0.000896,0.001214,0.009865,0.151123,0.321533,-0.564941,0.660555,-5.937116,7.806789,0.002952,7.6e-05,-0.005533,-0.249268,0.399658,-0.450195
1.785765,-7.282311,6.281218,-0.009746,-0.000673,-0.002056,-0.286621,0.524658,-0.040527,-0.032835,8.296605,5.262617,-0.004361,0.00727,0.005201,-0.07373,0.443115,0.458496,-1.258924,-7.113929,6.670244,0.009713,0.009425,-0.000379,0.647949,0.111572,-0.11084,1.972809,-7.251952,6.352433,0.004016,-0.000414,0.006439,0.155518,0.32251,-0.5625,0.685663,-5.90032,7.823085,0.005795,-0.004941,-0.005608,-0.243896,0.399658,-0.45166
1.803411,-7.373966,6.273972,-0.001896,0.000161,0.000855,-0.294434,0.527832,-0.037598,-0.025515,8.274668,5.275994,-0.020494,0.003226,0.008765,-0.084229,0.443115,0.466064,-1.287316,-7.11617,6.666837,-0.015446,0.00134,0.001108,0.642578,0.115234,-0.109375,1.97448,-7.253427,6.375485,-0.011484,0.004644,0.012562,0.151855,0.327637,-0.562988,0.70516,-5.92591,7.781523,-0.002325,0.000213,-0.000535,-0.248779,0.405273,-0.451416
1.775542,-7.303287,6.314174,0.01343,0.003418,0.000455,-0.287354,0.529785,-0.044189,-0.0557,8.282811,5.235808,-0.002332,0.011115,0.00781,-0.0896,0.448486,0.467041,-1.265594,-7.163669,6.678058,-0.007284,0.006539,4.4e-05,0.646973,0.115234,-0.113525,1.939326,-7.295869,6.349896,-0.009496,0.001568,0.010836,0.153564,0.327637,-0.565186,0.657728,-5.91841,7.795135,0.005957,0.005719,-0.007691,-0.246826,0.404297,-0.453125
1.781935,-7.318698,6.315139,-0.011187,-0.001186,-0.001517,-0.290527,0.525879,-0.036865,-0.057687,8.278396,5.25843,-0.00997,0.001567,0.007641,-0.082764,0.450195,0.462646,-1.31505,-7.146944,6.667986,0.004088,0.002911,-0.001726,0.645264,0.112061,-0.112061,1.968098,-7.269087,6.345084,0.003555,0.000493,0.006622,0.153809,0.323975,-0.565186,0.685558,-5.906883,7.784504,-0.001111,-0.011932,0.000661,-0.244873,0.403564,-0.454834
1.789616,-7.354277,6.279992,0.003814,0.003743,-0.001244,-0.28418,0.520264,-0.037109,-0.012788,8.270005,5.256273,-0.012031,0.007275,0.006808,-0.075195,0.446533,0.463379,-1.262917,-7.100862,6.673254,-0.002771,0.000818,-0.001756,0.654053,0.108887,-0.10791,1.964411,-7.256871,6.349417,-0.00691,0.003542,0.011649,0.15625,0.320312,-0.5625,0.692491,-5.902264,7.802906,0.004849,0.004024,-0.006615,-0.243164,0.399902,-0.450684
1.789217,-7.310028,6.302654,0.003801,-0.001649,0.000434,-0.287842,0.521484,-0.038818,-0.053888,8.271045,5.226815,-0.010485,0.006893,0.009198,-0.081787,0.45166,0.46167,-1.295537,-7.139891,6.667212,-0.009822,0.007851,0.00246,0.651367,0.111084,-0.109863,1.963304,-7.249403,6.344387,-0.005024,-0.001572,0.007236,0.155029,0.325928,-0.565918,0.670136,-5.921118,7.824436,-0.009857,-0.002869,1.4e-05,-0.242676,0.399658,-0.452881
1.801969,-7.341291,6.304083,-0.004127,0.003321,0.000239,-0.285156,0.515137,-0.033203,-0.020994,8.276108,5.255949,-0.005343,0.002854,0.006445,-0.076904,0.444092,0.462891,-1.265549,-7.170805,6.65589,-0.007192,-0.000817,-0.001117,0.648682,0.103271,-0.108887,1.973906,-7.276875,6.336317,-0.012401,0.003083,0.015901,0.156738,0.315186,-0.55957,0.690498,-5.925743,7.78811,0.011489,-0.004735,-0.005343,-0.243164,0.393555,-0.447754
1.782992,-7.326034,6.273419,0.003467,0.00135,-0.001037,-0.290039,0.52124,-0.037842,-0.05176,8.276815,5.245323,-0.014325,0.010469,0.007258,-0.081299,0.447754,0.466797,-1.282443,-7.129052,6.65436,0.009589,0.008868,-0.001264,0.645996,0.108154,-0.110596,1.953043,-7.283753,6.367059,0.006982,0.004941,0.004777,0.153564,0.321045,-0.564697,0.671355,-5.884676,7.797178,0.006502,0.003699,-0.006614,-0.245361,0.400635,-0.453857
1.793464,-7.313407,6.310965,0.002665,-0.00037,-0.000513,-0.283936,0.518555,-0.040283,-0.030854,8.265774,5.226409,-0.009122,0.002915,0.008017,-0.074463,0.452637,0.465332,-1.320617,-7.106427,6.665073,-0.006535,0.001591,0.001518,0.649414,0.106201,-0.11377,1.969423,-7.247371,6.332859,-0.005415,0.000628,0.010265,0.156982,0.31958,-0.565674,0.673259,-5.925243,7.795188,-0.010683,-0.003408,0.001978,-0.24292,0.398193,-0.454346
1.792775,-7.320917,6.282891,-0.001007,0.002277,-0.00059,-0.283691,0.520264,-0.029541,-0.023663,8.280666,5.244573,-0.003072,0.009218,0.007771,-0.075928,0.450684,0.46167,-1.248211,-7.161638,6.664244,-0.012092,0.002604,0.000394,0.64917,0.107666,-0.105713,1.975369,-7.297693,6.344956,-0.014886,-0.002241,0.014055,0.157959,0.32251,-0.558838,0.691179,-5.909044,7.81739,0.008631,-0.002655,-0.009894,-0.241699,0.399658,-0.447998
1.775188,-7.346003,6.293514,0.00104,-0.000348,-0.000276,-0.286133,0.518555,-0.040283,-0.044687,8.26474,5.268557,-0.020969,0.004536,0.008619,-0.075928,0.447021,0.47168,-1.31928,-7.12662,6.646656,0.002383,0.007428,9e-06,0.647705,0.107666,-0.111572,1.958999,-7.260329,6.355365,0.006953,0.004188,0.004938,0.155273,0.318848,-0.567139,0.694666,-5.902807,7.794543,-0.005006,-0.001648,0.001256,-0.242676,0.398438,-0.455078
1.795402,-7.312471,6.298158,0.004863,0.002069,0.000622,-0.290771,0.523926,-0.04126,-0.018287,8.253299,5.236776,-0.001843,0.003643,0.006633,-0.079346,0.450928,0.468018,-1.256879,-7.118293,6.641614,-0.003566,-0.00277,-0.002897,0.640869,0.106934,-0.114502,1.948112,-7.252559,6.348612,-0.011161,0.003148,0.013382,0.150635,0.323242,-0.569092,0.690618,-5.916112,7.778479,0.008954,-0.000271,-0.006335,-0.249023,0.399414,-0.457031
1.753823,-7.330713,6.276912,-0.00678,0.001555,-0.00058,-0.291504,0.524414,-0.044922,-0.061243,8.303587,5.263437,-0.010327,0.009974,0.007566,-0.074463,0.448242,0.450195,-1.286645,-7.129926,6.659884,-0.006885,0.012784,0.001363,0.643555,0.114014,-0.114746,1.947664,-7.267286,6.34266,-0.00476,-0.001389,0.008569,0.150391,0.326904,-0.569336,0.671449,-5.876368,7.786551,-0.004304,-0.001846,-0.004093,-0.248779,0.405518,-0.458984
1.79614,-7.348796,6.304165,0.003889,-0.001253,-0.000486,-0.290527,0.517578,-0.041504,-0.033087,8.243736,5.219576,-0.016412,0.001529,0.008186,-0.074951,0.439453,0.462891,-1.308412,-7.150619,6.67035,-0.010834,-0.002823,-0.000368,0.644043,0.104736,-0.111816,1.969108,-7.276502,6.329399,-0.010687,0.005403,0.013398,0.150391,0.319092,-0.565918,0.692129,-5.941324,7.80484,-0.005206,-0.003296,0.001084,-0.246826,0.396729,-0.457764
1.779898,-7.281118,6.310948,0.005753,0.004185,-0.000823,-0.291016,0.52002,-0.036377,-0.028102,8.262319,5.229834,-0.00173,0.009272,0.008278,-0.086426,0.447021,0.464844,-1.263029,-7.157119,6.636398,0.008116,0.007212,-0.002184,0.647705,0.105957,-0.109619,1.965987,-7.286249,6.333114,0.005847,0.001514,0.006266,0.152344,0.319824,-0.562744,0.677599,-5.914488,7.793798,0.013224,0.001598,-0.011782,-0.24707,0.398926,-0.451172
1.796417,-7.336119,6.29823,-0.008514,-0.002884,0.000112,-0.282471,0.514893,-0.036377,-0.045733,8.29489,5.252284,-0.010582,0.001273,0.007542,-0.070801,0.456055,0.458984,-1.313222,-7.105592,6.679728,-0.000765,0.004322,0.000915,0.651855,0.102295,-0.106689,1.985112,-7.211792,6.360034,-0.002198,0.003212,0.006573,0.158936,0.312256,-0.564941,0.68177,-5.911545,7.803412,-0.005685,-0.006103,2.4e-05,-0.240967,0.392822,-0.448486
1.78759,-7.320571,6.311452,0.011158,0.005977,-0.001438,-0.280518,0.520508,-0.037109,-0.013885,8.283492,5.252141,-0.009078,0.00507,0.007628,-0.080078,0.450195,0.469482,-1.261123,-7.144192,6.662593,-0.017556,-0.000407,0.001519,0.657715,0.109619,-0.10791,1.954674,-7.307142,6.360695,-0.019731,0.000875,0.017163,0.164307,0.322021,-0.563477,0.681356,-5.901667,7.801765,0.008743,0.003981,-0.006794,-0.238525,0.399902,-0.449707
1.761938,-7.301205,6.287358,-0.004311,-0.003673,0.000285,-0.289062,0.523682,-0.04126,-0.054129,8.256678,5.231399,-0.014472,0.006744,0.007666,-0.075439,0.441406,0.457031,-1.300382,-7.165792,6.641435,0.004465,0.010167,-0.000965,0.645508,0.110107,-0.112305,1.976232,-7.285309,6.344393,0.008824,0.001283,0.00405,0.154297,0.323975,-0.56665,0.660542,-5.90436,7.799005,-0.00519,-0.003453,-0.001857,-0.250244,0.401611,-0.452393
1.801139,-7.339611,6.306276,-0.002089,0.002023,-0.001591,-0.293213,0.522705,-0.039795,-0.012303,8.280817,5.256361,-0.002779,0.002852,0.005906,-0.076416,0.45166,0.468018,-1.286923,-7.119855,6.682607,-0.004321,-0.003406,-0.002451,0.643555,0.108887,-0.114014,1.959883,-7.247508,6.355327,-0.012026,0.00329,0.013232,0.150391,0.324707,-0.568115,0.687754,-5.914502,7.78255,0.004576,-0.004426,-0.003285,-0.249756,0.400391,-0.454346
1.775009,-7.332544,6.288619,0.005991,0.002117,-0.000575,-0.291504,0.522949,-0.038086,-0.041289,8.305886,5.244951,-0.010915,0.010345,0.008683,-0.073486,0.440186,0.460449,-1.269873,-7.139946,6.657816,-0.006208,0.010848,0.001151,0.643799,0.112549,-0.109131,1.9659,-7.283174,6.327853,-0.002613,-0.000935,0.009209,0.150635,0.324951,-0.563477,0.686984,-5.898889,7.811123,-0.002688,0.000942,-0.006063,-0.249512,0.401123,-0.454102
1.7949,-7.310983,6.300029,0.00104,-0.000348,-0.000276,-0.289551,0.522461,-0.0354,-0.035136,8.267789,5.228577,-0.014714,-0.000475,0.006052,-0.069824,0.446045,0.46582,-1.299358,-7.140368,6.663367,-0.004445,-0.000633,7.3e-05,0.645996,0.107178,-0.107178,1.975556,-7.24075,6.354584,-0.004713,0.002522,0.008609,0.153809,0.321045,-0.557861,0.692765,-5.943143,7.787911,-0.001146,-0.004322,0.002334,-0.246338,0.39917,-0.447021
1.777167,-7.331802,6.27553,-0.003129,0.00237,-0.001315,-0.298096,0.515137,-0.040771,-0.012494,8.281173,5.253758,-0.003338,0.010882,0.006751,-0.082275,0.44751,0.464844,-1.262956,-7.149928,6.648814,-0.002804,0.006779,-0.00185,0.638184,0.102295,-0.113037,1.955186,-7.295541,6.351095,-0.009764,0.003571,0.013036,0.146484,0.318604,-0.568115,0.683798,-5.880695,7.799101,0.016717,-0.001736,-0.012304,-0.251709,0.393311,-0.453857
1.781796,-7.335342,6.283549,0.006229,5e-05,-0.000326,-0.28125,0.520752,-0.044922,-0.064504,8.275678,5.234318,-0.0133,0.003061,0.008584,-0.074707,0.448486,0.460938,-1.31623,-7.126133,6.667357,0.004349,0.007981,0.001096,0.655273,0.107178,-0.120117,1.951277,-7.252543,6.352231,0.007103,0.004746,0.003947,0.162842,0.320068,-0.573242,0.664278,-5.892935,7.798176,-0.013287,0.000128,0.004197,-0.238037,0.401123,-0.460938
1.805047,-7.293496,6.303168,0.003468,0.00135,-0.001037,-0.286621,0.520508,-0.038086,-0.015336,8.287216,5.240175,-0.003772,0.003951,0.007244,-0.077881,0.450195,0.460938,-1.268239,-7.130183,6.67332,-0.009683,-0.004851,-0.000999,0.647217,0.108887,-0.111328,1.963734,-7.261562,6.336891,-0.01677,-0.002527,0.014748,0.157227,0.319824,-0.565918,0.690222,-5.924592,7.776112,0.008903,-0.001487,-0.009002,-0.244385,0.397949,-0.451172
1.783571,-7.346791,6.276996,-0.010222,0.00346,-0.002555,-0.291748,0.528076,-0.046387,-0.048631,8.284359,5.250822,-0.015942,0.009145,0.008875,-0.078613,0.448486,0.467529,-1.280073,-7.150026,6.654892,-0.003857,0.013695,0.002526,0.645264,0.115479,-0.118164,1.980871,-7.29337,6.343996,0.002132,-0.000719,0.007137,0.153076,0.327393,-0.571777,0.697357,-5.892557,7.830489,-0.001411,-0.005636,-0.001493,-0.245605,0.406006,-0.460205
1.797908,-7.345964,6.293625,0.012282,-0.000693,0.00119,-0.28125,0.525879,-0.040771,-0.038343,8.266058,5.242772,-0.00894,0.001152,0.007475,-0.08252,0.45166,0.462646,-1.310619,-7.147981,6.670157,-0.003703,-0.003948,-0.001408,0.655762,0.114502,-0.110352,1.967627,-7.250899,6.3423,-0.007259,0.006672,0.011363,0.163086,0.328369,-0.563477,0.687914,-5.94196,7.791844,-0.006495,0.003434,-0.000543,-0.235107,0.407471,-0.452393
1.769298,-7.282982,6.305474,-0.001019,0.004413,0.000739,-0.281738,0.523193,-0.033203,-0.030166,8.296843,5.245848,-0.001376,0.011238,0.007343,-0.074707,0.453613,0.463623,-1.262495,-7.127194,6.660513,0.001293,0.008064,-0.000619,0.65332,0.109375,-0.104004,1.939485,-7.288021,6.328418,-0.005365,-0.001065,0.009751,0.159424,0.321289,-0.557129,0.650823,-5.88705,7.781775,0.020269,0.000493,-0.009461,-0.238037,0.399414,-0.446777
