# sampling frequency: 40
# units are seconds/meters/radians/a.u.
seg1_acc_x,seg1_acc_y,seg1_acc_z,seg1_gyr_x,seg1_gyr_y,seg1_gyr_z,seg1_mag_x,seg1_mag_y,seg1_mag_z,seg2_acc_x,seg2_acc_y,seg2_acc_z,seg2_gyr_x,seg2_gyr_y,seg2_gyr_z,seg2_mag_x,seg2_mag_y,seg2_mag_z,seg3_acc_x,seg3_acc_y,seg3_acc_z,seg3_gyr_x,seg3_gyr_y,seg3_gyr_z,seg3_mag_x,seg3_mag_y,seg3_mag_z,seg4_acc_x,seg4_acc_y,seg4_acc_z,seg4_gyr_x,seg4_gyr_y,seg4_gyr_z,seg4_mag_x,seg4_mag_y,seg4_mag_z,seg5_acc_x,seg5_acc_y,seg5_acc_z,seg5_gyr_x,seg5_gyr_y,seg5_gyr_z,seg5_mag_x,seg5_mag_y,seg5_mag_z
3.1656919018106078,-0.13546970343018197,9.253657266937882,-0.0013767666430042308,0.0028126235813087453,0.011310557377979955,0.37646221691898696,-0.34456626451159045,-0.4960139260181816,-0.039088742573991336,9.807712595021368,0.1865598025653004,-0.00882470364809202,-0.00027305055136270104,-0.010413565091732604,-0.08341164860064607,-0.5038525185945476,0.44238327279142614,-3.1900691821635143,-0.054752875934557466,9.191921737277603,-0.006128292585933687,0.0028711193835354036,0.003700771469123364,-0.5595370758499897,-0.4388157955171994,-0.21086744877019406,0.8052227482377761,-0.050928024802175495,9.888297294621209,-0.003038740952323817,0.0027733099571085797,0.007544737656570476,0.3998131126496755,-0.6829587914732645,0.34935008337591095,-0.09233810931760672,0.04917433485987431,9.826553952678362,-0.006194254074777295,0.0024433778077779128,-0.00816277424320698,0.2624639855728375,-0.9313888588805743,0.418733783986154
3.1522387964919,-0.12606000352882543,9.229902200719279,-0.0039319319602961166,0.0010483884164930494,0.011077957970120896,0.3676258051956101,-0.348750545132356,-0.4984220328558558,-0.06161030527597178,9.78270174716752,0.1942961544893308,-0.01077368401745607,-0.001618265247877531,-0.01062355304403962,-0.09191110939543819,-0.5078493211046025,0.4427011468127163,-3.1910310231041836,-0.05383146146267925,9.201263703846578,-0.006080020280180965,0.0017909350454193968,0.002840064445690767,-0.5680817398042873,-0.4423471717972704,-0.21260872918318752,0.809205791918916,-0.03833912544103091,9.87505792772135,-0.0031865952169410953,0.0033904175975213047,0.005820966709901888,0.39090668674234574,-0.686929883503894,0.351710621374232,-0.09401851822691182,0.05809118932378702,9.848059845995474,-0.005796308486632413,0.0012582606390766503,-0.00935514105141892,0.25459415472378616,-0.9366159543810312,0.41450810711298636
3.1531694981931304,-0.12372287904445613,9.243142140239076,-0.004660203694692,0.0031474710538527788,0.010129973074452759,0.37314400039002826,-0.3535222225047665,-0.4990196739270075,-0.05095022307402561,9.797633089899087,0.2096194163052836,-0.008495791249305728,-0.0016736609752494296,-0.011753804277260504,-0.0865163504964052,-0.5138872217148184,0.4384857832883618,-3.1975589157962587,-0.04744921415934153,9.199171960707524,-0.005784648261173835,0.003135847617927897,0.0032125742344161403,-0.564911405091832,-0.44845878512042575,-0.21601378753793427,0.7947794910660779,-0.03693474877769369,9.858310325388752,-0.004222177509135865,0.00213956521583535,0.0046603105871320105,0.3959218224502626,-0.6918078088083127,0.3476558818566196,-0.09309831653642738,0.046061957586890974,9.82656224092726,-0.007222983477250276,0.0010592031776123316,-0.008390226237468539,0.25967863771452104,-0.940374412014252,0.4118750484474394
3.1590802810558722,-0.13968288567758913,9.225289212433815,-0.003428380946391367,0.002358714756863118,0.009713952376976982,0.3725540144178325,-0.36059023559416525,-0.4917027983287279,-0.03973257327465517,9.804046587820945,0.20490713210491804,-0.01124961597345952,-0.0016421909828766156,-0.010223971597448964,-0.08807009270693852,-0.5180795400296918,0.44996647182563976,-3.2000874460656634,-0.06193196807526469,9.201720094865594,-0.006154439826233823,0.003413196585896314,0.0041316399275944556,-0.5643669630746864,-0.45293622067337946,-0.20327018032650815,0.7924053744370751,-0.04248697837527314,9.881774602380121,-0.0025429931579979545,0.003471931688757187,0.005990217537533948,0.39537719034325136,-0.6973232915052234,0.3570275577733429,-0.100959923816837,0.051821945406742315,9.813573559689974,-0.00785738959899037,0.0003421007298015125,-0.007899106138060639,0.25892603175093315,-0.9484139839894532,0.4233479680723269
3.1500324410072906,-0.14434782225524204,9.256547048846175,-0.002612966837273018,0.0020950732954686,0.010491958167755234,0.36947766268849,-0.3478177712307483,-0.49324946833962746,-0.06119050950618355,9.792842482141609,0.1738366929446819,-0.010395677189377943,-0.0017553202273380708,-0.010156485842738368,-0.09092101089918825,-0.5078421044839678,0.4441566377567315,-3.1993183505087157,-0.04730587907577549,9.208234253107708,-0.0036057305047081803,0.0015805632566831872,0.003015049637906468,-0.5645912477634447,-0.44373963697993096,-0.20972925787270513,0.7888308298360908,-0.029958421769632274,9.880243929562425,-0.00407575391493534,0.004397809662781479,0.0064756147348985415,0.39243914941360847,-0.6859168392589924,0.3535916608525679,-0.10504294386259937,0.049473372442569184,9.822610639768067,-0.004846986724739948,0.0032610178205697347,-0.009136857143685752,0.2560526367147555,-0.9356649263267806,0.41696322644247863
3.157346190469135,-0.12938753295120012,9.236038813360185,-0.003677390981045157,0.0028188121108955536,0.010041794453980636,0.3630926148337684,-0.35206084031112606,-0.4960876462184887,-0.04780457001437032,9.79467356531729,0.20899658962151035,-0.008711867591814547,-0.002611850163591442,-0.010925668985725256,-0.09626800568526155,-0.5103403392814516,0.4439591266068029,-3.197907129876981,-0.03699432115390233,9.195604407876969,-0.007277287831114777,0.005221577845585161,0.0024337119027532834,-0.5738944838044427,-0.44532800339937806,-0.2117249219935048,0.8033667230725633,-0.049129229667495194,9.881969517393024,-0.00407575391493534,0.004397809662781479,0.0064756147348985415,0.3844802735298477,-0.6855471306391965,0.35024323671525487,-0.09931231385049637,0.050944341811533664,9.857112733078182,-0.005481374220706637,0.002544915199196415,-0.008645737463135912,0.2477080069784773,-0.9379519324256195,0.4168812345630311
3.1452982342846636,-0.14239947610694315,9.241149507646558,-0.0026926515538924765,0.0024891066323765817,0.009955663402404651,0.3710455010961661,-0.35713598525769896,-0.4966254806434196,-0.0460152695186089,9.781873889358081,0.22146157935576574,-0.009422629582871283,-0.001087230637997634,-0.010050487464983887,-0.08987076419753087,-0.5158856817641487,0.4429082526385022,-3.186599757902697,-0.055327795003858704,9.189474977509624,-0.005811775573320243,0.0036779268266548134,0.003644462229620581,-0.564559061121339,-0.4503541285452032,-0.21160087625074414,0.7990145112853053,-0.03889898109349493,9.863681288072694,-0.003909759918952889,0.0041514650648912165,0.005942332134030987,0.39681646653080616,-0.6971396432327713,0.3503695221495299,-0.10639804183059028,0.04679814706711245,9.82260871944015,-0.005601906216626006,0.0025204092900149,-0.008040896576311221,0.25736223606629316,-0.9454581350889234,0.41429710234942846
3.1561593066545286,-0.13253698554884102,9.236400105687585,-0.004265551594015122,0.001902637285191887,0.010866385735827376,0.3669376841661261,-0.35312937220400387,-0.4945290191228482,-0.04822184284662664,9.80416664126118,0.2049976710793287,-0.010681454315710057,-0.0014833529705526474,-0.011487201907607944,-0.09454477749662499,-0.5105688212043523,0.44516199718205035,-3.195482153465459,-0.060268454462267584,9.199678167460942,-0.006476928443371027,0.0026093633547576264,0.0041910304010230465,-0.5713425900231099,-0.4452323705672798,-0.20615881810566547,0.7906985182385141,-0.040005654363985746,9.875439828582387,-0.0037619562145280285,0.0035353456210077193,0.007665092679152386,0.38969191891510424,-0.6884095102451728,0.35153272861892293,-0.0746462874120209,0.04427628762199193,9.824946595245647,-0.006588548738702003,0.0017773048468278107,-0.008882346705639824,0.2498359676700305,-0.9414099529081286,0.4173936129756838
3.142915948265695,-0.14985727386817912,9.228324606872038,-0.003032753499908924,0.0011138575766632263,0.010451388831523785,0.37318262954649173,-0.358651683283808,-0.49559687844603795,-0.05520859088531049,9.78598473051293,0.19603719188530425,-0.009447603179940926,-0.0017255143431737854,-0.010953650368980727,-0.08938539404060983,-0.5156365264037032,0.4429040792547841,-3.20937285529554,-0.06181703905447489,9.18895390574143,-0.005418868156945071,0.0028614688492081893,0.0022945507016969343,-0.5613357735782588,-0.4510264008842327,-0.2094583323616257,0.8078219997428691,-0.052395319253367115,9.870503978696213,-0.003991175779967305,0.003557308474850931,0.006185772894970856,0.3946235286159666,-0.6954466318881848,0.3509266306566988,-0.10125506583448647,0.05541129738080691,9.826064064947799,-0.007935824723477978,0.0009586644025656498,-0.007909263336208316,0.2578660065200079,-0.9427796201554512,0.417718686351193
3.153836331591561,-0.1399571943948512,9.223559607350742,-0.0036822918853856215,0.0028199300011377227,0.010038674925482275,0.3717616351376427,-0.34860568736155895,-0.49759029556750933,-0.051827821727342266,9.804417149549755,0.20024492041164282,-0.00992355628059335,-0.0017474401949407006,-0.010554064454559762,-0.08872789182947581,-0.5090361167079096,0.4424237515645246,-3.1872158333143985,-0.04325983504613,9.195504175760282,-0.006458627398199578,0.0023960372471468353,0.0022758118642609198,-0.563948099508213,-0.4440338173802675,-0.2143785050390591,0.8001259500725882,-0.031042991621653374,9.890774543270998,-0.0027893635672658237,0.003124141167055529,0.006767899589822459,0.3954258898980423,-0.6861839766859507,0.3488311827385795,-0.09888328268807127,0.044233290103542974,9.826324537625473,-0.006389543010452066,0.001186245699617009,-0.009479030712985548,0.25825390163841194,-0.9374167549189204,0.4133240969697006
3.1659868028950786,-0.12581762102381253,9.23196767080123,-0.0022049807297434294,0.0030775724653842734,0.01052524055315453,0.36946649105463003,-0.35392316080960695,-0.49886294625309274,-0.043853556953871484,9.779248454889897,0.2134646380879597,-0.009305437736630838,-0.000312036903726277,-0.010009969005965985,-0.09237833656081446,-0.511025713478715,0.44147784461717576,-3.2025519733320595,-0.06028098551901194,9.178011556003991,-0.00475470607275689,0.0039310341948284875,0.0017489898000782945,-0.5653621258497601,-0.4469655778776529,-0.21333682135800153,0.7960018152186239,-0.04090772549123342,9.880730240836847,-0.004155326805016026,0.005241371105229016,0.006766219703851308,0.393772766804326,-0.687654107388943,0.34989294295310136,-0.0845730399659119,0.057158994677796206,9.833488050136246,-0.006115751725638548,0.0018288119727902553,-0.008155617732491398,0.2540509170843452,-0.9407574764739054,0.41230807515382545
3.1462503709235095,-0.14213706641677099,9.231711547592846,-0.004426419831431915,0.004198151843618825,0.011024272791156161,0.37008661719135216,-0.3561357092887548,-0.49640506366802606,-0.047673960107846955,9.801180979063277,0.20646606943963897,-0.009544591844673631,-0.001880484814481736,-0.010086997986571287,-0.08916314218696723,-0.515142327423695,0.4411938943286105,-3.1941831301746766,-0.03989639490449948,9.18357307078738,-0.005760668282248705,0.00227195112330786,0.004269167253129573,-0.5653416777466022,-0.4511312605896523,-0.21450656980020047,0.826150890282427,-0.015141408644612775,9.876155665342148,-0.002439421208267597,0.004438901908859331,0.003490538069149118,0.3926645834281554,-0.6937540734753921,0.3512310888154599,-0.09858300583419316,0.05129303772444753,9.81704980170793,-0.006429610355569617,0.0005451370612617827,-0.00886701247658933,0.25519866541160585,-0.9434643982276243,0.41451829084386893
3.160030890115653,-0.12398965365546939,9.2531563939403,-0.0025435359153714162,0.00019687495002743968,0.00979048943114017,0.37362874329670803,-0.35426722632315905,-0.48948281959106404,-0.04074691929655642,9.820390415150722,0.19165814707351822,-0.011159271530924693,-0.0015163036299305215,-0.011085621326788734,-0.0869156010979997,-0.5109891118107353,0.45094744368900597,-3.19927780367222,-0.06383040513770395,9.208008555560763,-0.00757278650837456,0.0035528796616579417,0.0035496482372705004,-0.5630189370920844,-0.44709616846059447,-0.20605532271105048,0.8010911177376794,-0.04285862765623348,9.869223735432854,-0.005356963900397694,0.0042388514018042965,0.006137824497593401,0.39508536137436495,-0.689750002563297,0.3576833888910964,-0.09746217193675964,0.050560155066426006,9.8388255342647,-0.007302371135761242,0.001677784518874156,-0.008401394223807574,0.2573908953222947,-0.9395942780206201,0.4223502442784866
3.1464313073208015,-0.14545872714249783,9.19544324481972,-0.005165479389777517,0.002564429111187799,0.009548965703544873,0.3608617556450896,-0.3534727535589655,-0.4961405826035463,-0.03400715424402388,9.755510469964097,0.19318561085936917,-0.008714689314218349,-0.0026268853311219057,-0.01092367358601423,-0.09747662620029873,-0.5108428056289311,0.44470180622836386,-3.221908268597699,-0.04319087265146143,9.162133904390362,-0.004998979763808531,0.0011791335755203863,0.00200019757326953,-0.5724155265148237,-0.4507113626698807,-0.21388444654770083,0.8031239820568933,-0.03491867428605604,9.879433985387635,-0.001173384291560675,0.004230126128246828,0.006085226720792099,0.3834761649679529,-0.6901490248598415,0.35449124290380074,-0.10553126108182537,0.056622062204542314,9.825842597685563,-0.005323398362632381,0.0013147656871609135,-0.00863041407237145,0.24693268197359713,-0.9418453963118336,0.41394669693274705
3.1671426363269637,-0.13758800729013668,9.248438868608897,-0.004104029338236332,0.001839761377925807,0.009997057730311853,0.35893891995060107,-0.3497626226559582,-0.49374626149422307,-0.04493069033109301,9.829131901057773,0.20678507349852016,-0.008857384798446,-0.0009344283186593671,-0.01131170227019546,-0.1033285635943319,-0.5101760380113812,0.44622501983140944,-3.198114673735175,-0.054727709031123964,9.195293650828882,-0.00579163032869258,0.003139811227536187,0.003215663009583868,-0.5794237696090472,-0.4455799701606189,-0.20746082041846808,0.7939763591895607,-0.037937201385537814,9.87443162524199,-0.004879366084449038,0.004567709974772184,0.006840346643284621,0.38195489588166986,-0.6845490093824719,0.35448711733220895,-0.0937312813695318,0.05813531433002429,9.820526309808278,-0.009360798792052203,0.002657386854072743,-0.008180541674150641,0.2455231634954718,-0.935711631589581,0.4197881958835193
3.1362637279402032,-0.13877173480755844,9.237256825771983,-0.002873825481847384,0.0025554549481592984,0.010813512986435665,0.3731029014941887,-0.354254464604372,-0.4980429700884126,-0.048918390694498985,9.766964286308871,0.21610767373900952,-0.009165585119455963,-0.0020175292004871097,-0.009619940454243426,-0.08751476744849176,-0.510969822892151,0.4394777271876247,-3.2103363665369815,-0.04279748388347898,9.181727613456653,-0.005446986254954079,0.0034045499316582165,0.0027274459666852013,-0.5627444837512569,-0.44648912004110347,-0.2165691508235936,0.809045544638606,-0.03492171702062656,9.884687934029621,-0.004383412431767261,0.0038276450436754393,0.00523959186126697,0.3959408161173433,-0.6878851522969418,0.34907452104063014,-0.1049019110578591,0.033234272093380694,9.835371513272534,-0.006589491281690583,0.0017793219102926585,-0.008884357443736507,0.25644622856564736,-0.9434887591662308,0.4118446360940278
3.137128375341262,-0.1362379704578937,9.250527073587763,-0.004181715308430401,0.002234747044207826,0.009461810858796703,0.37128909535765664,-0.3542110364106876,-0.4936914027511108,-0.05392304348632939,9.833309643357234,0.18101486379796086,-0.009950403684298965,-0.0023967465762659637,-0.011456232642917431,-0.08961022502888084,-0.5132071416317974,0.44755066527645054,-3.1929070281867804,-0.04491817254013476,9.222557195493401,-0.006754185106856512,0.0007273016349329879,0.003388749013152419,-0.5660253531026681,-0.4457016277475028,-0.20918841399137353,0.8072369269060042,-0.017906473961078,9.859765019101351,-0.0035115899419334547,0.0038871864979322605,0.006888202901338268,0.394765516088893,-0.6909989248448081,0.35551196582589084,-0.1043588214724836,0.04167873855875543,9.82609936563472,-0.007421893364040895,0.0016532593840042735,-0.007797543286318297,0.25791048785884957,-0.9396052846697177,0.41918228350700726
3.160223352747347,-0.1280920512488924,9.230414729222852,-0.0018108286699177376,0.00032533875525382795,0.01003112846206915,0.3679319607634703,-0.35510673515452545,-0.49719074484310527,-0.06161964850678714,9.801182966822504,0.21119946939405634,-0.011612052595373488,-0.0009159724236745155,-0.009779889060789372,-0.09061508217564977,-0.5136991775511637,0.4441411877844233,-3.1943163184126595,-0.06585190517345611,9.196400997220415,-0.007362447221354596,0.007175646006363702,0.00224795802988504,-0.5674857006947871,-0.45062977235523666,-0.21153983284718306,0.7936624773307571,-0.07526037538620857,9.884480341960773,-0.005749200552197651,0.004509187970628804,0.005191643463889516,0.3905403760708607,-0.6910623501799223,0.35372846419850523,-0.09280949334378724,0.06402941085005341,9.833042580301045,-0.004930037606957625,0.001983856143046202,-0.007911852816988028,0.25445673675955294,-0.943205923883918,0.41597579483662794
3.159773683506765,-0.1295606936122592,9.23054776373942,-0.003940152361020069,0.003281240011631748,0.010361301721213162,0.36856927776920073,-0.35316856207769703,-0.49131478150434427,-0.045793388421000496,9.764063552807707,0.21548217238342093,-0.008503414223994171,-0.0017047545702986214,-0.011748796423047747,-0.09108862749003734,-0.5112713352974748,0.4483011571144093,-3.218562388463663,-0.03901213928158549,9.179035520867853,-0.004627383353557095,0.0005769701638530472,0.0025655517397328164,-0.5657447938440512,-0.4491166197600795,-0.20915131875661758,0.7854937859317541,-0.013627568179271618,9.888322712143406,-0.002538976800647185,0.0034739822762965837,0.005991032377625128,0.39383624842494114,-0.6917289794363612,0.3565358622572186,-0.09670493853293209,0.0413196723348775,9.82981323913748,-0.006075589895357825,0.0024739187068298016,-0.008769637544130513,0.25468262339868675,-0.9424756741709466,0.4191517689522287
3.1521196630499624,-0.1302921488204707,9.274896752861217,-0.00386187099813781,0.0013818290097289982,0.009665048265870866,0.3758917588589535,-0.35041422460568494,-0.4984660969623901,-0.031580686385694993,9.833091787807989,0.19402049608352834,-0.010308186186220378,-0.0016414682170741866,-0.011016133470621652,-0.08703197642619913,-0.5077970837797917,0.4424099548993994,-3.1907277347624943,-0.07150168566216952,9.216823415216703,-0.006563125185953982,0.004561383882805793,0.004002321684619574,-0.5607469835554563,-0.4457032714373846,-0.21393254449351518,0.7947166315650214,-0.048221333419399354,9.886527636118315,-0.003758989551918288,0.003538374621940495,0.007664937545954083,0.3966156643817824,-0.6881390729244078,0.34758497072763944,-0.09024795656401235,0.06170751938186563,9.824023125698034,-0.008015212381988945,0.001577245743827474,-0.007920431322547355,0.26044619708701816,-0.9379458750566401,0.41285829707073096
3.1461041014944144,-0.12187830104832621,9.206873476250642,-0.003464340816254822,0.00013492558148361084,0.010404532271865571,0.37056778660674194,-0.3493094078518424,-0.48931524528628306,-0.04772404366839678,9.764751335375779,0.201088641668035,-0.010190067568861075,-0.000860262108189308,-0.010976611227845297,-0.08989397999701058,-0.508330613980049,0.4487848703565703,-3.198596352285176,-0.03691654036136456,9.178579377814723,-0.00614026618612992,0.0028780551987584095,0.0037059219414835513,-0.5650473619481163,-0.44274047628787533,-0.20753515287020585,0.8072133406714928,-0.03115136906472024,9.895207000809249,-0.0006745584672282063,0.004928800583928012,0.004532583554460042,0.3950553376291083,-0.6868203429069895,0.35765033026250204,-0.09521474946054806,0.04905149863102557,9.842324076385832,-0.005323322503242614,0.0013177639564077325,-0.008632415228756286,0.25794000139548523,-0.9361858099040985,0.4225986806265542
3.154700659828897,-0.1426650052636003,9.24117604351125,-0.0026336419100689585,0.0020975699630722,0.010480455645607473,0.36934022259026345,-0.354164112874972,-0.5039943397652981,-0.0507381754716123,9.826392476386921,0.20627749610011092,-0.011139963403562355,-0.0009050925664288912,-0.010177460970865306,-0.09338025989959788,-0.5137099277134841,0.43586655772689253,-3.2099597812070635,-0.05116918728607235,9.210697513622657,-0.005742522535578346,0.0017338145847301599,0.0038404076494757454,-0.566214965622627,-0.4487703582655056,-0.22038043535036642,0.8059075016852483,-0.011620196862819787,9.887078212833067,-0.004068781141986865,0.004403889135095395,0.006476263158983026,0.3905411908619869,-0.6936466628997013,0.3410524641550173,-0.08588371210080192,0.039640604263974207,9.824506104419214,-0.007775355025350513,0.003530093505819176,-0.010364338863136898,0.2550004150925437,-0.9429731552899968,0.41085382932991865
3.16422149050959,-0.13679929892544793,9.223332813498045,-0.0025588820758952573,0.0017036548039226394,0.011013630865011469,0.3654235849376324,-0.3526047834175813,-0.5021359737783877,-0.04561811908377901,9.791965911059393,0.21867110349807295,-0.00966641578600693,-0.002687736042129176,-0.010124539733729915,-0.0960582335900087,-0.5117917409410608,0.43882674714981257,-3.201726009011761,-0.05263091422704072,9.180881639481758,-0.007287224329989224,0.005230571763268077,0.0024417974104572575,-0.5673151119758072,-0.44919896702301226,-0.21449184175472977,0.8084897109406783,-0.0640494748588413,9.865040452098885,-0.0034051458205524043,0.006292896104812333,0.004436635048639032,0.3891704703172344,-0.6918518610036334,0.34988352832317193,-0.10291106187454375,0.04299734201487265,9.807812116359004,-0.0061156472494406,0.0018328094634417348,-0.008158619257639619,0.2503900760843424,-0.9409335411451716,0.4117825797644735
3.1435821461614832,-0.12632575277307687,9.243823963804324,-0.0032811574724113013,0.0038045941568890236,0.01006778992344424,0.3680877472671578,-0.35633186556299645,-0.4947435981275387,-0.05339258942905038,9.818264214088579,0.18153367938659812,-0.010167948291419418,-0.0002330159355411292,-0.010070444037717742,-0.09376724742932314,-0.5139809496771737,0.44612423586314903,-3.1814219187719908,-0.0476128129783612,9.190248049487373,-0.005694300298106724,0.0006546051617801719,0.0029776889020098154,-0.5669917001259412,-0.44939164841494794,-0.21058874213307419,0.8089309478455368,-0.018286300872696365,9.899015757038025,-0.0039038265937334105,0.004157523066756768,0.005942021867634382,0.3930533239389028,-0.6924851775767931,0.355110005805268,-0.09599722600522832,0.054376120693407706,9.83306957346294,-0.005996096404352767,0.001858333819716277,-0.008763470563892282,0.2522291878776717,-0.9436516003480748,0.4181509179292658
3.1679710536378876,-0.14088689136239443,9.25254885372283,-0.004209848137933024,8.76947145369241e-06,0.010157581934294807,0.3599028957995721,-0.35271654408379355,-0.4961640991150686,-0.030102018994457996,9.80852667891297,0.19818701030071526,-0.009761424920858798,-0.002841683253448862,-0.00925890440611118,-0.10085921320429027,-0.5130784883041425,0.4459508867446587,-3.206139247309225,-0.06230108965273384,9.211809521012283,-0.005504047224317274,0.004815524533891187,0.0021077971002867847,-0.5740860461483922,-0.4475099889843306,-0.2102285237258501,0.8019140290320997,-0.057425033481004154,9.88702549139539,-0.004793849622136839,0.003729206650348456,0.0065494426907436445,0.3853188942695906,-0.6882028222781996,0.3521951873225709,-0.08918610431637541,0.05443470811105215,9.815019683965934,-0.006589415422300815,0.0017823201795394775,-0.008886358600121342,0.2468915501155378,-0.9420871383323247,0.4176086156874139
3.1532618242629686,-0.13580108605240895,9.215662156953604,-0.004044567806979559,0.002955625770154402,0.011754374145888999,0.3712712063572256,-0.35152389449095034,-0.49027434725158275,-0.04345482239438647,9.757830279103228,0.22606174179168276,-0.009075282085968354,-0.0018886398912309138,-0.010482583432596811,-0.09105592036475256,-0.5134712894078544,0.44927319886051886,-3.202511018426777,-0.0404320696863249,9.186884521796928,-0.0036426748696921462,0.0024523974402493403,0.0019646143613370505,-0.5627774779656541,-0.4458666769992082,-0.205587286134871,0.8169621802198465,-0.013733371449123996,9.880855777324,-0.0024554381134081473,0.0026334596179176713,0.005700231847216353,0.3952235845005753,-0.6910027057872747,0.35476088191933114,-0.09058560844244173,0.04253558904660062,9.82428136479023,-0.007062183818556091,0.001731812274981693,-0.009614087942033153,0.25713219306237106,-0.941299471963481,0.4206396055796548
3.14958657294718,-0.1282763907484987,9.249690324555594,-0.0032068497228782008,0.0019052784812374057,0.009370440425284697,0.37273552885469224,-0.3532684785709622,-0.4919475994773939,-0.047006046411587246,9.824688891314784,0.18163147931075302,-0.010808996588373096,-0.0023126771317941845,-0.011519735033264217,-0.08988280140335209,-0.5102814175180368,0.447803555628658,-3.2004264094155723,-0.056223971907090955,9.219888483142805,-0.006542990655342653,0.00402426815104427,0.0035735101976333387,-0.5611221378073178,-0.4426873943853252,-0.2066368084172737,0.7976214251106977,-0.04586508607703929,9.885571153542093,-0.0037541396051944355,0.004979133342673608,0.007712945739507476,0.3959996574788689,-0.6875551064562775,0.3566439622642103,-0.09371850330089884,0.05029819426789506,9.824055355975831,-0.005996067787544586,0.001859333041120937,-0.008764470932655671,0.2579276924306874,-0.9378956955199538,0.4206454943399761
3.1724614750515383,-0.14697718828541217,9.245331285647827,-0.004366742762000657,0.002304188703629498,0.01031656503244084,0.3652648231535334,-0.3521129587009959,-0.4950580187669407,-0.06188175529649003,9.765139869067616,0.19921259501987804,-0.010311976088790266,-0.0016595138029080702,-0.011014135103682696,-0.09648121794519511,-0.5103496893444175,0.44713532954561785,-3.1979280369810477,-0.0501112254466734,9.188272476707947,-0.006069927846321765,0.0012597262966006775,0.002412377167463733,-0.5712344458082987,-0.443842164229666,-0.21228395313827184,0.8032642557099221,-0.028875007446654652,9.848991868831183,-0.0047755648396202045,0.0026632711104965373,0.004245132795870796,0.3878590260294801,-0.6903528611225608,0.354072569172419,-0.09933002825461597,0.04682277229737798,9.811311755392769,-0.007935972992160837,0.002863479131844934,-0.009147479321057925,0.2472201159952657,-0.9379428455457219,0.41687635428491443
3.1659684429691706,-0.12103990338641599,9.237485153387556,-0.0020752328213059536,0.0022902165382139668,0.011582111938047642,0.3722145142106408,-0.35301176247453825,-0.5005067700906322,-0.03428613213616731,9.818411726575306,0.18981322030270542,-0.010217873460659008,-0.0015125810392798383,-0.01187777649821596,-0.08873885615450333,-0.5100083768451443,0.44022467721172953,-3.193482384139672,-0.05487188876677246,9.209006021787518,-0.006892492391290221,0.004089311818218075,0.002577305470717119,-0.5639127713734101,-0.44597742582675537,-0.2136227463939665,0.7989727571387775,-0.039299547214490374,9.895845998367891,-0.0033426292833412643,0.0036438709009747735,0.006354765167272411,0.39500438722305653,-0.6898417684677708,0.34962462383647447,-0.09758861380233952,0.056235216251857886,9.823835086439626,-0.005875479914304999,0.0018868384296149509,-0.009369313076054547,0.25650680040888035,-0.9395816985298229,0.4130639384499838
3.139915711543472,-0.14956699191155035,9.270821534407991,-0.0035553742005473444,0.0020376434310348675,0.011093474728057155,0.3658622331951351,-0.35237145177803997,-0.48967092784777916,-0.04757606905027631,9.790142248641601,0.1989102199825358,-0.009198839480276179,0.0004320250607448465,-0.00996141383353792,-0.09421626469462899,-0.5125331729740069,0.4517469505200763,-3.1934188659531877,-0.060250611054467454,9.189629617503135,-0.006494748740738647,0.0029450712041898257,0.0027117911787093137,-0.5693529923523527,-0.4464175403919568,-0.20496285673706155,0.8096251610866243,-0.049180434973191356,9.862441609116898,-0.004459029771701628,0.004675245154033344,0.005529989985955334,0.38873168237510036,-0.6905497145071927,0.35746067611397325,-0.09186666338122988,0.04601518195351606,9.815037997414326,-0.007463194604870788,0.0029139864313698794,-0.00842074992905144,0.2514997011070316,-0.9407053579423306,0.423269103422002
3.1515650529289982,-0.12663819035947188,9.23997122344248,-0.00478748089094051,0.0013249963813623312,0.01027597164789083,0.3651736104355313,-0.3501571324963533,-0.49945758625674114,-0.045588176854142945,9.799780968787884,0.192580186052279,-0.009626781169667654,-0.0007104829320714748,-0.01223681344609647,-0.09534704260745532,-0.5112913618198606,0.43711183632956513,-3.187180810846461,-0.05132214598594828,9.207600356386266,-0.004362069899119127,0.0024649803076391297,0.0033739955954550606,-0.5724709443613194,-0.4477969846262221,-0.21514105725946892,0.8040956060396669,-0.021116284700098298,9.876139600080245,-0.0026165719156547107,0.004319563052699304,0.0062815339244456925,0.385776840546536,-0.6865610505970644,0.3458039057645064,-0.09369577238281114,0.054652777157370644,9.836590576363365,-0.005915565885195955,0.0012447299648222245,-0.008757294420800265,0.2511079189399594,-0.9414357907318966,0.41227908050694445
3.153230549858758,-0.13762233187053857,9.24271827135648,-0.0038028374748126734,0.0009922923254238251,0.010190840253927315,0.3605179540514336,-0.35321951359782244,-0.4917527293714658,-0.054881259677852685,9.789572976599105,0.21323751453651224,-0.010195763875291114,-0.0008853327351698118,-0.01097260925884748,-0.10057953165950222,-0.5160067725895918,0.44642995811417985,-3.2002154914921923,-0.05655561729512043,9.177754032784861,-0.005106448158250456,0.0033454736215389235,0.003728754008336802,-0.5738159544837326,-0.449948110589016,-0.21020341330077766,0.7864830224544772,-0.048490969162425346,9.857436073138976,-0.002948414856468149,0.0033755536661054493,0.007300842778844095,0.38710082547753344,-0.6915922873657852,0.3531407990770445,-0.09537461455322005,0.05212048995877256,9.814823244682366,-0.007101212779225743,0.0010916836323427589,-0.009004060023735735,0.24813012819196445,-0.941622531347653,0.41664366092246924
3.151339117709024,-0.14341741863132013,9.22973921284448,-0.0036340355165469787,0.002432652508855886,0.01055720406336982,0.3742892258901698,-0.34695678707287053,-0.4994839121669567,-0.0539371252873059,9.790399713306837,0.19635829492574008,-0.008697222396267797,-0.002030694578771877,-0.010015527400871324,-0.08780046689979193,-0.5039001063899283,0.44291373423094194,-3.20172626657632,-0.05359504521847261,9.196614944073135,-0.006100891643665923,0.0021295986116387565,0.0013598481185608897,-0.5629646854529785,-0.43787471064486494,-0.21081172918152535,0.8145726348653766,-0.029444744173157733,9.85957898080466,-0.002450577919672261,0.004073218454809042,0.005748251323578139,0.3973788861759105,-0.6815121388712103,0.3499198093832085,-0.09677305149200512,0.04032536359904959,9.824071872596084,-0.005604716576114488,0.00252846134335012,-0.008044929728506742,0.2582983829772536,-0.9342424194331868,0.41478769412551486
3.154371810832963,-0.12351041781567311,9.229999156957401,-0.003313239838554115,0.0015787113503543102,0.010761465246167936,0.3670553951903908,-0.3545975060739986,-0.5008752034925731,-0.035023036590901516,9.815951935165282,0.18392982977990469,-0.010313808486379014,-0.0016735384353672833,-0.011012147139029909,-0.09284305896801347,-0.513227754815374,0.4414776551645987,-3.2031935282799386,-0.05084182915175839,9.215492590679188,-0.0064967392755799,0.0029460626081833996,0.0027128182566845834,-0.56755158613524,-0.44673852390368674,-0.21280842836863467,0.806314851064168,-0.050723841166745776,9.879520147165481,-0.00478992413815887,0.0037322337471045663,0.006548248010548839,0.3918257980206819,-0.6901196435025939,0.3495119111594176,-0.08176004526357518,0.06355492455592347,9.822061712717865,-0.006589339562911048,0.001785318448786297,-0.008888359756506176,0.253089103143523,-0.9409844233733405,0.4103455046332895
3.149770365846259,-0.1333620994298141,9.240488929043009,-0.003144461956997387,0.0030190720938180825,0.011128828765567608,0.364459127624335,-0.3445224653630163,-0.49459353346005036,-0.050219061692563224,9.764718465846435,0.22145175620518592,-0.009816788867046908,-0.0010193772963269319,-0.010505545024774158,-0.10145987091305977,-0.5033171455909711,0.44500046749353245,-3.215826919838995,-0.05824365197308766,9.176078826260687,-0.004042512534404681,0.003269831901328484,0.003318651193818899,-0.5712789196900968,-0.43969171483032465,-0.2123348732457399,0.8004016943431072,-0.04490702463016499,9.884637051695755,-0.0016429596398198282,0.003906368614199476,0.005384322972474847,0.3866310063143525,-0.6791736611545494,0.3505703333644713,-0.09413010567772516,0.038076967646133546,9.815050186774592,-0.005996001919189594,0.0018623319154005959,-0.008765472139135179,0.2473750594765617,-0.929887539194814,0.4163850039917154
3.1478780542631406,-0.13915316392912164,9.227508846807625,-0.004300286129537357,0.00040706198538421824,0.009615024063628946,0.3649238524670978,-0.3499060800190747,-0.4989746001173373,-0.03473195472215371,9.811871977673736,0.20935456425664675,-0.008393929931038066,-0.000952654898147779,-0.01170325223849586,-0.09996899059885683,-0.5086655494707003,0.4418014603306741,-3.1960691409240565,-0.05092208883851777,9.194983837226431,-0.006522856124731321,0.0034871524192827477,0.0031446987106471037,-0.5729849854907866,-0.4453604177681865,-0.21516134675277876,0.8043088172632638,-0.032235068195563404,9.871470839157354,-0.004147270653571924,0.0038127498586753715,0.006718549667985797,0.3849419759485769,-0.686774623360862,0.34926110459848153,-0.0926403962668779,0.06798682261611091,9.839905219173408,-0.007774986456940836,0.001632272116306831,-0.009135125359441644,0.2474741436730722,-0.9381922324044978,0.41541496996394406
3.1626715485876478,-0.13448273161590935,9.238429577354546,-0.0029226814389602057,0.000330974890556728,0.011498781232294943,0.3676352773994059,-0.35607692138917446,-0.4959759923367959,-0.0629746967408503,9.790598762066555,0.19609629909879997,-0.010454866548803246,-0.003099000317828946,-0.01195786487951804,-0.0935177576793181,-0.5137359287564063,0.44685437599560895,-3.196794422833194,-0.05197315994942775,9.194726152007435,-0.004366927561328195,0.0027947626789349644,0.001889573825640174,-0.5691964292256801,-0.448190768200403,-0.21031626771761586,0.8139794510373968,-0.0448282286645314,9.878225117639133,-0.004624939523737065,0.0034868792499201974,0.006014994555130599,0.39134279847418363,-0.6893207104133464,0.35587465226345355,-0.09902215552057234,0.05427183946527894,9.836400581246279,-0.0063567098849831956,0.0017827966085755256,-0.006950936964942822,0.25129088914632935,-0.941436641656425,0.41838421491820094
3.1646310769310624,-0.1588245828289422,9.230793173672582,-0.0056868606896411334,0.003496187573795294,0.010189076402964783,0.36714015547248063,-0.35069259896282584,-0.4903743039050285,-0.053580128919974504,9.796736210071169,0.20112457558778268,-0.010176550898849156,-0.0002651221971234195,-0.010064428797687668,-0.09451229521229569,-0.5098447116978931,0.44931443024278234,-3.197457137412514,-0.05303730560600396,9.194489404445788,-0.0064987602015698686,0.0029480414034385354,0.0027128333391684242,-0.5683842255698066,-0.4466573779056874,-0.2054670639246765,0.8032753655810598,-0.012051102966257166,9.88017527545402,-0.0018952399375646138,0.0021197976689998274,0.0061130155751120884,0.39110371091690127,-0.6878525525745199,0.3563565565073081,-0.08971860349168544,0.04493546438818592,9.818569288918868,-0.006832704451718213,0.0036361630990231464,-0.008910912175123966,0.25280769757616117,-0.9385342818268865,0.4186416262759004
3.1654984801041848,-0.12978199093774312,9.228480122229897,-0.0019885183559114495,0.002619256365129952,0.010179608678231665,0.36814680742250877,-0.35926403107070043,-0.5001130914307732,-0.04937380189947528,9.801491577063558,0.23486860502654838,-0.009841719294567881,-0.0016626585781216589,-0.011409719049105843,-0.0930734812308779,-0.5178612633621641,0.43780783158197245,-3.200073877426017,-0.06767313358203017,9.19694715955114,-0.0058325485511432846,0.0040166527733518885,0.0021692445452002325,-0.5678013494269174,-0.4538719276785936,-0.21686661834475407,0.8093629418390208,-0.05538902117441995,9.868186804713925,-0.003648444829239456,0.004511424314356555,0.005165906501653739,0.3914722061516134,-0.6957848923933788,0.34543778673868764,-0.09047274733630235,0.04327222242167559,9.818569760581127,-0.006550177509235269,0.00243044380348137,-0.009502389568715202,0.25318166566850325,-0.9480665563616502,0.41230381245252196
3.147180294614479,-0.14154936166847865,9.24124937433995,-0.0019929912523202783,0.004125775331905889,0.011408013577254001,0.37035956097848527,-0.3529673771866591,-0.49444669843653966,-0.03964311765457771,9.80467939617874,0.17006889843450443,-0.009531842480662554,-0.0013073542124248765,-0.009174855033573646,-0.09188615178400197,-0.509316318010392,0.44367482601863345,-3.1985666442873923,-0.05722162821148424,9.184390698992717,-0.004366050968801633,0.0024669631156262776,0.0033760497514055987,-0.5650500360331893,-0.4451994299865382,-0.2089698115603134,0.7957657647773118,-0.029388221954639943,9.876793655583159,-0.003170775959074315,0.004837294923111728,0.005869461614508937,0.39381745259272566,-0.6900891204381308,0.35040805423292365,-0.09466431911205266,0.04099567831984139,9.8275937118776,-0.004930848413236222,0.001991870955070367,-0.007915865968043731,0.25698326547878303,-0.938368929153725,0.4164861364976663
3.141925089304169,-0.13817274692392253,9.26222303854088,-0.005049218968899271,0.0017894002955270226,0.010596502743192,0.3644832283691108,-0.3506286753883319,-0.5016715864607586,-0.042841009891233676,9.812954680316986,0.19262564180924713,-0.009865712378645504,-0.0023009274269189485,-0.012314891523594227,-0.0987203849286343,-0.5132856591242018,0.43958140184723016,-3.1805664529959667,-0.06335060060873342,9.206073858560128,-0.006179183159723039,0.0037529054732234318,0.0026584886660741686,-0.5720231962148419,-0.44585131111903276,-0.21615041606621072,0.8044759147152537,-0.04366338867028388,9.866799552656975,-0.002299841236392255,0.004893850317332502,0.0075201451687407165,0.38676083539581213,-0.6892418839969281,0.3453071317527323,-0.09196827140375605,0.06079028609612459,9.830907837816321,-0.007504241744523729,0.0022728952036045005,-0.007810741593035781,0.24822472948968916,-0.9394281624694107,0.41127200933095004
3.1366689037849294,-0.13887941480809884,9.233456539131172,-0.0023374708415122283,0.0012462202383936455,0.010671118553483426,0.3677285747108344,-0.34826398026978483,-0.49207098892109574,-0.05171553134048184,9.771842742535812,0.21174596730133688,-0.009345658163328094,-0.0010115099888465754,-0.010902114016863083,-0.09232153961578371,-0.5083596036577094,0.450272409900882,-3.2137872924065953,-0.05766160814290526,9.182854269856255,-0.005459930963880531,0.003412500096699876,0.002734603437371121,-0.5686769416239242,-0.4403015852588057,-0.204563354269142,0.7975879954315876,-0.03980073647326758,9.855169833746075,-0.0030853539877211634,0.005434501984533153,0.005626824410851856,0.3935275864774369,-0.6863638421117592,0.3562413418159487,-0.09764196469582516,0.057303017232365694,9.818157622943644,-0.006631623310868626,0.0030480649797481087,-0.0095095773377147,0.25429410957191495,-0.9366080136816878,0.4201203856923276
3.156966711458135,-0.13499005976540956,9.236909066757923,-0.0033007610897731595,0.003809065717857698,0.0100553118094508,0.37058579592106755,-0.3529728163066999,-0.4937090344434316,-0.03627675581174585,9.819056443975038,0.19978437875379357,-0.009346636915818664,-0.0010135204655339106,-0.010902108815719997,-0.08990690040262557,-0.5124678813203714,0.4429158881604974,-3.2004354742882017,-0.04109504832129571,9.209455079385485,-0.006875369572531462,0.0035551767554348,0.0021495163359985517,-0.5630722572772906,-0.4493416086733443,-0.20993331190763367,0.8026495753021964,-0.023054674465425265,9.875577052994245,-0.003338673733194945,0.003647909568885141,0.006354558323008009,0.3961206574837957,-0.6890564965496188,0.3532356279516135,-0.09553011012165732,0.04626585454142916,9.818367410911282,-0.00670884180912115,0.001760792103850735,-0.008286508718827546,0.2581713881265155,-0.9413214858667092,0.4143026840867908
3.147020362568502,-0.13044812052910548,9.228956741265376,-0.00283196938211125,0.0006609191037053287,0.010097374032744442,0.36971025382979894,-0.35270767769151595,-0.4976374024966003,-0.0522801271451488,9.78145182386105,0.2079457336687434,-0.011267389380656044,-0.0017454160854473604,-0.01021001866958827,-0.09313176953418609,-0.5107853193885827,0.4395325635485212,-3.2082349373777728,-0.05237073169628509,9.190899189809898,-0.006926542739558221,0.004635392064839911,0.003015281426715006,-0.5678453255099424,-0.4475105362503924,-0.21572380812370662,0.7932554963202073,-0.04869892044627802,9.861927441638839,-0.005597518981268738,0.0024663611660816925,0.006862876645604257,0.3939009382865997,-0.6879299357868501,0.3469584135587964,-0.07771698950548324,0.060260765463371106,9.816612827142821,-0.004608179622542107,0.0014312596036338155,-0.00911936327346343,0.2543162709092053,-0.9385642196015318,0.4142624972268226
3.1873967952637705,-0.13855630762405263,9.212078518318698,-0.002242405218196738,0.003080471049372845,0.010503331516779795,0.36940817714929464,-0.35831699176516074,-0.5008164561769123,-0.03825697591505119,9.752280439246858,0.2419393164347423,-0.010389509493868547,-0.0012162745831853393,-0.00923835145548775,-0.09207434314091893,-0.5173691978244873,0.44072934053862894,-3.2164633583853157,-0.06144857479082155,9.181892912750335,-0.005461921498721784,0.0034134915006934505,0.0027356305153463903,-0.5673099326869081,-0.4523908234944329,-0.2159175087708373,0.7820505534992639,-0.03859647313216162,9.855288227178912,-0.003899786799640078,0.0027268512326637266,0.00589353699167769,0.39399332463155107,-0.6959821483116796,0.34729309283548465,-0.11114104880297333,0.05125675814877091,9.897801401039377,-0.005647972840164972,0.0037932267528752984,-0.008665158198095978,0.2566139811740336,-0.94666571771768,0.41355732007677326
3.107037416985576,-0.13285631416881946,9.298678654527322,-0.01238624988584483,0.004663123714894448,0.012368755838199649,0.3751014103317297,-0.3503953103785173,-0.49604343387035144,-0.04010637057270483,9.842384421248331,0.16885069515291337,-0.004120684870269852,-0.0014822459282224083,-0.011372781375204451,-0.08626420518513549,-0.5097453273449759,0.44386343256765387,-3.176063949557893,-0.04392990408937898,9.229786404701217,-0.004908941014501011,-0.0016310435419780963,0.003241822956350537,-0.5609529111232554,-0.44518946845576396,-0.21173630649801056,0.8430623667742242,-0.009496852851963139,9.894733312011494,-0.004058871772597,0.00441198603718783,0.006475768613938807,0.3985221952736374,-0.6863507795041849,0.35286286326174715,-0.11166867843235694,0.015646932955324856,9.767752159812577,-0.012676347374994004,0.0003424340551269776,-0.00891030337005267,0.2606306904143674,-0.9401468739977324,0.4148145700254778
3.102558321609064,-0.12114558930776227,9.24379533576072,-0.00254342421280927,-0.0024229020311708196,0.010998309598344821,0.3770800899486043,-0.35483811458585013,-0.4913529452231985,-0.06276487122745218,9.893020690525237,0.1398138024852117,-0.010608250773837058,-0.0014286756006218785,-0.012337836745052722,-0.08369180726512242,-0.5141329455417898,0.45261857976802117,-3.1657868697635956,-0.07529892486588897,9.226609681794741,-0.005114390620483085,0.0033494517136087626,0.003733862048779785,-0.5578810672830365,-0.44998329079156435,-0.20709768419886931,0.8301897746883917,-0.06392716810457769,9.879126637686298,-0.0024618188750239363,0.005142245502762162,0.00805424260969945,0.39971568558598103,-0.6911751518327556,0.35702480157335936,-0.08490493149366368,0.06194161982737633,9.772878804350702,-0.00703670042825423,0.004228315780981926,-0.008313278639580535,0.2632031023119939,-0.9421449526017304,0.42240986046898255
3.2180441003496987,-0.14591885328948118,9.187119288577087,-0.0026898735806935277,-0.001633144762648045,0.009931031734121194,0.3689071083100797,-0.35244439914349845,-0.4944819718318084,-0.05700595463331347,9.72377751846101,0.25538494210622664,-0.016310988420487508,-0.0009958900287043437,-0.011465599975467911,-0.08944626338388972,-0.5109951968632317,0.44169450246110925,-3.2192488059177893,-0.03407898903401431,9.154974949704357,-0.007302152361541161,0.005242537886565713,0.002451944615353691,-0.566508196624992,-0.449880562791826,-0.21108028978758142,0.7576745882586664,-0.039115114715774,9.850342603002234,-0.005071616067279993,0.0049756200083451345,0.003103035932544609,0.3938738362163089,-0.688848288650274,0.35210177184847713,-0.04972855891006559,0.04271730990061718,9.880824291545398,-0.00448752588094753,0.0014617638664074881,-0.009725206623341816,0.25696021109896905,-0.9393444645006988,0.41697452085693276
3.1908020493410865,-0.14757706316600547,9.24133004173409,-0.0014830877283162577,0.006939360054449675,0.011276676585981613,0.37229961152008734,-0.3525257868212062,-0.4934229387747203,-0.04392345799111687,9.753465883810085,0.22256380905895617,-0.004689635858919853,-0.0016600955561689992,-0.01010858388970092,-0.08627946828700642,-0.5085248784966616,0.44362216995892684,-3.213035694706052,-0.025385449092262063,9.17297611862062,-0.004988089445952305,0.0003200753590108087,0.0030549873066402972,-0.5604279457062231,-0.44638997643421235,-0.2105113261289426,0.7950478595476763,-0.014136844403397117,9.891237077437784,-0.0023660503448966427,0.003233705463407721,0.0054573990821032625,0.39905745387704106,-0.6860877653721014,0.3540592656998117,-0.10744041933426061,0.04458300011066136,9.857996417982175,-0.006237054563697413,0.0018123184555015471,-0.007558789796343708,0.26259669578183675,-0.9374954906965955,0.4184947926390616
3.109432183153214,-0.13154918856259445,9.288835725712591,-0.0046421842290699546,0.0027729225894654436,0.010628761352867342,0.3678494258632432,-0.3529072216896397,-0.49157633538991874,-0.03702727313266366,9.894014375842552,0.1337611717512837,-0.008853471513254088,-0.00037040745247669804,-0.010392492746360138,-0.09228690775918047,-0.5100721465478961,0.45197750798714525,-3.1495650794406873,-0.08201361092854796,9.257375608203668,-0.007225137298515595,0.0029645878804366145,0.004125303348454162,-0.5684300704496382,-0.44644082025246185,-0.20766646066692712,0.852589210809243,-0.037945061516144185,9.846383128593727,-0.005517068571048339,0.0016267856675119476,0.006570187879682616,0.39349087568588087,-0.6875989704911085,0.3550351941449277,-0.07502059266579744,0.050698219745186915,9.776829559661747,-0.007571799930387271,0.0010471332098690386,-0.009738771526993366,0.2524988939831279,-0.9392585093358186,0.42376623590554396
3.1538974766129377,-0.13563521467196654,9.2119122808523,-0.0017082762897161962,-0.0019687766013573743,0.009844828328210764,0.3659425149882575,-0.3626302668380375,-0.49308223909104915,-0.05979229079185761,9.75587645178998,0.23500936182114554,-0.013341569240075906,-0.0008019894115351671,-0.009896889268656379,-0.09343709089920212,-0.5193552858838634,0.4490397243304702,-3.211914320136225,-0.06416319604026183,9.170154081995937,-0.006339422240086061,0.007657171974838549,0.0022888313633051536,-0.5695093757656141,-0.4586528858160481,-0.2070046844920949,0.7961017402310444,-0.030219037818499328,9.892910024079034,-0.005648037006619988,0.00512252632906667,0.004946180645697231,0.38904819496489806,-0.6986062432392243,0.35729793223405687,-0.08365709427807409,0.037004121032661985,9.804085922851888,-0.006197912492091185,0.002457445020262299,-0.008170819708742083,0.2500942015207708,-0.9511794098005412,0.422284348841136
3.1725842675013185,-0.14927449333727527,9.228149545208833,-0.004396124308541826,0.0023128960300817175,0.010298847606304304,0.3689931327655481,-0.3512252477079054,-0.4866653162445285,-0.027516269053082205,9.765748888023458,0.23472856913245968,-0.009395506685544102,-0.0023010681143605877,-0.012712468668790064,-0.09252119872398754,-0.5103202794668159,0.45271228604775826,-3.231396729352452,-0.03848809089527665,9.183395709423312,-0.0038962071979304286,-0.0006274947723316155,0.0036954980424147997,-0.5678473164390979,-0.4466218040587235,-0.2030364127595,0.7657681627923827,-0.03065835223234635,9.882678985245246,-0.001074752186017321,0.0048295302619928634,0.0058480360966008185,0.3935128313411078,-0.6875243148121567,0.3616312493659521,-0.11093874666436496,0.02825006448419415,9.845438718960734,-0.00816411781543423,0.0009700999125335324,-0.009863649043605099,0.2551428055560835,-0.9400397534563902,0.4264792599044176
3.1368216753558857,-0.132231422090385,9.24810074172716,-0.006543895115821333,0.0015461785739452067,0.010097507342438649,0.37005412752015304,-0.35344805092771947,-0.5025131226850642,-0.054254523344684474,9.820914142009025,0.17576539749841674,-0.007776971902274784,-0.0026551989830829,-0.011717861468350957,-0.091852380957451,-0.5154131963750674,0.44048734649122834,-3.158251698916919,-0.05099919575174691,9.209227526971741,-0.004025368287613255,0.0027336971038309987,0.0028908865929993762,-0.5661106015915578,-0.4499333197013064,-0.2157277166990982,0.8266885684112417,-0.06335234484554254,9.872978646321169,-0.0025501840722442644,0.0031092870187755224,0.00824773523050696,0.3924031177869988,-0.6910689207412051,0.35145444394206876,-0.12097875874953329,0.05358110094139287,9.823084962937779,-0.007466060841679486,0.002919039005392601,-0.008424781824672777,0.25404182770692346,-0.9412453917754052,0.4123082795565594
3.130429379947978,-0.13301650800769413,9.255856525473533,-0.0010505200440907177,0.001560428517658406,0.01201331742185488,0.3695570778539237,-0.3492851911523715,-0.4878741754169001,-0.056811886183299264,9.820859176244154,0.1779701750555332,-0.010164025314153747,0.00033100279917969177,-0.009150234563123343,-0.09203217362120858,-0.5088538380614289,0.45441975612170366,-3.1926605733955995,-0.041525648458172915,9.20498425019703,-0.009492898925103656,0.0071416417588588505,0.001174011918972414,-0.5661557034503844,-0.44366615482395255,-0.20237339383261063,0.8026849372427682,-0.025737134231395717,9.87491139156596,-0.0026649063075768887,0.005539060886894115,0.0043184998394253426,0.3935570026322916,-0.687021113092276,0.3628446569339787,-0.10224636941418642,0.05718405737873053,9.79977477126762,-0.005649897890281235,0.0037972632999363517,-0.008665179874668047,0.2551735329264211,-0.939307914678826,0.42477003849325823
3.1676416591904926,-0.13597606816711535,9.22314764516191,-0.0025997329384274677,0.00020222449860503482,0.009761124878876369,0.3693820158703888,-0.3622236155576495,-0.4934877725890196,-0.03539120131026612,9.76555195764933,0.24173981904759675,-0.012127834946717172,-0.0016743692003568626,-0.01027253081212619,-0.09001721750243523,-0.5202944686449419,0.4482715390068801,-3.214905812972001,-0.04956542196167642,9.194845525464558,-0.007602635726920364,0.0039025348739084222,0.002076473347212203,-0.5656265731019218,-0.4551853119239562,-0.20639218242866433,0.7682326736569864,-0.03788194296924477,9.894643601288564,-0.006151895199289659,0.002989057393765288,0.006447750565409143,0.3944515566863464,-0.6992770578759754,0.3578204059944569,-0.0787184717913098,0.04317481892652755,9.829422800568684,-0.004765768286433281,0.0007645875525944723,-0.007905473579390698,0.25594133964222404,-0.9525100344415288,0.42112351472144266
3.150471929838819,-0.13054244086738115,9.259399726238144,-0.0038792731775613666,0.00512831461672487,0.010171678072262165,0.36851084354997077,-0.35658612649813065,-0.4922915577705432,-0.04770727073633314,9.751490105666976,0.2116677342226517,-0.006311054918289168,-0.0013159980154348792,-0.011102184471612313,-0.094705075528777,-0.5169226780546166,0.44685909136542357,-3.201121541002876,-0.056352208730229184,9.176456971398528,-0.004400108529285402,0.0030100188079857136,0.0038120630511682416,-0.5679461034355382,-0.4518455872569808,-0.21078339947866628,0.7877534106051948,-0.023451101833682236,9.874979671490097,-0.0024425452049707226,0.004077319629887834,0.005749881003760501,0.390573064754784,-0.6952147198274103,0.35353150288107393,-0.09056191607804268,0.04848568758231716,9.825492062145944,-0.006994310847802559,0.0029685657041684144,-0.007697062064472817,0.25197359529378743,-0.9458454483375327,0.41521954479876616
3.1441591701222382,-0.14474311063868317,9.256812938305757,-0.004928249665730249,0.0010072564347850099,0.011649158626562428,0.36800523644363964,-0.3541323526581424,-0.4891301883843093,-0.04042764948049736,9.855785327637877,0.1713034933105303,-0.00949044093387384,-0.0024630127271471035,-0.011847851163251637,-0.09495937907930185,-0.5132687219011732,0.44979948915023177,-3.1788782080226543,-0.06192940463489177,9.238267647028,-0.0046966090740818145,0.0016660207765315238,0.003433562432433354,-0.5678176841518897,-0.45028940665506567,-0.2034793587187985,0.8132662930788784,-0.03145144275025481,9.89201067730604,-0.0022927974092272975,0.004896941825433703,0.007521826559989178,0.3906417850653168,-0.6942150079926854,0.3554717584741418,-0.08884077227013905,0.04675743238401165,9.794699761274428,-0.007422690110396279,0.0016582704814860627,-0.00780855483013709,0.2526965821959261,-0.9429257464470392,0.4215733199608242
3.167515297356992,-0.13740568621241522,9.23672634181997,-0.005421724805709447,0.0004229310410097304,0.011075438206486697,0.36866890730125074,-0.3502410880115179,-0.4925353762561731,-0.04772001010857619,9.769912625056516,0.21812344247584883,-0.010881670592414818,-0.0005455820918302255,-0.012755325017389744,-0.08914550262168186,-0.5110051002951383,0.44755085472902756,-3.2174974771484433,-0.05022446714304914,9.203634130032146,-0.004130544145670104,0.00522495585294432,0.0031399425783688027,-0.5657124579978311,-0.44762135993270075,-0.20672895246687595,0.7800766687207369,-0.04049822338541981,9.87156937504555,-0.0027774764228027994,0.0031342574031031465,0.006767301622646038,0.391323290309887,-0.6903051521556488,0.3551543093676473,-0.10390669760417875,0.04134121445006569,9.830768320922978,-0.00762577080445575,0.0022464058420721554,-0.007209909668686176,0.25520866645732465,-0.9400437418328691,0.4198875901285155
3.1401377467069462,-0.14365509942479662,9.241207980237458,-0.004548426047070494,0.003105794585384868,0.009228426165263755,0.36134647814100634,-0.3520188093045011,-0.5046772023213774,-0.041403568434209226,9.789432680615755,0.20329009890339061,-0.008024524830138949,-0.0011228139493448456,-0.011231171981838765,-0.10118149192579994,-0.5128204342414602,0.43814117576880335,-3.19505289092233,-0.03325264571609382,9.200788970530448,-0.004002402482098312,0.0018637410309566259,0.003943574107433763,-0.5764183400924416,-0.4488472482468599,-0.21773598505597563,0.8161123418381893,-0.03950124000449916,9.887133726657817,-0.0005085225072879731,0.005750672575831067,0.0063118526428589915,0.3834347113954414,-0.6912091221649374,0.3471748560697785,-0.09762759811689632,0.06182245715836703,9.825136381669713,-0.00646749571808904,0.0018227992457699011,-0.009500195737253027,0.24574921377186568,-0.9423133825402772,0.40929592302881684
3.153106521442005,-0.14297283445862155,9.239176254274824,-0.0013746698660355855,0.0009100391067586719,0.010575460159424913,0.3679785252348302,-0.35071263090349647,-0.4947493764601905,-0.043751028078696116,9.834583033512292,0.16813435580875974,-0.00931108642721171,0.0002178629612630705,-0.009082739139439355,-0.09039282980946091,-0.5105253805735668,0.44536685887844496,-3.1837203882397414,-0.04938013743433607,9.204313144167934,-0.006833220827046082,0.0024829035856073238,0.001286830569034621,-0.5675424109143058,-0.44624145613148225,-0.2120826133473266,0.7884075287945015,-0.03316669191041412,9.870267698564101,-0.006378198662311613,0.0030150374450705047,0.00496726524648212,0.3924885364745874,-0.6868813073842065,0.35457881188136425,-0.09765977838754494,0.039796041158491516,9.812739765856088,-0.006198836409306359,0.0024604619101646465,-0.00817283086569683,0.2535463966498033,-0.9400147258799154,0.4152317315437347
3.152301617777809,-0.1309882731871997,9.249753230885503,-0.0026808922839121623,0.0021027048875768206,0.010453307262193184,0.37178273638032844,-0.35471100417247625,-0.49441144634556017,-0.04912175551498986,9.780037428354941,0.20691805716414244,-0.011388979850599914,-0.0025756638388028997,-0.010248611747554506,-0.08986839881898716,-0.5132066038432507,0.4460880966439121,-3.2110426023938805,-0.0514809413882167,9.182890161381618,-0.007310126965822789,0.005249515580706864,0.0024570158549481066,-0.5621388127272143,-0.4520617235393867,-0.21358173340020653,0.7972021668177809,-0.04805823614761941,9.860258380042302,-0.00427426010225469,0.005879806766508024,0.005045035873688134,0.39400980556087034,-0.6924813228615762,0.35458293745295605,-0.08454110099676918,0.042852143531557245,9.829254813291747,-0.003894000623195877,0.0015477745608936037,-0.009604322675504021,0.256879996871413,-0.9449609666588576,0.41453599544490716
3.155835175016907,-0.12444794415865441,9.239632709138265,-0.0052190775235501485,0.002588721893624922,0.009513651389484516,0.3754486889185044,-0.3567524569348497,-0.49651965046443464,-0.03563839943087086,9.804268275211522,0.2235338407845998,-0.008499382882731457,-0.0011537286822013574,-0.010831615841627574,-0.08397945413002883,-0.5155874343692944,0.4465139668784291,-3.214267398012581,-0.06408497924975723,9.194807100242015,-0.004376881986434743,0.002801731909712587,0.0018956844101593812,-0.5586387182457685,-0.45344810038742234,-0.2102143945612741,0.7861246895200534,-0.03563040743447016,9.870441674607173,-0.0033327199139514003,0.003651967803067207,0.006354270622228192,0.3997133499827756,-0.6919099185091652,0.3567892756168375,-0.08770804399284765,0.05085344467649577,9.829077322312836,-0.007060832005514349,0.001744784742652423,-0.009625082835576615,0.26202582484553305,-0.9435912461447726,0.41531861807048015
3.1423294487922617,-0.1418689687649228,9.231465923307061,-0.004937100106710905,0.001008469091246599,0.011643943345289662,0.3619948946027076,-0.3432430471674977,-0.4924559606084035,-0.05106084940969787,9.780972019432552,0.19212911482923703,-0.007573584975101938,-0.0017381654667524536,-0.012536918418618643,-0.09851727405833277,-0.5045060355389585,0.4449694120250049,-3.179723559305101,-0.06247488064653735,9.195767549532466,-0.005419872730755545,0.0020093963523037895,0.003358489821595512,-0.5712343367921395,-0.438435321694716,-0.20942063429637328,0.8190220524400853,-0.04375830716025013,9.875843230767707,-0.0024326189591430377,0.005518150640925222,0.005799685293502951,0.3878330243918562,-0.682035703439416,0.35544261953227685,-0.10475477202858627,0.054190540296132086,9.81238415256887,-0.0067159180798334215,0.003672739592978247,-0.009518797940241014,0.25144306387888044,-0.9331369347707286,0.4186247257543328
3.164482573313061,-0.13457034760105768,9.247934986913481,-0.0047618024289020275,0.0009432620772450499,0.010781950439588102,0.37011323206437247,-0.3585781647957968,-0.48980914191707603,-0.04702472997429809,9.830834936573977,0.18839809364854918,-0.010326958610305716,-0.001745701723254334,-0.011003173058461792,-0.08491398283723255,-0.5180422843281524,0.4482268763258044,-3.209096428506245,-0.05409443173959022,9.22218313881248,-0.00477668925999856,0.0036181789795301685,0.003250733238132658,-0.5629517896697571,-0.4524603677009786,-0.20550156939671485,0.8023178420406146,-0.026438854661960984,9.874301854405578,-0.003637496012120595,0.004519542686897353,0.0051663706470906085,0.39805319001327466,-0.6955853608125407,0.35714347012586345,-0.08043437035379915,0.05008140666926778,9.832834649169527,-0.006708698725080247,0.0017657882108740345,-0.008291510562644478,0.25774413709001803,-0.9464377349381928,0.42309095115091405
3.1672245527419753,-0.14548364307783201,9.214135313192452,-0.003917779988119329,0.001396174290565194,0.00963268474076965,0.3687220685991263,-0.3526839841714563,-0.49717307333858,-0.0518963616262422,9.768033044267009,0.20707436966150786,-0.011750649166513045,-0.001827435970591771,-0.009804489733734927,-0.09163292301961408,-0.5117519479655123,0.44195809572105954,-3.1968301643738513,-0.030354331717772104,9.17739043081008,-0.006244191844019709,0.005173894799955499,0.002046873424047318,-0.5673268719427876,-0.44674815843502524,-0.21378999635278878,0.7931554577386453,-0.049900577231126425,9.877394148859628,-0.004693664717083723,0.004340535457966988,0.006304042866425853,0.3941399730638764,-0.6900639080316419,0.35234946863491196,-0.08950754907851853,0.04580408885455316,9.82908539882563,-0.006708680099306841,0.001766788037311534,-0.00829151098150254,0.2556844651211565,-0.9429838498551427,0.4157439151353653
3.1422458190713765,-0.129897938598486,9.255364137127847,-0.0030753282858303854,0.003353535251045068,0.00971389557563646,0.37911111616517423,-0.35195580363571816,-0.5018066910157054,-0.053192636295386196,9.799340755570572,0.20143938697165037,-0.0073768035074570585,-0.0021690075563595996,-0.010344636012582762,-0.08286892554692024,-0.5111657078928049,0.43992130366594745,-3.196119492465475,-0.0617894831525725,9.203509725071408,-0.004275846206976692,-1.9403438262399886e-05,0.003131228468327828,-0.5566508583945011,-0.4456933203763398,-0.21669901962302085,0.8000679738281578,-0.049012693731709536,9.882618710583227,-0.003801471919849503,0.004767918306055313,0.005700548944564757,0.4018960300775718,-0.6900017406956592,0.3508147182243753,-0.10612034665714234,0.03982445572712603,9.843358752680732,-0.005772419448375713,0.0037727940270330523,-0.008061358938888503,0.2645053201225946,-0.9429053218920456,0.41290185472034624
3.1456354433924707,-0.12308107989578031,9.24530501289215,-0.0021963396178331716,0.0026862440728779038,0.011022812076056852,0.37444924813533553,-0.3516001169041242,-0.4904418363566551,-0.04087883979588093,9.837477924122144,0.18856669480421104,-0.010214759198441394,-0.0009675696572579442,-0.010958599749795166,-0.08722991501193726,-0.509027882632688,0.4458274182130263,-3.2031000374536993,-0.0533743090410924,9.21099712617866,-0.007314099072389244,0.005252510732146661,0.002460057472491028,-0.561605816091847,-0.44588435807839366,-0.20805178949922362,0.7935639681382616,-0.04555353569171221,9.870955200878162,-0.005342349704556484,0.0028252150836401355,0.006082708390626458,0.3953216391444063,-0.6890147006221522,0.35766525409766314,-0.09097250829453589,0.04276284709271447,9.829085602428496,-0.006198807792498178,0.002461461131569306,-0.008173831234460215,0.255742710419537,-0.9373670182662727,0.42037933090824786
3.1592162194841205,-0.13609124242479007,9.232731632570326,-0.006036388982618144,-0.00048560584531075256,0.011886383134222382,0.3627815677607792,-0.3571819906875428,-0.488277001780255,-0.0533986781070509,9.755564854680568,0.21449572018739158,-0.010123677406377733,-0.000818668790763041,-0.011822207669577943,-0.0965952740593876,-0.5154956257931004,0.45493785082203436,-3.202252118392489,-0.06250852557087767,9.172430931815555,-0.004751482896322981,0.0034099005446205726,0.0013333152521990059,-0.5738870402570324,-0.4552478428581502,-0.2042742850606118,0.7907683085098571,-0.030927775112630077,9.88626245666506,-0.0010686466861965262,0.004830623906587245,0.0058507796004625716,0.3884380934214716,-0.6941704224464028,0.3614243209700682,-0.09419850882354891,0.05060522420965817,9.828916617984106,-0.006032821017957321,0.0012291599762503862,-0.008163426750946967,0.24746492999101688,-0.945756667804654,0.42665001745761
3.157040775479212,-0.12900099602963402,9.2301635394183,-0.004664690004346889,0.0027794643700503247,0.010614211604210977,0.36581199905907813,-0.34870711693867157,-0.4940704655185539,-0.04034937911480787,9.802447496179898,0.21228306502754477,-0.007576469251201934,-0.001748198794740646,-0.012535911800090926,-0.09676327404805439,-0.5074208828508152,0.4464112702401232,-3.2106547418315436,-0.0478633127502895,9.208568366073969,-0.004381113079436632,0.0021410456757413846,0.004866816988502691,-0.571441665749121,-0.44185442306794953,-0.20937388493114265,0.7867279606834156,-0.04044942801757928,9.876145702966415,-0.0038939443477933986,0.002733885743745992,0.005891217204995098,0.3890708296487621,-0.6856920361513572,0.3549470156122315,-0.08981956378590103,0.05058900998008344,9.841689017815618,-0.007781946904124236,0.0035472154545498043,-0.010373415536861245,0.2501481463374454,-0.9370193920078451,0.4188581488955281
3.1331238538627986,-0.15341370424793369,9.240000223607726,-0.003186739393580575,0.0030250879930163194,0.011103800235590974,0.37242281203419914,-0.34984192668729747,-0.4958641836241644,-0.057986562272451254,9.809465498172953,0.19211297131707292,-0.008709369982302779,-0.0021058407036664726,-0.01000956954329929,-0.08993766253219362,-0.509781518062877,0.4426779004713856,-3.1888123219809477,-0.04839786249947847,9.189452049701927,-0.00507520001676861,0.00227515987597401,0.0028722599688311345,-0.564140964939202,-0.44474086491776715,-0.21216828882672936,0.8069999864753579,-0.04406636998853858,9.881441412368329,-0.0029384651738979016,0.003383662255510398,0.0073013473525386716,0.39491021103347973,-0.6871071135028047,0.35399431044627877,-0.10407684736293964,0.04439356576745625,9.825163493406023,-0.007300987993319027,0.0016897541349431885,-0.0084173884480196,0.25796882428874673,-0.9376539534994627,0.4169835755853092
3.147109130660397,-0.13545925937338144,9.261600152893287,-0.002445729704208011,0.0016429397753440682,0.010119129760436267,0.3707203607057926,-0.3466262309566214,-0.4929761362834654,-0.04767588527516256,9.82442769639741,0.20763869533077298,-0.010416362182769156,-0.0005517839220915936,-0.013148867418173235,-0.0870248818282068,-0.5077986440098644,0.443141918855043,-3.1850262561673004,-0.05117066095969269,9.219696354543563,-0.006195030639866869,0.00409667062925817,0.0011821108774070868,-0.5645825596272672,-0.4454545111039434,-0.21019716091296306,0.8140919630736538,-0.022872116577371607,9.87852724022646,-0.0050829449532859726,0.004614900911566015,0.0053576954167152725,0.3944321705204775,-0.685150547730101,0.35472435814678377,-0.09954284382265872,0.04437946446846224,9.837937441231581,-0.006467381250856316,0.0018267961313885406,-0.009504197212306574,0.2564661007636787,-0.9383580695276075,0.4194111094421517
3.1743023588252717,-0.11936014555780364,9.231388097529143,-0.0037519041658740033,0.002837604981129713,0.009996976898101001,0.3674909274428245,-0.3519222655183657,-0.4959817962311051,-0.03996765195775795,9.759714816255759,0.20835308870719776,-0.010400732949536848,-0.0012824149030037021,-0.009230383260134572,-0.09160109616368727,-0.5129760394821246,0.4439082741770474,-3.2120602189485177,-0.0552039498546158,9.188628191401309,-0.007663654378418479,0.0053225537361059885,0.0014637914108271966,-0.5648130747889999,-0.4454479312096469,-0.20945950688484252,0.7764314062966791,-0.04395564848624438,9.887995210626485,-0.005332383145548415,0.004266057781990037,0.006133511799107706,0.39272597784062274,-0.6930021848861481,0.3529303237243181,-0.09058830346247755,0.055731381096898215,9.832521766776914,-0.005958500085913966,0.0025224882777721796,-0.009385527934786898,0.2540076783500603,-0.9412433237731593,0.4157261083329601
3.145821001465208,-0.13892537577640574,9.261986192084546,-0.0058352643841383415,0.003185632906916206,0.01155407315839653,0.37072522244717027,-0.35688329244753786,-0.49321434403948683,-0.04887043330788088,9.794580046780306,0.19164786644881585,-0.008413050361580729,-0.0010248881411513686,-0.011691220291810158,-0.09279271278998957,-0.5139700797947857,0.44587080129093004,-3.2108518037450713,-0.04294803077320458,9.185721718252287,-0.00393119317012214,0.00024634760931227767,0.002643998887021544,-0.5659900651558205,-0.45034814505169163,-0.20986332117216305,0.7859207036159896,-0.016022233622085852,9.878505837706607,-0.002992803945256041,0.00460009005205237,0.005337590566750948,0.3920648327979585,-0.6922536157473855,0.35490296623553313,-0.09126959535164368,0.05406078207397505,9.832524970893738,-0.00746793593662187,0.002923072527289456,-0.008429803250771471,0.25543175255365,-0.9437124750549398,0.415252806515562
3.145357185832729,-0.14099085041279222,9.262112218214822,-0.004529518029007659,0.0004865668971122527,0.010445701320616492,0.3683787003686165,-0.35682694191575814,-0.49717902205320086,-0.052347731173878774,9.825350295316554,0.1955803479260475,-0.009970889569651524,-0.0025289975031449656,-0.011444315393194167,-0.09182119844505594,-0.5159068908587785,0.44317112412875237,-3.1813706677002793,-0.06225016299041149,9.220739935259694,-0.005877663765031958,0.004238869669816728,0.0040988837001723,-0.5679281712502227,-0.45035945993153953,-0.20909283448159977,0.8101198146432247,-0.04868649819784275,9.87013567574781,-0.003820691412124054,0.004397122105771974,0.007955644682881013,0.39010368660850403,-0.692275573915952,0.3547381376505683,-0.09040052633611612,0.04212246883797738,9.810908794008695,-0.007059699135903278,0.0017497628340530343,-0.009629074728918309,0.25249575553623377,-0.9441459794637564,0.4149797214715567
3.153727720921292,-0.13966363799688278,9.231141026898792,-0.004917981671151335,0.0017382542637034062,0.009708433570712448,0.3737933557384983,-0.3545151211937098,-0.49656077034514273,-0.04633297289718242,9.760086025139607,0.2058984522162535,-0.011301487967191621,-0.0024628096386932518,-0.01110926156011202,-0.08817162341075077,-0.5129424314358221,0.4450951655520645,-3.208541528957214,-0.06387308490211396,9.199333016541091,-0.005424764285913894,0.0023441905364806905,0.0018750064455749192,-0.5639154257813507,-0.44843636704932277,-0.2150564053555321,0.7967311170209725,-0.022785204311435117,9.878775313991964,-0.0038839777887853316,0.004174728442095894,0.005942020613476345,0.39541063987736835,-0.6902816740547107,0.35352282314582795,-0.09619062864854055,0.04966945435539027,9.841540913227117,-0.006246083145037981,0.003726302233782274,-0.008792099806518445,0.2574203514712674,-0.9415519266509403,0.4157603929011418
3.153747617775069,-0.1506949733630208,9.270491097053176,-0.0025239388369633713,0.0035423490971516845,0.010812384085907076,0.3679171637725904,-0.3551065677971041,-0.48644498446884366,-0.06981128611890977,9.81890851271668,0.19816600289488245,-0.00913752721101558,0.00048555405297906045,-0.010801935369626382,-0.09199582263493664,-0.5125151041828403,0.45416758753919645,-3.197993977358285,-0.030068063106789722,9.20255559108415,-0.004359036331364866,0.0016019012443425542,0.004433991504864991,-0.567521319843186,-0.44976236181085066,-0.20056097356109348,0.7925128303469019,-0.0322955884373103,9.86866660896542,-0.0010655789032019537,0.0048316765144615645,0.00585264527035865,0.39167260231040607,-0.6897144890511837,0.3639300579524301,-0.09044961451286285,0.039640076740103086,9.832692896763303,-0.006587959133061126,0.001799290137861687,-0.008900355018813023,0.2536336670935665,-0.9424530691506341,0.4264656415025953
3.1485476897701266,-0.12456200469375898,9.22632645497068,-0.005376160177289145,0.0033867366290735224,0.008439110779781364,0.36825528322223355,-0.3573132033332022,-0.49254137609410875,-0.044264214546111784,9.779090581390589,0.20340278625541164,-0.01118932027230076,-0.0016816777478486085,-0.011064681549699931,-0.0912981761371317,-0.5154225974421391,0.4473182914212562,-3.1888295007580347,-0.059670333075044116,9.208626229137113,-0.007320072427813286,0.005257497154937135,0.0024641139010596973,-0.5668577234847963,-0.4542222249231865,-0.2063799691696464,0.8069000028442279,-0.05132696770758231,9.87038655768653,-0.0046112365317901634,0.003502979293352427,0.006011250678372011,0.39214891481060493,-0.694678210176088,0.3563942278059676,-0.10515369673137066,0.05405374402548326,9.828612062596404,-0.006913711747698464,0.002355958650547663,-0.007695886089765485,0.2524510631635039,-0.9453654382867946,0.4171771228392485
3.1471494353056877,-0.13967928086654038,9.252529855867675,-0.0025640885175383134,0.0013136589257314135,0.011505866690565919,0.36531143567970753,-0.34771785529751487,-0.49261765007653496,-0.03666702554840988,9.83013375568338,0.18107685096819753,-0.010199379294117992,-0.00036040712842686016,-0.010047409801361554,-0.09673789656633745,-0.5093748089804105,0.44689488337425715,-3.1950136189087748,-0.05531806697827109,9.196964449876615,-0.005027097592991572,0.0011978878072605164,0.0020045180447566297,-0.5694393938069578,-0.44376943902197613,-0.20792399839577178,0.8065306019221512,-0.030117658224340024,9.87912827331922,-0.003153782449339109,0.0048484950206178785,0.005871647579451977,0.38890577246018965,-0.6856715979151625,0.3569081590039808,-0.08982950225824053,0.056860837820454785,9.814362754957928,-0.006671433104712549,0.002415949334034821,-0.008906562420188958,0.24892384859710612,-0.9379743723849602,0.41738242076259663
3.152903510582091,-0.14234488676409074,9.244945688153782,-0.004537369146077459,0.0004887558545185909,0.010441509849964137,0.3623551868954401,-0.3522872229674003,-0.496105279389252,-0.04044512318465403,9.775985803537292,0.21010548367171364,-0.01112026172650765,-0.0021700203387008824,-0.012835478949520876,-0.09600876768134277,-0.5115582033267053,0.44419802998602226,-3.1957107325032186,-0.056366720441084414,9.19671618277978,-0.005529852472325158,0.004836511533428831,0.0021290488067043523,-0.5716795600576587,-0.44603179289589334,-0.2112706014673046,0.7972106567775512,-0.053565352939105526,9.882188727544461,-0.005015703026478377,0.004841333243152463,0.0073711126418555374,0.3873517755377298,-0.6903633387013624,0.35360472821764743,-0.07988760313765134,0.0381508987342499,9.82745506080016,-0.006913693121925059,0.0023569584769851624,-0.007695886508623547,0.24885275236377993,-0.9431019600202146,0.4149426905790738
3.166748378532863,-0.1287814711938288,9.216887292930712,-0.00492638002749139,0.003244867436667053,0.010933743007003215,0.3740373110866421,-0.35525317029831144,-0.49728769421138236,-0.04961537545148927,9.76548040049219,0.23062498096630107,-0.008507943200863248,-0.0011898347102479864,-0.010825609537258118,-0.08819226198094533,-0.5136691455886595,0.44216467231892337,-3.215005841658161,-0.05202524214369399,9.17451266317382,-0.005030196817446668,0.000866034419509721,0.003490122542544011,-0.566283804530523,-0.4511201573983972,-0.21277870092723503,0.7751897025590204,-0.05200031161850502,9.877004602548842,-0.002998804707105756,0.003162286137771093,0.005286591596813692,0.3947119723187191,-0.6944422048414818,0.35335546659584643,-0.08816448492448857,0.044201696833336954,9.814526057580624,-0.006116200504445571,0.001849817268107839,-0.008171635727565798,0.2551476524101992,-0.9454161728869507,0.4159840354849638
3.140009366190033,-0.140335270632221,9.310214044762473,-0.003872213769419108,0.0025093712271105173,0.01138266596929168,0.3670645062901207,-0.3585049503129445,-0.49501109499192336,-0.055612433109392734,9.846917805507314,0.15763509152365046,-0.009295645161555519,-0.0015800832241692688,-0.012661897292078637,-0.09398132020676268,-0.5156950372170394,0.44734371720849103,-3.1537519200673327,-0.028612361595278593,9.23235096098911,-0.004681534070661178,0.0011308274786454413,0.0030028259954214776,-0.5706480395305502,-0.4521298657309956,-0.21170393632620885,0.827761804383907,-0.006847865896014965,9.88670909537389,-0.0027715226035592544,0.0031383156372852116,0.006767013921866221,0.38900083399081964,-0.6949475203150142,0.35701282961745184,-0.10926222362829169,0.06712263997361892,9.819308640998193,-0.00658791189047954,0.0018012891857038464,-0.00890135580643447,0.25222009850024996,-0.9441395156495745,0.4181511223319997
3.154421833674199,-0.11687930062321819,9.206495830735456,-0.0023917890086693544,0.0012475235539265372,0.010642801807813905,0.3668577153410643,-0.34604542210807515,-0.4942908426642948,-0.04307300816743942,9.771666934593588,0.2377851107928359,-0.010655078992392427,0.00023588400515191764,-0.008737657661066328,-0.09362917689692836,-0.5054302105029164,0.444432039922395,-3.2247819452348154,-0.05605777333161553,9.19405664447439,-0.008070384688103888,0.006143001843818489,0.0028249281995939195,-0.568780927586396,-0.44233352446173796,-0.21088567370074268,0.7838336970967257,-0.06537034301314171,9.883824405400727,-0.004763237364401745,0.005191217293290246,0.006596162810620386,0.38926522117063267,-0.6847241810571542,0.35394998880574635,-0.09848778034088167,0.028196458365369118,9.819921871173527,-0.005439351637525884,0.0013121711914240034,-0.008042541546534986,0.2514125661682044,-0.9358226503845506,0.41667294822312795
3.1414482721695167,-0.14314131008706094,9.237452156289455,-0.004325847444832211,0.0026543337631559417,0.00888493833168295,0.3676411521163937,-0.35607705803691203,-0.49621992156634354,-0.050473947232994684,9.807133857490223,0.21177815702673686,-0.00979153713560352,-0.002247230879301707,-0.013169538066963854,-0.09107443050732214,-0.5166326560741057,0.4438953751207392,-3.196382780801648,-0.04716941397002809,9.193152692950687,-0.003961249983791019,0.0007874329697801083,0.0030789577593755544,-0.5662462402443323,-0.45011283284128556,-0.2103503483661264,0.7909790003895765,-0.003724357068371903,9.864734056012871,-0.004107294095173481,0.004201737726650399,0.004461402726967809,0.39271410509069654,-0.6956982915055556,0.3519844790570521,-0.08361990699259517,0.05187190057098716,9.818152003532218,-0.00456853922090413,0.0020993779412271795,-0.009738402468934492,0.25320109701893817,-0.9444022381772038,0.41718403403209764
3.148727326612721,-0.15485913250347866,9.232604568308803,-0.001901336015735368,0.0018299208774147412,0.011215450233390952,0.367896279162176,-0.3511988497026514,-0.4918202348004407,-0.04617847175028456,9.786712424375215,0.19416513017424175,-0.008580854202922436,-0.0007145358656873245,-0.009053802551681521,-0.09181086825894014,-0.5115246378225153,0.4490406536340379,-3.205255698735354,-0.05216868465139518,9.203298412047731,-0.007297008395679483,0.004721375271434698,0.002032231536923893,-0.5678922470145039,-0.44468428394686055,-0.20428003893304264,0.810756620274978,-0.06833346260835363,9.894402009278846,-0.003740230754891622,0.003556546723360485,0.007662967199767767,0.39255255551254103,-0.6873521404734553,0.356047027725458,-0.11651992399825421,0.06191659210456829,9.859120273242112,-0.0057904092819652765,0.0012941473717936831,-0.009378104975282046,0.25253093646376557,-0.9395046826168273,0.420104521553611
3.150912354824273,-0.13535256011900693,9.269469944836434,-0.0065887389182418266,0.0015672603950166663,0.010069407694668922,0.366500633478238,-0.36117820662231026,-0.4945350360077049,-0.04906042645696904,9.809366245351997,0.17806455523976736,-0.011032012229172281,-0.0020351546981203584,-0.013697089235677478,-0.09322797371980547,-0.5200752905689552,0.444640946288931,-3.1829530219203814,-0.0335373308823418,9.210221992235704,-0.002143992138702351,-0.00017468189748017993,0.0023079934886986227,-0.5688518041723453,-0.4589379212383516,-0.2109211306372319,0.8041556356325066,-0.00533533346659236,9.841618320923562,0.0002874379231999101,0.002702297414796094,0.005852987879903125,0.3906250866882612,-0.6974029095149591,0.3542876461279143,-0.11258407004079664,0.04065759615310323,9.837638382758238,-0.008727908328545203,0.0014726943523083217,-0.007461465643772038,0.25188342741714076,-0.9495054828894743,0.4174189685488911
3.1904610841396748,-0.12158411040439956,9.223926227684741,-0.0015197960024628376,0.0005773993592079699,0.011948550543512973,0.3722348932800199,-0.3517910833822295,-0.49000591735158605,-0.06257151981078786,9.788940612788753,0.20742841520019956,-0.011355092602389927,-0.0013743041103224864,-0.008427289849263535,-0.08643182177598456,-0.5131745581584828,0.44800795192533177,-3.219770089856203,-0.05437602065519956,9.192249553276014,-0.008821696697373144,0.007028496062970307,0.003185762306319585,-0.5627229744235841,-0.45050201750150415,-0.2052864459918109,0.7781949804696333,-0.05363951692140079,9.899356305831926,-0.007000270872962228,0.004392411235090998,0.004842134885254957,0.3956346730290286,-0.6909518163551903,0.3588973601904546,-0.061152796476002136,0.04387450038019481,9.816851246743457,-0.005632577126723689,0.001972816130017341,-0.010593999595462164,0.2572810764265863,-0.9449647545257831,0.42332944544149476
3.1425233181658085,-0.15866997086191278,9.204123069538609,-0.0023600376844344676,0.004982826898310454,0.01117462863944583,0.3623202756034577,-0.3559494004725562,-0.49830170606055735,-0.0446210925186144,9.738118369148339,0.24013072295336416,-0.008037905784702901,-0.001174974141986507,-0.011224153124485728,-0.09747125263731836,-0.5142538408128031,0.4415203269970615,-3.204602215720047,-0.045830242045776126,9.180766357851896,-0.003936213343048065,0.00024829499537880296,0.0026440733940797144,-0.5716547486678846,-0.4497024521356436,-0.21195848091937,0.7923309765551756,-0.034610514671582424,9.86806446469009,-0.0026698544319670777,0.002669555905270505,0.0042191485611129086,0.38800488457006077,-0.6933172292236439,0.350924560429194,-0.10505067603779586,0.04014477252867533,9.841412148480401,-0.0052210728435919266,0.003211734365849999,-0.007328474242645942,0.2473629183815004,-0.944294321385603,0.41517253852788794
3.1488180132772636,-0.12686709445214595,9.280495965873099,-0.004126456803923827,0.0014691842447863465,0.010475864160069199,0.36515037631844416,-0.35284231760941215,-0.5011661374220302,-0.04415197611420167,9.86968065372963,0.1615047246159753,-0.008643953326536745,-0.0026262280629778152,-0.011778399850993432,-0.09729869153329716,-0.5110691158303117,0.4376192505493007,-3.1681680412527133,-0.055541367397997296,9.234146085064365,-0.006530848227376025,0.0026340067669144863,0.004208788754835306,-0.5714880468647806,-0.4465537285120944,-0.21419865302243377,0.8026296648540538,-0.024978716514255636,9.883499324118638,-0.005739954793693086,0.004172624782654287,0.007441186692291696,0.3849523268618063,-0.6897099864256769,0.34880659328254343,-0.09542465941736687,0.061819157772997194,9.826885480923664,-0.0075070280530542205,0.002277942937364506,-0.00782277308789972,0.2491836447883602,-0.9406674381860739,0.4107943157596477
3.160196241126042,-0.13414888533573355,9.215670191935962,-0.0014810258947271508,0.0013037121231481397,0.010024519190420267,0.3690557182298179,-0.36075145334337383,-0.4886130393384081,-0.05732938410048039,9.741528734493903,0.2336298416069567,-0.012102561758512136,-0.000503117981688418,-0.008444189255215766,-0.09142342192985345,-0.5212963284088069,0.45316627363930484,-3.204982500770413,-0.05183342149415303,9.161176419164116,-0.005933483557555473,0.0059888130288921265,0.0020045810976836945,-0.5660454745723251,-0.45711269547507966,-0.20391722157948855,0.7815528538459201,-0.06127156158282923,9.854370493116416,-0.0030622549781651625,0.005446795726633685,0.005631753879656649,0.3911353094151697,-0.7012414326524183,0.35993291440250813,-0.09605716946776545,0.029393911605386295,9.823544612472801,-0.006381717399372521,0.0012170948487698098,-0.009503972441229195,0.2544740180696107,-0.9505277308904728,0.42501385018692805
3.1523060428739536,-0.13486367297517496,9.260037490649916,-0.004514420306612642,0.004227271280331594,0.010968121435219757,0.3706504659439385,-0.3532183864856169,-0.49663718916532884,-0.03636112563319698,9.822361017117888,0.18578555072867675,-0.008079971867112441,-0.0024494356068468343,-0.013040551324027,-0.0869315210210701,-0.5143954641729274,0.4455690726400137,-3.202640677588677,-0.04858504098326613,9.220103808010407,-0.0035916585328123717,0.00018021185358154345,0.0036414136913436226,-0.566338308072593,-0.4464848168961013,-0.21307954107029511,0.7860569585174645,-0.004646774204353429,9.91561910276962,-0.00162580420249534,0.0039136042382761985,0.00538955142486785,0.3942557550791947,-0.6907644308823825,0.35504136058306274,-0.10425119503065954,0.035279141027577926,9.810623537644334,-0.007977711045675068,0.0022303954557096454,-0.008553483534961869,0.2566704405414134,-0.9415372437093156,0.41746197687159714
3.1454635152836143,-0.13954421783982623,9.218198231180542,-0.004375798934088081,0.0004278793722200075,0.009572181879345073,0.36678474898042224,-0.3521495511476119,-0.4872071263671172,-0.06957855216926057,9.82184284792311,0.18263123669757556,-0.010953556106384998,0.0004876955315418599,-0.01005929315075319,-0.09374229899741444,-0.5127683464539124,0.45003277113850243,-3.181287031003875,-0.04726707532660056,9.210566597461236,-0.005504681752499144,0.004635257122210052,0.00021354440920785394,-0.5673729774450664,-0.4476087860751632,-0.2042537631683658,0.8078289021739375,-0.06547251074018325,9.84819187486951,-0.004041000742722081,0.00442717207857177,0.006475870781912971,0.3916211374071384,-0.6897976998428965,0.35660264781460693,-0.1116674443215676,0.06229891528523867,9.83199416434362,-0.006092048936614079,1.624131566263957e-05,-0.010100381674647984,0.25250475378213877,-0.9399925637436416,0.4218136407634034
3.1644377546958493,-0.1400781695274458,9.208561572406753,-0.0019824712845110956,0.0037304007063548154,0.011906632906750605,0.3739158100025946,-0.3445052645965432,-0.49167901196753266,-0.055397018364564565,9.75303658908383,0.20374817012760815,-0.010521290044866268,-0.0021176475080608033,-0.009270997078168123,-0.08481613250559861,-0.5041245014022023,0.44825559459060144,-3.208396362666763,-0.05104517717747496,9.179413710625566,-0.007355074207679119,0.005804604227473168,0.0029050965839252222,-0.5604182342494609,-0.4409770455646374,-0.20716013975859401,0.7722145227105854,-0.019285357705355277,9.883620021532549,-0.0036888446841264314,0.004306277062739662,0.003153159012056709,0.3964790449138253,-0.6829004643271219,0.3575470322153747,-0.09539833083287041,0.044960684575207806,9.805262860725245,-0.006201626786725291,0.002468512753434188,-0.008178863917703004,0.2599757318546139,-0.9328069513415768,0.4206628783865902
3.1548849111095207,-0.13128430954986273,9.250255739626038,-0.001171223568583109,0.0004470338343780045,0.010225516275636977,0.3716147671607103,-0.3493344689693411,-0.49222086615969407,-0.03468927357612659,9.796491809761685,0.21325856058309808,-0.010451273891231561,-0.002601979738993573,-0.011041795211301848,-0.09165228986900313,-0.5059016557386158,0.4463649700992398,-3.2048737243276597,-0.05411474676757823,9.209583881385164,-0.0068835117209764055,0.0023711840396703713,0.004697139729366472,-0.5642495256596658,-0.44564109168515853,-0.2058051940343155,0.7834716908505067,-0.047615224864790265,9.87511781663039,-0.00621679670391093,0.0038517283143061328,0.006734537380920434,0.3928922888579631,-0.6870772413137611,0.35847425818546946,-0.08239294557102401,0.047812881395177455,9.821824901979001,-0.005632492632595293,0.0019768148307345,-0.010595001220799734,0.2533319646948331,-0.9365907076743474,0.4186456885242233
3.1437848140465943,-0.13062359117334063,9.229100980009807,-0.004562469060467969,0.001998770641350165,0.011657412534329782,0.3682165336706844,-0.3509624098127845,-0.49474350441309367,-0.04399912477016675,9.769171656261438,0.2025740343667558,-0.007546815943190264,-0.00052288710421856,-0.010712497710424547,-0.09352916162647831,-0.5115406595991684,0.44808022601794845,-3.1893233833202155,-0.04531798009150309,9.198252069853073,-0.003989209072883734,0.0016623734590789497,0.002029307136776487,-0.5706911013091497,-0.44404751184415714,-0.20960535553645343,0.8166082637444597,-0.03582481964698246,9.872501872509497,-0.0012093223195094175,0.0040151243565685335,0.004081422414897346,0.3899136164635591,-0.6898144192220621,0.3566717397070278,-0.11529788182277084,0.04661752042423152,9.819357747257948,-0.007470839424977378,0.0029261254484371792,-0.00843383430867669,0.2532746310647496,-0.9392747981699622,0.41937977643872126
3.157347564415534,-0.1400821676749601,9.266236594424985,-0.00593074345214759,0.0020906385118446523,0.009775871813684979,0.36554826262627316,-0.3565150933210614,-0.4908975224200954,-0.04098458569758035,9.827189062148145,0.2195183134708368,-0.01052271106885868,-0.0007608720954527112,-0.012275239322134637,-0.09835680931488358,-0.5147708849518761,0.4503172409860164,-3.205941766423166,-0.056103155218405795,9.209200600920097,-0.0065587786762203075,0.0035099720757615182,0.0031611253223705273,-0.5719873234142198,-0.45255798493519683,-0.20556657576763507,0.7870342884542346,-0.03399422208656938,9.878921355985991,-0.005008770566710285,0.004847401028153864,0.007370761947201226,0.3886727352472781,-0.6980888400522146,0.3602396135462518,-0.08002321056711525,0.04546156611551329,9.812826549937274,-0.006201598169917109,0.0024695119748388474,-0.00817986428646639,0.24872712001997008,-0.9457819145113376,0.42251243604637306
3.1567379317332684,-0.14583133810432497,9.216677762009697,-0.0038225067498205223,0.0006146469702811278,0.010672717941063595,0.3722055678948648,-0.3525235993373418,-0.4895180716820436,-0.04317328139639515,9.75681714145838,0.20773295108473638,-0.010704789194139381,-0.001067671171525432,-0.010549043538564536,-0.08861259128741335,-0.5110098185405301,0.4521849078413655,-3.1982179446952532,-0.05538702464384966,9.188925179816808,-0.006260082021185814,0.005187887616524434,0.0020600150888618663,-0.565155137057446,-0.44732659560767496,-0.2030806060795245,0.7988428400311995,-0.03991355681140692,9.879129680419249,-0.003398235890738269,0.004504711913242376,0.006648204525252702,0.3950040766821341,-0.6901946706332187,0.3616023163089495,-0.09571853607742153,0.049601754653690634,9.81791748747312,-0.0065516374119781555,0.0024524693609904997,-0.009515418133501598,0.25759013845013595,-0.9408182796785742,0.42455108573514216
3.1335439242363234,-0.1394771285577565,9.26056449711576,-0.0031102299102981523,0.00486478554584552,0.010922559475599994,0.36983877546504895,-0.3448965561710354,-0.4951959744756342,-0.060562257980452644,9.803350244927232,0.2004683121455773,-0.008041685995199027,-0.0011930218592822385,-0.011221154806787694,-0.09261735535227315,-0.5059146080592292,0.44759535656307603,-3.2003227647731487,-0.05064607496331924,9.217365168364037,-0.004662508388706748,0.0005946387640337721,0.0025690234069676338,-0.5677688446994503,-0.44426690398246843,-0.21014926765868994,0.7983952115212614,-0.018576450698527758,9.887923101621764,-0.0031457599816496046,0.004853596079538416,0.005873265976825944,0.3919508191086239,-0.6885459258571318,0.3590178558520787,-0.09795585272237496,0.058180986037328325,9.839573028475279,-0.005223025154220225,0.0032137706550032135,-0.007329495031407213,0.25425885613863985,-0.9375828102835645,0.42182970888599586
3.150565844713943,-0.13074255783663055,9.248368900058985,-0.0029058673857322898,0.0006696942377215622,0.010058578645340498,0.3713328567108168,-0.35030482200137975,-0.5017508743176893,-0.037610140711506444,9.839424238240605,0.17977372985215445,-0.009828005235662532,-0.0005285429780195781,-0.009576344365580013,-0.09047005833023948,-0.508803469908558,0.43926697720604274,-3.1858337198209967,-0.03810196525195032,9.225126670919833,-0.006583708127228352,0.004383956582987409,0.0021124272706885593,-0.5659364244830795,-0.4443225982117819,-0.21628929634782945,0.7959592740168728,-0.04384096264947622,9.86252018965571,-0.004039022967648922,0.004429191412526954,0.00647576735978077,0.39342452326453503,-0.687196101475775,0.3474574826227948,-0.09576879553591931,0.04743444064834876,9.839705388083068,-0.005995413669844864,0.0018853182429376507,-0.00878148097135579,0.25632750198481374,-0.9368935074782979,0.4115954470657296
3.1490011667418916,-0.14962405788390384,9.224831975285163,-0.0032708092821520087,0.0023048636030182307,0.01300373051901915,0.37199062498122826,-0.3476341033798187,-0.4858629249236709,-0.04807777896798304,9.76592368996922,0.21584929575398473,-0.010978389622484139,-0.00016658084510610274,-0.010965491649669716,-0.08961322264099301,-0.5071180284686435,0.45391198627924767,-3.219757358841929,-0.04943981879164701,9.185353846344631,-0.005439846073681275,0.002018260620500253,0.0033647739541301054,-0.5646501728467703,-0.44485238783560793,-0.2009228250325737,0.7856700160575903,-0.029484502168378557,9.889483956048815,-0.004188871883777179,0.0036115456100395426,0.004701801000457712,0.39605344773833,-0.6867361291043134,0.36420688707574694,-0.08478522717274503,0.03907205245990694,9.843622381036507,-0.007422467098077169,0.001663261748246645,-0.007821556273196622,0.2571537212979968,-0.937391047895239,0.42576471268466815
3.14551041202897,-0.1424578895525145,9.25886078593115,-0.00488247742232663,0.001355283891585536,0.01022065143685467,0.36807017123478725,-0.35681958860732804,-0.4944996774127275,-0.03640856214311634,9.804305653421444,0.20360540363398288,-0.009415296630415048,-0.0024073035713806784,-0.012703502858523424,-0.09034293536353302,-0.5161379703096566,0.44437736355324,-3.1821650243051485,-0.06508686936520353,9.209994039879248,-0.005117200039485006,0.0028221936604032848,0.0033133813090367604,-0.5680037574334216,-0.45188214221692174,-0.2137126041064504,0.7997526355123197,-0.04872383767428849,9.891220627458242,-0.002881228371082846,0.0066423660012393405,0.005151059500651006,0.3910434698534159,-0.6954596207230088,0.35302695695202874,-0.0742077502031235,0.040525980881366774,9.81661982861822,-0.004604491636073042,0.001461190669365303,-0.009132345186264762,0.25489739628095137,-0.946143945888323,0.4152489386694032
3.141771639025779,-0.13890094568219033,9.243243246824939,-0.0021719964689906634,0.0022925383105897768,0.011530765995074663,0.3732905553989002,-0.3496185759329155,-0.5012159685501059,-0.04550204270962474,9.793677410082969,0.22396588719220606,-0.009264992836655033,-0.00035376313003778007,-0.01083749068671142,-0.09024501153569867,-0.5061171243629194,0.4402475701642549,-3.1927163492206425,-0.03740202288551185,9.203490495466886,-0.0043918386582351135,0.0028126732134620296,0.001903844424921525,-0.5654419966945647,-0.44357545370907264,-0.2155761531265786,0.8012503296187619,-0.022305563884015944,9.87667267147447,-0.0013209775441337286,0.0030450411579168246,0.006578461801552624,0.3940042087002259,-0.6874096004668224,0.34963652919789817,-0.1017913222497416,0.041100164151651755,9.826929409246022,-0.007372123834775257,0.00039936158534039555,-0.007208257867813343,0.2582901578715008,-0.9371747176424035,0.41015015376883224
3.1503305536389847,-0.1336269829647262,9.261988800748432,-0.004999860889851365,0.0010259796304338817,0.011608412160156506,0.36954000736258846,-0.3549013113834644,-0.49275585710953773,-0.049544237693447284,9.807742054598318,0.19730472987730951,-0.010780101733183004,0.0007643882292644599,-0.01177946922646291,-0.09450282656877841,-0.5125263921337075,0.44735552611420426,-3.197058813412617,-0.06500047992028689,9.208522629710036,-0.0044010221382643645,0.00214391073979522,0.0048731747227344175,-0.5672356388767323,-0.44939420302895494,-0.21058390893436207,0.7900804580076202,-0.030101818490993262,9.894940180234391,-0.0058608387425550575,0.006240775335081321,0.005770416401855788,0.3894266776556021,-0.6937361581825324,0.3557594003385718,-0.08995845622944484,0.04293190306078947,9.821718262509028,-0.007230457215299546,0.0029911519003900508,-0.009645532684435616,0.253227380977163,-0.9422047331209072,0.41864804041223785
3.1663205333531415,-0.14249631623444323,9.226098344174414,-0.0038539506905349665,0.003243178101009605,0.00944513276137804,0.37379915819640586,-0.35353799215387505,-0.49582896560957873,-0.044727155027756295,9.781317894979184,0.22933129728648546,-0.01025380528930297,-0.001689018075705852,-0.011856803280353491,-0.08913065990263794,-0.514418217917236,0.4453463273893425,-3.2013379479804045,-0.04691299319738644,9.194251295525747,-0.0065857004129698865,0.004386960197790735,0.0021144295433066893,-0.5627696844567699,-0.44930250110576236,-0.20700996001529498,0.7876663853675571,-0.035373922770862376,9.86145961078358,-0.0038730795318588866,0.004183835011165919,0.005941474357366025,0.39913970453668596,-0.6921843413624401,0.35461669374271143,-0.10085046914668419,0.04852823475200815,9.83959594964167,-0.007001080349571706,0.002976689819994387,-0.007705135018569287,0.25855171560942397,-0.9447453209956825,0.41870277590575905
3.1535671022818206,-0.14219269631281264,9.241600609810517,-0.0039693353130306405,0.0029138258967165297,0.010832941651109915,0.37581783318336676,-0.34479481068015844,-0.4999364503648366,-0.03967219621407671,9.792483658259778,0.2039638545349241,-0.008428336839754108,-0.0010850711850938868,-0.01168320001707249,-0.08561444242807183,-0.5050925583837974,0.4404488840830915,-3.1961982097678954,-0.055756991731161026,9.195808921617424,-0.006514803866125451,0.002099811330019502,0.0037770205141405577,-0.5654292929492198,-0.4416013911133644,-0.21389157440087908,0.7976910061349014,-0.02561925681736285,9.876953134450149,-0.003143782206576445,0.0048556154134935985,0.005873162554693743,0.39870174983762235,-0.6848978327994649,0.35161654547249943,-0.10549432305981432,0.05551476649690576,9.817688228194404,-0.006502218065891418,0.0011915860879865969,-0.008904130885073067,0.25977800487992614,-0.9345158377998579,0.41284954541556024
3.1275782426069325,-0.14382630862794665,9.259151889097303,-0.002537770698979382,0.0009209060528490356,0.012015868213376331,0.37030340398943506,-0.34905883864574927,-0.4983573736808937,-0.04916996723254606,9.827442128034054,0.1874716081833282,-0.009760809924180904,-0.001028908186637048,-0.011346149283676943,-0.08992883771966181,-0.509053203468201,0.4443884515445389,-3.1860142033904193,-0.0683529940240859,9.218353798493116,-0.006532647561680407,0.0033087031820811918,0.001243601659598774,-0.5666342904182258,-0.4430789803312871,-0.21384941751807662,0.8113968757105704,-0.04689528371116286,9.861885988742053,-0.004124566553410972,0.0038359605118474718,0.006716361194726682,0.39437095102275277,-0.686882174536982,0.3527923615694603,-0.08583915360036959,0.04986591987503672,9.82539140730196,-0.006587711572822274,0.0018082837355364657,-0.008908358387778174,0.25436042131178727,-0.9351456312090227,0.41621396773506847
3.1506136379843084,-0.1231805539057332,9.249760219343836,-0.005386205697835844,0.0022816173437868953,0.010870192936518261,0.366770461260302,-0.3555679656041228,-0.5001483094453589,-0.05241623003901196,9.773108524002916,0.216170674366376,-0.011786418925017897,-0.0025768467110008565,-0.010704784722355885,-0.09526100087156197,-0.5176431539437552,0.43905055926864517,-3.20939914165233,-0.04302773424494209,9.191651738168012,-0.0047975550031249745,0.003628107501927458,0.003263023283160607,-0.5687732430936708,-0.4511761911032421,-0.2151716664230652,0.7961254708183828,-0.025653997706473045,9.893908594374414,-0.0027524736351086194,0.004582281097320528,0.006820416983819313,0.38967823530620055,-0.6947795981939003,0.3496530729897391,-0.09302028481379626,0.05654155321078054,9.834274066366804,-0.006845220487027968,0.0036573960774369386,-0.008920050527700023,0.25078213180001124,-0.9458244846583208,0.41227848083020774
3.156258704702096,-0.13923421415276163,9.231795914113055,-0.0030527439051529926,0.002966873739189467,0.010218802320490359,0.3664700840098618,-0.3477455138420907,-0.5001599257312654,-0.043538786103618776,9.802243844038065,0.20284707828185405,-0.008450337180874233,-0.0017263101459817074,-0.012592398334289427,-0.0938896406640347,-0.5066474894294568,0.44150182548638095,-3.2046116606665165,-0.049532331381171066,9.202817717341636,-0.00544893307799195,0.0016853445470151327,0.004850509568015667,-0.5698706490612323,-0.44118686981658994,-0.21600692708561256,0.7889835846143574,-0.023632871602005,9.865464818592732,-0.002589507108940358,0.004334895578868461,0.006286267831794477,0.39070449735818746,-0.6845405327847022,0.34729195318193334,-0.09297078554453159,0.06525932633677242,9.82515882975188,-0.006202522087132284,0.0024725288647411948,-0.008181875443421137,0.2541282140439766,-0.9366081967582823,0.4123063368928708
3.143485250746879,-0.13871505227760378,9.247305579099809,-0.0031194605016035327,0.0033635968232562973,0.009686819529108385,0.3808159854658308,-0.35077654507928774,-0.49028896316144677,-0.0461883712085908,9.802186957020249,0.20502774438163057,-0.00933879008103659,0.00011351919375349457,-0.009062692051205431,-0.07983094470220214,-0.5116465472760603,0.4506333619123647,-3.1891820450835158,-0.040888059028837576,9.191471179875983,-0.006911347445002393,0.0035850079595088446,0.0021668568076172235,-0.5583033882616916,-0.44798082663124145,-0.2027181682121865,0.800608347000022,-0.04945423483129076,9.873753274085653,-0.0027262711228735596,0.004958156886076042,0.004565980952395934,0.40377762983461085,-0.6874182951286558,0.3617042679559593,-0.10305128866670026,0.050492752459789986,9.830487316285554,-0.007943436120383568,0.0028816128723073535,-0.00916756586316882,0.26592876985925845,-0.9395088427542695,0.42341254800451383
3.1671053334210146,-0.1407473381980147,9.266607009342271,-0.005143168022956601,0.0018206629866315534,0.010540206922861929,0.37300902638264455,-0.355961742849428,-0.4958466371315522,-0.04863677052029567,9.802124709587092,0.20742645988529254,-0.010236563030918813,-0.0010688351189553353,-0.010945603628969668,-0.08574980311318585,-0.5129124100667731,0.443118659755538,-3.1978934369706455,-0.047941789622814646,9.19192272067862,-0.005548847335261845,0.004513614197174819,0.003624857118428178,-0.562853064148853,-0.44738935928459045,-0.21020705575972165,0.8004080640546442,-0.007807987445498973,9.874503276367795,-0.003645797428312385,0.004159864510680039,0.007421896682418553,0.3964389911795829,-0.6934400438361721,0.3540067063164234,-0.08756915340635818,0.05332192949873478,9.816288575811035,-0.0068863505413601055,0.0005293207809356601,-0.009632604566386968,0.2581312404424965,-0.9422969870389974,0.41649998325311566
3.151116551874578,-0.1390996115012839,9.21661562968144,-0.003664481946041322,0.002057266345736526,0.0110318189003372,0.3656261284218761,-0.3509002096577195,-0.49871305902131563,-0.0385031032037736,9.777651400934914,0.2105672343651534,-0.0102566058670578,-0.0017060531264684853,-0.011854812348472774,-0.09405682769252927,-0.5105636515982314,0.4451572787230348,-3.2061827088071735,-0.05689986756678854,9.182786111407681,-0.006940384832560238,0.004126116265801755,0.002602795600321696,-0.5719589919300259,-0.4450727208843966,-0.2124984018197516,0.7853944165420828,-0.04655936125341434,9.873791796664804,-0.0031407649837742885,0.004857656217897147,0.005874017823042631,0.38760006065925956,-0.6879116800457591,0.354298677304276,-0.0744672360341736,0.05584128278129224,9.832879784362857,-0.007715096282807479,0.0028651697596922183,-0.007227177360156277,0.2500987793825985,-0.9401934316325201,0.41788352724341776
3.143241781927392,-0.14008084510546545,9.260949439363138,-0.003979161198420535,0.002916062237232578,0.010827702304070359,0.37829695588313,-0.3490065440597872,-0.49547910972512343,-0.04415168353318841,9.791119664989704,0.1934688459728928,-0.009304403646292465,-0.00300898374991337,-0.009651709826741413,-0.08189882906406362,-0.5072574021414233,0.44358241210024274,-3.1839699559946455,-0.03851456704328028,9.189786551690249,-0.004345873313299005,0.0014015210637264397,0.002518712538716286,-0.5579975389585349,-0.44317560752030494,-0.20937794467237256,0.8017663117939968,-0.04068676493502196,9.84411400474321,-0.003392282071494724,0.004508770147424441,0.006647916824472885,0.4027974346847297,-0.6846275215537521,0.35022605078944036,-0.10727809057878099,0.05447412877649852,9.830386672255512,-0.00590977843516925,0.0012746177389142605,-0.008780255831515024,0.26214161345158904,-0.9372441996864799,0.41556094688631123
3.156144855866473,-0.1399331597979997,9.258994453180948,-0.004407750543033862,0.0019400591448872086,0.010783917176273387,0.3739516842580548,-0.35061174847736565,-0.49924592313729355,-0.042831592343621355,9.808995706678152,0.20777485809382087,-0.010603183372160844,-0.0003206708753292758,-0.010496433516487746,-0.08850306032865853,-0.5087859034822263,0.4407130215630535,-3.2021704298305176,-0.04352292209907252,9.229348909061677,-0.0058954248223877905,0.004585688345036966,0.0026285070982909713,-0.5630263845339684,-0.44430411104958456,-0.21732406913419952,0.7918289750060333,-0.024284788565979723,9.887888492127438,-0.003944569147045619,0.005030509432163021,0.006234719408048344,0.39655418712314094,-0.6895577874907713,0.3517577073028209,-0.08412793926074667,0.04996561519337444,9.8290936292466,-0.006288978119121273,0.0030912447858215896,-0.008186113784412278,0.26042977564636727,-0.9384343473005388,0.4135904652230209
3.1510226090504796,-0.1404519850109726,9.230213069059358,-0.003913824076205577,0.0010159614731701867,0.010128136619613077,0.36305180476550175,-0.35547881467477227,-0.49779621017333076,-0.04888570661401532,9.768153020786924,0.2168599277463604,-0.010712295873258474,-0.0011097641243515556,-0.010544060257418471,-0.0996308151491108,-0.516233643278314,0.4432461227425707,-3.2077462780678703,-0.061850616897363014,9.172486848170301,-0.004724562482604658,0.0016768259737969889,0.003441979953684258,-0.5748594333330075,-0.45221290175973117,-0.21479387099518754,0.789411952557082,-0.04948551156114184,9.862449039912375,-0.003065309571429205,0.00401402058096867,0.005580577210904304,0.387106300203441,-0.6950184571369369,0.35244700968059756,-0.09707810233573724,0.044743094476852006,9.834295664107753,-0.006081783851409311,0.0025070318282320258,-0.00878872041863709,0.24765919198481293,-0.9433251022247983,0.41175674108507776
3.1476610024288676,-0.14638749767651224,9.253772289893647,-0.003555496736252967,0.003892183507336367,0.010868367885920738,0.37327619177116644,-0.3540146062809391,-0.4948640101225456,-0.06468588155139128,9.815324659424013,0.20032879474707135,-0.008997003255893702,-0.0012889214265205274,-0.01041806066260388,-0.08665485925813571,-0.5165918314071686,0.4465377574397714,-3.1819239271129276,-0.0413716078653036,9.229194634066284,-0.006170132903038798,0.002367587064499475,0.0032917658560190407,-0.5643286314041596,-0.44863975645059195,-0.21138273990196524,0.8026684920479997,-0.030914058562874477,9.888192262773138,-0.0030643206838926254,0.004015030247946262,0.005580525499838203,0.3933664821780754,-0.6954010433309389,0.35610833982804696,-0.092755368566607,0.044781946168022634,9.847090470136266,-0.006916519394594653,0.002362008630876526,-0.007703918203866187,0.2591128978104953,-0.9423154746754736,0.41602177825612036
3.157269178539847,-0.14084498150600624,9.236093391530904,-0.003981540193774322,0.0014137088013231871,0.009597129472421473,0.3635096678685026,-0.35084956480334256,-0.4919260762730879,-0.045814425782159156,9.795931038905838,0.22495076685222634,-0.009381769721488327,-0.0011709480177991495,-0.010881102822443001,-0.09595714111553218,-0.5110827200530231,0.45005783163404345,-3.1947708719650736,-0.04661254856789915,9.199227676804696,-0.006921425235175669,0.0032530937597468356,0.0036535996912866117,-0.5730556038564623,-0.44844822061719936,-0.2080395001795888,0.7954507039144537,-0.04924234918719213,9.867789463032667,-0.0030643206838926254,0.004015030247946262,0.005580525499838203,0.38703869912011385,-0.689093037258131,0.35824559272763445,-0.10121793452961038,0.05076020241449484,9.834190657092144,-0.006760650897312286,0.0030437153197894174,-0.008917834181949661,0.2491120253647062,-0.93821977147229,0.422511706267623
3.156545823798144,-0.12937352474174565,9.24676164540037,-0.004478416774728267,0.0023378772676889196,0.010250838359522398,0.3665260243666407,-0.34945645366653566,-0.4940528493772634,-0.05539066790980563,9.791485308778517,0.19595567684809473,-0.009933027429612065,0.0006411790200704528,-0.011708938275812875,-0.09188572082885049,-0.5071246491782249,0.4461206137331304,-3.1896018070945034,-0.05538115562533598,9.200790786729208,-0.005470779271262078,0.0028982189417781795,0.002319120335525377,-0.5689301351378695,-0.44350414145490913,-0.20671700137470386,0.7767824065493514,-0.018455659707745223,9.86472352591912,-0.004509921305635253,0.00411335306220261,0.005768819064821295,0.38918191039150124,-0.6878631039260716,0.3571668678114082,-0.08550947375637813,0.043992441269096696,9.850892532262753,-0.007387173770407319,0.0023154603706263257,-0.00843562901969172,0.25207731473978856,-0.9377870399832559,0.4198549376701682
3.150437841374428,-0.1430529510772638,9.243960433726343,-0.0012039152952440224,0.0004448173582845483,0.01020972582783917,0.37612943026745077,-0.3472450720571322,-0.4950431566436606,-0.04449275030463779,9.798520258428322,0.19133482061838505,-0.009490861077936983,-0.0019620411500535983,-0.010928734031204033,-0.08482193753627672,-0.5055847330480865,0.44605543008721144,-3.200619877091843,-0.025974167733922415,9.203899550259614,-0.00620015036244291,0.002908697377158392,0.0037287241854568618,-0.5619060271284716,-0.4419905757735829,-0.20882767202656355,0.7965852838674226,-0.04264871353650357,9.878180820125767,-0.0033158480186250934,0.0036671440613152994,0.006354413218460062,0.3986918305754346,-0.685567510480838,0.35724473198427287,-0.09659345093141081,0.05916407758731548,9.837893961363957,-0.007442469807295448,0.001100469389639988,-0.010369543253680995,0.26016987817851495,-0.9374509054289071,0.4170054446360373
3.1485259170622073,-0.14840741909617006,9.230941623540351,-0.0038048389650208957,0.0028518789072854876,0.00996568533260201,0.3669586891716263,-0.35825842303983274,-0.4903744359532356,-0.06093336234427338,9.791357185578805,0.20066335577213107,-0.009510913606149732,-0.0025992570261049006,-0.011838942701466215,-0.09100688592378439,-0.5181090186232551,0.4492628379620362,-3.2045969630582727,-0.05574154256556933,9.199267931228665,-0.0043978120136591555,0.002817659636252505,0.001907900853490194,-0.5691061104640506,-0.45255777525297003,-0.20806595086789717,0.7932390404378137,-0.029989579687206017,9.876758513163338,-0.0028108053270749643,0.004363935884690665,0.0048065456418925345,0.39144489688059825,-0.6963913212128149,0.35668688858242054,-0.1085961891556592,0.033601104133456905,9.830500137636177,-0.004862802721818704,0.0033193182547602805,-0.009147050946195051,0.2536587995787513,-0.9466095526994324,0.416213893853206
3.152541715060878,-0.13822747354402518,9.270494081554858,-0.004661993676142254,0.0009008724350784978,0.009878115094456297,0.37118889181899406,-0.3498121643697003,-0.5054176799530986,-0.05573693346540051,9.802658247080634,0.1753878347915726,-0.009581867983478513,-0.002118939418015332,-0.010066143933501559,-0.08852651359160325,-0.5090241641300274,0.43802660874887794,-3.197421521098387,-0.050980114464476645,9.19828306772623,-0.006517740530292112,0.0024406381338936472,0.0022944236485818487,-0.5647358501657774,-0.44604295379990466,-0.21824498777518947,0.7970700564217357,-0.03770224588279561,9.87179283700733,-0.004031111867356282,0.0044372687483476905,0.006475353671251963,0.39507052544109683,-0.686952520664746,0.34592292789152823,-0.09132222164580325,0.047734190311463545,9.82900609662152,-0.007857846771993393,0.0022679122839386256,-0.009167339416659193,0.25654760133068,-0.9390957036025561,0.4098898930477484
3.1593977925746533,-0.1407438244987978,9.22646179132374,-0.0037420238503962895,0.002456249741890115,0.010494572678700647,0.3739612286397398,-0.3586703242155006,-0.4975316830789814,-0.048627307515461925,9.776850578135171,0.19746900700804107,-0.009473693706074959,-0.001333860791836252,-0.010016516557739904,-0.08959581187219141,-0.5161333278986273,0.44583520405778954,-3.2033245168891824,-0.04645063180698823,9.186717571950027,-0.005450848565147292,0.002024182085904605,0.0033679174281645604,-0.5634912382899143,-0.4539719260343596,-0.20889101634142382,0.7778610131642537,-0.04757916496899964,9.88482713589514,-0.004030112732807669,0.00443727853148354,0.0064753132429942566,0.3947708562132383,-0.6934453447110106,0.3550519372166481,-0.10058541055146944,0.0433233667064087,9.825205026058766,-0.006047530264483506,0.0031592514913985925,-0.009398803366080804,0.25949599404214874,-0.9459837103392358,0.41969000894575775
3.1362122539396813,-0.13442782873125553,9.270332747156392,-0.003990937775421561,0.0029183454008266255,0.010820415370686435,0.3681695599766659,-0.35144944905839653,-0.493278937840587,-0.031122004420886057,9.811135775378306,0.2059188379866155,-0.009985677388072586,-0.002638173423351937,-0.01143840448181718,-0.09281980940137523,-0.5100674304339663,0.4473444548255665,-3.193084113569044,-0.05875270591956358,9.20928567832539,-0.004749484721396934,0.002553835035285279,0.0023952445582375334,-0.5685487782765244,-0.44258406998480193,-0.21161931505644635,0.8005914457960157,-0.024417997589813736,9.875659028565584,-0.0036408427436174524,0.004163912961726256,0.007421649409896443,0.38982203363810447,-0.6866579098212037,0.35517221912084895,-0.09924666425690826,0.052852404167632,9.837903272253472,-0.005611034990433471,0.0025575781841665453,-0.008059011178054453,0.255045789473909,-0.9368670785374454,0.4176869305919715
3.150498839423361,-0.13400159973990963,9.23183631680156,-0.004108797502899539,0.0010846414557200846,0.010979650813787292,0.37232032761682343,-0.3547240391867384,-0.48633915430730684,-0.055127013659863514,9.807520434993245,0.20428070968372036,-0.009512808557434674,-0.002608279819021842,-0.011837943517996738,-0.08808385043522544,-0.5132051527397903,0.45388418764904487,-3.19727559110334,-0.04051048225642548,9.195077705989283,-0.004805508179373937,0.0036330854613544025,0.0032681190566540667,-0.5650866481110243,-0.4514608118270012,-0.2018090296893389,0.7832411961148542,-0.04962634783512172,9.873387088004913,-0.0032253094349877273,0.004264435100353513,0.006114571229730836,0.3960422644003623,-0.6933501887104264,0.3623299844518113,-0.07607994327612035,0.04832658363928769,9.836621405823795,-0.00717893248350883,0.0017332278402233932,-0.009039226440968072,0.2570187411462488,-0.9439811650261386,0.4269884126314104
3.1500986421435466,-0.13576651313470306,9.23194670179197,-0.00368218292660631,0.002060691931175164,0.011022388065197059,0.3682110440996463,-0.3548693376104321,-0.49840451042901035,-0.047235401064931654,9.790310971527559,0.2369101489813052,-0.008035024993874713,-0.0006069662342565133,-0.010303925045257322,-0.09013875161243777,-0.5139348711077599,0.44267099638806395,-3.2117298823324627,-0.03981458843408525,9.19374608147324,-0.0061970563906886605,0.0032465873973384443,0.002246045271598063,-0.5657893767420084,-0.4503730128956881,-0.21206555770598418,0.7837828383875394,-0.027435681107598087,9.825308533660627,-0.0038500244530695164,0.005630850942582375,0.005995680976601905,0.39412047514659176,-0.6910493496577859,0.3516291370219141,-0.10008116236760728,0.049564380286786544,9.837911924549688,-0.006413524911488471,0.0005818271283027647,-0.008906875962001928,0.2557151738657207,-0.942253010904016,0.4140346941430641
3.167759904408191,-0.13677975800898648,9.258880306211804,-0.0030076296724896993,0.0025736698867172736,0.01073725910404346,0.36913463156652804,-0.355624726639147,-0.4969164188302449,-0.0412822922148871,9.793748250868155,0.19118752601680078,-0.010137000172768027,-0.0003168584330509353,-0.010891963148611248,-0.09106818534196504,-0.5156603557251052,0.44560647126919006,-3.1961637532124496,-0.05798104693336048,9.227672640800897,-0.005074160644699224,0.001750868447184735,0.002445664824222336,-0.5672453011824232,-0.4521032126973763,-0.21250344201723617,0.8184371723893897,-0.04656119620522434,9.922944075530065,-0.002687062684026809,0.007843121312382321,0.004674778733947186,0.3903187396436531,-0.6971784566386912,0.352831089093468,-0.08911764105624803,0.04156842346674189,9.841815494836919,-0.004393063628482582,0.0033698838363831678,-0.008416351756276998,0.25419915720181446,-0.9439332533962188,0.4159736613016705
3.1521500706343755,-0.144157395843263,9.248041460768672,-0.0022045441298124734,0.002294319564367891,0.011512976197155455,0.3694597256506573,-0.3448875625297228,-0.48958847937063177,-0.030897693735282505,9.808730509466615,0.20703659225763366,-0.01022602842867945,-0.000471735630870167,-0.010029387921025252,-0.09111937853473463,-0.5059063739840075,0.45099902321157775,-3.1993961707690204,-0.043935890381989307,9.194324964297317,-0.008050303299705198,0.00475278678923837,0.003457049105638625,-0.5684797727714068,-0.44180243558285337,-0.2077233670457622,0.7859170262814901,-0.035999350262645516,9.820474323835207,-0.0036720690279550814,0.0012840379070279961,0.007313470906980365,0.3945794578045688,-0.6831492722402394,0.3588486655879942,-0.10051819214970091,0.0572020408239667,9.828827482052299,-0.006674053137578539,0.0024309965422355004,-0.008916598203822861,0.25506410675689734,-0.9341796243520888,0.42085964653872004
3.1516289616682567,-0.14574736045462486,9.248194849099544,-0.004243206238813532,0.0018801115804236638,0.009916660892661942,0.3670226370211907,-0.35117799731552374,-0.48598058715803577,-0.04320098696335683,9.795041109932061,0.17683217095664758,-0.008782346427805744,-0.004124641050423001,-0.012735299463584399,-0.09179537841077048,-0.5103109521026448,0.45197223478385884,-3.1968045041681465,-0.06427658010069981,9.207958441036471,-0.004400793334363009,0.0028196529139691896,0.0019099352012492898,-0.5695746543911347,-0.44714385280068847,-0.20421623084313248,0.8003869876658676,-0.05225844224351216,9.912696290402247,-0.0021770706735639044,0.005505569663627432,0.0072888427038353175,0.3901004140794354,-0.6887804752489807,0.3615384140860295,-0.09030365522803155,0.038574994753788325,9.841816456498934,-0.0062576091716245175,0.0012655328650578153,-0.01012179272770685,0.2527358569735376,-0.9395068627985044,0.42401276602286864
3.15967912532316,-0.1308747577355852,9.227890452272973,-0.0022075183206471008,0.0022943909190483126,0.01151190423755323,0.3692810661165358,-0.3500106151859236,-0.49740517901003595,-0.06191901514087895,9.795017732489177,0.21599346597661154,-0.009458430977571633,-0.0007147010950739999,-0.009104299851565377,-0.0904279023132894,-0.5110045043840851,0.4412149731269256,-3.2010397188783584,-0.04626896919592495,9.193741253872318,-0.0065706610533988125,0.0038587909235954705,0.0016856066947319663,-0.5686143347994512,-0.44459164337313867,-0.21598916464570497,0.7876011554828666,-0.026913169035182635,9.847672206630284,-0.0025090669457319918,0.003496319964140458,0.005993567783064442,0.3922751637524614,-0.6911060162711277,0.34828324106512987,-0.08711323835585871,0.03808071933491137,9.83282618075277,-0.0060826605260428995,0.0025120477659765325,-0.008791732363213284,0.25531723275744156,-0.9373617529091529,0.4140277585804638
3.149018651297234,-0.15285759085525552,9.23537926630293,-0.0037528011034864564,0.002459509206428911,0.010488309555937136,0.3792990552489255,-0.35196052880738726,-0.4893475497301451,-0.043366538638854264,9.798531803520264,0.22238445881264918,-0.009792285021725742,-0.0017152611121095773,-0.012250351683546486,-0.0837737650053496,-0.5097303967258104,0.44896657814538526,-3.1982127024961535,-0.06677922137861414,9.207451235848135,-0.0068464172004092895,0.001639641877684709,0.0023458983419752835,-0.5586595337035075,-0.44608851690404694,-0.20737503307179309,0.7959126214234589,-0.04041387881489483,9.911370066471585,-0.00441546748503195,0.004714671081838676,0.00552777111308887,0.40019057672926917,-0.6889697812740561,0.35722405794301465,-0.09145501791742568,0.035347880275331776,9.8418179057771,-0.0074756279993100465,0.002933212496514597,-0.008441886842775272,0.2624943388427638,-0.9411547871084729,0.421914155273683
3.1483020733393143,-0.141246256788792,9.24607161198698,-0.003258922691472431,0.0015344123822598529,0.009833528691785757,0.36540569601839246,-0.3501627077040999,-0.4989628517832237,-0.05312273928125721,9.794156987529114,0.19347326826177866,-0.010266080623482516,-0.001751167091053194,-0.011849816431125385,-0.09506219017090083,-0.5093494215603975,0.44346152735496674,-3.195000553205987,-0.04110495507398927,9.202107264697679,-0.005153076452362482,0.0037061614829396604,0.002272776306300687,-0.571780822783986,-0.4429008571990091,-0.21472660892132328,0.7955713849738455,-0.02206962815505953,9.829707461722444,-0.002581494888262886,0.00434099652163074,0.006287874946360051,0.3891080974705277,-0.6867283082512696,0.34958189639226966,-0.09500628103349085,0.04290129940508497,9.841729850506086,-0.006795723925255319,0.002398510037176677,-0.008312763916608915,0.25338318873012794,-0.9365938096777162,0.4135189453596223
3.140070160890872,-0.13249644590613494,9.25125801873529,-0.0030154807895594986,0.002575858844123612,0.010733067633391106,0.3624430668949108,-0.34935847533323056,-0.49683701595458013,-0.05579992280998389,9.794092041431462,0.19599720157268727,-0.01033702442848681,-0.00127184942457971,-0.010077019897075882,-0.09892125680981169,-0.509644681664106,0.4481365305793082,-3.2054976624957847,-0.06140294952311791,9.205136879838449,-0.005126079667926991,0.0031670194958063427,0.0018358528675381492,-0.5736640344101308,-0.4436136188286712,-0.211505785916184,0.7781712654734083,-0.04420217556075516,9.917923327096567,-0.003222342772377987,0.0042674641012862904,0.006114416096532534,0.38591441354935063,-0.6862081794350584,0.3553246258849554,-0.10357444293273312,0.048961540832059836,9.828839933341296,-0.006257666628393932,0.0037455187537640587,-0.008798227471092495,0.24651358232784149,-0.9357306917224862,0.4183330298284516
