# sampling frequency: 40
# units are seconds/meters/radians/a.u.
seg1_acc_x,seg1_acc_y,seg1_acc_z,seg1_gyr_x,seg1_gyr_y,seg1_gyr_z,seg1_mag_x,seg1_mag_y,seg1_mag_z,seg2_acc_x,seg2_acc_y,seg2_acc_z,seg2_gyr_x,seg2_gyr_y,seg2_gyr_z,seg2_mag_x,seg2_mag_y,seg2_mag_z,seg3_acc_x,seg3_acc_y,seg3_acc_z,seg3_gyr_x,seg3_gyr_y,seg3_gyr_z,seg3_mag_x,seg3_mag_y,seg3_mag_z,seg4_acc_x,seg4_acc_y,seg4_acc_z,seg4_gyr_x,seg4_gyr_y,seg4_gyr_z,seg4_mag_x,seg4_mag_y,seg4_mag_z,seg5_acc_x,seg5_acc_y,seg5_acc_z,seg5_gyr_x,seg5_gyr_y,seg5_gyr_z,seg5_mag_x,seg5_mag_y,seg5_mag_z
2.2140694503054195,-5.918549113460998,7.436295602911929,-0.003501938022652052,0.0017785080341242146,0.012563305546632998,-0.5595148064338259,-0.12092104598498314,0.22095355530340732,0.08209985292666118,7.897842420442939,5.808728658441916,-0.008539003591741428,-0.0029978764170881037,-0.01149173357888591,0.4305228047554995,0.3685721062472624,0.4873608550098323,-2.2238869813146684,-5.513198764560413,7.7314674480897,-0.00470836134258808,0.0033180154849171213,0.0032342963236958316,0.712754875711199,0.10235384578675653,-0.3484914151074231,2.411494963611599,-5.5312897622019195,7.836623975358913,-0.0031638408701346013,0.002288398791056518,0.005787452196049397,-0.047134322043033076,0.3822301000136817,-0.81365480780247,0.27844051984490936,-5.856794472954091,7.914645919277306,-0.007275422031300485,0.002664639887297637,-0.0032213198440220053,-0.3007424339121411,0.4170847928368428,-0.41134348818213873
2.2158914220713926,-5.903982387992936,7.450659220771719,-0.002236456572054069,0.0017978246776975421,0.009438063065564772,-0.5621805921789105,-0.11773422232283506,0.22315494107325273,0.08143399200818698,7.8923574363428255,5.787042733682784,-0.010250244327723377,-0.002247012201627438,-0.010043112485067172,0.43104518819577103,0.36675841876171383,0.4956913176168004,-2.24251768953213,-5.503694911046141,7.7121339296904265,-0.004827373659218536,0.0032832511749747643,0.0005233510067916926,0.7126873203297175,0.10728977117363912,-0.360776733778323,2.4011277713856987,-5.548660604785119,7.825309426039522,-0.0028293325752418545,0.0034586329228421886,0.004432206728448866,-0.047764168426124826,0.3881123361760933,-0.8248671524842627,0.2916586247272428,-5.845910759607216,7.901269940841965,-0.007563269004979959,0.0017452674213921423,-0.0034127784261707753,-0.3044301673639745,0.4225328107142035,-0.42105700269523794
2.212540989766359,-5.911864284684829,7.432146871706631,-0.0031267421159500266,0.0017510509145993885,0.00946620316889644,-0.5568316881972418,-0.12142609996193234,0.22119655737927849,0.0748445013860406,7.898263639502772,5.799512192876112,-0.008165960549761151,-0.004002460306326861,-0.010621237112315234,0.4305545598006211,0.36872585181267187,0.4966365265714081,-2.2344030674248234,-5.509685884086237,7.720569647270362,-0.004478579913634802,0.00278468095115712,0.0018886259442911306,0.7132193997233178,0.10641025638776254,-0.3544181829009351,2.4200088924542213,-5.505153900625548,7.828693102940094,-0.0031601988701478504,0.0021714761302096455,0.0047030828737165565,-0.04498738719806508,0.38638674093364633,-0.8178263084957383,0.2854674789929269,-5.858341950756706,7.905672399144018,-0.007253774602351836,0.002238400971102304,-0.0037142871605253826,-0.3029456998215924,0.422261952905408,-0.4183842067503464
2.2123559853011234,-5.906059038393048,7.450064091408348,-0.0018668274757036095,0.0008015007348397242,0.01182610053009907,-0.5623886373751049,-0.1113827133559775,0.2207186438745784,0.06962169925860205,7.8904593647335535,5.786217505130095,-0.011719270790745024,-0.0025717909565532897,-0.010902824652766882,0.4286283598670469,0.36662041706673004,0.5025388580045351,-2.2209112311411903,-5.5076200497523065,7.72812583620397,-0.004708348272188255,0.0033190309441701693,0.003235280534887623,0.7073609456227737,0.10861591066966385,-0.3558723217321841,2.406629464532946,-5.550761373617253,7.810031823648195,-0.002675527216449388,0.004391523584762352,0.0070062191457671815,-0.04939084052499616,0.3890783763397133,-0.8187393992022656,0.28465829656348407,-5.848118053633784,7.892360904997388,-0.00669568360769763,0.004505332042325346,-0.0028354276950763105,-0.3038970029760479,0.4220136060957,-0.41495927825905915
2.2191197396213758,-5.91307158521172,7.440537455821153,-0.004906815986091759,0.0013378678841088998,0.011350199134962538,-0.5553558931172068,-0.11948307692784266,0.2226629885473669,0.07927800909103609,7.913492563750982,5.812807535469368,-0.008543472848532336,-0.0026036597948496006,-0.010998180865901167,0.4264189709903467,0.360365026556718,0.493859847037912,-2.254087201030902,-5.500820567124243,7.700466148337554,-0.00422660700838939,0.0035787428606540318,0.0018432790710989702,0.7071687306954995,0.10847987986986908,-0.3490316699325936,2.4177679718023644,-5.510425440761302,7.841720459741427,-0.0019312243312381923,0.002953137836641223,0.004171420801145766,-0.049054182821430564,0.39175088448587264,-0.8119020466591139,0.2778154392639673,-5.852667835413743,7.911919061217574,-0.006595517115081873,0.0023712388063877113,-0.005305210222766207,-0.30504478499187926,0.4251794252246882,-0.41005450653280456
2.2063274317079062,-5.917582944180351,7.452609051718263,-0.0031764100642409734,0.0008598186269684616,0.012285420099960226,-0.5614636533590508,-0.12017666797140528,0.21997861631303714,0.08219679543881059,7.890131298512866,5.822777132940199,-0.010242237202137953,-0.0022459386096191354,-0.010040157262561349,0.43324808937552944,0.36233422706679785,0.49355979298901503,-2.2373756331855,-5.511870235460914,7.718150423041315,-0.004707343009206958,0.003320025380031734,0.0032352572184627796,0.7112264176256903,0.0995781782980252,-0.3547842161429592,2.411112720014076,-5.54745539284883,7.839235955760787,-0.004959472016764766,0.0031784772947141236,0.005220686774928564,-0.0491921106555843,0.3800503294015195,-0.821445705896041,0.28458904088435233,-5.852569645759023,7.904171502577587,-0.0062619226223460615,0.003982472757251658,-0.0022321345858838833,-0.30521037422534963,0.4149574342048864,-0.41766388362931184
2.2161711142339238,-5.912106538274554,7.448811921527985,-0.00181310670702176,0.001701710156916397,0.009005890772755367,-0.5597448006112969,-0.11847690924646269,0.2190027800006766,0.08490063906871542,7.900371917482676,5.818906608073962,-0.010426589948669443,-0.002731895023193032,-0.0096974235044448,0.42613660087244054,0.3673623650010804,0.4888611325220028,-2.2294874314087285,-5.483141183401866,7.715144682281137,-0.0053335884256816325,0.0014586445011286551,0.002439027413696301,0.7133883151202363,0.0975640192954476,-0.3579440668887083,2.405985440573695,-5.5288391207708925,7.830094438738958,-0.0017737638500691783,0.003769103903652595,0.005662063808158518,-0.04480115318406587,0.3805340457591398,-0.8217464166685235,0.2772271091098167,-5.845279205663744,7.911609538928955,-0.004328525042118239,0.001427669098028442,-0.005391750078248244,-0.300808895760819,0.4158912178217615,-0.4179401742066547
2.2174778128474193,-5.900987654229067,7.453985567565017,-0.004583311386102353,0.00041518945516258026,0.01107331054627957,-0.5519775329853136,-0.12634238273511453,0.22631818630693615,0.07105160870571993,7.8933622522241595,5.8010766294713845,-0.010023962740346221,-0.002537259088377859,-0.01136526617807936,0.43446631848352474,0.3662878362776997,0.4961754753183329,-2.2303027985369632,-5.518729113835623,7.725670624798941,-0.005157270981064257,0.004870709496478203,0.0022814214930147285,0.7080535201900475,0.10684225412346025,-0.35975662655092244,2.415695312263338,-5.546187441327972,7.810573752003613,-0.004960473037348524,0.0031774783791805213,0.005220697979732081,-0.049465375810010856,0.3854267731789633,-0.8241169566261978,0.277239189076364,-5.844364598706834,7.897180623786479,-0.006240283407344296,0.003556237990446159,-0.0027261018600431845,-0.3068785289852169,0.4228064010485942,-0.42225680755460254
2.2306079503799126,-5.92283793434402,7.438742404235972,-0.004337472966389349,0.0019986725777290486,0.013426672752133178,-0.5648804473120915,-0.12016150944113611,0.2255943298297173,0.07477347726743114,7.899580093623439,5.7735789051338555,-0.009706765586585868,-0.0019842204496243383,-0.00852811104843065,0.4410617321146658,0.3690498898168168,0.4995256041637967,-2.2423468205825996,-5.500736939501701,7.715233942294333,-0.003670215546943785,0.0012194572554236928,0.0005635599712245732,0.7197912644116441,0.10440270047518278,-0.35565908087264697,2.4004683733827132,-5.538732975415135,7.834751110177741,-0.002505139801451737,0.004857719502755985,0.005243729856478735,-0.042083269301380115,0.3863873478651556,-0.8198175914675403,0.2778065025868995,-5.8573658816900425,7.908441493343102,-0.008299480170533472,0.001776910222218599,-0.0037116125823012163,-0.29832770483753895,0.41977243841833983,-0.4179444500608751
2.2038216177712697,-5.902897695077333,7.422045640107364,-0.0029000474370937876,7.790773166994818e-06,0.009344602996728069,-0.5599721031007706,-0.115793217594477,0.22315622022479706,0.0756789233276152,7.908621273983859,5.8143418055473735,-0.010193854784860037,-0.0034123696684390265,-0.011514202962910782,0.4324851559065328,0.36911850178782574,0.49051953493557515,-2.238038699065537,-5.513703924983772,7.744053098952744,-0.005060431763127011,0.003580092686065528,0.003693011877846503,0.7239778865159046,0.10566094083527526,-0.3518036203875231,2.4043444958976234,-5.503581094038653,7.8367894114172865,-0.0034530008175181594,0.0031787355314210966,0.005779967973570437,-0.03592096306693882,0.3883252393556411,-0.8154993277604388,0.285119572290267,-5.865031248637216,7.885608650745674,-0.00504466229344764,0.0025764608682644343,-0.0023179708236666097,-0.2909337570474552,0.4230983787371785,-0.4135971988520031
2.212779545266918,-5.9014607682086915,7.461650108379983,-0.002702877335179312,0.0013383008361314008,0.010861749305843143,-0.5609544509836939,-0.1167661774916353,0.22510855438559993,0.08347908117423784,7.9022729747832425,5.797359882840354,-0.009858533106650453,-0.001267898740542905,-0.01072077696665716,0.429341576057585,0.367769604125801,0.4981217389469572,-2.229134424511867,-5.513880944112126,7.703013505973511,-0.004354225263289783,0.0030639731241974824,0.0027784398591160007,0.7148832406636677,0.10461986531550821,-0.3590428792297342,2.412545828039276,-5.556162941026299,7.836600077135891,-0.002222012222350319,0.003961393137313633,0.005249281483724248,-0.04214761721904626,0.3861517924911495,-0.8247006322221591,0.26967377887462796,-5.839894846842535,7.902546539621737,-0.0065271304656296806,0.002636855471956068,-0.002917568697505546,-0.29884354289339243,0.42150853943869065,-0.4233042361897491
2.22601314682869,-5.923068795196039,7.446565139920673,-0.0043835915633876595,0.002073318073842993,0.010761747589033694,-0.5624122223382083,-0.11553655692590722,0.22510994804829132,0.07744098157080627,7.889089232402466,5.805245171422033,-0.010389664842035098,-0.0035091463369269155,-0.010678809224637934,0.43374582243088977,0.36857638016970967,0.5017558131479343,-2.2404008586040263,-5.495368656384435,7.702308152208198,-0.004605185142353171,0.0022709212461663525,0.0028247632641267245,0.7110237918264078,0.10666614796670268,-0.35440512675854785,2.4180494323040223,-5.528026062720136,7.865300800041096,-0.0027179970958377776,0.0019721992079884273,0.005112930771194465,-0.04715239369584323,0.38906986238368274,-0.8155955128643698,0.2787583752622069,-5.880475239975505,7.902881549544456,-0.007679463063109366,0.002765163001389101,-0.004313630215733348,-0.30117840759051917,0.42344240200728295,-0.412778587686597
2.196886347835603,-5.911972067401513,7.43341997260829,-0.0030735001626594487,0.0016973655331628007,0.012129145559228949,-0.5597390366492626,-0.11775123294613128,0.22608342860683403,0.08906167439633814,7.913362893006736,5.787232532855645,-0.010414582501321688,-0.002729792992486503,-0.009693498880246268,0.43353740739444885,0.36775659217071877,0.5112934784707109,-2.235524675418835,-5.5230224882942665,7.711953039312113,-0.006515196355822591,0.0019605588498681913,0.002923446329467937,0.7144839361054584,0.1064911983771878,-0.3488134115289172,2.4271793573456253,-5.5418520320380935,7.832392358279846,-0.0043531515771578575,0.0036812385911962914,0.006037774654703104,-0.042459513191430515,0.3897898139269093,-0.8115043423293384,0.28323600947619487,-5.841968353906245,7.900478448819411,-0.0073272593607943935,0.003947192520614423,-0.001734509286471677,-0.2987251237995164,0.42365678281369706,-0.41157679839115274
2.2047155433820973,-5.913897565435595,7.464063670547924,-0.0013400887457979782,0.001858563687896621,0.00940893416766308,-0.5565658894933427,-0.11776647537319704,0.22217676547888268,0.07343818481220116,7.904998084773015,5.814171497450214,-0.010768163802235211,-0.0021112989672462225,-0.011052733372299194,0.4307870885156135,0.37164403741749563,0.4958552563412676,-2.213999962802999,-5.491848538892336,7.707728120911534,-0.0023420639461673018,0.0023252157910260453,0.002268262991195326,0.7152744652415507,0.10515568942940413,-0.34025242130959227,2.4074741367255545,-5.531436887628929,7.821818151158241,-0.0019342416226783925,0.0029491430265580106,0.004170452583833404,-0.04434352819727417,0.3853860781288624,-0.8058726412116693,0.27716905208442777,-5.863956065316439,7.903578178154131,-0.006320208529642259,0.003722734464061991,-0.0046148344771965895,-0.30137017541159117,0.42022849469760004,-0.4025359145536903
2.2151460724494583,-5.90648920448946,7.4384911334530885,-0.00448140146709859,0.0012527422605354453,0.0109170362149878,-0.5588019334050804,-0.12434352673723606,0.2211943592596571,0.08139801257120662,7.898706512023725,5.7971430814232505,-0.00889717704400856,-0.0035714618691481833,-0.010308832269699012,0.4276205177742745,0.3736519654568701,0.49973937473915275,-2.2456297549371635,-5.504389841854617,7.7299536314019095,-0.006990621470924344,0.0019433384501889698,0.0024923402894205097,0.7117733002011002,0.1103198701810151,-0.35471197391415843,2.420878757744997,-5.524025116857158,7.823070695509488,-0.003902263332772855,0.0033700277836104533,0.005366196941912411,-0.046689751335890275,0.39224757570217667,-0.8177926312299212,0.27716659646264424,-5.867187969943663,7.916301326642238,-0.006956836888323903,0.0031626619211087806,-0.003517882755582442,-0.3016653452637388,0.4261463189880534,-0.41593750216209346
2.2153211985582546,-5.89903652813802,7.434472738867346,-0.003492779305027814,0.0018054562436591978,0.012561327695693694,-0.5531915049271219,-0.12510898511976043,0.22046053110652186,0.07907868510676878,7.891888026941916,5.820242329361264,-0.010950516569841586,-0.0025972493769327227,-0.010710006560579105,0.4322427044066795,0.3711069026623363,0.49268472158629706,-2.241875710236525,-5.4977424591765205,7.718468075041133,-0.003497185391679808,0.004393029500806341,0.0022299758162963408,0.7125642097260934,0.11381338422747453,-0.34964482839321015,2.4201345829345917,-5.572785847843117,7.824339266188071,-0.0025081570928919368,0.004853724692672773,0.005242761639166371,-0.050775002133386864,0.3954170861391235,-0.813093479549922,0.26827445028605834,-5.838824059313841,7.91272490774092,-0.005207136400229407,0.004447852049374039,-0.0022298674077812558,-0.3032985362555079,0.42906902681689546,-0.41029672091020736
2.2066937585193402,-5.9269051036135565,7.444556664359898,-0.0036412692904182788,0.000729919204701747,0.01188039906355272,-0.5575997320241831,-0.12752880216181145,0.22583027657011082,0.06908344933965146,7.906160234078272,5.798853950193672,-0.008692372471994956,-0.0034706256050085556,-0.011142323802419463,0.4337001784173934,0.3715759490414986,0.49120674763446687,-2.220453080154793,-5.5012670206668295,7.725605817729287,-0.00520923623133824,0.0017389209422136317,0.003327825843226149,0.7105086620839746,0.10951363879185426,-0.3598173573845595,2.415163347127492,-5.4894098281774415,7.839805115639663,-0.002835379173212922,0.0034516452342820093,0.004429272301492503,-0.044785785425412915,0.39152054686753707,-0.8214813464378686,0.26910708939924644,-5.859406639502136,7.909027506775429,-0.007880347033545025,0.0016822193669726786,-0.002615401810865805,-0.3016760080504039,0.4268873919087282,-0.4181314324780386
2.2296828522822856,-5.908191150797536,7.455520655374045,-0.0016098602221098922,0.0030451854847792816,0.010522047397182635,-0.5546228498826127,-0.11973792484139004,0.2299866147773964,0.08169576597533133,7.8779363982897,5.789772225001776,-0.01001741769327907,-0.0021409102918412424,-0.010865785654091822,0.4324684558116343,0.37374469593387055,0.48970980730857244,-2.2189569517451733,-5.515710145746025,7.725144382220641,-0.005053089517848051,0.0038246096935889992,0.0018718651170207775,0.7146772352872576,0.1100104995862238,-0.35790417736169466,2.4181919833981196,-5.557896580862911,7.849822796356261,-0.004524929447166272,0.0030921293052672888,0.006713948901926107,-0.04336684662301018,0.39054857474466237,-0.8249201486810036,0.28208539383758185,-5.8464252790855,7.882100628203279,-0.0060293087811660855,0.004644060056378966,-0.004419392697430147,-0.2965836351074196,0.42464506108912725,-0.4196476294655796
2.2173714103019107,-5.9102712423693085,7.446178311213348,-0.003068938473793407,0.002026971363588815,0.010301437653806459,-0.5585155220852878,-0.11726792124975856,0.22437460886330038,0.07459266813520031,7.893090014829625,5.804878564625738,-0.010388120834017023,-0.003115861842879094,-0.010182261218116119,0.4288818357441038,0.36047350090414415,0.49995349155664226,-2.239182919714892,-5.492020660660592,7.715162433809886,-0.003876776551825611,0.003084197854852881,0.0032104834775055313,0.7122472013463202,0.1136700336150344,-0.3589185391008539,2.430438356315949,-5.523012565356258,7.837065440223855,-0.001151475155012099,0.003924085997987745,0.003228983593607496,-0.04601385239908579,0.393720278340839,-0.822193039457041,0.2817487918571986,-5.8418858088143555,7.909936407746239,-0.006460192817009321,0.0013601309480949896,-0.004399478897675882,-0.2980319152506543,0.42710469772431586,-0.4206025678141392
2.208852072601445,-5.8969263655874515,7.451367947696038,-0.003859864023670636,0.002490132741485353,0.012001012692625393,-0.5633891587314716,-0.11527635808220085,0.21339137454955645,0.07727915302022867,7.903416106530297,5.80097867845409,-0.009628921169703517,-0.0035356949220822914,-0.010489946211759,0.4347427499230689,0.35901416582811996,0.49922551070339677,-2.228837569584571,-5.511650914927963,7.723944599207979,-0.006385538582962483,0.0024813325082474126,0.0019891762086381637,0.711710219043107,0.0966687766069407,-0.3532773694392696,2.4112496338251552,-5.536552276356837,7.827129181360876,-0.006198533281252523,0.0023888380324066944,0.005746465262762156,-0.04765027169381821,0.38101441126983926,-0.8156045600523596,0.28998320457875404,-5.863074786951126,7.913051981313105,-0.006932179626779537,0.0027373927880219627,-0.00401087077155922,-0.30324733355586486,0.41395173056497275,-0.4152430784908066
2.2118533637207527,-5.918309319807331,7.457960278198047,-0.003958188843119973,0.0019861924858646466,0.010328582888823394,-0.5580829129574639,-0.12654580581689454,0.2211922494710531,0.0795165519691835,7.898838522529548,5.81584501191797,-0.010753159081662021,-0.002107171641629371,-0.011047852435527122,0.4302948110490566,0.3666672090039248,0.4903236291089068,-2.217534349499785,-5.496181300718375,7.7310746740968845,-0.004251062133454698,0.0020158634261936655,0.002367922588355102,0.7148854676241696,0.09762078934460194,-0.3538059469603489,2.407857440798285,-5.549175327800584,7.845244874963854,-0.002510161348657712,0.004849726866516918,0.005242780209382126,-0.040115041627217164,0.3800339449750128,-0.8181465601877059,0.267883774516193,-5.843277571165837,7.894327858368073,-0.006253851970218579,0.003985371412212626,-0.0022271886407108734,-0.2964146550853663,0.41241201887728685,-0.4138405312233006
2.2170068503025466,-5.932338131639889,7.430053709856203,-0.004998461220548996,0.0005452579600743597,0.011503511428413648,-0.5590809447778773,-0.13045467760750948,0.23095497321035746,0.07070838701521545,7.8848879723090795,5.787067240484279,-0.007242259580673928,-0.0023644260593655908,-0.009294355683743205,0.4271490633453271,0.361592097544977,0.49408104365400796,-2.2367160034195677,-5.506938734672247,7.74208902530927,-0.0062346974479890105,0.004326524042328536,0.002356284032792413,0.7141288417460134,0.10216314478819653,-0.3602188871054423,2.4232629461281716,-5.510235227297129,7.840523615141336,-0.005137308499834915,0.002583382251831187,0.005892928602863568,-0.04384044658453247,0.38615128015787203,-0.8234573098677948,0.2751857044080066,-5.85666031644726,7.912600124198766,-0.0058824295823539955,0.0032008307601223865,-0.004010570365135231,-0.3017739478068345,0.41957598274542446,-0.4210910912169589
2.212530207158956,-5.903469783579558,7.449798363624567,-0.003487200139680604,0.0021380570128518585,0.010732622251603126,-0.552174097210872,-0.11828365175758072,0.2258374092931681,0.06912185249312647,7.89847092554233,5.770154142137922,-0.011104739675826238,-0.0014866387506548252,-0.012405127285005263,0.4256534962014663,0.3693662249953143,0.4920040267296389,-2.225967509532763,-5.506404516122679,7.720357953299205,-0.004828608360212391,0.0030517778061835846,0.002349247650924081,0.709023824346068,0.09957867156875945,-0.3555002333223949,2.4072768464678505,-5.563887232657561,7.826758413709663,-0.0030138163346482864,0.0029754637991166667,0.006188847653735983,-0.04892570564997193,0.38004676007908234,-0.8197400586192215,0.2887060917239549,-5.857240821197116,7.911640619085627,-0.008061444181252512,0.0039798068583543214,-0.0020313559714500787,-0.30323984489827477,0.4168916984623708,-0.41791605411401694
2.2168269975724026,-5.91907930507482,7.4440635705304885,-0.0006658710513501484,0.003350902704801545,0.011330127484098649,-0.5587966616741865,-0.12386598101050998,0.23291378873756854,0.07042706518893116,7.888438969724984,5.806168088773878,-0.009420116275927582,-0.0034338302192444365,-0.011322468342786742,0.4342384993071099,0.36487995718315414,0.49961808056407314,-2.226122220061583,-5.506648005645004,7.72929330771326,-0.003495148724917563,0.004397049291035567,0.002231897605830236,0.7073293276041581,0.10831102750927764,-0.3597739135303366,2.4194707218138474,-5.484744958711369,7.825934394491293,-0.0019449049964403741,0.0030580752151872616,0.005253898508067951,-0.05040327272406005,0.3888406289536909,-0.8214128086775869,0.27474776763561665,-5.859445739708369,7.910553076900862,-0.0066000076205683465,0.002807277191539109,-0.004805342878328667,-0.306384549449834,0.42279845388456205,-0.42152786718584345
2.1979293828000657,-5.906453330735612,7.440394681611205,-0.0026470797617257754,0.001613233992613267,0.011695983319932483,-0.5568375892545648,-0.12265173646148239,0.22754346878156645,0.06097424739852715,7.893362248766125,5.7822884337867455,-0.009217970510470587,-0.005318626417872876,-0.010606821517080383,0.4266018324685413,0.3736947379285964,0.48777743991390204,-2.234532635837104,-5.5162212428336534,7.709879953772926,-0.005785764124714809,0.0027768452173181643,0.0033101118005620764,0.7139809007539551,0.1052577977402224,-0.3497664153609511,2.4249815861855044,-5.545210689162412,7.830872568738822,-0.0037441912654470875,0.004065078313753659,0.005770502497252683,-0.0444479032796316,0.3866226578673706,-0.8139265884670525,0.2816665139017463,-5.859330996294723,7.902801394563849,-0.00639385268547941,0.0016227761950252943,-0.002013832976502013,-0.298969734840727,0.42439624625027683,-0.412548762003887
2.207158237962775,-5.903239595813223,7.458232669200458,-0.004055981252927496,0.0011686175105022714,0.010482874185548932,-0.5585248563714109,-0.11898015491288481,0.2280350861209759,0.07598615671774822,7.884963868895801,5.814402831307875,-0.009430566751135731,-0.0030446143266794484,-0.01082781212222264,0.4307870027801366,0.3713950284140217,0.4956153490490934,-2.2114715148271964,-5.49911653891934,7.696371117414081,-0.003803136529163423,0.00046617443336634414,0.003320758187254586,0.7080453159760568,0.11165604564017068,-0.36422731530373437,2.40595680292021,-5.538295927967001,7.833644836820921,-0.0026619766813733305,0.003919835967270204,0.00266774739012514,-0.04852941789921229,0.3927567836199497,-0.8277783840424173,0.281012860376473,-5.8509896585634,7.903231393309079,-0.007071986216391678,0.004184534882076246,-0.004415734794556082,-0.3053913876795889,0.4271965552728351,-0.42493591983751916
2.2035699694006095,-5.911423889880824,7.439490099063447,-0.003956626954086693,0.0016775517779566826,0.012155308230500329,-0.5622619402706525,-0.13140193241976594,0.2197247737020851,0.07907952268143574,7.900810249564194,5.78932603345155,-0.009984954997462771,-0.0025239118378013407,-0.01135161894769418,0.4303069194595303,0.3701939718647192,0.4968580751535321,-2.234215612939104,-5.516890742799478,7.727803653956703,-0.005779447976017697,0.0030193367341228056,0.0014870042967259963,0.7115105717193267,0.10714382201228832,-0.35490443111665404,2.4245966544382935,-5.5152450020546775,7.824524016958189,-0.004078071529895892,0.002776926703670881,0.006040416184294932,-0.047216457202832705,0.3890793044739745,-0.8204770833815295,0.27462359978086975,-5.865390483469315,7.921285884220502,-0.007379499088591947,0.0036903854357244227,-0.00411524659495196,-0.30269998825460914,0.4210324809155265,-0.41668225450308816
2.211163195077621,-5.913677883086007,7.4700005523286634,-0.0025442168508613633,0.0024427801498502016,0.011540701657840867,-0.5597889483691986,-0.12604695120156592,0.2214380425683372,0.08155296483544061,7.886758993695776,5.801774217633632,-0.010583705893123095,-0.0008386997075695704,-0.010397361413762348,0.43082821886653183,0.3606950062303009,0.49823391191870414,-2.231738583268813,-5.496243951325664,7.725701106014481,-0.004726466019760055,0.0020026424811097694,0.0019367540001012124,0.7095659306527847,0.10765377192373701,-0.3541651752677548,2.4099285432187383,-5.575819877282518,7.8375304862862745,-0.0019469212672968165,0.003055079320637652,0.005252919085952071,-0.046923883807971085,0.389559956730239,-0.8168176711039681,0.2600810659682456,-5.855828333193016,7.908030451620917,-0.005775818980949716,0.002611040780585319,-0.0026138341839951115,-0.3021564235838523,0.42394323602598755,-0.41350150677092995
2.202437071351001,-5.901577432902684,7.444435108971102,-0.003431976067223252,0.002719624122320436,0.009741128933922373,-0.5536798483250368,-0.12510892952774377,0.2236346321954323,0.07053318264326192,7.9049872762831095,5.8040931771747415,-0.009980620359842237,-0.00450854000157537,-0.009803521320775376,0.43153339633641813,0.36502684701739274,0.4942531374800739,-2.2190644618409197,-5.494643829806915,7.723601440765861,-0.0039705554624203925,0.004381844214258226,0.0018017601399229848,0.7129402350564312,0.0983709162545408,-0.35331346967519184,2.4134653919999187,-5.492876730360396,7.838124543820732,-0.004795142107529719,0.0036396874532981485,0.00345426698604776,-0.044200523211076724,0.3810059899779785,-0.813207634419874,0.29519353621828615,-5.865804695855074,7.912607837662657,-0.007644721487302777,0.002345780539460643,-0.004803676513074017,-0.30271286605021325,0.41735854391493926,-0.4137682699324192
2.2218759346463597,-5.897197192270296,7.471578055472666,-0.0017547706552233288,0.0016639958861641533,0.011667846358192922,-0.5607654827536281,-0.12604314597336538,0.22363524627219925,0.07740801808704834,7.902839414871352,5.810518160752677,-0.008851060683959893,-0.0019637489218776436,-0.012340925368086616,0.4290914623612563,0.3669965213556852,0.49569405956749646,-2.232909637721015,-5.512185602748045,7.7050646851184705,-0.005079560080879208,0.0022617099234947327,0.0023945242965365517,0.7131899830555207,0.10369416441196563,-0.3563288853996689,2.41816346986005,-5.570384245971042,7.816831116236489,-0.004249861414994974,0.0021888193493481245,0.006715592439186299,-0.04380949555498871,0.3851705615094644,-0.8210183982321598,0.2806332589483953,-5.856164595707628,7.899409876684872,-0.004768332895706399,0.003925925844680332,-0.001622611678065718,-0.30101484823158875,0.41906444559599926,-0.41719328393854976
2.2056757465097174,-5.914805552996953,7.447556658263984,-0.0017025937254011925,0.0022375808355487386,0.010676346547888444,-0.560732258189645,-0.12042868087949142,0.22412824407951548,0.07910140170882198,7.907835384418374,5.827610014783025,-0.009466928393032262,-0.0018770313770058976,-0.009346825664948233,0.436645941041267,0.3714126168021485,0.49559499958067255,-2.2208816664005817,-5.496123016569083,7.722026377874744,-0.0037460902263820274,0.003606012735906318,0.002279189584981135,0.7114816578881404,0.10346327909751876,-0.3560679829388371,2.419264156355621,-5.519182945976053,7.823398276814815,-0.0014442695164882606,0.004926343477415649,0.004306859007010451,-0.048912814258147655,0.38590480186906934,-0.8192408540531546,0.28032183400360156,-5.859224025436071,7.912293285482256,-0.0063287125280516564,0.004155804938185189,-0.004112946395594962,-0.3061407827720416,0.4183789745912866,-0.4161769810365119
2.2177546499726355,-5.900531120564426,7.4403259122538765,-0.002795522756399128,0.0005456977026132206,0.011014061809151848,-0.5492646612317316,-0.12171735222226757,0.22412475392734188,0.08795335852158975,7.90722226106695,5.789323393277062,-0.009201979128468468,-0.005313545950459457,-0.010604960186232979,0.4349521241405002,0.36949926138322103,0.49831789699841306,-2.2274801062643967,-5.504840839063967,7.722048565964338,-0.005913390142815928,0.002262059885257398,0.004244272740335699,0.7144533006063826,0.10884429622630723,-0.35446572945864,2.4272954885386007,-5.52759219992104,7.83503564629659,-0.0049735781616659525,0.003164506015677131,0.00521384425798688,-0.04327046805914843,0.39077840907597833,-0.8175963245875005,0.29357068394062696,-5.850097079374593,7.912775351802456,-0.007209987100864327,0.001821919559719723,-0.004202395640974407,-0.2992154464077103,0.42562571824015843,-0.4142507142511452
2.2106542799688906,-5.9215797824551695,7.468608612397587,-0.004323179058902886,0.002048592664703334,0.013422714327541477,-0.5577438048519968,-0.11043375038400255,0.2214515416233119,0.0732923249383091,7.879883189180982,5.81121979738102,-0.010559247263817883,-0.0012237747036937638,-0.010886133367553135,0.43198961480305365,0.37181074035442774,0.49096467706485936,-2.228422666982927,-5.50561480741999,7.721225828900774,-0.003998060280429967,0.0028139349581028524,0.0023235053358266577,0.719818781551265,0.10711398725990193,-0.35399232570825284,2.4126075758110477,-5.56786231754379,7.860707760357526,-0.0012898143116687793,0.005737312802737563,0.0057975317890424745,-0.0400671311540449,0.3885732571898507,-0.815200414148542,0.28691433099530067,-5.850866943008757,7.904895498602552,-0.00700302856415625,0.002909790134770585,-0.0058976533724188485,-0.2965438084834101,0.4233977929695799,-0.41330486342244194
2.210574560530575,-5.91554715604402,7.433726991199675,-0.004052893018937908,0.0011836004373412218,0.010481886909415214,-0.5565648927435151,-0.11751952146437805,0.2199799844762771,0.08083468772327775,7.88317938060735,5.7965872576253705,-0.009028082611381702,-0.0044353574970855516,-0.01045208755393459,0.4349685187349425,0.3663580782119362,0.5003231861301122,-2.2362224866072027,-5.500385798092372,7.730620256572563,-0.005806936872429976,0.0014544270689139257,0.002008702581474822,0.7117317004777873,0.11096039572685268,-0.36058153109406127,2.42393218494388,-5.50542752064746,7.834045561639066,-0.003509197207873138,0.0008703562547068441,0.004965169175984646,-0.04432638745191117,0.39176826738115694,-0.8236840895116461,0.2805247406853499,-5.863185341824492,7.9093510571856545,-0.006245781318091097,0.003988270067173593,-0.002222242695537863,-0.30051300077098464,0.42543148831392846,-0.4232742442372484
2.2031306782067075,-5.89872267871749,7.448035513402807,-0.002589820532121269,0.0022007900882773036,0.010703494924497488,-0.5519400340095365,-0.11999471320041598,0.22656783667259953,0.0874302268066085,7.890404161756416,5.805558231181699,-0.010910490119137467,-0.002588881842423832,-0.010695280135002165,0.42566839490855835,0.36671397246221255,0.4940012168881321,-2.2433430349249965,-5.509699347338642,7.720895309421483,-0.005078541747498086,0.0022637198186093456,0.002395485191303499,0.7178578060345948,0.1034859346065912,-0.3524552873327315,2.4194072614073816,-5.555054310166652,7.813562156184728,-0.004649360250395371,0.004562588729922763,0.00602736529037566,-0.04104061691236849,0.38588737708805215,-0.8147047907460442,0.27219098414752807,-5.844575926321926,7.904369517000011,-0.006941728355250568,0.0031684858811746527,-0.0035119824405465245,-0.2963487990054671,0.4197396355572865,-0.4147867070884186
2.2186343333961633,-5.91155677558766,7.429393900481883,-0.004623679996703067,0.00021317275114624096,0.010232138372122257,-0.550217006287995,-0.1175613159531241,0.22486165312219467,0.07709916180782603,7.889748914313779,5.80298908564673,-0.0093941136386043,-0.003425620721320809,-0.011314692290055715,0.43470101505329883,0.3729322356794465,0.49923899455447324,-2.2075991159841903,-5.4907433968368125,7.6963424666466596,-0.004473467017932797,0.002798729881325511,0.0018933678699194064,0.7119906786665737,0.10495208347047731,-0.35438589810560706,2.4061905924743283,-5.49189432828685,7.831173295081954,-0.0028347686943552986,0.0033297296998695183,0.003342932930124384,-0.04744472631066801,0.3859027428781891,-0.8190151029977384,0.2854991841730737,-5.8375360324116885,7.918458011980408,-0.007537121056917849,0.001754980566476674,-0.003406952653714866,-0.30244553100141136,0.4212699638508082,-0.41570731790938326
2.2280173873366174,-5.908475866228894,7.447134738153019,-0.003110933310147395,0.0014843295447083055,0.011289962964621337,-0.5587983065870763,-0.12385880039292538,0.2248577921056804,0.08822532932513297,7.899411123362547,5.803580956134889,-0.009455920935147065,-0.0018749323482430665,-0.009342897567551472,0.4298181022014416,0.37068852220488707,0.49733962125644887,-2.248893892159506,-5.518556011994896,7.73944634211858,-0.0066122437829759986,0.0030246961819465775,0.003337666724137245,0.7152273529523927,0.11182322935231744,-0.3510996860251123,2.417286709629736,-5.5606204982977685,7.826336341319104,-0.003921001590453013,0.00346997832073616,0.00644473102474308,-0.04324962156487007,0.3922405720777031,-0.8161286411134286,0.287017592069188,-5.865786306515007,7.899593519658897,-0.005914601013327111,0.004058160373885501,-0.003015706589337795,-0.29895669045585765,0.4270881787727934,-0.4142467711729555
2.204029149987614,-5.916882279456318,7.441269140780401,-0.0008082787543804803,0.00228933091294502,0.010648210057387648,-0.5619294931544051,-0.11651424758900794,0.22266697700826846,0.08200018362373791,7.89575520068266,5.813642294234521,-0.008665831934264828,-0.0030671348986692163,-0.01063802939460318,0.4320371281690023,0.3623791033299643,0.4964926143400848,-2.239567467443747,-5.50372682953848,7.727273821890805,-0.002088038847758195,0.0031233286819606163,0.0022268376040238745,0.7156725509684816,0.10835354619264086,-0.3542235044413982,2.3956681213001345,-5.541198190682043,7.84700541112196,-0.0012841582554238467,0.0056213860413516495,0.004714138049434234,-0.04571314876113762,0.3890720544609019,-0.8175675684449054,0.2850340513570142,-5.838169972108411,7.902865541844975,-0.007700580523666495,0.0036253694111390644,-0.0033158451760155246,-0.3011997312913828,0.42492555193888476,-0.4171674442096758
2.206542103824131,-5.900199410406868,7.4340824947410855,-0.0034780414220563654,0.0021650052223868414,0.010730644400663823,-0.5595093416025492,-0.12019406387472602,0.22656920452206275,0.08528154175135161,7.887347622035072,5.804741124416852,-0.009959952349602046,-0.00251570534182141,-0.01134383942176492,0.4329884755211245,0.37464395045652665,0.4997045553696906,-2.2255056704446616,-5.5160838306493565,7.7158466380862825,-0.006740880371257514,0.0025079165503754156,0.004271866617387327,0.710481279521107,0.09834989177297761,-0.35549238308477765,2.439078564639772,-5.521090986288646,7.864600198802927,-0.005474613983836609,0.0011763252301975476,0.005073561439539424,-0.0469656607359101,0.3807757012923689,-0.8192763284795576,0.27238037036356777,-5.861531739143112,7.912705958113224,-0.00541797149743974,0.002256641789903521,-0.0039002985379316293,-0.3010414834562571,0.4166236024613706,-0.41744720391992796
2.214497232165941,-5.9023035894009945,7.464653007671457,-0.001900710919813577,0.0009160774029227102,0.009158208459691,-0.5588034223860486,-0.12483861121966039,0.2280299211340167,0.07038233043917203,7.884315235840783,5.810454197341619,-0.010359552057868567,-0.002719330994207631,-0.0096758581068685,0.43690273677102137,0.37221906604562377,0.4999753827341054,-2.227280191705935,-5.5174644690134755,7.705175326498628,-0.004947876255655053,0.002784503644805517,0.0014622072393439048,0.7154505866338854,0.11250430471538439,-0.35428652443853564,2.4131445496162454,-5.563460495777725,7.8255951384207885,-0.0019519417072036628,0.0030480866819429095,0.005251971358551102,-0.04202579576221708,0.39199477963068585,-0.8159011559979814,0.27803461628159487,-5.839999283931481,7.8942100777973945,-0.0066301710068063955,0.0036645825507431963,-0.0038094956555024925,-0.30139483795832844,0.42637569401559744,-0.4130086483087135
2.201638581418378,-5.90798111312538,7.445869564767897,-0.005463694242412843,0.00011773210649714364,0.012922225945111953,-0.5533982009847006,-0.11875900623977623,0.2197342329834786,0.07758481016382177,7.89696254724859,5.798468226043056,-0.011065385380787237,-0.0034629475351737366,-0.01084428558012441,0.4296119974311348,0.36467771163796797,0.5030557610511243,-2.2310737396549087,-5.4902092612090945,7.723104435999629,-0.003867387025386209,0.0033347343799032406,0.0013912272321104705,0.7193908374499423,0.11206751289786542,-0.34967060086738416,2.422967527655353,-5.492143821711165,7.830087563548416,-0.002844431047533523,0.003439660804032372,0.004426367649555413,-0.041046138171334616,0.39248125047874227,-0.8156690501630318,0.2856415855911259,-5.8535655545374095,7.912344070677357,-0.006995954082489743,0.0029147070228204295,-0.005894690954309341,-0.29601462284035635,0.42827965249280026,-0.41426599408511416
2.222495567791178,-5.898716613933013,7.460050569815476,-0.0038953029011809834,0.002276084081133525,0.011162828788602894,-0.5592791479365113,-0.12263907145030953,0.2294969794163221,0.075256039772422,7.889972205699456,5.8215793561428715,-0.009229667243351029,-0.0021571969425147807,-0.010666183615905829,0.4339594734469471,0.37189348722150223,0.4955962261447103,-2.2208268964122517,-5.524785807942963,7.703059087823029,-0.006633429601090989,0.0017012625742892906,0.0020352732938582006,0.7134815695456632,0.10064873192108638,-0.34798138689638886,2.407058248292688,-5.569503354843931,7.817043565670421,-0.0042071475682937615,0.004361309878550974,0.006438209260489564,-0.04783333435295698,0.38393516788564863,-0.8112011215261583,0.27900224823765674,-5.861957781652102,7.889399811666392,-0.00702324831348586,0.004871345758020209,-0.0015291630498205679,-0.3029207451098135,0.4173427601772556,-0.4093714417381178
2.2142454066804014,-5.924412050067238,7.448422346197136,-0.002637909245376055,0.0016421821665531429,0.01169400724922874,-0.5612280947081119,-0.12189425757253122,0.22803304063039664,0.0787030825770601,7.896626828396418,5.793934312759579,-0.00848793473150364,-0.0021869015756736487,-0.010483204066126461,0.42541550883859625,0.3651837145593054,0.49012088747090343,-2.2190111222730895,-5.489646971604167,7.7201135683495945,-0.003520609112964169,0.002833175420713637,0.0027565644395112113,0.7164137988961254,0.10884893266309502,-0.3535038755407455,2.4093286069313207,-5.525571625556196,7.85031166650953,-0.0020652967793615726,0.004528524509614083,0.004570262134602702,-0.041543472678618173,0.3897977289156777,-0.8161557568595474,0.27104751986272224,-5.855011750126767,7.896682281544812,-0.0062190958389847775,0.003564976561252358,-0.0027142391315511487,-0.298258227833138,0.42366301236092646,-0.41426672150331056
2.2159655231314783,-5.91110546215229,7.432133848830698,-0.0012752026345186464,0.0021484425934706133,0.010244179648145476,-0.5573448130812908,-0.1255746647001426,0.2229019650918939,0.07246354082130128,7.893009532194139,5.803915048447049,-0.008838184807245618,-0.0035530552889187364,-0.010295337314865372,0.4332399258025982,0.3674969102020592,0.49567156338395973,-2.231038660869007,-5.506260805366,7.721047185004312,-0.005077512799718765,0.0022677294410216216,0.0023964148119672156,0.7075502838095309,0.10609015513252407,-0.36120621037159556,2.4304657889664467,-5.5389398663567295,7.824163140805143,-0.004259923003092608,0.002179837927804107,0.006711706758808012,-0.052422072372530264,0.38714319034173506,-0.8262730277197677,0.2852823001336776,-5.867035562174581,7.90812295077683,-0.005867282576093446,0.0032096503933853383,-0.004003657893041261,-0.30639996781699425,0.4220695511863615,-0.42250780653626774
2.2128187692114083,-5.9161515294719065,7.475433011702194,-0.0025847321287913393,0.002215760325421369,0.010703507229066668,-0.5553747612584713,-0.1226553679969112,0.22192816450968633,0.07537254311477884,7.893996346951573,5.797561826957831,-0.01070512783662262,-0.002094697795109515,-0.01102822076079051,0.43227796389172785,0.36706673900008563,0.4993445112489623,-2.2191433759980144,-5.505007120084802,7.709321508091927,-0.0031675097446459168,0.002575107841977505,0.002298778506024257,0.7161479752085793,0.10615038624075579,-0.3544368680238983,2.4174721418853995,-5.543813887192529,7.83062078994592,-0.0014579523962887026,0.005029280860873037,0.005389332874541355,-0.040865766414281766,0.3871184979256277,-0.8200761766739595,0.2910737116050983,-5.84940724354918,7.917051905285062,-0.005106412276529009,0.002753742549724204,-0.004198807644076144,-0.29884027344778125,0.4200345098659464,-0.4211132865943908
2.226907842879123,-5.894696114423083,7.433697241501221,-0.004519220004813743,0.0007400789850277229,0.01190258739283235,-0.5561141012947715,-0.12387137471678528,0.22119423129205357,0.07737746856477885,7.91380622314604,5.796229468860383,-0.009591367783763714,-0.0031341377651385787,-0.009983657170882407,0.43006890921117324,0.36874057545618916,0.49761508506188806,-2.227013764208265,-5.499640319300276,7.718805348229718,-0.004946857922273931,0.0027865135399201294,0.0014631681341108526,0.7144343631726944,0.10421734474166502,-0.3536613002620213,2.4186716955958834,-5.492627824713966,7.837254629545748,-0.004253276834055455,0.002066912011102367,0.005627305741760259,-0.04546759024980361,0.3876063221367399,-0.8173296046421576,0.29216185205070366,-5.8699660252916255,7.9132625004984085,-0.008003065432122536,0.0031331654341990333,-0.0030143901623886863,-0.3022020085270934,0.42102251299864457,-0.4154663347558941
2.2124807217723506,-5.904371300860401,7.458553573832715,-0.0015389506179130227,0.0033390289240919024,0.011357295181499106,-0.5599995700909031,-0.12043169916742548,0.2226630911728536,0.08504885291762929,7.892785508016009,5.797726795656023,-0.009575245717267322,-0.001530547454337437,-0.012017579537659612,0.4266443846240155,0.3667169023592618,0.49399782704666106,-2.234962760314513,-5.494405922995427,7.728173846040286,-0.005083828948415878,0.0020252379242169803,0.004219522315803295,0.709826975615636,0.10768671108610851,-0.3519703824440577,2.4088492376204633,-5.558023385013612,7.826980140730405,-0.004810861966470547,0.003744632798051393,0.004533771205886434,-0.04962571474446453,0.38663575978220815,-0.8177649555384088,0.26258262480478084,-5.841877611056777,7.902834570919361,-0.004840147020223106,0.004099320736706351,-0.0035063820841766073,-0.30340477490272616,0.4205346608090881,-0.4127723655120474
2.2179707951116807,-5.914738448522316,7.440101204497456,-0.00420768970556018,0.0032186972631649833,0.011439732875806897,-0.5602256388084333,-0.11725283469172348,0.21875996914298135,0.08219185668124335,7.895274165281228,5.823208980148754,-0.009736819041728665,-0.0043964390670090175,-0.010628331782490936,0.43225196651287934,0.3666932905764896,0.4915366712524456,-2.2367663282556967,-5.495689522666199,7.717558255026748,-0.0053927362454047655,0.00434222205027434,0.0005122230506420325,0.7049044913360242,0.1083585457082479,-0.3575584939101497,2.4226392158138443,-5.510327464401099,7.853508763920292,-0.003422368151668415,0.005336248751897343,0.0054977139332926155,-0.05137110965339537,0.3883522696091497,-0.8206679873373891,0.28366577479352584,-5.852569540063271,7.907419224196563,-0.00810158146363933,0.003729862130925958,-0.004408164047798138,-0.30733967766965303,0.4242701412170454,-0.420781883620935
2.2086489115368027,-5.904721830390971,7.436229034456348,-0.002582696971644185,0.002221749311616828,0.010702512151312425,-0.5612437910135999,-0.12432955680747533,0.22168387050649266,0.07218851179358082,7.909689902673084,5.801913263313964,-0.009418460987180213,-0.002255902595405446,-0.009827781494976743,0.43588602892263834,0.37499197497964,0.4906545734240353,-2.227379092087107,-5.5159152012172505,7.7164646457433905,-0.005652027711131115,0.0033066583198046685,0.002379669621748478,0.7099815066062205,0.10460830033083872,-0.3614460104124189,2.4120433589579866,-5.551535450270391,7.842891174029625,-0.0019752967406747347,0.003263957096258047,0.007416885792572682,-0.04801775285690543,0.38811401592003497,-0.825595885710434,0.28401967907535197,-5.865590576810187,7.918656763731301,-0.0058070043278753,0.0034653522203972526,-0.0016169909476015493,-0.302753783113582,0.41909682052865055,-0.4208410205436136
2.20622451080645,-5.9079146089783094,7.4576016925734585,-0.0032593234147408937,0.0004257939858681102,0.010607049465318822,-0.553614340022255,-0.11412617164438148,0.2270624096003567,0.08010514294214158,7.888631558316353,5.803448379664931,-0.010305648179978982,-0.0034885158368846586,-0.010656435513167656,0.43007575754493105,0.3645618413915913,0.4959750799650382,-2.2394963766318865,-5.497829154443998,7.706058072562148,-0.00338993585792041,0.003353974842514025,0.001824286335795024,0.7180838074895348,0.11069338938525464,-0.35989457540054326,2.4031175265382,-5.533286189538586,7.812504924320975,-0.002230428480332832,0.00382648930698334,0.004162035364777951,-0.04043115339542368,0.39591639126381545,-0.8249482927782523,0.2690119699703694,-5.846254367861255,7.906928773114681,-0.006227027686225033,0.002462710223152073,-0.00608789056667161,-0.2975476828657893,0.428328823614255,-0.4225545485525249
2.1986783291322105,-5.892418080813715,7.44104803911015,-0.0034709237609420224,0.0021849644635239195,0.010729660737360978,-0.5602792764192921,-0.12653545694152368,0.22412270838465773,0.06851626976547678,7.916233607125052,5.808374311257782,-0.010303647837141772,-0.0034874934020738273,-0.01065545916507849,0.43520626106013033,0.362860387258071,0.4954976477582758,-2.2418502501639526,-5.519277756418319,7.7259358666485705,-0.005206151844001907,0.0017519340774950734,0.0033295992199222756,0.7122439485827451,0.10352022238731078,-0.35216819700129304,2.4317262300677505,-5.5214289051363465,7.828687866141383,-0.003931063178550647,0.003460996899192143,0.006440845344364793,-0.047398294312456624,0.38443066394100234,-0.8153562375079679,0.2834514529424458,-5.854250779916325,7.891017313981571,-0.006192418573825345,0.003141687204720957,-0.0032072355252203578,-0.30196258498282036,0.42126808549029987,-0.416443323761866
2.2126720547700476,-5.910768584077342,7.435006822780261,-0.004095396667482744,0.0009585932670121679,0.009643694680173683,-0.5558737256909817,-0.12485915399270921,0.23169130615465974,0.0814129271064224,7.888115004296487,5.799192854488856,-0.00996883864278563,-0.0017341219495261866,-0.010347619348346528,0.4252015960374752,0.3653286401398435,0.49890947637297545,-2.2261182305642935,-5.510921094802121,7.693897546609151,-0.003994999973087502,0.0028209645070955223,0.002326372383075885,0.7178043356928068,0.10506906339487249,-0.36053678850282755,2.4069387525399293,-5.550564289646332,7.829083822279236,-0.0022411049764846105,0.003935423429674512,0.005244481376985222,-0.04112896955678365,0.3871215953369565,-0.8215378454161237,0.28926611405151303,-5.836869083247053,7.899792047657535,-0.007193893207824113,0.0018287458562328096,-0.004199499387752475,-0.2983173935297646,0.4209943786623338,-0.4181834745722541
2.2148229236873997,-5.896388777088186,7.449342206864931,-0.0026328210462309427,0.001657153295035041,0.011693019554216007,-0.5565890818674964,-0.12167175339665881,0.22144128898486828,0.07080607358010584,7.896899026237328,5.799085570687254,-0.009926616925831027,-0.0044971971564578914,-0.009792892634137882,0.433762788909442,0.3646942134596193,0.5032853123384118,-2.2347270610292878,-5.491247265626169,7.722384876574952,-0.0054285779572764,0.0025308010780315934,0.0028551070496930426,0.7054222056844187,0.10599798848007722,-0.35215387852827496,2.4198583668527287,-5.495520304695641,7.829002737406135,-0.004420420376686636,0.0013658809040993161,0.005218107228602188,-0.05152701915380688,0.3868743179041084,-0.8138331986072784,0.2836293721627138,-5.858903470928497,7.902728042613739,-0.0064989397445784055,0.0026475318551743713,-0.0029077555385857504,-0.30851391855803134,0.42131409065739456,-0.4115061115007906
2.21032799590213,-5.906476236986692,7.452485134640311,-0.0034196876721697103,0.0021302908982419374,0.013392602656454722,-0.5551185432022435,-0.12070254224434658,0.22046485220953185,0.0952665929979119,7.893178269287011,5.814659736075094,-0.009610255791133358,-0.00235766654689751,-0.008992318837909836,0.42690972147432704,0.37226590066023874,0.5046484816843638,-2.218297816910837,-5.517336875342634,7.711202519285951,-0.004700175069143784,0.0033401094233312303,0.003242889507765126,0.7169396089016813,0.1036092806830689,-0.3448799332307421,2.4162644964191875,-5.57273664178499,7.822296966472768,-0.004985681158100495,0.003153532565251669,0.0052069812511338015,-0.040251629764803815,0.3844130873696179,-0.8103226099981634,0.2762486615526881,-5.857578560157294,7.881238254984743,-0.007016187663165912,0.004873254524703469,-0.0015242129158013415,-0.3007020532172886,0.41829053807439837,-0.4079206718239922
2.2051377183239005,-5.920022437023203,7.446394117629023,-0.0036775555838143843,0.0005418795461433855,0.011038238513704399,-0.5646371992879192,-0.12015968476155119,0.22193228025751316,0.07606857292431644,7.9027299101997714,5.810011487896747,-0.010295647193617113,-0.0034854365246773733,-0.010653520361693076,0.42641608847619067,0.3662960162325284,0.4981561792127494,-2.2205419458054347,-5.504105457727386,7.719816896245159,-0.00462328657313183,0.0009605007737905073,0.0015241432105438063,0.7088683744219616,0.10990114048450346,-0.3512643688528215,2.4093249755892487,-5.521271990484954,7.843737451570276,-0.0014522974473428997,0.004912354101942798,0.0043059372152374755,-0.051516817556769394,0.39029136375433476,-0.8133376801062422,0.2899808287728343,-5.862284391610973,7.907562048020084,-0.007907461498048655,0.0014361520181734512,-0.004994300855732905,-0.3065382903855175,0.4227553215184754,-0.4105403180813483
2.1975074219635373,-5.904545420993703,7.429849463952515,-0.0033630430349157587,0.0030174801801377284,0.010575380698007075,-0.5536580019371999,-0.12119777580528526,0.21777811144547868,0.08387399609850567,7.8967669253343855,5.792863137609707,-0.00894953108718576,-0.003201647372372968,-0.0129701630067811,0.4285791226190726,0.373565886020861,0.4943657505354867,-2.231605650943088,-5.520413417261344,7.730403725112474,-0.0045695124284982225,0.0038589091178339555,0.0023106426781521697,0.7061426151355531,0.1045226043030508,-0.3526245331286949,2.422348522479334,-5.533968110135965,7.832625018838917,-0.0019503148707742236,0.0029291681240907527,0.004166624533798021,-0.0510736078785577,0.383704517640321,-0.8162864948599088,0.28252918972541485,-5.855403290259537,7.91480811458742,-0.005803978067385815,0.0034663137047260977,-0.0016150117317631021,-0.30709126081431504,0.4191126263564544,-0.41396903615979463
2.2184085701637986,-5.895093412342465,7.444292627226798,-0.003571704523942168,0.0013694080414398482,0.010882954443058692,-0.5582603538327331,-0.11531487211158412,0.2226672968745987,0.07277399050475047,7.890626758468407,5.811197517764939,-0.00922010547687614,-0.0017617727072322983,-0.01016269752198352,0.4295441089393853,0.3707901408211424,0.48879265112960407,-2.225374820118445,-5.492501761260585,7.708143676672949,-0.004815168789850678,0.0033103071248797456,0.0005308354398665905,0.7086060170662879,0.11228222102910998,-0.35520606468812127,2.418466320538466,-5.542502540010239,7.837681901357963,-0.0019599914536413752,0.0030381011647712002,0.005249057421506136,-0.04841728707839602,0.39274025706084625,-0.8192341357693468,0.2603299006284258,-5.83954499238543,7.923550630822714,-0.006211015100443852,0.0035688751570756303,-0.0027092891199107625,-0.3063132430456052,0.4276700240034894,-0.4188231243194898
2.2124924657438725,-5.91184735004337,7.429171895465185,-0.0025766203844619757,0.002234713685177474,0.01070252246620653,-0.5592238274708444,-0.11311454184880924,0.2253554559627819,0.06219845138351093,7.91445228111494,5.792510186871667,-0.01061945577606092,-0.005236742093997467,-0.01095943179463431,0.4315300520786749,0.36501065542340705,0.4932762773835276,-2.236551418407095,-5.508958344033543,7.71858967845023,-0.005649998807569595,0.003310662514429678,0.0023805915630389666,0.7112469112336317,0.1112108165447827,-0.3603376360291291,2.431557542654759,-5.5112773196526454,7.838390567091315,-0.0034791750208810167,0.003149785009595581,0.0057692545070749425,-0.04754878868869698,0.3903137867334953,-0.8273069356738146,0.27519948835285074,-5.8573060288171135,7.9060920560877,-0.007618545152466896,0.0023574894168799493,-0.004796842650027432,-0.3043954200106106,0.42717661528968165,-0.4225030803854752
2.203597507945113,-5.900398725384623,7.456194927570806,-0.0031007215156807237,0.0015202716948867802,0.011287992915302556,-0.5599927657419446,-0.11920898011545007,0.2207111788231894,0.07427974061654767,7.890253947182816,5.80676790781076,-0.008642282187699371,-0.002666652772628353,-0.010133674880240024,0.42862628080681636,0.36314221241512507,0.4989339923927457,-2.228632275404047,-5.515192653832369,7.726875685837961,-0.00590297658060046,0.002518574568809262,0.0024239151450143096,0.7148893321914255,0.10294155655469098,-0.3570634518891497,2.400491150053032,-5.5728016522356425,7.82306589238246,-0.002426574419486742,0.003453253451442119,0.007002137258494414,-0.046482754766994996,0.3819971140949743,-0.8197683463560804,0.2814515707617696,-5.8475727563404725,7.899757820739406,-0.006209007055708785,0.003568850902516603,-0.0027083056728820225,-0.30200782853358416,0.41638334935742594,-0.41597520098597346
2.2259654607730734,-5.924684642153163,7.441059707090164,-0.004408227651531744,0.0015915784486281014,0.011746323638233941,-0.5600221143824462,-0.12433980629716994,0.22510161335182988,0.0676688272201176,7.895996472163338,5.819262156484168,-0.008824632987967694,-0.003156652333240951,-0.009793881389659405,0.4327368338187697,0.36494554381095046,0.4891226308759759,-2.2293022660947615,-5.481252176505545,7.714871743181412,-0.0037642157371545536,0.002289608677241701,0.000979663201951318,0.7114460735672838,0.09711233932730792,-0.3562126819065722,2.422500173192166,-5.501311460040723,7.834324338296287,-0.0030146072185929618,0.0027326368259193773,0.004015197167666424,-0.046468354522278335,0.3805297562029333,-0.8185502661248899,0.2756924996651601,-5.869555989349304,7.902714033618014,-0.006879307726423894,0.0023268081003823384,-0.0044960292780585435,-0.30345374478094145,0.4168789562274362,-0.4142521948815076
2.208204144093967,-5.908932110862038,7.446148376635987,-0.003152851658970564,0.0009546883857974326,0.012277499847385463,-0.5656103095787963,-0.11941562951925938,0.21485313919674826,0.07925075859036515,7.911505510419856,5.798637530618646,-0.008272582971100078,-0.001683605921682003,-0.010811329200738563,0.42637508261363966,0.3752640015815593,0.49410111456483025,-2.2427605134993587,-5.533669256061272,7.707430569037153,-0.006883359741983368,0.0009181571181465574,0.0020784331042493194,0.7129278335356598,0.10486682185949738,-0.35951962279719707,2.4043981637163916,-5.566180314377505,7.838876820034015,-0.003826768673906615,0.001972576565510554,0.007118657683131391,-0.047474650047393034,0.38493099634302674,-0.8212147832566351,0.2814563599787756,-5.850245914317176,7.897778605618461,-0.007660802770168795,0.0032079282692325647,-0.0038039247016775565,-0.3032544088156034,0.4198438115617282,-0.4232749119345711
2.234308949556354,-5.918190899452323,7.498525815620833,-0.0018408721205098034,0.001197986838107596,0.009992447866846778,-0.5697458339808089,-0.11695353789346238,0.21973918020625058,0.08281717519259962,7.878679198596709,5.805788369639964,-0.010635221579947434,-0.0028567195902233305,-0.012001970676861972,0.43347282404364007,0.3761142513585932,0.49992256171390825,-2.221696506249886,-5.488197107932518,7.722570176830976,-0.002084973628412475,0.0031283896948640574,0.0022317356218631464,0.7076005268247944,0.11343600405674324,-0.3598559584610377,2.435137555226063,-5.518803745414435,7.8360168233727165,-0.000596261897206712,0.0021164490741799554,0.003238202598100104,-0.05113512530902512,0.3947013504199612,-0.8218799111167576,0.29498181786845745,-5.8472281054126665,7.939324789526135,-0.005667104472124125,0.0009208755200469424,-0.0045888239428647755,-0.30753341086773545,0.429153302938924,-0.42051601890732865
2.2120177914599264,-5.8824160585223995,7.413480219049589,-0.002468739658435711,0.003067229401791283,0.010548242426852629,-0.5611860840942404,-0.11456516557344872,0.22218056230260189,0.07106331826479637,7.921399850356466,5.7921156456047855,-0.008800187686696114,-0.0035407771895122754,-0.010285669476176632,0.4288480368165018,0.36625480534261723,0.49521911708664257,-2.218140127514416,-5.516016366853914,7.722468410657054,-0.00636248470090609,0.0035883212052968422,0.0051202082338859,0.7137959299710646,0.11213986954847853,-0.3469428809737898,2.406792299870192,-5.504138965845156,7.826975348050904,-0.003947773150283696,0.003562941399261215,0.007521356841642981,-0.043195890250793026,0.3973604769527108,-0.8124571209899977,0.2835820078180376,-5.883682672228904,7.90523971945059,-0.006515528226461846,0.003074695552970017,-0.0024088256862474155,-0.30084250930099676,0.4307543998426944,-0.41055391220598525
2.2236440476202026,-5.906891957155309,7.472883053685718,-0.002470189515861199,0.002756606427014004,0.012374966616612526,-0.5597484708622129,-0.1192117253249362,0.22217612710745127,0.07752342406458453,7.898493649779528,5.8382617598744035,-0.01092422800610042,-0.0010336521970020164,-0.008699721812010095,0.4317962408850572,0.35942146345748366,0.49483321755174675,-2.2361450915242864,-5.50568356102096,7.712929592878013,-0.001962645425627347,0.003402693405234796,0.00312164308069255,0.7097627570588652,0.10441896375583043,-0.35802283990879274,2.411334883114829,-5.584932217634383,7.819173793027181,-0.0012911884875921183,0.0056053955887794245,0.004713199293770819,-0.04622858745089818,0.3854138978686459,-0.819277030144866,0.26547873492347884,-5.814154231953008,7.8871081516114225,-0.006161694959955447,0.0027213491616584146,-0.003698252825429959,-0.3036794654174284,0.42128931931124397,-0.4174061740607745
2.2072921898797992,-5.925878670456263,7.417655445820946,-0.0039368149718115855,-0.0013471522846944808,0.01050760746314605,-0.5582917900003543,-0.12068686484441819,0.22388351554150984,0.07758409971524177,7.913883474723384,5.777186754433036,-0.011157832830291444,-0.0047128925629469605,-0.011477344737411594,0.42711097481077004,0.3740413314427616,0.49387482624013146,-2.236951359576719,-5.491523704717631,7.741045287326075,-0.005518314982345441,0.003833456235740462,0.00144827450584632,0.7156201215976852,0.09882903920103908,-0.3543185714073052,2.42831730887472,-5.4645629081264975,7.8656298315787465,-0.0028651713463811964,0.0035376135100908747,0.005504924141993119,-0.04329647960774313,0.3817477908136269,-0.8188335578714954,0.26906363079064466,-5.877654043999825,7.9045429582533275,-0.009770963177513524,0.002705176631682045,-0.0033106571817504995,-0.3003258803419655,0.41269931964760176,-0.41478325242255143
2.222305004087288,-5.9006360145255226,7.468465901409671,-0.0037235303512752256,0.0033994854760401325,0.011842795329706767,-0.5553506714920445,-0.11875400740322653,0.2270586391662067,0.07620834543468336,7.887841391975647,5.795349653879978,-0.010335291047138869,-0.0003299245250011696,-0.010702687269033602,0.43638181388819614,0.3757738943073948,0.4935703353198029,-2.239524646090799,-5.5280801011623915,7.731831985177012,-0.0062855986608957625,0.0012096968238007341,0.0034004464513695573,0.7102897958063485,0.11318887969990367,-0.3591408732233863,2.4048871364749296,-5.591011768086511,7.810669896533943,-0.004568835351129879,0.00316912822382271,0.0077817679119359644,-0.048913270680740854,0.3912767325018591,-0.8197185004371813,0.2802202125519538,-5.837703266807898,7.895703715742551,-0.005588873804642385,0.004562070190879948,-0.003302303312729882,-0.30780310159846785,0.4272059086188434,-0.4212539154257342
2.2183545520921752,-5.90996078288212,7.41893037580299,-0.0033073124513835306,-0.00011581156440096206,0.011594576923306623,-0.5565210877534676,-0.11019826254217407,0.22291550247433053,0.0698416490930005,7.899060454733096,5.787014322480612,-0.009511477655658811,-0.003893163111883316,-0.01095949121949437,0.4244762485509763,0.3633818042474572,0.4994322985530195,-2.215483728111347,-5.4759103432180085,7.716946472833467,-0.003862295358480598,0.0033447838554763053,0.001396031705945209,0.7188539696586054,0.11293942245667142,-0.3565170700081813,2.3954644006640127,-5.47939580103467,7.848561750987376,-0.0025510393295895347,0.0023154897242538973,0.0022611529527570636,-0.03819111377399605,0.3944424070601775,-0.8215622403477869,0.28143154459033115,-5.860274784093028,7.905531524050607,-0.007159157973497849,0.0014103716339463267,-0.004691541533937617,-0.29826321940316075,0.42636506103377303,-0.41816163357597624
2.2073218483558215,-5.907232830556993,7.449468072808129,-0.0012620319836730593,0.002177366279358551,0.010243202739265612,-0.5553171539813028,-0.11289054179002196,0.22193685650982223,0.08987712490278747,7.898686283635052,5.789646319263443,-0.00899930697547575,-0.0016487409592152076,-0.010987444662457218,0.43371067308636413,0.36592837902335873,0.4893470412726638,-2.2421060139824274,-5.530170685175682,7.720384891603032,-0.006736785413740785,0.002522923985167253,0.004273601040606995,0.7088580297646061,0.10335953975919124,-0.34798777108399803,2.4162985897292035,-5.533444813776916,7.7968922769956235,-0.004797412339256983,0.0004005551784022251,0.008729496170810775,-0.049599588878556,0.3841895166449275,-0.8155728367112377,0.27390656060991914,-5.851179842405794,7.8992598067578434,-0.004850638166460035,0.004530394836714792,-0.0030004857942588533,-0.3100007878714445,0.4181499431412739,-0.4102869760936033
2.2329567935847816,-5.919025037794273,7.440219323834282,-0.0031473133807929086,0.0012802874968973017,0.01045078817163425,-0.5587458590306128,-0.11507256754413742,0.2277946141262837,0.09607556917727515,7.890959035553389,5.817051088240037,-0.009161216583133347,-0.002524926818488433,-0.011142391811375168,0.43666535698607734,0.36506651708732724,0.49570012060917423,-2.2136245530691463,-5.505070445558732,7.706186176153493,-0.0023063789523042194,0.003908282322470576,0.0017592198316958843,0.7160907289641208,0.10313702175943054,-0.35976123637800217,2.4191070416050104,-5.557619015284071,7.8187875951836014,-0.0008149322607769905,0.00507831026879508,0.001877680809987506,-0.04432191862324424,0.3871278630397052,-0.8229610593757555,0.2857592278784262,-5.822632329106872,7.902856056619835,-0.007510983195269182,0.001763693770698901,-0.003401130947726334,-0.30152961697178554,0.4176105167501141,-0.4186601506861513
2.222189482422574,-5.914440212247308,7.448955612636748,-0.003978775300750288,0.0049096524356732,0.011130193217865882,-0.5597222499315702,-0.11481910933731233,0.22364503767248498,0.08071911395097668,7.912375414338449,5.8066852401503946,-0.01040710922659194,-0.00473855417322173,-0.011293462838882846,0.43298959540036447,0.36845684755202146,0.49467936936368695,-2.2127771228156905,-5.504970020822949,7.724917873856532,-0.005548856027703614,0.002264501016881189,0.001966058983947665,0.7158922243463176,0.10322972078463068,-0.35390125175281434,2.4213563647678695,-5.465765967819198,7.85092155508158,-0.0040065907538570904,0.0013784817501314708,0.007791927591787628,-0.04036669116044371,0.38467508523818944,-0.8191103664804572,0.2963205394861576,-5.884397504332017,7.913675476915374,-0.005420439402763938,0.0026916435314640807,-0.0033964519399649557,-0.2978392892433822,0.4200125307785789,-0.41819147610391366
2.191984420759266,-5.906799034222015,7.479455603674477,-0.001108550081687679,-0.00014535125657272143,0.011109101436597065,-0.5568607875280812,-0.12655801446714662,0.2268079913974343,0.061883321996208315,7.89752990667227,5.817868347346972,-0.006980924987655789,-0.001840779706868628,-0.0096099736933825,0.4376311443607787,0.3687309305528359,0.49563607608820703,-2.247120371932383,-5.518629771821188,7.717809440711678,-0.003295104314748287,0.0020633532920716667,0.0032348922311298467,0.7129415097105268,0.10320375000400009,-0.35656334372280407,2.413814737286981,-5.591092676982391,7.824225781141419,-0.0014669835623253595,0.005012292574777933,0.005388418448180617,-0.04647175574938407,0.38614616008170877,-0.8192724225498628,0.2789263808217065,-5.835881423878459,7.90660136419505,-0.003895416342725761,0.0066918029179998265,-0.001012279222089472,-0.3026948994955836,0.4205384475782606,-0.41546429466540813
2.2089806278292285,-5.914017786064306,7.448399685976326,-0.002781164364292146,0.0006066193764900833,0.011008113176691918,-0.559028403559037,-0.12141857429366569,0.2273010151753133,0.0739231961256101,7.918780886073108,5.776275991577512,-0.010833450514150529,-0.0025712056393842764,-0.01066883299698004,0.4373935478699297,0.3633114017146175,0.4927962993224638,-2.230421454774613,-5.494712515580344,7.724627834339778,-0.0019616193290454996,0.0034047188959536257,0.0031236038237029053,0.7200272678737656,0.10607587952847797,-0.35788434495169036,2.415968927882576,-5.454798079679644,7.868687026580114,-0.0012708529601595062,0.005383530369292422,0.0025473128030455965,-0.0379087702698237,0.3885765468137158,-0.8181589909131096,0.26605768805112995,-5.8569527076280155,7.902872476087018,-0.006065075406674356,0.0010283379046669614,-0.005681155381186035,-0.29632572351898506,0.42242750576506666,-0.41526476385079264
2.2031588552571826,-5.891650663362685,7.450219812117552,-0.003296736358839827,0.0036129812581389333,0.009584897537722577,-0.5531802764184469,-0.12340502039771316,0.22607704997024977,0.09896255282492478,7.880990848513608,5.805542758623704,-0.011386821656082855,-0.0020504172847242634,-0.011187644011634733,0.4293324353806782,0.3702031702316397,0.49759336364800866,-2.2538744404694877,-5.5271198746883,7.727095691435298,-0.005647940912010956,0.0033186817592542293,0.0023824508043663994,0.7202260999238945,0.0989792993412938,-0.35875134464183245,2.417041728381531,-5.583810948003397,7.840746972035306,-0.002554628729016909,0.005033631686010347,0.007401909355461879,-0.04159643597307269,0.3824793575271339,-0.8195875179393406,0.27259795888039196,-5.849156432137173,7.9103034190925055,-0.0066069634348318055,0.0036753008981048113,-0.0037976413047028884,-0.29666316912970697,0.4153615184022972,-0.41797642644945543
2.220623295790869,-5.895762176571768,7.428212572195725,-0.0035118419230026113,0.0016553165140966864,0.011718197410267507,-0.5597701238650306,-0.12312474897532237,0.22900864655923386,0.08852039042022133,7.87981738491905,5.803649678460044,-0.01547801352787858,-0.0021183177393898213,-0.010425405468651762,0.427126445401972,0.3706480953708542,0.49539622645740294,-2.1998337453990016,-5.4983861700195655,7.690809536523147,-0.005294854614092529,0.0030595987212650496,0.0019236806596876538,0.7093446876200552,0.10770079142418576,-0.35123374614750547,2.416295622217289,-5.520185080698238,7.865289978213399,-0.0026185171584582646,0.00024296009236493468,0.0036151491372248636,-0.0481442364592267,0.39005027666450764,-0.8168007073593283,0.3000478120015566,-5.84677031906656,7.895833235643746,-0.007530608024055553,0.0021888960433033965,-0.0029041843776938226,-0.3060571608569985,0.4244714725030881,-0.41346727301349195
2.223106052916251,-5.917728732863114,7.434412488223832,-0.008637956173877772,0.0027780827534021183,0.01339724555098609,-0.5639100691940097,-0.12139086282759476,0.2285230371485101,0.042374788948051564,7.909981763770204,5.791106930902366,-0.010000656663689749,-0.006131467352608683,-0.010928717463586096,0.4357106663996615,0.3686348479321895,0.5049225720113674,-2.2170510100700382,-5.5088482738369455,7.720926930948326,-0.009135071541783136,0.0011282771646168122,0.0008084439166127348,0.7071235532322876,0.10597349108192244,-0.35314285446268623,2.4371003701291767,-5.502966270903005,7.811216515456162,-0.00943863548714646,-0.003949105540119982,0.007577886286674749,-0.0501061879771908,0.38761134158448624,-0.8172687200905643,0.2947977390925085,-5.8851963939806575,7.937824692788574,-0.01099572873781316,0.004539224341557337,-0.0027169617040810772,-0.30950843327147054,0.4215780304129249,-0.4139389504371371
2.193619156692636,-5.907318467004827,7.47359080444413,-0.0018923520710878241,0.00033876934466334,0.012807693702230937,-0.5592802446131662,-0.12263428407480718,0.22412598166186937,0.08487268903665855,7.901079280295597,5.792180153639326,-0.010480188381501106,-0.0011999110473879953,-0.010848794124998663,0.4229718607306635,0.3651682797294181,0.4896404390443029,-2.263104671910418,-5.48952460961332,7.723204436176539,-0.0018299436622179154,0.003924528621922133,0.0021923335259085124,0.7176851224982067,0.10773569402490384,-0.3461712706807227,2.384982899955245,-5.557580456756815,7.77671175852042,-0.0014689867107920047,0.005009294746166403,0.005388438938092011,-0.04096643574772383,0.3834350514135661,-0.808850992155294,0.24132473645368246,-5.815082131730124,7.898782195380602,-0.006148325588236713,0.007636194486528536,-0.0009168512556270352,-0.2970205847919963,0.41701759014089873,-0.40405002926852757
2.202979406672122,-5.942428440744208,7.422057576829885,-0.0033478370227381996,0.0030523919608832916,0.010574408710954882,-0.5614812812597368,-0.12335539885747254,0.2253467888336515,0.08606687621110772,7.9002404002699596,5.8303744378228926,-0.007585613330733939,-0.0001623857221779035,-0.008643581102403349,0.42615279653180904,0.3706613374930792,0.4963754800118155,-2.2354843150596855,-5.499267962451995,7.710706070567418,-0.0035165174018407567,0.0028432303240739686,0.0027613765927191774,0.7058226201068367,0.10292205867214324,-0.36138741729231244,2.412452672687451,-5.499774016003385,7.863331710883954,-0.0005782453397586503,0.010453086210513303,0.004990243882078711,-0.05605896673747675,0.38348091058958467,-0.8240341890933345,0.27229890277061786,-5.87049605255387,7.8754758543784105,-0.008006850695821946,-0.001344815495960414,-0.005288036234429597,-0.31204723590514,0.4174811794222723,-0.420771385592165
2.236039231372634,-5.925400562051419,7.464066021671312,-0.002615685804966463,0.0023183168355259192,0.008038603847672432,-0.5620038433079847,-0.128961109453229,0.21826189598884752,0.06374974522718026,7.900367093424251,5.786174400091111,-0.005364742466704806,-0.0025865891408959796,-0.014237808429745537,0.4281007290062345,0.37287199274077637,0.4968212394210346,-2.215018561554249,-5.537883508243439,7.719488756414215,-0.003042095093718674,0.0028584720198470107,0.0031935214344864698,0.710564128381725,0.10865960473073748,-0.35199128114468897,2.415126948391121,-5.5953616477888195,7.887520873583663,-0.0019573647039273093,0.00291918152490832,0.0041636974722538975,-0.04868241088876304,0.38810489201642256,-0.820459729613208,0.3074912884247645,-5.8769149817709865,7.922589146321083,-0.00463388613603448,0.0018154686546125612,-0.004087577502921099,-0.3056125320163711,0.42007181669939075,-0.41348918198595713
2.1924970879712617,-5.893429678466951,7.435481397223145,0.005173735591808068,0.0003700185898220146,0.011758278329298237,-0.5587497349540943,-0.11555620645629153,0.22291118179032698,0.061909745516675954,7.8840349094959095,5.806326253559122,-0.011261892966121432,-0.0020154208271501804,-0.008011196771339093,0.4341954174434027,0.3703687380224242,0.49195816686668203,-2.260238101846735,-5.4828115832187425,7.72073111337195,-0.002459255963648246,0.0020650077976363482,0.0013860970027244188,0.7081160682982962,0.1069679079066361,-0.35170084925379413,2.4096827542387333,-5.476820939759031,7.862835407843117,-9.081863265087498e-05,-0.0018556611540914189,0.003519912450212296,-0.04789998743678983,0.3902940120547066,-0.8168034413313866,0.2714417515722056,-5.854845331264459,7.890931490371284,0.0012326476288599024,0.005799177292825125,-0.0017871375295280228,-0.3043221289781353,0.42664913365886725,-0.4129834680218486
2.208037452011699,-5.866592938003584,7.434424144276822,-0.00356047504880951,0.001408344239047136,0.01088098685465375,-0.5527133959515321,-0.12682170433992523,0.22143590728028176,0.09524198905640631,7.915308311278044,5.76883150178529,-0.013766329575016629,-0.002452036449148452,-0.011385871432792042,0.4332543979438531,0.36831073105464884,0.500541723974435,-2.2394513137832437,-5.521949272858834,7.729234407712338,-0.008889391495632658,0.0016798943441217332,0.002589204091986874,0.7146752393312953,0.1092814048590593,-0.3576487524314691,2.4193686662757004,-5.558664390899094,7.818310098214814,-0.007150717153133431,0.0029713680000752717,0.007062202588712109,-0.04239448521927741,0.38932699252967234,-0.825179293799713,0.25360876828372175,-5.7961530626355495,7.885785288740503,-0.005084190788601952,0.002767479071037,-0.004188932753872667,-0.3000511241633694,0.42274173138477233,-0.42328919955050026
2.2369433776949994,-5.9038920676564075,7.474800012880896,-0.012187840342155035,0.003273191610849914,0.009849410209388175,-0.5509355404038339,-0.11511190628206273,0.2202249811489269,0.13161706497724496,7.901391238185934,5.823511464818398,-0.013692700647315374,-0.005600414230113085,-0.011334938836807017,0.43590697950768936,0.365926889784998,0.4888514770630859,-2.1978866942059785,-5.495443492624256,7.703830504359635,-0.004810074271747595,0.0033223407321462564,0.0005346087913546909,0.7161789939627979,0.10669543080402795,-0.35078305463773113,2.429245212473924,-5.53215549001384,7.810615087230405,-0.0033994343338995914,0.004993467765582649,0.002244463829869322,-0.04373580021388817,0.38515969981772363,-0.8154028922869797,0.320529844642189,-5.871352629133737,7.935736685402749,-0.016996410852567104,-0.0018110856507314993,-0.004817111260543361,-0.3011822393209202,0.4224634223723142,-0.41205058755462004
2.274632477223806,-5.908830954912121,7.439363900306531,-0.0066512585334418655,0.0007978622777453249,0.015043075540163582,-0.553670208724157,-0.12364830800379949,0.2285189341764615,-0.013585913910266173,7.857715143906786,5.838321447151672,-0.011186665726827607,0.0020583448353640233,-0.015077979786926059,0.4310412928838234,0.37218934639158346,0.49926383702271865,-2.192327557046947,-5.523087601135119,7.72283435819739,-0.00815997843251549,0.002488228589193706,0.002978994204224159,0.7143628545593717,0.10310822897797606,-0.36218874189131184,2.4411133158764096,-5.496218015475725,7.855659817360026,-0.005656865523051912,0.0030725528728306594,0.008708940251130826,-0.04313494863042209,0.3854222671465052,-0.8254211504076563,0.3602303705554609,-5.823853450027881,7.815532590071187,-0.012128921008936259,0.004677319533556911,-0.004108139620313748,-0.30202404517506193,0.41737346174323436,-0.41914509364724895
2.0754542683223094,-5.972350194283155,7.424908946328141,-0.030649040104489947,0.002650459034585872,-0.0006763797597127147,-0.5595580690870011,-0.1282456981314718,0.22070303529267152,0.09592849678706851,7.8891429852089585,5.819203996937249,-2.5037351355058815e-05,0.011217888949423127,-0.010181283693594221,0.43078555999352136,0.37436102318100484,0.49776350685535337,-2.3341247796968405,-5.520310368763209,7.724133042966284,-0.005013232125911325,-0.0005879102561015515,0.004320743244223293,0.7122800381962143,0.10890572695050432,-0.35127533187171234,2.3549229764497763,-5.567410710827736,7.796774969249178,-0.0024406445191159283,0.003436276377586391,0.006998288718547637,-0.04617670598769377,0.39175527165638363,-0.8158471446077132,0.049327063641179884,-5.809285442292687,8.003841755441307,-0.04198440050825862,-0.01314214005290573,-0.027828852613644428,-0.3033412032320285,0.42663728738147705,-0.41250355412713735
2.271185410280269,-5.9228885350746285,7.438988073935095,0.016040404711123814,-0.005937375106782367,0.0007204328870325721,-0.5587934462013137,-0.12287890033356057,0.22046366269812911,0.1122907049132331,7.982558046097298,5.77758888406387,-0.002692963926466367,-0.006825046451608551,-0.01279050367359067,0.4330105280624305,0.36632795288406694,0.49886617892663754,-2.1830723325849695,-5.523082989764039,7.6910336101418215,0.0025685430747230493,0.0095060697920225,-0.0009333346572851296,0.7117913384726349,0.11301211473298534,-0.35426603345496394,2.453222711971837,-5.5613459928981435,7.858998245293818,0.001849741350321928,0.007118742268705413,-0.000923586189078269,-0.04469500004480892,0.3924833232235162,-0.8146440741964674,0.4744972281820218,-5.896008944811668,7.890458779575645,0.020365590171773675,0.00018409781455726472,-0.007992856432467103,-0.30140068397818276,0.4253967268908861,-0.41252464191124927
2.263787537952146,-5.870192116125146,7.431305551568226,-0.010019540050283417,0.009180750895760864,0.011820233930458088,-0.5529270023884442,-0.1214437023184597,0.2150927418601447,-0.03597613321524176,7.753284479315742,5.767355631616669,-0.010828646880001172,0.005375383597993961,-0.009615395567664307,0.429333753678926,0.36921822130282045,0.49712161491223117,-2.19459695402276,-5.488516484694015,7.720107404699114,0.0016428955411654897,-0.0001481074303621897,0.008545852586482525,0.7134625028424207,0.10447524053425052,-0.35316870280099766,2.410711391514727,-5.5332842635742425,7.861817616561503,0.0042874230073488276,-6.868533781409767e-05,0.00778129046369722,-0.04252358982080978,0.38979925795126297,-0.8163869127585255,0.39866367512899303,-5.883510286102147,7.8437275553693775,-0.019028749924082374,0.004043637123055669,-0.007000216649774563,-0.30341817898043305,0.4198057456006301,-0.413508311127959
2.0883150944218607,-5.876764956296606,7.437932524526621,-0.005440821573931227,0.001138500392335902,0.007434128829748346,-0.5522067237175247,-0.12390072757996828,0.22827341026127398,0.07937082883041417,8.032663377104283,5.804332013880184,-0.014601699761363924,-0.0017869558997259016,0.0006016823841691925,0.42615032659955754,0.3684201512436837,0.49372725190703387,-2.320452137822059,-5.481500713541754,7.749836540155494,-0.006102636097875489,0.0038034142485205064,-0.001694197659973068,0.7097878949873809,0.10350301340099348,-0.35410215527061745,2.4211656123479752,-5.4834949913022095,7.796324966169331,-0.005822833925866428,0.005607668668534716,0.003017520534431048,-0.04670796572998455,0.3873664753376682,-0.8187779192423537,-0.03678161101849488,-5.807484194991401,8.050660504095175,-0.005319283248730584,0.004820216632197967,-0.005970559549862667,-0.30609965303030706,0.42105772444020917,-0.4144571308711656
2.2341278777865323,-5.893641615126776,7.417885700584224,-0.012695773656302407,0.005983876266813612,0.01025393022657179,-0.5524371664890398,-0.12145463257222822,0.2241256358770812,0.18501906491313985,7.90535801734811,5.691456020046419,-0.03242307856087574,0.006807979615630895,-0.00584468024689408,0.42763293183735834,0.36405039127301153,0.49501478035625607,-2.2255007482539226,-5.481444023457042,7.720522080680445,-0.01097585772390295,0.00398277810225751,-0.00012892560962818762,0.7068805600216111,0.10670391561696732,-0.353396397946471,2.326078623599158,-5.495122830006126,8.047979384465053,-0.0058576026037096204,0.011765835780816095,0.005042065163787748,-0.05133749823001574,0.38688208025045845,-0.817986035898267,0.3836889424597364,-5.818461082367998,7.641508908771104,-0.016953840677530193,-0.00822984746872316,-0.01146837651642436,-0.30878580659537613,0.4203487216244218,-0.4137059770706211
2.287237322260742,-5.953375310532861,7.450825627311128,-0.032443547281670336,0.011341879832246842,0.005300736142546037,-0.5582971549048039,-0.12166558823899667,0.22583564507991272,-0.08006005654333881,7.904303995588366,5.697072654625188,-0.06989890610169242,0.020508273095039307,0.0009775241409152784,0.42662782984738973,0.3740681863521924,0.4955852799104188,-2.1504512092437036,-5.337217897319091,7.968379776503256,-0.0646015133847706,-0.008317545700291846,0.006314189886348366,0.7097641484432313,0.10538722002223204,-0.35852602761395214,2.6110611000286,-5.243852948288247,8.888307630798964,-0.08120413985985707,-0.08486432530246174,0.04950481458988332,-0.050601359929273254,0.3868808152254897,-0.8177516776214945,0.33208483796048155,-5.8196755465074546,7.973957820101378,-0.03084330530248945,-0.03080877871448308,-0.025315564325913035,-0.3083297466699656,0.4193790147932364,-0.4163988608419687
2.1473978659680486,-5.604285336676252,7.463411342767825,-0.04932453922958038,0.0022990545494045844,0.017941128057300304,-0.5636597677154016,-0.12016740652819101,0.22412907471657514,0.24014765894192958,7.883374834739068,5.779565254771199,-0.07684198496869413,-0.06774392117951057,-0.006777237143205724,0.4332227847940179,0.37088205876335767,0.49366223304681656,-2.369664059934487,-6.032835949727006,7.8259865445846035,-0.08262756507387889,-0.033354448929931606,-0.06353000393941821,0.7081125463812142,0.11372301714722752,-0.35693396608258526,2.4602889747657786,-6.670768548997532,8.012151300411976,-0.11811252683889195,-0.1362039079587615,-0.0050219499692097744,-0.0533078045199975,0.3971424173709539,-0.8201375259162409,0.3298423743865093,-6.03184344832074,8.068873891376306,-0.046556086501285336,-0.007083803307217476,-0.007139286546251748,-0.30723864327082334,0.4310895294350654,-0.4168482506459127
2.4357711790850227,-5.613705376010479,7.333825010699656,-0.052974770852742,-0.0036448251016652777,0.0699655971251425,-0.55680619672404,-0.1175298325714733,0.23316303006787137,0.0766545551293862,7.779721673985614,5.764149501706248,-0.07207394478149313,-0.054828921097173286,-0.022681872871397196,0.42716687938041314,0.3624210935606289,0.4999270810465437,-1.9321478560105114,-5.389059042378723,7.3264111147564,-0.0633246627270747,-0.017212037141541656,-0.039122902971794264,0.7091084531533941,0.11375578306896134,-0.35450083926807285,2.3169341360160662,-4.925038194058176,7.169657692628893,-0.0829838343697997,-0.14859808044775139,0.0034398509457909984,-0.05277345423351262,0.39762327644569967,-0.8167253076756285,0.5924090319998552,-6.055057587544519,7.995200738662072,-0.06549303115542708,0.06049245504832537,0.048866032244296156,-0.30267308103772594,0.42469933075827543,-0.41788831139743926
2.1013991125276337,-6.151385798223521,7.503954100625353,-0.05615886881819857,0.0018959026512847675,0.07126318647238009,-0.5592713026313563,-0.12142192226960762,0.23267206403300614,0.013663188394200438,7.690165397216122,6.494730932723365,-0.0001693913028683181,-0.008354696142742061,-0.007909092296146475,0.42813990121014944,0.368107020560938,0.5039810993822215,-2.187429433062095,-5.133703666202705,7.306057406689777,-0.012844116830421385,0.018141209614579278,-0.0014344293521754352,0.7053866010610775,0.10423591572901081,-0.3555446361030281,2.419154263207883,-5.350915250440184,5.844355057194146,-0.003587259340428749,-0.029341458600791286,0.002270524961888244,-0.05693517834229392,0.3876177924535133,-0.8166900440329833,0.11164245432612724,-5.4721633216855015,7.788243621928756,-0.06614870176924885,0.03483550878606862,0.042482686919011005,-0.30735220585883305,0.41863218696153726,-0.41543394833175346
2.078610300124993,-6.702342976863889,7.288041574506734,-0.02220965927949412,0.010145986023698109,0.01372558411491851,-0.5658589195561694,-0.12039952411468155,0.22535031736539193,0.24235988097085268,7.861238319084243,6.209931172797195,0.13030649611382514,0.03376795314730394,-0.0200125315434895,0.4300925433753064,0.3601846562490204,0.49702471488421507,-2.3663913271808665,-5.685532583060693,7.633327494572494,0.05367863699849407,0.05487779037970119,0.04094064267968298,0.7096221943777035,0.10800915539555661,-0.34709008078208076,2.503549801698456,-5.287188945281349,6.685321818798128,0.10225717072069755,0.18541775648568734,-0.004443639950812842,-0.0531648077163189,0.3902842427314778,-0.808677658354677,0.2133453232970573,-6.273673175794942,7.569537202202343,-0.03489615100525356,-0.012062313814615915,-0.008956795378720371,-0.30700110188051616,0.42225606103251534,-0.4068764330548694
2.2859823800937455,-6.641039513702754,7.459102945891056,0.141700941789576,-0.0013541811575660757,-0.05031716125080679,-0.54952564298278,-0.12464716648580085,0.22558719637298438,0.04191064610672801,7.911243169765368,5.784383651915279,0.17632523458814142,0.06022721585511638,-0.02787768253958912,0.42788183722380807,0.37076358423323785,0.5022287051817145,-2.214819262791241,-5.776178854583016,8.103205800717571,0.10992307712612037,0.010841342871810676,0.07726829376827753,0.7090505571289206,0.10108155627979525,-0.35308151219261247,2.7704869600582813,-5.952274264447278,8.191866183977838,0.15751349509799548,0.29260435023404185,0.007789646726775347,-0.0454503291399567,0.38003456156429255,-0.8153903047974665,0.3281884839404081,-6.093485038106571,7.927135699585713,0.14944756911503998,-0.003378944945592018,-0.023028550077241087,-0.3049104191315,0.4159086247727928,-0.41204716274918973
2.1979666864902674,-5.8902415975897675,7.414932113479875,0.22983810367177962,-0.020096785107615537,-0.07804687510655765,-0.5563756811031502,-0.12679857825180496,0.21972767496227397,-0.01088993228029363,7.95954637423576,5.26929111009596,0.10979115203038817,0.042866451801828576,-0.02255045852663971,0.43229144421725046,0.3604433074218913,0.4975009697089361,-2.247010109062045,-5.685998757289571,7.610079456439035,0.13207771637222473,-0.005015333981991907,0.054314113865064836,0.7100996935653073,0.10991736614421571,-0.3498089600115684,2.026216955620107,-5.866464044286937,9.21031934346856,0.15049809681010423,0.1912196108065911,-0.021246933273117583,-0.04326251295669434,0.386382530287716,-0.8166278456794956,0.3093959869594752,-6.019645254954812,7.8580665255330056,0.25201230785627454,0.0034605129264519362,-0.01947848149215291,-0.30315048423879354,0.42175414822244056,-0.4130134043199429
2.179896036234986,-5.245288131652255,7.524600720508231,0.17135711910442028,-0.01224801002518915,-0.05067392682293719,-0.5675868200314714,-0.12331220876282568,0.21729107062094263,-0.011140874523134003,8.258555862398783,5.147982183225438,-0.04378811701970461,0.01697155933149834,-0.008265563182632302,0.42394956115590504,0.36715630222187945,0.491557419860052,-2.2390026857574274,-5.211693689832204,7.684127456366676,0.07633063391724133,0.01287900752784133,0.023876197433634498,0.7141597843749303,0.09739503279623753,-0.3528196428476919,2.198652744358246,-5.336924118106036,8.965195172598811,0.06248697457189897,-0.05195549813467947,-0.017618013492677574,-0.04207300903275932,0.37539706953382923,-0.8181298335089258,0.24062540214176148,-5.462005494290615,8.003368420892997,0.19802784711060398,0.019994745442741386,1.1376257364541578e-05,-0.30207030976492255,0.4097897142908729,-0.415514027802827
2.234514874096543,-4.926747911514023,7.623725536563244,-0.03410705551295858,-0.0014302126599161453,0.00943369328435989,-0.5546868250785087,-0.13022681660229954,0.21996827450556325,0.010215996463582388,7.868605025518844,5.515089212176522,-0.16217801045230765,-0.057296376076010715,0.0007768038925840667,0.43445339263519295,0.3674641652048063,0.49347063721269746,-2.259403134802148,-5.186426197777416,8.137459563478048,-0.0449541220204361,0.00850711665797338,-0.025172505845453164,0.7078018702067802,0.10151518504300223,-0.35698617364608004,2.6260287258196473,-5.21534106764118,8.118714660331364,-0.06846646528600976,-0.1147673672135593,0.0020306550932276024,-0.04970395083852362,0.3854260944493738,-0.8236257840545936,0.1906154402532888,-5.227679724763389,8.123253585456373,-0.0371623665873728,-0.0059700679603648275,-0.010684974879443733,-0.30669091284832795,0.4184152869842314,-0.42374163194116604
2.276378596383592,-5.186412659149894,7.431792459368425,-0.18907529697663478,0.013271406314037504,0.0845434709581118,-0.5544261362742192,-0.1275460028580969,0.2241206125236215,0.016036325322539336,8.009559675993689,5.943341605050734,-0.17956913809834057,-0.10831441177557669,-0.009040562279521443,0.42885893364626393,0.3640783357508615,0.496475329797637,-2.2243451423276426,-5.578131229959448,7.844145765594397,-0.12277688143078162,-0.019964357903079957,-0.039728531267207975,0.7171019779938476,0.10730781126931525,-0.3581248845624953,2.6465555468277846,-5.423798581293896,7.647427669245221,-0.1269187196217988,-0.07063365985271733,0.03335080100048342,-0.041598472065550784,0.3893167564734691,-0.8203063305039094,0.33924521950790437,-5.721497797374898,8.057035900726532,-0.2182735581000942,-0.001257332145107164,0.006849960306576488,-0.29708536612778474,0.4231840509885985,-0.41940556032389387
2.2506585956633853,-6.155776495033468,7.827599845823047,-0.22798251289159221,0.010594047803573361,0.11918904327483543,-0.5592799454824086,-0.12263558988473289,0.2255909810493714,0.22819635445996683,7.565912645286505,6.294312101221144,-0.08347526969843956,-0.047234671601307565,-0.019056184835622457,0.436160825274708,0.36548014560504577,0.4912993624697677,-2.275989335702137,-5.5695934488944845,7.607114566932313,-0.11874465540902718,-0.02828489192847275,-0.03045566327279723,0.70806630250996,0.10324547519893984,-0.35554999345776783,2.2925067577083187,-5.693117431374415,7.511065760002403,-0.11357584383432713,-0.014920232993300891,0.040089056583388814,-0.04936602304068565,0.3883426009143378,-0.8167879762302049,0.2750546534851511,-6.019792491658674,8.003797163308866,-0.27404475562473796,0.016338575040170146,0.025702872548303803,-0.30536453604018626,0.4200673348171199,-0.4130022169887269
2.0911745165860935,-6.807071913814986,6.862201482182384,-0.08070721497935203,-0.006894417266101677,0.05663935761321392,-0.5619407092950822,-0.11871882496956777,0.23121001784694598,0.1533295734649351,7.953866471038547,6.187673630279386,0.01758290416144819,0.033337016217679226,-0.008120835545159143,0.43131375813985356,0.3631624038998678,0.4996565620353095,-2.1465577543788084,-5.4899859750800974,7.513717063244932,-0.0500248057248677,-0.0017866930719387328,-0.011315500035611749,0.7173223349348232,0.10532710029544763,-0.3598049598157396,2.2649104134860503,-5.4019366065889205,8.108268589293093,-0.05011864290711654,-0.04583630456582472,0.014423294973683826,-0.04284237523556047,0.3859029194027697,-0.821761738130095,0.2624436086508326,-6.237544271638056,7.617983875831622,-0.09747098732594613,0.018216193762814237,0.017217936679546055,-0.29881666346524954,0.41977735413220746,-0.4179404132125285
2.2279677575270638,-6.662571383822625,7.594743656135386,0.04668485414670161,0.000722287433210484,-0.015374894964357486,-0.5512237336513535,-0.12293159677129516,0.22949507388334398,0.06283245629894654,7.775360302878914,5.88016770801022,0.07221037221629666,0.0721845330604232,-0.008549696908812857,0.431284686309902,0.3635168078910081,0.4915926333625244,-2.2773507819884466,-5.558861173481035,7.649743228973942,-0.020215393303566837,-0.0003102413013851272,0.007706944136103484,0.7075801243374399,0.10252665548242365,-0.3548018952023813,2.3023004868386767,-5.6666896392765125,7.717571522732045,-0.03755096909107366,-0.08938666971362597,0.019810621894033764,-0.05081117386297747,0.3858988867449839,-0.815064587081078,0.28943521317272847,-5.847365108987222,7.762498293006609,0.05451714826053289,0.006039509277749799,-0.017222469951288913,-0.3041549505671695,0.41883313041991826,-0.41277326395993036
2.106700032476449,-5.97729502075909,7.154617045900942,0.07158091700637992,-0.006545090691505942,-0.06550547701044328,-0.5528940145619403,-0.11632876245094173,0.22852529987993295,0.1025760161357715,7.905190776190837,5.369941953287766,0.03410520929242346,0.07467205000798162,0.0011549011756360318,0.4339805772160549,0.37026159412957205,0.5002618669975236,-2.1741342938552894,-5.111907024213369,7.2224885799332625,0.016424719594788906,0.04680873762960584,0.03475875592933785,0.714642849495195,0.10317923701024109,-0.35755331950545877,1.903938946233201,-4.625134407446628,7.704773284563261,-0.009732484390310025,-0.1168786425438847,0.013091814644700373,-0.0459816344039856,0.38809962726208797,-0.8192750762201707,0.1442693601966897,-5.793806025662567,7.708959648083882,0.08394493917527922,-0.040806758489414126,-0.059107345266432805,-0.3008036915124304,0.4176061956115488,-0.419398162579837
2.341396864183721,-5.38569772338968,7.64069864064896,0.04209877501038976,0.007982492640862838,-0.047978500892203305,-0.5607516246655976,-0.1238501016130299,0.2280312000238892,-0.0346268728007363,8.182073027433217,5.6897456866312455,-0.07391019410529438,-0.003455085238758698,-0.011743427707046127,0.4261568658577188,0.37736973765097104,0.5033452873809028,-2.163055107498245,-5.566656709435485,8.07463898553667,-0.019122645306472313,0.06457605277016693,0.058819276586060384,0.7188781250675814,0.10936549109232883,-0.35084565923843575,3.1793499143327,-5.915192416345304,7.2893842497141454,-0.03364132723203283,-0.12326967061153364,0.0617904793102569,-0.050565999849945024,0.3956660164196386,-0.8157819772272427,0.36026374039194414,-5.733065932998512,8.131658414829454,0.05669103910678088,-0.031841580549795974,-0.052653009857787765,-0.3009040666822411,0.42465176076004807,-0.41057872985638255
2.2188144054184367,-5.144007604406066,7.463577023620591,-0.12136809233882483,0.0011710305462574826,0.010093829525716368,-0.5573235523827865,-0.12216151290768311,0.22827600526892364,0.13218299396328362,7.5880098778551615,5.534201695832598,-0.10915731254517846,-0.06566644917349154,-0.005265835248037582,0.42888066276412873,0.36418353967984923,0.5028224207831801,-2.4259131130428244,-6.16587212713334,8.420244179358047,-0.07377099525693102,-0.025526857642973987,-0.01630066792119884,0.7145377568606209,0.11698396163519117,-0.34922153226816965,2.8712271650083783,-6.536998469219657,8.493069836628202,-0.07089183427874211,0.01981968901772325,0.02597188760633516,-0.04901454015504085,0.4015116113721749,-0.809686494107262,0.3289095186734494,-5.560268320829776,7.965385920741556,-0.14240605380486981,-0.03321401163230808,-0.04858915958332093,-0.3057033831154357,0.43275635860710243,-0.41026166596441604
2.332385117248572,-5.769750161921467,7.34946403848094,-0.13164149898124433,0.012836790471490205,0.07194435119147377,-0.560433126147459,-0.11140098599553984,0.22828623146569313,0.06928719471230331,7.939611058670816,6.29700021307527,-0.05971610030351041,-0.08906176082846119,-0.01952938928064723,0.43204022345001086,0.3663573866002776,0.5008222925775963,-2.0700205752840186,-5.724096396297216,7.498285641412979,-0.05970143417050982,-0.07520815123345485,-0.05958565173789797,0.7081319255214971,0.10748249425487258,-0.3499997394870004,2.7048451156913043,-6.3875271054737,7.280501580674347,-0.05712099421801511,0.012612318783276191,-0.014605327913282284,-0.05510824841442137,0.3929704035486564,-0.8081579148436897,0.5479336519046452,-6.462944876933071,8.102853132140556,-0.14700176710434293,0.014523371372973156,0.02660985460620242,-0.3079807522976381,0.42079589012914326,-0.40540938295580037
2.2429367928113355,-6.399708177704681,7.437645833925614,-0.03334274464260164,-0.0030924403417521133,0.09109608975928091,-0.5567922449736326,-0.11508691774608196,0.23096820376391383,0.03030244427772896,7.678646144040885,6.167511025778621,0.0573563408034812,-0.030609300036855185,-0.03401792042275212,0.4354067609843085,0.37652307635496524,0.4947814303178185,-2.192218300236443,-5.760889965482371,7.010145026266003,0.017797037837422335,-0.011232641859417133,-0.043464578176619036,0.7113003815754197,0.10962768775650143,-0.35225613485903307,1.730087676017812,-5.620018049325131,6.813332039616595,0.033583549186107294,0.06188069775143106,-0.047264173280195505,-0.04909236124254834,0.3920005506881127,-0.8148313204932955,0.38173186955045724,-6.142688726534683,7.829438594882026,-0.04465481217647987,0.05673321838326018,0.0699731634439991,-0.3019074276922734,0.4239387440911321,-0.41301455002901327
2.0037485274915796,-6.724460513161186,7.321497159934594,0.09892721139671141,-0.014097374262535989,0.0174312423301484,-0.5575202224345347,-0.11385204062803042,0.22022744860797946,0.006833607779410104,8.29230833193032,5.330124367193014,-0.028330866402773998,-0.016287938461713683,-0.007907219899281887,0.43205419815386253,0.3634530811665532,0.502335593821662,-2.385214301033091,-5.551409833757016,7.715348342986669,0.09941717690830235,0.029490267108846842,-0.01996074320841241,0.7132315243273816,0.11681925565551675,-0.3601964885555253,2.2382558700099566,-5.81260915733864,9.283484481404328,0.09125828179234081,-0.020506472055827812,-0.07325563203012632,-0.050852398283531816,0.3978698856587799,-0.8191922565873547,0.01879791229199637,-5.810390478111429,7.699376042725183,0.10309334310099211,0.049658918512173834,0.033241658554626914,-0.30284164018062615,0.4317793399917956,-0.41736952717580805
2.250280169412839,-4.71986546746339,7.640838726833521,-0.010206489182678852,-0.0032687249654729865,0.018962178399750205,-0.5536449786439791,-0.11950164594279222,0.23218462663421854,0.07361238222771482,7.855396624268364,5.023342690354098,-0.23068082179929947,-0.11136715302943584,-0.001067873643301027,0.4327637374300275,0.3608639095919636,0.49334078678799437,-2.232975085650577,-5.826816117025891,8.065940811510652,-0.05116470680491328,0.019135890463669147,-0.08494312456420305,0.7100997822298927,0.11064164008469822,-0.350309332124377,2.406089342350396,-5.727615648201843,9.880379998393494,-0.10127849432802448,-0.2801260738831448,-0.0372290404316737,-0.05901124820304158,0.3924861591698032,-0.8078636088267963,0.21481710004360052,-5.343889730650977,7.892592826574414,-0.020768094055879937,0.010489481778201517,-9.489104753761344e-05,-0.3021422010590009,0.4229551360321612,-0.41057559971123253
2.126205480504972,-5.272685639731428,7.27155615707433,-0.24796896723106004,0.015297666738740277,0.11511331501486666,-0.5585194413612296,-0.1182529553161964,0.2334067354416446,0.2346361271106705,7.928428846575494,6.093620422753381,-0.3107714844360527,-0.07470273327991407,0.011383427687750912,0.43861851399555657,0.3655683981740057,0.49617318516201725,-2.1582304110016626,-5.460637121581732,7.7464912923419185,-0.2049876396887611,-0.0015173336048767733,-0.17375634474332777,0.7109852848528662,0.10683015603419731,-0.3595351641430886,2.6217205739830822,-5.921083048027175,8.253641114737485,-0.2916409302756049,-0.4585908952537186,-0.011614939017169694,-0.06522152671095438,0.3915323488968842,-0.8158416617106414,0.1853184216848872,-5.674504759909644,8.11588573164168,-0.28427016030928165,0.009335665099570794,0.030531010118958465,-0.303385989900952,0.42199754927012517,-0.4122784288012504
2.3406089942200228,-6.444939579838976,7.515605606879019,-0.3129238434011135,0.014912868979117597,0.13194624186723572,-0.5589826543211573,-0.11410580269030986,0.23975852919233875,-0.2511623495163441,8.565486594622653,6.452958950508138,-0.14044217370783732,-0.02540948856609461,0.005478621726963579,0.4330251069212217,0.3604535923552873,0.4979863574477045,-2.106214057098456,-5.415907312084346,8.031185094701478,-0.3005892182273561,-0.0038427918916200494,-0.23505420592694054,0.7106352791769553,0.12594936702225898,-0.3549469263309419,3.19102970223299,-5.045346778651664,7.146947787784804,-0.4176909306428594,-0.4460464489462449,0.003574736234594999,-0.06855866378978656,0.4064185666152807,-0.810885643635858,0.47219834867605925,-6.188212611518784,7.739854818339778,-0.3488537742424603,0.025259762216714072,0.0325626578083796,-0.30033020164568,0.4319643431181772,-0.4090880376764235
1.7470205400359178,-7.0661690236872055,7.661857144468698,-0.10372319799612187,-0.0405074927648552,0.06479209993018058,-0.5589897018762305,-0.11532643432792625,0.24049044294218735,-0.05045089691921528,8.344413938595226,5.832979924562638,-0.11920744822741974,-0.005325183104466452,0.06703389755199192,0.4325066008699128,0.36377254273765364,0.49207328135871786,-2.884985224585918,-5.451500073039401,9.231603113556082,-0.2485044350848821,-0.0741971802271536,-0.1490642818199012,0.7003907182908091,0.12433051469171767,-0.3526447994052616,3.582988086171737,-4.712437433323026,7.105512579205828,-0.3212833497982028,-0.17735586696089695,0.044375891990970244,-0.07631552845163896,0.4064189929260862,-0.8066334801352427,-0.009231165683920135,-6.403194965063045,7.545960998952247,-0.11134967041436371,0.03192387127213421,0.0209359713797277,-0.3032937112747503,0.42734898262211946,-0.40761778423914213
2.0171218014018355,-5.712949983363782,7.2783330088726474,-0.06567464267715643,-0.06768511551786918,0.04196009700370731,-0.564634806446043,-0.12017013034961897,0.2336512753579472,0.37444670548709924,7.828787036094051,5.806561087582011,-0.24370660580521028,-0.019053635159763223,0.1346782613939699,0.4361800666894903,0.3586370277414326,0.49092465235160354,-2.533906704462553,-5.80443456948728,9.07555516595,-0.36373770772513947,-0.16883704297942354,-0.15459757666543586,0.6989600468244812,0.1350333065954552,-0.35573107768512,3.681230404762948,-5.801920818926348,7.759223785634284,-0.4335793052125449,0.14119886100943832,0.12636780091084968,-0.07211951499380656,0.41934974782594947,-0.8042213207745555,0.08950067814444264,-5.922998188020979,7.46204799123792,-0.06518683863471825,-0.020052741034487495,0.009358630872888693,-0.3034616286461846,0.4336929811905636,-0.4061250180417928
2.399488940775126,-5.836383343322673,7.429369977631112,-0.16084547274387417,-0.06556371283674324,0.07687943492807885,-0.568457247055462,-0.10623742901447907,0.24050047744966963,0.34753305240191373,5.952424910317481,6.303191842199406,-0.30668564801143466,-0.011808467720794413,0.015298670526988334,0.4276150126598764,0.35826626714160364,0.4848562459671061,-1.9213587106847256,-5.879713715113566,8.42166162402476,-0.5548360953016764,-0.24823326900262427,-0.23585314047444828,0.6963539217043427,0.14583411606815677,-0.3529488687439038,3.638091739885797,-6.120954466943648,8.46174764011781,-0.640836515876411,0.2434647146910415,0.17788283122828977,-0.06292668723685099,0.4312812251304939,-0.7930878969901984,0.22156233779562454,-5.928112254212494,8.094718813387294,-0.16179957723393038,-0.04377206146758666,0.02642350466533947,-0.2980413048255748,0.43557667819720175,-0.4024995705843177
2.427425170064323,-6.399394874009492,7.095374300360004,-0.19047408054134002,-0.04959411756200091,0.07067671635112624,-0.561879513141828,-0.10871836038765256,0.24171692353685711,0.5442320713774028,4.891269042830096,6.894409494334537,-0.22085710328579905,-0.07520814241447615,-0.23999396847581353,0.42644629810836726,0.3528183188101955,0.49520501595563116,-1.5974641790470696,-6.294482739073969,7.054556272049954,-0.5297469053744099,-0.4578112128764714,-0.2590809431988585,0.6790180398111019,0.15920588466139932,-0.3625452839429442,3.792275497248145,-6.967444669950955,7.107052040023723,-0.7301304942311988,0.274983608910897,0.11644513627045261,-0.06264175311139908,0.4442161510409668,-0.7911134453613333,0.68523886516493,-6.552690480313455,7.849655203485049,-0.20592224552246324,-0.0301445932455178,0.02086023602571768,-0.3019270796625253,0.439285840841328,-0.4044053429726004
2.4267209941857963,-6.307229150478523,6.570804375622277,-0.052082264349126085,0.01677206883146887,0.08929362131966774,-0.5638596031342912,-0.11309653872337774,0.23585442295414202,0.5002038358651899,9.075474202471721,6.01164293300301,-0.12105555764875027,-0.09462816073120946,-0.3289044760777489,0.4396629835493736,0.3559887847488282,0.5073159662769502,-1.3975413347265029,-6.371886317628135,6.953002975073522,-0.2553524326553693,-0.8882330057876485,-0.14766852707135752,0.6618389153378312,0.1579102684544641,-0.3731363202933776,4.269486042682266,-6.668753804755066,5.441920097666001,-0.42950396668722896,0.5135850919577413,-0.016795053667498422,-0.05741850643292343,0.44761490202010135,-0.7840947959957058,0.3822456658744943,-5.64838009606775,7.860772780610113,-0.07148129022673053,0.02301832605067043,0.05976318614621334,-0.30487901086878333,0.4344204075578919,-0.4012281500105736
2.3142116522849836,-6.7299518642679175,6.9830237319176565,0.008686324680936093,0.047385385966846695,0.03169647602353184,-0.5689399233896042,-0.10550691475446936,0.24538322918126335,-0.14022838478997487,10.257669064178069,5.425269916206699,-0.32291935458266563,0.00922602443543573,0.03505246721746449,0.4413235138238525,0.3604663802240111,0.4972256312494021,-1.7166699326539614,-6.6512420276314925,9.544073367541154,-0.11456985849543158,-1.1850477334884275,-0.09696175034660445,0.6539283998042398,0.1601696982758984,-0.3875163288077987,3.517410726546086,-6.304149476686775,6.086469993278073,-0.1580312609326973,0.998425518353291,0.0010008526284730392,-0.03631778947132494,0.44830859958851044,-0.7763126615590558,0.4561692194320954,-6.781819594807019,7.465305748446761,-0.0135315710682794,0.0251076833138876,0.013103884043810604,-0.2955935054891223,0.43285007865509795,-0.39838081599761777
1.9812586710578435,-5.5341962069300425,7.870360909102533,-0.07727480993426691,0.020314519796291897,0.05585090879358178,-0.5687089943667627,-0.10745457375068564,0.23781344284208128,-0.17411803398815717,6.893737553042175,5.360020231753719,-0.4446761076040904,0.09292200683423874,0.03297386721288729,0.42815704273479577,0.3530795623606701,0.49592793409102487,-2.0173027249285584,-5.08548813755551,10.65808642110745,-0.8828793741404364,-0.9372768165732115,-0.39755796397101334,0.6317656135925506,0.19010196983551098,-0.4014852063796208,2.2138020162427745,-7.09321655326703,6.722312287111557,-0.9177017382390062,1.4069727503595248,0.17756723341838787,-0.01479016258199412,0.4748949268301165,-0.7753226487732809,0.12334148720258299,-5.640068676806743,7.748018118608531,-0.07073244863691017,0.02541478898992088,0.014300053965795388,-0.2950775131178762,0.441419045342242,-0.405429796830861
2.035717048170078,-6.317160580011967,7.814377880355133,-0.2310995165955973,-0.016798539947783298,0.06019523900528995,-0.5645355194436803,-0.1035743006322625,0.240257050337741,0.14053487133884784,7.190344118533571,6.099104422064723,-0.5102496901565515,0.24385132569301887,-0.24394964644758224,0.42943683078415756,0.3518814287853897,0.5118146847180253,-1.7845870012442828,-5.81202831665684,7.284365650942778,-0.892489688118221,-1.0662517580115578,-0.443113828436783,0.5982980853429468,0.20521285223819483,-0.41464605182640873,1.8361275011108866,-7.396982057953428,4.650607524508422,-1.1029932168365482,2.037111251331576,-0.11038490462860374,0.004108577754681564,0.4882888038020113,-0.7689521803957868,0.12239587448645213,-6.2053734744498605,8.02120478367706,-0.21528181066808746,0.02549778027478763,0.006430385877097697,-0.3063494148596658,0.4400812051184392,-0.4087609023018745
2.306180120512016,-6.572934870413536,8.049378772851167,-0.39820098672729703,-0.1356720772386109,0.03010238952587272,-0.5540611499255121,-0.10754141989060123,0.23829837476813107,0.28746023697810075,8.384856000277905,7.411057998466488,-0.2326812620518987,0.32085507942340563,-0.254411422823614,0.4254987934748411,0.36013715912934313,0.5097380468973263,-0.959259302995894,-5.312566614079658,6.768077709222542,-0.5694411156862424,-1.3199234180720008,-0.46796432776455665,0.5793202017621288,0.21848598449577117,-0.4154388455358984,0.18607208069705933,-7.292622134861768,8.286307875939938,-0.72110238083792,2.307511774816555,-0.29620960118780226,0.03928889879705025,0.49602529147187907,-0.7493781454543177,0.4652866523636508,-6.209572645333854,7.785959911816573,-0.33745474743679965,0.04911628915227627,0.027867818039374992,-0.29671417614720885,0.4413997562220567,-0.39662706066201786
2.6313770757631803,-6.776625000190561,6.874309324569582,-0.281143826704377,-0.18650886222036295,-0.02234284644544873,-0.5562350625539891,-0.10387283524187958,0.2453820915579888,-0.09613355579278181,8.111585736556714,8.442069517138515,-0.10085601869199677,0.006887492740442267,-0.067741616428529,0.4220722786220042,0.3548832905261289,0.5027558471248013,0.02496063244706925,-7.965988970390929,5.771463494416638,-0.09037005675035857,-1.1537930007260682,-0.40335555198667133,0.5580520340888411,0.23713880480609575,-0.43216817727065876,-1.1255442417348815,-7.3110094572198685,11.404317154137907,-0.1590536155583056,1.678539838773576,-0.44725678287289045,0.05787345122496343,0.5096748196993207,-0.7483745318720946,0.7606934152206218,-6.717767874170089,7.829137584558996,-0.2509725199591285,0.08934766947335786,0.03664776507570954,-0.2952024038199524,0.44823176603204606,-0.39929624263160163
2.39907694053152,-6.295491907762383,6.5573774763532,-0.16669981720260643,-0.15599474739669644,0.03976301017602252,-0.5550365782969892,-0.10778836275503594,0.2480643579093116,-0.1560938174646139,8.789460245653478,7.986383250672137,-0.21518053933972925,-0.2544428334791887,0.123202024182012,0.4181711732507391,0.3432565752948746,0.49441569312061134,0.46703178541600787,-9.1443643524544,4.708951840249737,-0.022403297009656913,-0.6385978399505491,-0.256548692498305,0.5426598358211698,0.23816487724888666,-0.43426300466947876,-1.167098310119656,-7.2832759805480265,12.402185866311187,-0.021874852283924075,0.30374411202663226,-0.24698921805558469,0.056723535298668235,0.507223287073492,-0.7427486887222237,0.47545133471146006,-6.520372076975743,7.607064216480306,-0.1515121210939706,0.15753161517581993,0.0021922654272153977,-0.29494949388795405,0.44871525943996976,-0.39880829315594774
2.280938432186324,-6.412010421530118,6.857766866672384,-0.18246112678809737,-0.17399395463446055,0.0643311952934123,-0.5513749474119807,-0.10755835340761721,0.239518811703126,0.0005262285092502185,8.179340529186037,7.292743187509091,-0.36105510598512497,-0.3903635580270684,0.236338134179649,0.42186117078197477,0.30227697915519314,0.46675824717113723,0.4311757501650303,-8.228556173652429,5.382800876987566,-0.15519702125389326,-0.05604388799133324,-0.1364648455161017,0.5288179378788976,0.24466650357844547,-0.429129164934299,-0.7942303338357851,-6.896986251417503,11.185505020909964,-0.14905688100260475,-1.1026135359192106,-0.11466462771714132,0.03392879887018968,0.5145518525455215,-0.7314483992888343,0.314794804691429,-6.567179659665557,7.493270799299614,-0.16063893963280662,0.24341978553612442,0.015463178075502897,-0.29899958629553963,0.4526323565430553,-0.3914344601109828
2.2769897136845696,-6.9467790902440365,7.13014212727095,-0.3399817114775773,-0.18090218487053175,0.0973362148372606,-0.543984862621964,-0.09687215402975173,0.2534428335952687,-0.43684339250638077,8.161978112962307,6.896240263053903,-0.4666961391703509,-0.34271282900535877,0.2717881138729804,0.42158630559396365,0.2887542394342156,0.44647239238098557,-0.06074500901540071,-7.375043462256371,7.032063996693665,-0.3883126120827354,0.28560045950643315,-0.09735433714117372,0.5314847047572645,0.23664652886243254,-0.42585029363902677,0.1729637646694579,-7.376469094177727,9.027710946409293,-0.3837709260945922,-1.9371932269880452,0.008032046634713175,0.010655786088621255,0.5050653599317443,-0.7365327964957509,0.1336712928705876,-6.662348049191033,7.454083988127834,-0.3376069461968451,0.2427147480293035,-0.01626748519938651,-0.290133609334391,0.43765753604243823,-0.39352250955931467
1.905119047550622,-6.753435384692382,7.618319596275459,-0.45564444176067664,-0.21762362440373414,0.06826408804769818,-0.5347110589885525,-0.09716391234384585,0.2456276767027244,-0.4359569996505546,8.292222006997603,7.5222823744930825,-0.6753957466733209,-0.3559866822722825,0.24349842328516297,0.4122838222801585,0.2568941304867089,0.41162625497596783,-0.8900809531584657,-6.940911273647939,8.501109681674356,-0.5012588708589608,0.3159713715516208,-0.1420339458122152,0.5272747570805245,0.2561184714077642,-0.4156217354282908,1.2227260186441933,-7.308265659453291,7.253123351278901,-0.4952774640931549,-2.019578335589978,-0.01312892059797439,-0.01385241579751657,0.5255815736535954,-0.7266486411536066,-0.4091425089783033,-6.2251183929844425,7.734731751925837,-0.4310503986291489,0.23596903308546305,-0.06844414561789362,-0.2884353891685877,0.4529833930684953,-0.3839514604169627
2.0172786353439465,-6.849657904391531,7.48590687285819,-0.671565233740481,-0.3100711453312298,0.07463477648571411,-0.5383669385641607,-0.09591632642096186,0.24001453285157706,-0.025431998848145163,7.931430520982878,7.874579914395743,-0.6163708834367133,-0.4863007068261559,0.28497198491751197,0.39517532309378844,0.223309913848215,0.3773244886458109,-1.0064012567953686,-7.6958529780647495,9.000174207901235,-0.6849055259258484,0.17044045663225604,-0.16529414730481273,0.5175423761748426,0.2634830645599668,-0.41639315334955507,2.5445290022936473,-6.89889980723262,5.610426363669182,-0.670874316689314,-1.6106685243740229,0.02991497333199687,-0.039152018290449356,0.5329212243406104,-0.7201988871666556,0.04270282730385547,-6.907132450669311,7.429608455971097,-0.6443390466455509,0.2859333887058213,-0.13141854899559766,-0.28402133423831716,0.45366608975515516,-0.38251982383368516
2.266472342472168,-7.254420505257358,7.042497025682886,-0.6027967516110504,-0.3842173187274718,0.08268264908091671,-0.5297845822774072,-0.08986937169602668,0.2473421734078412,0.1776480595135643,7.611637579069144,7.539130592899986,-0.36638034675653436,-0.550788558259339,0.3633762401329513,0.38393613082959355,0.19028482120246845,0.34616781589360074,-0.6580425751993144,-7.7231955838168265,8.919528015397525,-0.6161987125491831,0.06326165003223806,-0.059618976936272335,0.5024743523961855,0.269015451296519,-0.4112346753372873,3.307366598098609,-6.4889069587492925,4.185444703421924,-0.5788170860241405,-0.9566175278760324,0.14851437110553029,-0.05640270996625382,0.5402531002373916,-0.7143418213022037,-0.3377482351451165,-7.000943921360735,7.573052274423342,-0.5730618362784674,0.3088013746570355,-0.11975363408713793,-0.2900961802486078,0.4561662773247883,-0.38197052785890645
2.390056634408542,-7.456440454166436,7.228185801257393,-0.3142281810413479,-0.33882154904189005,0.019396164267709865,-0.5119466103733402,-0.08704120747345463,0.24245904997300144,0.7793736088607118,7.477595197866472,7.187241958355773,-0.26457516999162634,-0.55458101490077,0.3322001495748217,0.36824092643256506,0.16611540422850965,0.30511221545864897,-0.7308393420245792,-7.62946642148396,8.73848591405873,-0.37980312771166186,-0.04523890105783018,0.06162136736164594,0.4947540555740991,0.2721397447369021,-0.40145698253799866,3.6654442557905322,-7.492515969829566,4.063575105648977,-0.32459741668075287,-0.22687424378030374,0.19331871176711526,-0.05505089087421278,0.5436508856761686,-0.7045871307251311,-0.29091172401084026,-7.1677060184211046,8.114756538824865,-0.27484582732759155,0.28279995166035826,-0.09320593044710584,-0.28445614652816414,0.4536436526912299,-0.37592406611748913
2.8914255280483228,-7.2994536966769665,7.018415269875204,-0.22138134672647436,-0.38551778336233133,0.01789758360693282,-0.49728932905566153,-0.08541190841964541,0.2348885062694302,1.119406098999158,7.405275675656574,7.291125442195022,-0.22979151137063386,-0.5265071994262718,0.3202711165611158,0.34992731934646515,0.13260440328584902,0.2754530256127184,-0.35764554300904605,-7.573901582211358,8.459908892545892,-0.30427664803741855,-0.24215882305787337,0.05732147276840041,0.4781864797779191,0.2785769913038883,-0.4014287535873272,3.920386202045801,-8.295562182968588,4.538621308062649,-0.2653065686508322,0.47962250629523495,0.16796685233640166,-0.050121754737142934,0.5509649174285662,-0.7017074136440363,0.5588869970694669,-7.397826953200337,7.872262207601212,-0.18633632639072994,0.43035640706058415,-0.07168176210942462,-0.2820176225814047,0.45509313385238986,-0.3781351751886395
2.9964316902751102,-7.449583482640902,6.975324994837508,-0.23311685691416112,-0.38482204642575674,0.02071460113435172,-0.4854770659874485,-0.06936036455142007,0.22708839847185655,1.6948662104493726,7.079598635889703,7.526465719966154,-0.1733856296140791,-0.5317325468957272,0.36651125991176964,0.3337729400380046,0.10039888283681583,0.23575237142710978,-0.03725643559575069,-7.467717406338199,7.902519053630569,-0.28174157404388683,-0.3835256581278463,0.022342921448982783,0.45356757423739935,0.2795112725537924,-0.3968565088942864,3.054290608135192,-7.749310650943655,5.107897117077965,-0.2788944101618433,1.0129154729695686,0.11503592242996616,-0.037995367037169554,0.5489734252165988,-0.6891742899264787,-0.3342795529741418,-7.1633697649458075,7.774763355977315,-0.21032565214716475,0.41096041510991627,-0.07935152136257462,-0.2820332435405173,0.4499482046324177,-0.37376221002674853
3.5674773307933534,-7.390261633391864,6.869048227363217,-0.18135826881969438,-0.2621344083455076,0.010831384817932119,-0.47470024017678253,-0.06356679607223549,0.2292883629541976,1.8771240581516835,6.811501867662006,7.378220731036389,-0.1787189695645216,-0.5723867251123724,0.36958470821981937,0.31954195638256744,0.07177170998810622,0.19061505184686903,0.5723997618953862,-7.556988412000711,6.814381273385506,-0.20836572402365425,-0.40107444143324533,0.06659868998042373,0.4377037600638287,0.2800891448979887,-0.39649831283033193,2.3472158268944576,-7.064186111224398,5.93880279829205,-0.19710226766547437,1.242415833398922,0.12370124427341057,-0.02063404027105142,0.5489504205086803,-0.6872049832709565,-0.35725285598152934,-7.454589999515141,8.01741394600197,-0.16676655450592917,0.22625538828517336,-0.06564214612690832,-0.27625881804342073,0.4435518106059438,-0.37627728848209946
3.6203511188165693,-7.499077862828544,6.968328480824113,-0.21406368293205108,-0.09465980735908008,0.04040135157774008,-0.45642951025087797,-0.06951455625317585,0.20779532189890076,1.5156050569373467,6.52873423811612,6.992972281476903,-0.14097699081242096,-0.5006859735555096,0.2762478724899908,0.30999602500243284,0.04190001548593395,0.15793510442257455,0.6372657744118696,-7.425469681289185,6.108241430061792,-0.19059286373651305,-0.35835220662862927,0.13615999301963524,0.4183599374807968,0.28345905791192766,-0.40616816614642054,1.7922817858545623,-7.095068141461764,6.932935587901441,-0.1516611118712621,1.1511569645203061,0.18221459498999276,-0.006234718840033763,0.5516217724524943,-0.6878768293236474,-0.2329365912686608,-7.479836821356286,8.284580372816347,-0.21832421281959147,0.014931819921014302,-0.05873122548995655,-0.277282334700748,0.44064091141142436,-0.3784780530155105
3.0667402780038744,-7.776538371714176,7.181246297722056,-0.1679166685495267,-0.017277983243860304,0.02952089785648942,-0.4370648818741786,-0.05619613195103011,0.2016992366025532,1.2744602820265445,6.963781067699587,7.356254807711777,-0.04374512498756903,-0.4186562361828111,0.13289006094913292,0.29380041168459203,0.027330707747309082,0.12160579329125494,0.16196484274749912,-7.317005017519189,5.855403344785378,-0.13708474259172537,-0.34895060187369875,0.11047107656551454,0.41079328025034195,0.28157024925997326,-0.40461473181143637,1.2770530574805548,-8.34001899563218,7.093017890947264,-0.08582971050974877,0.9396009905099435,0.1481255684226919,0.012636303815439322,0.5486601053251802,-0.6822696970117067,-0.2735774151453275,-7.565018441605723,7.736316526909738,-0.17648262627616884,-0.10091080658058972,-0.04994121407135521,-0.26659287709246887,0.43221720987386414,-0.3746946486693023
2.714158702584413,-7.7205987910311205,7.164868143743825,-0.08167202812639184,-0.04618357886364848,0.004010512693786399,-0.4270421080234713,-0.053306302859332105,0.1804597570383465,1.6180047459744955,6.64470803907808,7.333510525924617,0.0259037409009369,-0.39944239523899644,0.08187392194753161,0.28012713840305437,3.386685003808703e-05,0.09768755590223602,-0.06624030870737443,-7.641174951357376,5.672896876610128,-0.0036349800421660357,-0.32699950012990486,0.06707115235244895,0.3932250011108044,0.2898970053963577,-0.409002872456456,0.5836787130540985,-7.824863085178075,7.0180723696375455,0.038276989203791974,0.7264595556311385,0.08066082814291999,0.022420211709181712,0.5540186375745937,-0.6814116460465776,-0.424782991160494,-7.414277090313196,7.413600340991793,-0.09237195578990935,-0.17203580749989947,-0.044181976137386295,-0.26734239328311954,0.4351767040279881,-0.3802914490795062
