# sampling frequency: 40
# units are seconds/meters/radians/a.u.
seg1_acc_x,seg1_acc_y,seg1_acc_z,seg1_gyr_x,seg1_gyr_y,seg1_gyr_z,seg1_mag_x,seg1_mag_y,seg1_mag_z,seg2_acc_x,seg2_acc_y,seg2_acc_z,seg2_gyr_x,seg2_gyr_y,seg2_gyr_z,seg2_mag_x,seg2_mag_y,seg2_mag_z,seg3_acc_x,seg3_acc_y,seg3_acc_z,seg3_gyr_x,seg3_gyr_y,seg3_gyr_z,seg3_mag_x,seg3_mag_y,seg3_mag_z,seg4_acc_x,seg4_acc_y,seg4_acc_z,seg4_gyr_x,seg4_gyr_y,seg4_gyr_z,seg4_mag_x,seg4_mag_y,seg4_mag_z,seg5_acc_x,seg5_acc_y,seg5_acc_z,seg5_gyr_x,seg5_gyr_y,seg5_gyr_z,seg5_mag_x,seg5_mag_y,seg5_mag_z
1.790098,-7.41624,6.218677,-0.004696,0.004085,0.000529,-0.320312,0.398926,-0.040771,-0.061,8.264039,5.185803,0.002012,0.006411,0.002937,0.050293,0.347412,0.567139,-1.328608,-7.175711,6.612916,-0.009946,0.007953,0.00344,0.645264,0.13623,-0.210693,1.881892,-7.323523,6.305655,-0.007879,0.005054,0.011746,0.130371,0.330078,-0.585938,0.609687,-6.015875,7.765949,-0.002304,0.001107,-0.007028,-0.241455,0.38501,-0.459717
1.803857,-7.359692,6.236692,0.012908,-0.002377,0.001194,-0.325195,0.389404,-0.04248,-0.064199,8.3443,5.198342,0.001553,0.006601,0.004213,0.048828,0.338623,0.563721,-1.346193,-7.16782,6.649384,0.003897,0.005526,0.000151,0.645508,0.126221,-0.210449,1.909707,-7.339481,6.312342,0.001243,-0.004523,0.005299,0.126953,0.319092,-0.584229,0.601186,-6.043003,7.720401,-0.000282,-0.001107,0.001559,-0.243896,0.371094,-0.458984
1.79162,-7.384894,6.224499,-0.009152,0.003286,-0.000585,-0.325195,0.395508,-0.041016,-0.044657,8.296965,5.207453,-0.028913,0.00339,0.006437,0.04541,0.356201,0.561523,-1.319233,-7.1553,6.638008,-0.003472,0.002774,0.000184,0.639648,0.134766,-0.209961,1.945265,-7.305499,6.311828,-0.003365,0.007556,0.009946,0.124023,0.325195,-0.585205,0.621077,-6.011956,7.710905,0.016292,-0.00364,-0.009553,-0.248779,0.37915,-0.458252
1.796646,-7.397542,6.221698,0.006659,0.00079,0.000573,-0.330566,0.394287,-0.037109,-0.048155,8.263876,5.180302,-0.004012,0.00822,0.005085,0.046387,0.352783,0.570557,-1.333687,-7.156954,6.63608,-0.008663,0.005216,-2.9e-05,0.637939,0.130615,-0.208496,1.891631,-7.343654,6.309409,-0.010869,0.003098,0.012325,0.121094,0.32251,-0.582275,0.623379,-5.984764,7.741711,-0.009557,-8.1e-05,-0.001147,-0.253174,0.375977,-0.457031
1.804192,-7.360395,6.247492,0.003481,0.002213,0.001293,-0.325439,0.393555,-0.035156,-0.063249,8.34049,5.204465,0.005312,0.004634,0.003349,0.050049,0.345215,0.563721,-1.332816,-7.162351,6.61606,-0.001932,0.000796,-0.001963,0.639404,0.133057,-0.206055,1.902441,-7.333335,6.30839,0.001165,-0.003246,0.005174,0.127197,0.32373,-0.579346,0.603492,-6.042275,7.72079,-0.007162,-0.000134,0.000409,-0.246582,0.375244,-0.454102
1.815278,-7.391946,6.200887,-0.007959,0.00111,-0.001908,-0.335449,0.398926,-0.037598,-0.036972,8.323522,5.212929,-0.028163,0.005696,0.005623,0.047119,0.342773,0.564941,-1.326873,-7.142599,6.610793,-0.006188,0.004816,-0.000502,0.631348,0.135742,-0.20459,1.913685,-7.323012,6.307252,-0.010982,-0.001523,0.011611,0.115234,0.328125,-0.580322,0.611507,-6.014985,7.717011,0.01598,-0.00533,-0.008181,-0.25708,0.381592,-0.454346
1.788163,-7.395092,6.233772,0.00896,0.002462,-0.00029,-0.317383,0.396973,-0.039551,-0.058758,8.246656,5.170308,-0.011388,0.006122,0.006973,0.041992,0.3479,0.568115,-1.334426,-7.172698,6.636538,-0.00206,0.003378,7.7e-05,0.651123,0.134521,-0.211426,1.913582,-7.326853,6.292811,-0.000877,0.004967,0.009423,0.132568,0.325684,-0.584229,0.645505,-5.981069,7.75038,-0.007856,-0.001232,-1.4e-05,-0.238525,0.379639,-0.458496
1.821806,-7.353179,6.21716,0.0,0.0,0.0,-0.320312,0.398438,-0.031494,-0.050075,8.339989,5.199554,0.01202,0.005278,0.003017,0.043457,0.349121,0.563721,-1.328835,-7.152538,6.631645,-0.001754,0.003104,0.000581,0.647705,0.133301,-0.202881,1.895209,-7.310339,6.287432,-0.000331,0.005599,0.009167,0.132812,0.324707,-0.577148,0.617625,-6.038369,7.715007,-0.001849,0.004843,-0.00258,-0.24292,0.377686,-0.449951
1.79696,-7.384795,6.204622,-0.007478,0.001762,-0.000258,-0.325684,0.402344,-0.032227,-0.073742,8.328677,5.214695,-0.028435,0.007563,0.0075,0.050049,0.347168,0.570068,-1.3363,-7.148917,6.619443,-0.004853,0.00697,0.000615,0.639404,0.13623,-0.200439,1.905733,-7.333643,6.320601,-0.01296,-0.000934,0.011552,0.123535,0.32959,-0.574219,0.605111,-6.004372,7.721293,0.007012,-0.008528,-0.005711,-0.249268,0.38208,-0.451172
1.805755,-7.387987,6.203317,0.010578,0.00148,-0.00042,-0.31958,0.401367,-0.037842,-0.048189,8.240796,5.177164,-0.012922,0.003899,0.005096,0.04541,0.348633,0.566406,-1.330969,-7.165115,6.642431,-0.00607,0.002836,0.002125,0.646484,0.136719,-0.207275,1.901317,-7.349132,6.300408,0.00119,0.002874,0.007685,0.130615,0.331543,-0.582275,0.644051,-6.012293,7.728082,0.001051,0.000797,-0.002856,-0.244141,0.386475,-0.453369
1.798052,-7.332979,6.224277,0.004074,0.001828,-0.000857,-0.328369,0.389404,-0.031006,-0.049007,8.333249,5.195943,0.0168,0.008179,0.002682,0.044434,0.344971,0.570801,-1.332371,-7.162605,6.652051,0.009318,0.006673,-0.002,0.637207,0.128174,-0.197998,1.911253,-7.294673,6.314674,0.00687,0.002089,0.005236,0.125244,0.318604,-0.572754,0.581124,-6.006378,7.748306,0.004786,0.004229,-0.004577,-0.250977,0.370605,-0.447266
1.804343,-7.399585,6.222076,-0.01382,0.001888,-0.002298,-0.323975,0.401367,-0.033447,-0.056373,8.311874,5.225352,-0.033047,0.00196,0.006096,0.044922,0.351807,0.566162,-1.334786,-7.12016,6.65178,-0.009737,0.0009,-0.0004,0.644043,0.137695,-0.206299,1.916219,-7.303245,6.323295,-0.016928,0.000469,0.013357,0.126709,0.32959,-0.577637,0.610362,-5.99761,7.714417,-0.004852,-0.012719,-0.001305,-0.247559,0.38501,-0.451904
1.784992,-7.391107,6.215944,0.013847,0.003098,0.000278,-0.333252,0.395996,-0.043701,-0.051835,8.253992,5.166559,-0.01105,0.008519,0.005696,0.05249,0.346924,0.558594,-1.296501,-7.189998,6.627636,-0.015861,0.004767,0.002539,0.633301,0.132812,-0.2146,1.887339,-7.385343,6.288755,-0.006618,0.003533,0.009563,0.115479,0.327148,-0.587402,0.633238,-6.022882,7.728881,0.001862,0.009271,-0.003348,-0.257324,0.377686,-0.463135
1.789717,-7.330685,6.236111,-0.000374,-0.000376,0.001007,-0.321777,0.396484,-0.041748,-0.065178,8.307828,5.219909,0.009136,0.006951,0.003088,0.041504,0.356689,0.568604,-1.346677,-7.159355,6.61625,0.007958,0.005036,-0.002707,0.64624,0.131836,-0.210693,1.909801,-7.303487,6.284859,0.006207,-0.003165,0.004776,0.128174,0.324707,-0.583008,0.575834,-6.017668,7.713918,-0.002111,-0.003878,-0.001456,-0.242676,0.378174,-0.456299
1.8164,-7.393627,6.222049,-0.008446,0.001816,-0.00182,-0.33374,0.394775,-0.041016,-0.041175,8.320157,5.217581,-0.02719,0.002835,0.005693,0.047607,0.346436,0.565674,-1.299563,-7.147611,6.62719,-0.000971,0.001857,-0.000697,0.633057,0.131348,-0.210938,1.911871,-7.299435,6.305769,-0.007797,0.003772,0.011871,0.115967,0.322021,-0.58374,0.630192,-5.993504,7.674106,0.015584,-0.00719,-0.006228,-0.256836,0.375977,-0.458984
1.804954,-7.387082,6.204628,0.008432,0.000948,0.00058,-0.321533,0.394531,-0.038818,-0.027802,8.228417,5.191862,-0.020146,0.010304,0.007305,0.04541,0.352783,0.569092,-1.313278,-7.151748,6.615517,-0.013811,0.006622,-0.001067,0.646484,0.12915,-0.209717,1.914822,-7.332439,6.296331,-0.011625,0.002808,0.010021,0.130615,0.324463,-0.582031,0.631404,-5.995606,7.794284,-0.023152,0.002199,-0.004604,-0.244629,0.379395,-0.457031
1.782909,-7.376623,6.300252,0.010078,0.004952,-0.001572,-0.329834,0.393555,-0.033691,-0.091016,8.36225,5.119965,0.051729,0.00848,0.001578,0.048096,0.352051,0.554443,-1.354492,-7.222449,6.627087,-0.007225,0.011304,0.009114,0.635254,0.12915,-0.203125,1.872095,-7.38206,6.277015,0.003544,0.009182,0.011347,0.122559,0.322266,-0.577393,0.592417,-6.077616,7.72677,0.009525,0.005239,0.005331,-0.253906,0.376221,-0.453125
1.77898,-7.283385,6.147052,-0.000466,-0.003461,0.004308,-0.326416,0.392578,-0.030762,-0.051782,8.425843,5.275367,-0.06158,-0.004583,0.004055,0.043945,0.353516,0.561523,-1.362314,-7.100766,6.652107,0.044405,0.001665,-0.009139,0.637451,0.130859,-0.20166,1.928071,-7.266072,6.367191,0.023068,-0.012553,-0.001691,0.121338,0.320312,-0.575439,0.55571,-5.932636,7.605267,0.032929,-0.008442,-0.017499,-0.249512,0.372314,-0.449219
1.849223,-7.483521,6.243472,-0.028699,0.000791,-0.007575,-0.320068,0.397461,-0.035889,0.011833,8.048845,5.221534,-0.050353,0.010632,0.015089,0.048096,0.344482,0.564697,-1.278937,-7.075326,6.630328,-0.053332,-0.000214,0.00295,0.645264,0.132812,-0.204834,1.98144,-7.330346,6.32681,-0.05811,0.01393,0.026807,0.127686,0.328125,-0.581055,0.716023,-5.990136,7.799855,-0.017368,-0.016724,0.008901,-0.244629,0.380127,-0.454346
1.762619,-7.386037,6.271998,0.054332,0.010728,0.004588,-0.327881,0.388916,-0.037598,-0.126114,8.382253,5.044913,0.10683,0.016395,-0.007644,0.039551,0.354736,0.566162,-1.385261,-7.326102,6.594062,-0.019412,0.009164,0.008198,0.638428,0.125244,-0.209229,1.77938,-7.453347,6.242978,0.018194,0.004439,0.006373,0.122314,0.317627,-0.582764,0.580571,-6.071657,7.945216,-0.022712,0.033575,-0.012201,-0.251465,0.371094,-0.457764
1.794863,-7.190606,6.221374,-0.030464,-0.012693,0.002884,-0.323242,0.393066,-0.043701,-0.025674,8.493848,5.379127,-0.085542,-0.007804,0.009533,0.044678,0.355957,0.567627,-1.310131,-7.044953,6.648766,0.06967,-0.006286,-0.020445,0.642334,0.130859,-0.213623,1.975353,-7.15952,6.332062,0.031147,-0.024714,-0.013333,0.12793,0.324219,-0.586914,0.565334,-6.079041,7.533667,0.020658,-0.024629,0.00894,-0.245361,0.377197,-0.46167
1.844909,-7.570789,6.168561,-0.040071,0.008212,-0.007127,-0.323975,0.398438,-0.037598,-0.006511,8.039007,5.105889,-0.063411,0.014044,0.00923,0.042969,0.344727,0.568115,-1.296534,-7.069204,6.66498,-0.072572,0.014255,0.018512,0.642578,0.133301,-0.209473,1.920148,-7.323125,6.262566,-0.078164,0.018282,0.040765,0.126709,0.329102,-0.582275,0.657096,-5.831443,7.777091,0.042683,-0.005663,-0.027117,-0.245361,0.380127,-0.459473
1.753964,-7.376007,6.204279,0.078072,0.002184,0.004969,-0.324707,0.401611,-0.039062,-0.123845,8.316131,5.189162,0.103273,0.01091,-0.000635,0.043701,0.350098,0.561523,-1.391882,-7.356289,6.566116,-0.012518,-0.001346,-0.001016,0.643066,0.137939,-0.209961,1.854363,-7.503649,6.266206,0.029431,0.004972,-0.002611,0.126953,0.331787,-0.580566,0.655766,-6.09114,7.735221,-0.130598,0.008227,0.018959,-0.246582,0.385742,-0.45752
1.830485,-7.192188,6.307481,-0.032613,-0.002715,-0.000619,-0.331543,0.394531,-0.043945,-0.009582,8.531684,5.235135,-0.03667,-0.006528,0.00386,0.04834,0.358643,0.564209,-1.245458,-7.127851,6.627967,0.063,0.003106,-0.009656,0.634033,0.129395,-0.211914,1.910961,-7.202134,6.320626,0.032715,0.005294,-0.000505,0.116211,0.326172,-0.585693,0.525108,-6.261486,7.53073,0.095361,0.012769,0.000279,-0.254395,0.375244,-0.459473
1.77281,-7.599842,6.134753,-0.031198,0.006227,-0.005855,-0.328125,0.394287,-0.042725,-0.060396,8.142386,5.183739,-0.08883,0.016238,0.012422,0.045166,0.344971,0.571289,-1.386005,-7.013988,6.666991,-0.017551,0.025185,0.004649,0.63623,0.130127,-0.216064,1.898734,-7.300318,6.342457,-0.042865,-0.004508,0.020626,0.123047,0.320557,-0.588867,0.633286,-5.695812,7.872179,0.078087,-0.032241,-0.040926,-0.252197,0.374023,-0.465576
1.825214,-7.305071,6.278615,0.073808,-0.002997,0.006467,-0.328613,0.393555,-0.042969,-0.102254,8.202297,5.141851,0.07903,-0.000258,-0.003074,0.04541,0.348877,0.565918,-1.370511,-7.214293,6.646794,-0.055792,-0.019127,0.004461,0.635254,0.131104,-0.213867,1.936475,-7.414919,6.314119,-0.003485,-0.003614,0.008699,0.120361,0.325684,-0.587158,0.699389,-6.026658,7.75588,-0.138791,0.017708,0.046775,-0.251465,0.378662,-0.461426
1.786928,-7.234676,6.276286,-0.052857,0.003957,-0.00492,-0.321045,0.397949,-0.031006,-0.002383,8.564836,5.259052,0.004674,0.006494,0.003031,0.052002,0.341064,0.570557,-1.246875,-7.273766,6.595302,0.026696,0.011609,-0.004368,0.647705,0.135742,-0.199463,1.90383,-7.340594,6.303819,0.006345,0.014731,0.008485,0.131104,0.32959,-0.573242,0.495673,-6.215526,7.661299,0.043325,0.013435,-0.034648,-0.242676,0.380127,-0.447266
1.812848,-7.572766,6.124097,-0.013593,-0.000279,-0.000466,-0.321289,0.395264,-0.034912,-0.090789,8.17847,5.184209,-0.122758,0.006225,0.013849,0.05249,0.354492,0.567627,-1.380127,-6.999416,6.649041,0.032617,0.005952,-0.009445,0.641846,0.129639,-0.205811,1.886052,-7.247197,6.328475,0.003719,-0.007347,0.002847,0.125,0.322998,-0.580322,0.682228,-5.873058,7.779603,0.051153,-0.051026,0.004273,-0.246338,0.375,-0.453369
1.800099,-7.336557,6.266334,0.052922,0.003246,0.002123,-0.33252,0.392822,-0.033447,-0.03036,8.120008,5.168691,0.072389,0.00339,-0.002135,0.044922,0.352783,0.570068,-1.288695,-7.148933,6.615106,-0.076001,-0.008728,0.013921,0.635498,0.128174,-0.203369,1.905624,-7.341435,6.25891,-0.043261,-0.000937,0.023581,0.120605,0.322021,-0.578125,0.684002,-5.998811,7.719846,-0.048762,0.042778,-0.003334,-0.253174,0.375,-0.451904
1.795282,-7.224529,6.247117,-0.026129,0.001062,0.000311,-0.327393,0.391357,-0.026611,-0.068973,8.54745,5.20724,0.025803,0.013343,0.003471,0.051025,0.347168,0.568359,-1.343956,-7.321765,6.595682,0.021462,0.017482,-0.003599,0.638428,0.131592,-0.197754,1.901702,-7.416938,6.241356,0.023142,-0.000565,0.001418,0.123779,0.321533,-0.568848,0.475759,-6.058671,7.711083,0.011467,-0.004282,-0.001933,-0.248535,0.374512,-0.443848
1.805851,-7.533588,6.181658,-0.033352,-0.003417,-0.003335,-0.318115,0.399658,-0.037354,-0.051707,8.242816,5.25914,-0.11497,-0.006339,0.011345,0.042725,0.352539,0.563965,-1.360731,-7.035296,6.654161,0.03622,0.001206,-0.006988,0.645508,0.136475,-0.210205,1.923841,-7.214217,6.333502,0.009912,0.013597,0.003547,0.13501,0.328857,-0.57959,0.71308,-5.996287,7.742218,0.008106,-0.037765,-0.009528,-0.243164,0.384277,-0.456787
1.818275,-7.401882,6.213668,0.063056,0.007659,0.001014,-0.330811,0.398438,-0.043213,-0.027802,8.135587,5.105246,0.055626,0.015126,0.001972,0.043945,0.349121,0.565918,-1.299588,-7.165764,6.636932,-0.05033,0.005849,0.013921,0.635254,0.135254,-0.210938,1.865877,-7.38364,6.33098,-0.038637,-0.000331,0.027791,0.120361,0.327148,-0.583984,0.649561,-5.998207,7.757005,-0.000577,0.042525,-0.001669,-0.251953,0.380615,-0.459473
1.76092,-7.179048,6.259854,-0.018537,-0.001782,0.00149,-0.319824,0.394775,-0.037842,-0.094175,8.482648,5.234793,0.025452,0.003159,0.002529,0.050049,0.35791,0.566895,-1.354014,-7.201538,6.618947,0.026659,0.006727,-0.008945,0.646729,0.129883,-0.20874,1.93026,-7.339269,6.318427,0.033941,-0.006076,-0.009311,0.131348,0.323242,-0.583496,0.513045,-6.044255,7.707451,-0.00236,-0.019216,0.000194,-0.241455,0.373779,-0.458252
1.822794,-7.519374,6.193148,-0.041334,0.001812,-0.004748,-0.330078,0.396973,-0.030273,-0.019279,8.315908,5.226706,-0.078713,0.004719,0.010248,0.041748,0.355469,0.577637,-1.334741,-7.087026,6.675689,-0.007611,0.004205,-0.000408,0.637939,0.134766,-0.200684,1.893094,-7.25708,6.348755,-0.025462,0.007208,0.01736,0.121826,0.324707,-0.575439,0.690772,-5.949659,7.705147,0.03405,-0.009203,-0.011164,-0.252686,0.380127,-0.449219
1.711842,-7.362296,6.254453,0.072194,0.008505,0.002103,-0.331299,0.400879,-0.037109,-0.133192,8.180681,5.068761,0.018375,0.018108,0.005975,0.052246,0.35083,0.570068,-1.405238,-7.206379,6.636124,-0.014391,0.012128,0.006755,0.637207,0.137695,-0.208252,1.873601,-7.400987,6.298416,0.001957,0.003135,0.009992,0.121826,0.333008,-0.581787,0.562296,-5.970322,7.772183,-0.033582,0.02535,0.002688,-0.253418,0.38501,-0.452881
1.968535,-7.233504,6.163426,-0.074426,-0.023951,0.000254,-0.331787,0.393066,-0.04126,0.110206,8.379423,5.40959,-0.021638,-0.02896,-0.001625,0.049316,0.355469,0.571289,-1.224526,-7.087173,6.578779,0.002025,-0.035592,-0.021535,0.637207,0.131348,-0.211914,1.999485,-7.272504,6.327815,-0.023177,-0.026601,0.004296,0.119385,0.325684,-0.58374,0.598369,-6.090968,7.652227,-0.029021,-0.055202,-0.00315,-0.255859,0.377197,-0.459961
1.684033,-7.694629,6.260299,0.026154,0.035378,-0.006397,-0.323975,0.401367,-0.032227,-0.11462,8.229134,5.012931,0.001593,0.063406,0.017269,0.05127,0.356689,0.566162,-1.294743,-7.317057,6.621367,-0.06005,0.048965,0.031763,0.644775,0.140137,-0.201172,1.877707,-7.475349,6.192719,-0.016724,0.052568,0.027393,0.129639,0.330566,-0.575439,0.814189,-6.099586,7.884978,0.030743,0.040881,-0.011444,-0.246582,0.38208,-0.45166
1.824201,-7.091473,6.197052,0.060781,-0.029666,0.014899,-0.322754,0.389648,-0.042969,-0.147128,8.41038,5.238737,-0.00145,-0.054859,-0.016043,0.043457,0.353027,0.566895,-1.5066,-7.127371,6.62894,0.113539,-0.02183,-0.032405,0.643555,0.12793,-0.213867,1.772248,-7.188444,6.323072,0.070338,-0.045893,-0.025279,0.126953,0.319824,-0.586182,0.334941,-5.993363,7.63547,0.020397,0.026929,0.011408,-0.246826,0.371338,-0.462158
1.802318,-7.398534,6.247377,-0.09767,0.024493,-0.010546,-0.322021,0.390137,-0.034424,0.165263,8.187293,5.256735,-0.06068,0.049126,0.03257,0.050781,0.350342,0.571533,-1.087585,-6.927878,6.684098,-0.07935,0.012797,0.019216,0.644043,0.124023,-0.202881,2.137057,-7.245597,6.287913,-0.085678,0.01107,0.040871,0.128662,0.318848,-0.577148,0.717808,-5.881299,7.600133,0.046223,-0.087278,-0.024986,-0.244141,0.366943,-0.451904
1.863714,-7.670917,6.152331,0.043571,-0.008572,-0.009192,-0.330078,0.393311,-0.04126,-0.273902,8.288142,5.137472,0.066959,-0.006004,-0.019667,0.053711,0.349365,0.574463,-1.56325,-7.455256,6.591104,-0.042968,0.026327,0.011584,0.637451,0.129395,-0.211182,1.766094,-7.583712,6.283418,0.004821,0.035683,0.01116,0.123779,0.322754,-0.583496,0.743277,-5.945524,8.061671,-0.124529,0.059991,0.006176,-0.253418,0.374268,-0.459229
1.719594,-7.054771,6.367328,0.076019,-0.000386,0.02355,-0.325684,0.389893,-0.043213,0.113373,8.466161,5.206491,-0.022459,-0.004791,0.020328,0.050537,0.34375,0.570312,-1.16844,-7.140714,6.620972,0.100628,-0.041333,-0.022048,0.640869,0.129639,-0.215332,1.924573,-7.162944,6.371278,0.085976,-0.030496,-0.023833,0.125,0.321533,-0.589844,0.46806,-6.478607,7.459147,0.01434,0.008824,0.027665,-0.247803,0.374512,-0.464844
1.887357,-7.380757,6.160837,-0.136037,0.012488,-0.023287,-0.32373,0.398682,-0.026367,-0.157012,8.219275,5.230126,-0.068754,0.022375,-0.010015,0.052002,0.348389,0.564453,-1.364251,-6.896285,6.700256,-0.015168,0.065323,0.006022,0.643555,0.133545,-0.196289,1.987872,-7.181872,6.341392,-0.084348,0.008084,0.036872,0.130371,0.327393,-0.571533,0.551946,-5.612658,7.751371,0.229235,-0.039569,-0.07017,-0.247314,0.378418,-0.450928
1.690457,-7.707524,6.158158,0.081179,-0.009257,0.013046,-0.325684,0.391846,-0.0354,-0.028892,8.164464,5.152675,0.023876,-0.003154,0.025591,0.049561,0.341797,0.564453,-1.459533,-7.233682,6.638635,-0.109185,-0.051113,0.011323,0.640137,0.130371,-0.203857,1.813349,-7.560326,6.234186,-0.036983,0.001537,0.015374,0.125732,0.32373,-0.576172,0.792344,-5.773779,7.8881,-0.24318,-0.002016,0.047969,-0.248779,0.374756,-0.45166
1.923437,-6.956575,6.358477,0.03681,0.015346,-0.00209,-0.326904,0.394775,-0.037842,-0.057285,8.508879,5.212796,0.053063,0.012259,-0.023607,0.046143,0.348633,0.569824,-1.12355,-7.436449,6.530353,0.042476,0.017084,-0.008148,0.638428,0.132568,-0.206299,1.960104,-7.359969,6.246262,0.066388,-0.003134,-0.006863,0.124268,0.326416,-0.581543,0.452256,-6.485739,7.569253,-0.008586,0.048136,-0.000813,-0.249023,0.37793,-0.455078
1.699951,-7.564015,6.092835,-0.125127,-0.018054,-0.008691,-0.32373,0.391357,-0.03125,-0.026251,8.299568,5.240884,-0.134576,-0.00513,0.034641,0.048096,0.349609,0.573486,-1.468099,-6.9033,6.669011,0.095592,0.021348,-0.012018,0.642822,0.127686,-0.203125,1.865817,-7.117576,6.344348,-0.006713,0.012603,0.004033,0.126953,0.318115,-0.576904,0.626523,-5.932257,7.74132,0.14926,-0.069966,-0.043187,-0.248291,0.373047,-0.452637
1.923968,-7.577593,6.240964,0.105046,0.02305,0.010491,-0.329346,0.391846,-0.029053,-0.046272,8.029951,5.143479,0.050217,0.019323,-0.0178,0.04834,0.352051,0.570312,-1.247604,-7.034984,6.660335,-0.132446,-0.017308,0.014011,0.636963,0.13208,-0.199951,1.889544,-7.398008,6.254432,-0.074645,-0.016486,0.035136,0.12085,0.323486,-0.571777,0.797668,-5.774675,7.803358,-0.03969,0.033093,0.033426,-0.251465,0.374512,-0.448975
1.666243,-7.033428,6.279232,0.015665,-0.014012,-0.008609,-0.330078,0.393311,-0.030762,-0.080674,8.568927,5.194847,0.074826,0.002484,0.013621,0.043457,0.349365,0.55957,-1.40375,-7.500028,6.543926,0.01274,0.026939,0.014825,0.638184,0.130859,-0.200195,1.928078,-7.487408,6.245294,0.050416,0.011985,-0.007143,0.122559,0.325439,-0.575439,0.389336,-6.113482,7.678825,-0.068229,0.032121,-0.021808,-0.249756,0.376953,-0.450439
1.889018,-7.449553,6.199296,-0.097287,0.011495,0.003604,-0.323975,0.393311,-0.036377,-0.014913,8.317174,5.278701,-0.143381,0.00036,0.002531,0.044922,0.341309,0.567383,-1.281666,-6.975748,6.674237,0.107344,-0.011251,-0.035967,0.641113,0.130127,-0.20874,1.911135,-7.118283,6.42853,0.033586,0.014422,-0.005054,0.125732,0.322998,-0.580078,0.663731,-6.080732,7.689211,0.059165,-0.073745,0.012937,-0.248047,0.376465,-0.456787
1.796157,-7.67487,6.151219,0.054596,-0.010018,-0.008908,-0.324219,0.398193,-0.033691,-0.043481,8.035581,5.145677,0.034856,0.010259,0.011408,0.047363,0.348389,0.574219,-1.343146,-6.998255,6.676029,-0.099429,0.01964,0.029997,0.64209,0.137695,-0.205078,1.897881,-7.347608,6.355621,-0.085152,-0.009131,0.03908,0.128418,0.32666,-0.577881,0.771128,-5.917754,7.843575,-0.008936,0.040332,-0.031724,-0.247803,0.377686,-0.453125
1.805815,-7.000252,6.337826,0.077231,0.017076,0.016198,-0.321777,0.388672,-0.035645,-0.057029,8.51491,5.168321,0.071947,0.012766,-0.006252,0.045898,0.347168,0.556885,-1.349905,-7.397659,6.575315,-0.014448,-0.016489,-0.005227,0.645752,0.125977,-0.206543,1.933148,-7.44302,6.273198,0.03846,-0.011007,-0.007677,0.128418,0.323242,-0.578369,0.440886,-6.080643,7.679657,-0.013969,0.01382,0.036238,-0.24292,0.372803,-0.454834
1.776457,-7.4026,6.191926,-0.151762,-0.016259,-0.013014,-0.328613,0.393311,-0.045166,-0.072032,8.371621,5.283329,-0.122471,-0.002619,0.012093,0.052002,0.349121,0.566162,-1.2932,-7.053195,6.664538,0.058587,0.023554,-0.016361,0.636963,0.131592,-0.213623,1.927962,-7.174822,6.30719,-0.003415,0.0164,0.008339,0.122559,0.323486,-0.585449,0.633872,-5.927571,7.660686,0.048018,-0.038696,-0.042606,-0.254639,0.375488,-0.463135
1.837461,-7.760622,6.091238,0.077513,0.015313,0.00188,-0.324219,0.392334,-0.038574,-0.026703,8.023649,5.176669,-0.008346,0.01045,0.011667,0.050049,0.344971,0.573975,-1.420445,-7.117585,6.620227,-0.060945,-0.009794,0.016992,0.640381,0.128662,-0.208496,1.830591,-7.412975,6.286812,-0.047419,-0.003021,0.028417,0.125977,0.324463,-0.582764,0.681175,-5.953627,7.790533,-0.057911,0.0168,0.022401,-0.247803,0.374512,-0.454102
1.765327,-6.975792,6.356409,0.067469,-0.009188,0.00473,-0.328369,0.394531,-0.030518,-0.050813,8.393325,5.15632,0.092796,0.009375,-0.009366,0.045654,0.352295,0.566895,-1.224377,-7.260333,6.570936,0.010755,-0.001018,-0.00764,0.63623,0.128174,-0.201416,1.921747,-7.365019,6.228047,0.0407,-0.002177,-0.010066,0.12085,0.326416,-0.57373,0.546616,-6.237474,7.703562,-0.020503,0.006677,-0.007394,-0.251465,0.374268,-0.448975
1.840843,-7.440987,6.218596,-0.129089,0.006298,-0.006778,-0.32959,0.405762,-0.03833,-0.023569,8.482407,5.279811,-0.073108,0.001527,0.015299,0.056641,0.35498,0.571045,-1.364387,-7.084175,6.665351,0.030054,0.029838,0.004192,0.63623,0.140137,-0.210693,1.911377,-7.224913,6.326525,-0.003265,0.006462,0.012004,0.122559,0.333984,-0.584473,0.635345,-5.928525,7.732191,0.116605,-0.022763,-0.015521,-0.25415,0.384033,-0.460449
1.759081,-7.646818,6.131288,0.071528,-0.001043,0.003615,-0.322998,0.397949,-0.04126,-0.073661,8.071001,5.161647,-0.062418,0.009044,0.00165,0.046875,0.346436,0.570557,-1.37356,-7.102274,6.678888,-0.028743,-0.006435,-0.00012,0.643066,0.134521,-0.21167,1.930035,-7.351855,6.34224,-0.02267,-0.004607,0.015183,0.128662,0.328613,-0.585449,0.647058,-5.837457,7.796507,-0.079802,0.013233,0.002623,-0.245117,0.380127,-0.459961
1.822877,-7.059265,6.326331,0.048588,0.004149,0.000686,-0.321045,0.393311,-0.0354,-0.049135,8.292895,5.135506,0.095996,0.003952,0.005765,0.046143,0.34668,0.564453,-1.316032,-7.237387,6.619326,-0.012934,0.001139,0.008605,0.643311,0.128418,-0.204834,1.927497,-7.380294,6.309333,-0.001855,0.012825,0.01082,0.127197,0.321045,-0.578125,0.544566,-6.216815,7.631307,-0.020224,0.010886,0.010082,-0.244385,0.375488,-0.451416
1.773681,-7.411778,6.202213,-0.105029,-0.001368,-0.003141,-0.332031,0.397217,-0.039795,-0.047538,8.526722,5.247298,-0.042283,0.007652,0.000798,0.045166,0.34668,0.560059,-1.320962,-7.14891,6.630221,0.0288,0.007574,-0.013309,0.63501,0.133789,-0.209229,1.869638,-7.318652,6.348004,0.011474,0.00324,0.003582,0.120605,0.327148,-0.583496,0.624366,-5.944891,7.789742,0.074622,-0.033636,-0.028932,-0.25415,0.380615,-0.459961
1.850254,-7.611487,6.156892,0.05486,0.001782,0.003536,-0.329834,0.391602,-0.042725,-0.058738,8.13156,5.175661,-0.086832,0.001039,0.015338,0.050537,0.352539,0.566162,-1.332728,-7.066313,6.650738,-0.024382,0.001109,0.003101,0.637207,0.125977,-0.212158,1.922213,-7.259477,6.316582,-0.015304,-0.018929,0.007225,0.119385,0.319336,-0.587402,0.708671,-5.936492,7.736141,-0.049662,0.014162,0.016086,-0.25293,0.373779,-0.462646
1.752003,-7.112673,6.285681,0.037337,0.006352,0.001558,-0.321777,0.395508,-0.031982,-0.062079,8.224163,5.134556,0.076254,0.015962,-0.004371,0.050537,0.355469,0.570068,-1.343032,-7.259695,6.598158,-0.033405,0.001862,0.006467,0.645752,0.130127,-0.202148,1.938878,-7.384884,6.243831,-0.030714,0.004256,0.020747,0.130615,0.326416,-0.577393,0.501273,-6.106327,7.691081,-0.007189,0.020576,-0.006044,-0.246338,0.377441,-0.451416
1.816345,-7.441417,6.212012,-0.082911,-0.006155,-0.003868,-0.321289,0.392578,-0.031006,-0.07349,8.502539,5.27148,-0.012445,-0.002201,0.007424,0.044678,0.353027,0.561768,-1.329034,-7.157699,6.636483,0.040633,0.003318,-0.012943,0.645752,0.130615,-0.203125,1.884751,-7.346081,6.271232,0.023122,0.01434,-0.00348,0.131836,0.324463,-0.577148,0.629865,-5.978561,7.719648,0.046603,-0.037518,-0.012732,-0.247803,0.375977,-0.452637
1.818642,-7.537191,6.183884,0.050707,0.006026,0.001448,-0.336914,0.393799,-0.034424,-0.008785,8.219062,5.201524,-0.073876,0.007368,0.008125,0.052734,0.345947,0.5625,-1.325724,-7.079455,6.630941,-0.018159,0.006486,0.008946,0.629639,0.131104,-0.206787,1.875245,-7.252238,6.341684,0.000326,0.004696,0.012951,0.11499,0.323975,-0.577148,0.701252,-5.938582,7.792246,-0.027171,0.00996,0.002541,-0.260742,0.375,-0.453613
1.802828,-7.195988,6.276131,0.024454,0.00183,0.001105,-0.327881,0.394287,-0.043213,-0.077798,8.189555,5.129865,0.038558,0.008839,0.001226,0.048096,0.350586,0.567383,-1.327494,-7.232089,6.622511,-0.013132,0.006986,0.003105,0.640625,0.130371,-0.213135,1.911128,-7.355402,6.313609,-0.021125,-0.00818,0.011827,0.125244,0.325439,-0.587891,0.567809,-6.144584,7.685323,-0.027014,0.018507,0.001992,-0.249023,0.375488,-0.46167
1.777354,-7.385092,6.236992,-0.052955,0.000862,-0.001648,-0.322021,0.383301,-0.035645,-0.059865,8.451303,5.242904,0.020654,0.003678,0.002768,0.051025,0.349365,0.569092,-1.342232,-7.130916,6.659501,0.024945,0.007006,-0.00462,0.642578,0.119141,-0.208008,1.928217,-7.343038,6.320369,0.012474,0.006411,0.002895,0.127686,0.313965,-0.582764,0.568891,-5.982779,7.721394,0.074791,-0.021961,-0.010444,-0.246582,0.365967,-0.456543
1.791475,-7.493476,6.185827,0.023912,0.001714,-0.000997,-0.330811,0.396484,-0.040527,-0.066069,8.322707,5.218588,-0.07366,0.008996,0.007852,0.041992,0.352539,0.571289,-1.357129,-7.104724,6.652323,-0.02442,0.001545,-0.000762,0.634277,0.134521,-0.211182,1.903059,-7.292513,6.336942,-0.009042,0.005691,0.012075,0.119629,0.323242,-0.583984,0.68527,-5.847173,7.775245,-0.033215,0.000286,-0.00826,-0.255615,0.378174,-0.460205
1.794546,-7.23324,6.250559,0.022903,-0.000495,0.002938,-0.322021,0.405273,-0.034424,-0.032148,8.161817,5.135675,-7.3e-05,0.001081,0.005995,0.052246,0.344971,0.55835,-1.279342,-7.216477,6.59884,-0.015903,-0.008279,0.000841,0.643555,0.138428,-0.205566,1.897217,-7.342001,6.299983,-0.014817,-0.002667,0.013637,0.129395,0.334229,-0.578857,0.572986,-6.138496,7.677944,-0.048849,0.010972,0.017777,-0.244629,0.387451,-0.456299
1.800179,-7.405108,6.230425,-0.049417,0.003944,-0.00288,-0.326172,0.38623,-0.039795,-0.048392,8.383059,5.201656,0.036604,0.013552,-0.001364,0.049561,0.354736,0.569092,-1.333251,-7.133961,6.626155,0.015804,0.014985,-0.007395,0.641113,0.125977,-0.212402,1.873328,-7.319045,6.283427,-0.002492,-0.000667,0.006079,0.123535,0.317383,-0.583496,0.612021,-6.057254,7.744483,0.051441,-0.014946,-0.026459,-0.251709,0.370361,-0.457031
1.795531,-7.485883,6.196748,0.030852,-0.000201,0.001878,-0.327148,0.392578,-0.031738,-0.084798,8.368068,5.227775,-0.054526,0.000254,0.009061,0.044189,0.350098,0.56958,-1.362408,-7.13319,6.633708,-0.016882,-0.001038,0.005142,0.639893,0.128418,-0.204102,1.922965,-7.316908,6.269214,0.000272,-0.005325,0.010208,0.124512,0.324707,-0.574951,0.65648,-5.918825,7.741423,0.007445,-0.000489,0.007803,-0.250732,0.372803,-0.452881
1.803924,-7.238168,6.258765,0.014663,0.003318,-0.001273,-0.317871,0.396973,-0.036133,-0.027248,8.182684,5.153533,-0.015969,0.003742,0.00368,0.044678,0.345703,0.571289,-1.297843,-7.196867,6.630442,-0.004959,0.003188,0.001091,0.647705,0.131836,-0.208008,1.917676,-7.305748,6.280667,-0.003441,0.010071,0.009726,0.132324,0.325684,-0.579346,0.569875,-6.013889,7.699145,-0.024294,0.0127,-0.009178,-0.242432,0.378662,-0.454102
1.816527,-7.41006,6.218196,-0.037306,0.0,-0.001859,-0.325195,0.389893,-0.031494,-0.075832,8.341097,5.199959,0.036891,0.010241,0.003605,0.047852,0.35376,0.55835,-1.336432,-7.157485,6.649758,0.014928,0.010135,-0.001535,0.641357,0.123291,-0.204346,1.885742,-7.334428,6.309101,-0.005426,0.010884,0.011589,0.125488,0.320557,-0.575684,0.612802,-6.04174,7.778476,0.002761,-0.019199,0.0008,-0.249268,0.371582,-0.451172
1.811936,-7.451779,6.221364,0.028263,0.002198,0.002182,-0.32666,0.394287,-0.041748,-0.059917,8.37857,5.228591,-0.03199,0.003195,0.005845,0.040039,0.35376,0.566895,-1.332429,-7.145818,6.66758,-0.012603,0.002665,0.004596,0.641113,0.131592,-0.213135,1.922994,-7.344964,6.444689,0.004296,-0.004329,0.006817,0.123047,0.323486,-0.587402,0.653084,-6.036868,7.73324,0.005904,0.008373,-0.005749,-0.248779,0.374512,-0.462891
1.721884,-7.327877,6.22448,0.002491,-0.014508,-0.004902,-0.323242,0.388428,-0.039062,-0.117272,8.238584,5.092552,-0.016601,0.00124,9.3e-05,0.04834,0.349854,0.564209,-1.753821,-6.966619,7.356957,0.068612,-0.029939,0.013218,0.642334,0.125977,-0.208984,2.648642,-6.823854,6.779105,0.165692,-0.050292,-0.016511,0.125244,0.314209,-0.583008,0.438398,-5.968221,7.57872,0.045655,0.018854,-0.00694,-0.248779,0.367676,-0.456055
1.908946,-6.948648,6.423591,0.022021,0.049865,0.019979,-0.325928,0.398682,-0.044434,0.061896,8.542276,5.051151,-0.032537,0.043751,0.017766,0.05127,0.350098,0.556396,-1.028526,-7.02551,6.227944,-0.339876,-0.185184,-0.068729,0.635986,0.139893,-0.215332,2.251451,-7.362799,5.968415,-0.651173,0.383488,0.231043,0.129395,0.336182,-0.581543,0.821846,-5.742137,8.018084,-0.033841,-0.087675,-0.024015,-0.251953,0.380859,-0.460938
1.777806,-7.898288,5.817287,-0.28463,-0.086804,-0.017334,-0.320801,0.400635,-0.030029,-0.168634,8.077683,5.656395,-0.127648,-0.092237,-0.001531,0.045654,0.350342,0.559814,-0.966539,-8.129907,5.812072,-0.00117,-0.012687,0.03954,0.644287,0.138184,-0.20752,-0.154512,-9.275418,5.539736,0.26453,0.146256,-2e-06,0.139893,0.331055,-0.57666,0.8779,-6.348516,8.221716,-0.26956,0.052929,0.06051,-0.241943,0.385742,-0.44873
2.270949,-8.092247,6.309759,0.366128,0.027981,0.03362,-0.324219,0.398438,-0.031982,0.503446,7.952354,4.815353,0.075626,0.040828,-0.009665,0.054932,0.3479,0.572998,-0.632831,-6.772012,6.091417,0.392553,0.095561,-0.046832,0.639404,0.134521,-0.204346,1.688334,-5.242357,6.20249,0.659309,-0.503325,-0.339021,0.121826,0.319336,-0.57959,0.922183,-7.202928,7.375736,0.086714,0.21272,0.024565,-0.24585,0.381104,-0.448975
1.133201,-5.866096,6.424012,0.047947,0.041021,0.026505,-0.324951,0.39502,-0.040771,-0.632234,8.655123,5.41082,0.184178,0.054065,-0.026027,0.048828,0.349609,0.568359,-1.598237,-6.468047,6.821415,-0.047188,0.326199,0.113014,0.641602,0.13208,-0.209717,2.075423,-7.035434,6.079357,-0.795327,-0.049586,0.311387,0.124756,0.330322,-0.583496,-0.182674,-5.145317,7.411362,0.684891,0.030642,-0.053432,-0.246338,0.373291,-0.469238
1.980047,-8.418873,6.06431,-0.35209,-0.053743,-0.040408,-0.325684,0.398193,-0.030518,-0.018337,8.185926,5.248543,-0.196855,-0.04919,0.040212,0.050049,0.345459,0.572021,-2.052692,-7.698439,7.010001,-0.129036,0.052889,0.048369,0.644287,0.132568,-0.201904,1.610343,-9.480274,6.283709,0.355553,-0.294156,-0.223882,0.118652,0.32666,-0.57959,0.534781,-4.65539,7.453962,-0.342312,-0.085579,0.004331,-0.247559,0.373535,-0.455811
1.546653,-7.257214,6.194695,0.496315,0.04782,-0.013541,-0.317139,0.400391,-0.045166,-0.128066,8.237882,5.081997,0.21284,0.05364,-0.027137,0.044434,0.341553,0.562988,-1.378811,-7.60374,7.201603,0.239765,0.028204,-0.01809,0.650879,0.137207,-0.211182,3.856429,-5.987085,7.11886,0.536876,-0.04483,-0.127052,0.124512,0.322998,-0.594482,0.510529,-6.574744,7.971976,-0.339394,-0.010978,0.04654,-0.239258,0.385498,-0.460938
2.181259,-6.522004,6.595215,-0.299812,-0.064388,0.007391,-0.328125,0.39209,-0.044189,0.077825,8.717163,5.077009,-0.050073,-0.063325,0.052224,0.054932,0.348877,0.574951,-1.624658,-6.439452,7.108984,0.111808,-0.092122,-0.053842,0.640137,0.128906,-0.215088,2.178983,-6.681025,7.301508,-0.490992,0.387879,0.197162,0.122559,0.320312,-0.588379,0.926523,-7.19497,8.055284,0.047047,-0.094613,-0.053194,-0.25,0.378662,-0.461914
1.848045,-8.383628,6.41915,-0.096482,0.027691,0.004495,-0.322754,0.392578,-0.034668,0.302059,8.881484,4.84924,0.198866,0.044397,-0.0496,0.050781,0.353271,0.563721,-0.88787,-6.703633,7.716114,-0.43565,-0.120322,-0.007515,0.645752,0.129883,-0.208252,1.621725,-7.841172,6.391948,-0.139146,-0.065305,0.083396,0.127441,0.32373,-0.582275,1.060437,-5.623463,7.868866,0.417532,0.098444,0.0159,-0.240723,0.37085,-0.459229
1.363131,-6.621332,5.820667,0.33005,-0.06807,0.047548,-0.320801,0.385986,-0.03418,-0.756899,8.874648,5.395492,-0.758113,0.02301,0.077734,0.052246,0.343506,0.569824,-2.147914,-7.863241,5.118755,-0.037766,0.033791,0.015189,0.644043,0.125977,-0.204102,2.319543,-7.528951,6.27515,-0.251184,0.021682,0.084071,0.128174,0.320068,-0.573975,-0.266768,-4.96634,7.444354,-0.144403,0.253127,-0.019737,-0.237305,0.365723,-0.456543
1.720727,-6.570801,6.056031,-0.57139,0.047011,0.00747,-0.321289,0.388184,-0.029541,0.238827,5.237913,5.118965,-0.217528,-0.053293,-0.045977,0.054443,0.34375,0.563721,-0.880819,-6.494816,6.879096,-0.134914,-0.337901,-0.269835,0.641602,0.127441,-0.208496,1.096991,-7.652459,5.751248,-0.02407,0.403804,-0.00254,0.132812,0.319824,-0.574219,0.222535,-6.035455,7.611957,-0.524325,-0.343676,0.0876,-0.23999,0.374268,-0.448242
2.416125,-10.593013,5.878633,0.052952,-0.11501,-0.042923,-0.33252,0.397949,-0.041016,-0.10437,9.263555,5.606298,1.175327,-0.035166,0.073913,0.051025,0.364258,0.564941,-0.794505,-8.6892,5.674197,-0.416044,0.107701,0.310377,0.631104,0.13501,-0.216797,0.511932,-7.454404,6.00527,-0.141382,-0.441323,0.056884,0.115723,0.332764,-0.583252,1.986511,-8.51513,8.426539,-0.102992,0.184878,0.085928,-0.250244,0.38501,-0.459717
1.591063,-4.774471,6.876926,1.076816,0.173713,0.119739,-0.31958,0.398193,-0.040283,0.445532,10.533597,5.291068,-0.519142,0.037816,-0.115066,0.05249,0.352539,0.561523,-1.068549,-7.38124,6.219519,0.838537,-0.028494,-0.322492,0.640381,0.140869,-0.213867,3.404642,-7.536058,4.849145,0.320906,-0.101421,-0.143228,0.125732,0.329834,-0.578125,-0.218819,-5.111251,7.700133,1.356586,0.249537,-0.170182,-0.238281,0.371582,-0.468018
1.680604,-5.913378,7.129333,-1.241312,-0.194176,-0.071225,-0.320801,0.405029,-0.028076,-0.661567,6.724786,4.023757,-0.532343,-0.059542,0.124629,0.050781,0.339111,0.566895,-1.349213,-4.767073,7.992541,0.016998,0.312367,0.193188,0.646484,0.135986,-0.20459,1.320791,-5.80377,8.538451,0.157999,0.180331,-0.006565,0.130127,0.328369,-0.579346,1.058274,-2.696096,8.644818,-0.420552,-0.120397,-0.002931,-0.236084,0.375488,-0.458984
2.104102,-10.103826,5.588264,0.123455,0.007111,0.100955,-0.317627,0.400635,-0.03125,0.298557,8.971957,5.021232,0.74077,-0.119889,-0.293082,0.05127,0.360352,0.556152,-2.755969,-7.491043,7.247972,-0.973891,-0.389915,-0.042584,0.646484,0.138428,-0.208984,3.749315,-7.115259,6.857163,-0.842367,-0.472038,0.231055,0.12793,0.335693,-0.573242,0.511689,-7.424741,7.55938,-1.688962,0.516879,0.305244,-0.224121,0.392334,-0.44873
1.237567,-5.646268,6.549737,0.214144,-0.15805,0.102388,-0.324951,0.401123,-0.032227,-0.392911,9.667305,6.168471,-0.807008,0.009406,0.045345,0.047607,0.351318,0.568848,-0.106056,-8.825715,5.95485,-0.077812,-0.218867,-0.112031,0.635254,0.141357,-0.212646,2.161939,-9.60668,5.72677,-0.369268,0.732318,0.215857,0.133789,0.343506,-0.565918,-0.478143,-9.623788,6.129401,0.41719,-0.026968,-0.003242,-0.232178,0.387939,-0.456543
2.519537,-8.719787,5.752995,-0.835481,-0.033052,0.016906,-0.332031,0.405518,-0.021973,0.229459,5.977823,5.160943,-0.342699,-0.173159,-0.141925,0.049072,0.345703,0.5625,-2.368108,-7.212636,7.539552,0.1133,-0.110169,-0.110222,0.623779,0.141113,-0.210938,1.221507,-7.508597,6.889336,0.323584,-0.116732,-0.129178,0.121826,0.338867,-0.567139,0.766648,-4.29553,8.611725,1.201028,-0.176388,-0.128856,-0.242188,0.368652,-0.462158
0.393998,-9.333703,5.258313,0.423632,-0.083796,0.02459,-0.317871,0.404297,-0.026855,-0.656465,9.435434,5.552376,1.029231,0.270361,-0.10066,0.049072,0.35376,0.554443,-1.713482,-6.932495,7.016529,-0.404023,-0.48094,-0.20537,0.625732,0.145996,-0.216553,3.627677,-6.878543,6.998208,-0.681318,0.449017,0.340174,0.139648,0.349121,-0.557861,1.562614,-4.738374,9.210593,-1.291175,0.336592,0.185582,-0.224854,0.388672,-0.452637
0.989847,-5.80244,6.310191,-0.101284,-0.350424,0.114874,-0.319092,0.397217,-0.026123,-1.208198,10.648983,4.733611,-0.702959,-0.000773,-0.185982,0.040771,0.346191,0.549561,-2.326169,-6.834335,6.735582,-0.141185,-0.340581,-0.304388,0.620117,0.144043,-0.222412,-0.131708,-9.263219,6.241893,-0.70738,0.893061,0.251405,0.153564,0.349609,-0.547852,-0.211623,-9.820816,7.084964,-0.987694,0.892199,0.200709,-0.212402,0.392822,-0.452393
0.594588,-8.37612,5.890312,-1.044815,-0.673928,-0.005244,-0.321533,0.411133,-0.016602,-0.494436,7.931856,4.347695,-0.620376,0.238258,-0.340428,0.030273,0.334229,0.545166,-2.34452,-5.802638,7.451094,-0.384651,-0.674899,-0.53273,0.608398,0.16333,-0.223389,2.03378,-8.694298,6.515489,-0.28958,0.252837,-0.239681,0.1521,0.361572,-0.543213,0.376212,-7.303093,8.308804,0.80963,0.41019,-0.157524,-0.207764,0.384766,-0.463135
2.652895,-9.231483,6.413987,-0.148647,-0.848747,0.16314,-0.32251,0.424561,-0.004395,-0.859067,8.837058,5.899321,-0.267514,0.264179,-0.568869,0.030029,0.331055,0.527832,-1.693094,-7.078768,6.601687,-1.178699,-0.973419,-0.546318,0.594482,0.179932,-0.219482,3.82849,-7.307214,5.299999,-0.75567,1.618674,0.046874,0.166016,0.378662,-0.521484,1.640381,-4.76538,9.099943,-0.757202,1.225394,0.120985,-0.197021,0.398682,-0.458496
3.197366,-7.451176,8.057465,-0.597529,-0.650411,0.17995,-0.312988,0.427979,0.0,0.151507,8.371329,6.534418,-0.764149,0.066798,-0.649514,0.016357,0.316406,0.529541,0.07058,-9.936384,6.075543,-0.97806,-1.304749,-0.567451,0.586182,0.190186,-0.231934,0.297929,-8.651757,4.850454,-0.800333,2.138502,0.153081,0.199951,0.38623,-0.509033,-2.033497,-8.277308,8.883745,-1.583857,1.381255,0.356293,-0.169189,0.414551,-0.452637
4.119854,-11.582907,7.106611,-0.484775,-0.238545,0.131113,-0.312988,0.439453,0.000488,0.359696,6.561394,6.358896,-0.304317,0.251198,-0.468679,-0.009766,0.3125,0.51001,1.235586,-9.154735,4.947809,0.328743,-0.920644,-0.499574,0.56665,0.199219,-0.241211,0.593722,-7.953318,5.50358,0.089549,1.677834,-0.039882,0.210938,0.394287,-0.498535,-2.248606,-10.350087,8.442765,0.055221,0.291246,0.167426,-0.170654,0.415283,-0.454834
3.718028,-9.221719,7.856286,1.142956,0.254453,0.311345,-0.282471,0.434082,-0.010498,0.303162,7.02908,5.598639,0.692552,0.32603,-0.660431,-0.012207,0.309326,0.500977,1.069342,-6.611999,4.978213,0.520254,-0.868575,-0.416921,0.567383,0.19165,-0.242188,-0.718005,-7.622132,6.613154,0.037146,1.657686,0.031965,0.244873,0.381836,-0.481934,-2.082542,-6.975685,9.115359,1.33388,0.234915,0.186045,-0.145264,0.386963,-0.465576
3.103929,-6.632931,8.457433,-0.048457,0.650327,0.264915,-0.271729,0.435547,-0.030273,-0.489775,9.562851,5.708815,0.571797,0.57002,-0.49955,-0.025391,0.307373,0.487549,1.693177,-5.854041,5.18254,-0.034251,-0.415892,-0.343801,0.555908,0.19458,-0.252197,-2.774952,-7.818541,8.296117,-0.015943,0.016927,-0.311371,0.230957,0.38208,-0.486328,-2.614268,-4.721285,9.012302,0.16034,-0.449135,0.227042,-0.150635,0.380371,-0.46875
2.193354,-9.534932,6.845192,-0.58855,0.833057,0.454427,-0.248779,0.450928,-0.034668,-1.518499,9.949929,6.595084,-0.485838,0.472069,-0.66392,-0.01709,0.300781,0.47998,0.298796,-7.869598,5.996151,-1.117144,-0.149077,-0.224871,0.55542,0.20874,-0.239746,-0.113439,-8.428318,7.501704,-0.949751,-1.136569,-0.344454,0.21582,0.401367,-0.472412,-0.734913,-6.568033,8.304775,-1.148468,-0.795865,0.207736,-0.149658,0.395752,-0.451904
2.32161,-9.41742,6.663918,0.4598,0.872723,0.396914,-0.219727,0.457275,-0.04248,-1.379613,6.284447,5.507884,-0.562461,0.376983,-0.474892,-0.029297,0.271729,0.468262,0.121455,-11.301262,4.996878,-0.327483,-0.324226,-0.352979,0.553223,0.21875,-0.228516,0.06352,-11.752166,5.633688,-0.471792,-1.197315,-0.435755,0.198242,0.410645,-0.459473,-0.868445,-9.981124,7.581136,-0.388923,-0.589933,0.38392,-0.141357,0.400635,-0.440186
1.830079,-7.99725,6.837328,-0.064578,1.055487,0.49743,-0.20166,0.466064,-0.072266,-1.762267,7.738586,6.272351,1.161789,0.521985,-0.924717,-0.033691,0.273682,0.453613,0.235223,-8.560766,5.768548,0.845649,-0.278887,-0.569261,0.541016,0.221436,-0.247803,1.028477,-8.766627,5.621817,0.819376,-1.257136,-0.948425,0.163818,0.405762,-0.482666,-0.233331,-8.077764,8.341751,0.954131,-1.302055,0.042371,-0.157227,0.386475,-0.456543
0.938357,-9.385836,5.428339,0.193778,0.86961,0.442584,-0.164307,0.467285,-0.092041,-3.033339,11.557792,6.931809,0.467755,0.287532,-0.787818,-0.033691,0.26001,0.433594,0.329788,-7.997781,7.230357,-0.680821,-0.529202,-0.172343,0.540039,0.217773,-0.25293,2.029202,-6.052671,5.969128,-0.176026,-1.074364,-0.314308,0.154541,0.402344,-0.483154,2.054427,-5.496878,8.305647,0.367358,-0.780775,0.262427,-0.14624,0.373535,-0.462891
-0.043552,-6.111435,5.843235,0.133434,0.587113,0.428359,-0.151123,0.474609,-0.104248,-3.020571,10.70261,6.578633,-0.531097,-0.030492,-0.938505,-0.0354,0.231201,0.409912,0.808822,-11.398183,6.758861,-0.859001,-0.597981,-0.132801,0.518799,0.222412,-0.254883,2.548382,-8.853342,4.862285,-0.966102,-0.640902,0.096671,0.13916,0.416504,-0.47168,0.831207,-5.906164,7.881014,-0.64087,-0.31926,0.312869,-0.14917,0.375,-0.459229
0.176219,-8.625089,4.912249,-1.099852,0.039992,0.253056,-0.121582,0.477783,-0.10083,-3.462684,9.578138,7.061281,-0.438632,-0.177812,-0.84788,-0.037598,0.185547,0.376221,1.50161,-11.610633,6.687519,-0.345206,-0.656524,0.002702,0.512451,0.215332,-0.260498,2.89082,-9.427176,4.534287,-0.130523,-0.195292,0.108594,0.146973,0.408447,-0.462891,1.66239,-7.742587,7.077029,-0.783581,-0.072024,0.225655,-0.131836,0.375244,-0.449219
1.05149,-10.074555,4.742984,0.393407,-0.122293,0.259992,-0.111328,0.481934,-0.122314,-2.584894,8.738672,6.790793,-0.223715,-0.72442,-0.768129,-0.018066,0.144531,0.335449,2.603984,-11.674005,6.584011,-0.104669,-0.632562,0.344994,0.481201,0.206787,-0.279785,3.132747,-8.344434,5.531645,0.002089,0.023322,0.421815,0.137695,0.403809,-0.468994,0.376074,-8.353611,6.862277,0.029968,0.519315,0.350565,-0.122314,0.368652,-0.464355
1.101444,-6.638239,6.458221,0.201441,-0.08345,0.291475,-0.091064,0.492188,-0.125977,-1.9072,8.843096,6.133121,0.245274,-0.611524,-0.470866,-0.002197,0.098633,0.300781,2.421679,-10.914615,7.331467,0.527389,-0.413807,0.417702,0.457764,0.205566,-0.289062,3.094712,-9.770485,5.331112,-0.144295,0.227497,0.690161,0.151611,0.411377,-0.456543,-0.270315,-6.879895,7.57783,0.414281,0.157969,0.134568,-0.108398,0.364014,-0.467529
0.873251,-9.143176,5.694711,-0.448594,-0.157434,0.214782,-0.072021,0.501953,-0.127441,-2.504895,10.436284,6.277883,0.112483,-0.813574,-0.276685,0.020752,0.066162,0.253418,2.778137,-8.086932,7.659402,0.613776,-0.3785,0.389762,0.433105,0.206055,-0.30542,2.395828,-9.652982,5.839886,0.419841,0.35978,0.524297,0.158936,0.405518,-0.455322,0.275611,-6.35037,7.397048,-0.125652,0.279143,0.384316,-0.091553,0.367676,-0.466064
1.014795,-8.056361,6.353035,0.109516,0.035534,0.346322,-0.04541,0.499512,-0.138916,-1.626982,9.813594,6.436086,-0.919536,-0.724936,0.037955,0.035156,0.020508,0.211182,2.268581,-7.683424,7.593215,-0.67532,0.000443,0.63015,0.417236,0.204834,-0.30835,1.923217,-8.021411,6.771766,-0.227014,0.321015,0.586692,0.172607,0.398193,-0.449219,-1.246523,-6.555865,7.626976,-0.417667,0.365435,0.176187,-0.070312,0.359375,-0.4646
0.475143,-8.21512,6.570684,-0.883491,-0.061622,0.234544,-0.044678,0.513428,-0.141357,-2.543896,7.995632,6.073361,-0.654505,-0.74666,0.187864,0.052734,-0.023193,0.16626,1.360708,-10.312448,6.437685,-0.605543,-0.072522,0.573922,0.374756,0.218506,-0.317627,0.654314,-10.004384,5.9287,-0.683668,0.02788,0.763245,0.161865,0.404541,-0.439453,-0.798582,-6.995646,7.297515,-0.523538,-0.145046,0.249403,-0.078857,0.369141,-0.466309
1.105979,-10.733117,5.732836,-0.438802,0.053395,0.173532,-0.024414,0.519531,-0.153564,-0.758771,9.11304,6.632329,-0.146031,-0.5941,0.151641,0.067871,-0.068848,0.132568,2.034632,-8.244514,6.709442,0.411026,0.221438,0.287054,0.352295,0.22168,-0.327881,1.371657,-10.579718,5.778934,-0.279578,-0.288541,0.326949,0.160645,0.402832,-0.4375,-0.471954,-6.971264,6.503525,-0.374993,0.003797,0.04982,-0.065674,0.367188,-0.469238
0.593994,-9.096981,5.898562,0.058164,0.033598,0.103763,-0.009033,0.526611,-0.166992,-1.686559,8.329254,6.785112,-0.773514,-0.18456,0.350959,0.079834,-0.100342,0.09375,0.740836,-7.533587,6.716733,-0.549622,0.340953,0.380471,0.32959,0.236084,-0.33252,1.454173,-11.075436,5.511989,-0.218678,-0.102747,0.339018,0.155273,0.40625,-0.439453,-1.111107,-7.443563,6.614607,-0.479904,-0.315965,0.104657,-0.063965,0.372559,-0.469727
0.470604,-8.675738,5.606431,-0.033175,0.067691,-0.001882,0.014648,0.53125,-0.176025,-1.612137,6.587862,6.04253,0.012301,-0.284476,0.204977,0.090576,-0.136719,0.055664,0.482894,-10.284685,5.480156,-0.092242,0.192211,0.232938,0.313965,0.247314,-0.336914,0.478961,-10.221624,5.234279,0.680849,-0.157001,-0.054181,0.151611,0.398682,-0.443115,-0.233534,-7.802395,6.652164,0.197897,-0.520812,-0.022565,-0.054932,0.367432,-0.472656
0.286385,-8.279689,5.61209,-0.210819,-0.087578,-0.043999,0.019043,0.541016,-0.181885,-1.587407,9.209028,6.614659,0.456376,-0.001368,0.180642,0.0979,-0.166016,0.021484,0.330566,-7.505492,5.768129,0.718463,0.337787,-0.004888,0.287598,0.259033,-0.347412,1.087189,-6.475649,6.219014,0.259774,-0.169433,-0.055748,0.138672,0.399902,-0.439697,-0.099611,-5.852269,6.50076,0.116082,-0.366944,-0.143712,-0.060791,0.368896,-0.472168
0.530059,-8.114408,5.19436,-0.449329,-0.249458,-0.078918,0.032959,0.545654,-0.1875,-1.67225,10.232502,6.488049,-0.69701,-0.148373,0.008608,0.110107,-0.188965,-0.007324,-0.104304,-5.428649,6.593098,-0.633119,0.132745,0.050678,0.271729,0.270752,-0.351807,0.591863,-8.69563,6.382856,-1.532136,-0.190136,0.394937,0.135498,0.408691,-0.418945,0.200931,-6.302868,5.889318,-0.826358,-0.542682,0.002213,-0.061768,0.370117,-0.463623
-0.046851,-7.338051,5.199968,-1.213009,-0.458105,-0.171035,0.037109,0.55957,-0.18457,-1.374619,8.67358,6.757926,-1.439987,0.212714,-0.089629,0.123535,-0.210449,-0.043945,0.000932,-7.383204,5.606392,-1.709037,0.092026,-0.13228,0.251709,0.293701,-0.342529,0.63924,-11.663051,4.696525,-1.196585,-0.231585,-0.07715,0.123535,0.423096,-0.403809,0.507748,-6.450205,5.910596,-0.953984,-0.294582,-0.299191,-0.062988,0.380127,-0.458984
0.650754,-10.284317,4.070849,-1.477188,-0.67198,-0.33896,0.03833,0.572021,-0.180176,-2.12335,6.292028,6.96603,-1.536618,0.178061,-0.169729,0.125977,-0.235352,-0.076172,0.672395,-9.876122,4.113855,-1.714501,0.017603,-0.253852,0.229736,0.316895,-0.335205,0.102501,-9.013621,4.55454,-0.733697,-0.153622,-0.358837,0.10791,0.429199,-0.39624,-0.482084,-6.937135,6.01517,-1.494447,-0.246906,-0.186395,-0.065918,0.397949,-0.447998
1.61082,-10.000293,4.44305,-0.148345,-0.457006,-0.296514,0.04541,0.571533,-0.197021,-0.780772,4.179955,6.707833,-0.597768,0.12771,-0.034295,0.13501,-0.257568,-0.105713,1.574372,-11.913653,3.69937,-0.571776,0.312803,-0.047905,0.219971,0.328613,-0.340332,0.536718,-9.356008,4.81513,-0.901782,-0.891802,-0.160816,0.09375,0.432129,-0.390137,-0.154371,-9.522696,5.100796,-1.005624,-0.545759,-0.272154,-0.065674,0.396973,-0.443604
0.855256,-7.75756,4.665619,0.040841,-0.368272,-0.333632,0.051514,0.581299,-0.198486,-2.180238,6.377323,6.511653,0.858734,0.337803,-0.08091,0.146729,-0.280029,-0.119385,-0.163343,-9.932227,4.409093,0.625121,0.424067,-0.356295,0.209473,0.3396,-0.346924,1.59536,-11.622125,3.453385,-0.440931,-0.760201,-0.184619,0.080322,0.439453,-0.381348,-0.041997,-8.688334,5.039667,0.67273,-0.747413,-0.334427,-0.070312,0.39209,-0.44751
1.512548,-7.32558,4.028175,-0.347298,-0.525294,-0.321373,0.058838,0.589844,-0.20459,-1.458518,8.845714,6.813837,-0.309259,-0.147071,-0.106329,0.147217,-0.297119,-0.131592,0.703305,-6.882614,4.331748,0.012462,0.069174,-0.331358,0.197021,0.350098,-0.354004,0.986984,-10.037286,3.021207,0.266283,-0.669675,-0.55056,0.063232,0.437744,-0.384277,1.215934,-5.028186,5.721585,0.279635,-0.97871,-0.409469,-0.076172,0.386963,-0.448975
1.057898,-7.15888,4.001517,-0.667796,-0.496264,-0.282254,0.052002,0.600342,-0.208252,-1.255402,6.029527,6.179703,-1.150643,0.165023,-0.092986,0.159668,-0.313232,-0.165039,0.565395,-7.753467,4.114735,-0.893051,0.308216,-0.332624,0.177002,0.368408,-0.358154,2.307788,-7.085958,3.028817,-0.168087,-0.566667,-0.454041,0.040283,0.439941,-0.386719,1.573904,-5.717178,4.740829,-1.298508,-0.531946,-0.104896,-0.085449,0.401367,-0.440918
1.310175,-7.420775,3.81551,-1.2161,-0.709161,-0.378629,0.056152,0.608154,-0.19873,-2.317963,6.277855,6.567087,-0.318468,-0.027605,-0.300296,0.161377,-0.325684,-0.178223,-0.567983,-7.467667,4.478657,-0.552974,0.105779,-0.459723,0.168945,0.373291,-0.353516,1.799542,-5.486081,4.290726,-0.963514,0.00049,-0.210614,0.039307,0.444336,-0.371582,0.095675,-7.417037,4.904258,-1.078845,-0.708308,-0.355427,-0.088379,0.40918,-0.42627
2.01027,-9.816076,3.694354,-1.47704,-0.681583,-0.481884,0.04541,0.624268,-0.187744,-0.573573,7.017856,7.700311,-1.328784,0.13827,-0.363817,0.167969,-0.330078,-0.200684,0.266264,-6.445316,4.549967,-1.2921,-0.258717,-0.391362,0.150146,0.395752,-0.350342,2.285362,-7.708912,3.692315,-1.81535,-0.132812,0.097911,0.027832,0.464355,-0.349854,1.900531,-7.177024,4.908152,-1.183072,-0.971888,-0.480555,-0.107178,0.419434,-0.412842
1.6576,-9.721281,3.600187,-0.452244,-0.416839,-0.383606,0.046143,0.621582,-0.190186,-2.753358,3.523186,6.974499,-1.049492,0.366653,-0.262389,0.179443,-0.335449,-0.229248,0.717086,-10.248182,3.080862,-1.664607,-0.260025,-0.18939,0.137451,0.402588,-0.333984,2.066197,-10.354883,1.894169,-0.857435,0.582664,0.042514,0.031982,0.46167,-0.338867,0.038873,-9.076104,4.936288,-1.280006,-0.511966,-0.226683,-0.111572,0.423584,-0.396484
1.479867,-7.176222,3.938878,-0.887003,-0.426931,-0.448525,0.047607,0.639893,-0.184814,-2.524434,5.481857,8.057964,0.142787,-0.129908,-0.421404,0.186523,-0.344482,-0.232422,0.737764,-11.741923,2.440288,-0.551781,-0.334442,-0.168254,0.129883,0.422607,-0.331543,0.713289,-7.229587,2.797474,0.092885,0.410891,-0.172856,0.03125,0.467285,-0.338135,-0.063821,-8.395073,4.229865,-0.350334,-1.499905,-0.651456,-0.129639,0.431152,-0.387695
2.207734,-8.508589,3.065074,-0.834197,-0.2184,-0.367959,0.046143,0.644287,-0.181396,-2.382394,6.5586,7.908778,-0.792585,-0.281653,-0.176895,0.193848,-0.348877,-0.255859,1.744814,-10.258456,2.063805,-0.113216,-0.325619,0.132962,0.119629,0.422363,-0.338867,2.249346,-5.978058,2.522454,-0.639849,0.238884,0.54114,0.037598,0.468994,-0.332031,2.418001,-6.239493,4.71944,-0.370501,-1.588241,-0.344525,-0.145264,0.425049,-0.378418
1.65044,-5.827959,3.223842,-0.729368,-0.293921,-0.407348,0.03833,0.657715,-0.17749,-2.577313,5.613711,6.360277,-0.675183,-0.709382,-0.37768,0.186279,-0.352051,-0.273682,0.253528,-8.482475,3.733533,-0.260141,-0.183012,0.349844,0.111328,0.434082,-0.342773,0.748979,-9.223504,3.193261,-1.117356,0.606286,0.768994,0.046631,0.486084,-0.316162,2.482761,-5.463881,4.261369,-1.209397,-1.111933,-0.441791,-0.164062,0.441162,-0.359131
1.027538,-7.453633,1.859734,-2.064857,-0.437552,-0.458973,0.034912,0.666016,-0.154297,-2.261696,7.08017,6.865902,-0.717304,-0.575805,-0.282867,0.192627,-0.358887,-0.280518,0.576893,-7.577363,4.378923,-0.932018,-0.40042,0.194611,0.107666,0.437744,-0.337402,0.190517,-10.02467,3.151414,-0.555749,0.130986,0.554258,0.053467,0.47998,-0.310059,1.947066,-7.815153,2.509617,-2.181683,-1.26065,-0.203343,-0.173584,0.452393,-0.32666
2.484669,-10.120396,1.090538,-1.211592,-0.821454,-0.54078,0.024658,0.675781,-0.138916,-2.142578,5.427872,7.476206,-1.670202,-0.910731,-0.288416,0.195557,-0.355469,-0.311035,0.544264,-9.211035,3.227153,-1.296016,-0.367057,0.428475,0.100342,0.451904,-0.327637,1.779258,-8.302229,3.166496,-0.607183,0.247517,0.383899,0.055908,0.487305,-0.302002,2.674317,-9.649234,2.354058,-1.397527,-1.117155,-0.397259,-0.189697,0.461182,-0.303711
2.909811,-8.19081,2.412486,-0.77504,-0.424845,-0.377281,0.015625,0.68042,-0.14209,-0.256024,2.165439,6.840439,-0.946735,-0.814533,-0.158895,0.20166,-0.358398,-0.32959,1.546219,-11.433586,2.367582,-0.740159,-0.496484,0.312228,0.092285,0.459961,-0.33252,1.37532,-9.908668,3.048506,-0.924606,0.445342,0.756564,0.066162,0.49292,-0.29834,1.991401,-9.432862,2.592779,-0.932648,-1.206824,-0.337842,-0.205078,0.461914,-0.29248
2.805424,-8.799085,1.945868,-0.991068,-0.328869,-0.377645,0.017334,0.688232,-0.119141,-1.783171,4.429467,7.029563,0.451068,-0.736059,-0.211297,0.192139,-0.35791,-0.346191,0.568035,-9.337653,2.863659,0.677626,-0.326705,0.236226,0.092285,0.456543,-0.334961,0.261393,-10.374914,2.656521,0.197175,0.288822,0.361386,0.071777,0.491699,-0.290527,2.077379,-8.689634,3.024488,-0.599005,-1.802544,-0.26211,-0.219971,0.46167,-0.262695
1.668732,-8.541013,1.202192,-0.602291,-0.19568,-0.303405,0.013916,0.693115,-0.125,-1.098685,6.801526,7.471923,-0.569413,-0.862008,-0.035342,0.178711,-0.358154,-0.348145,0.814126,-5.787423,3.984021,0.057845,-0.45986,0.206274,0.086426,0.460938,-0.348633,0.487276,-7.545951,3.192844,0.179062,0.153698,0.318047,0.076416,0.487061,-0.305908,3.334839,-7.869653,2.445119,-0.714595,-1.679665,-0.304596,-0.231445,0.463867,-0.255127
1.603724,-7.784922,0.511285,-0.924935,-0.313472,-0.399846,0.003662,0.704834,-0.101807,-1.55247,4.312914,6.385649,-1.222919,-0.504408,0.055652,0.175049,-0.35498,-0.385498,0.852141,-5.948618,3.462186,-0.457258,-0.256177,0.27775,0.07666,0.474609,-0.335693,0.116734,-5.866436,3.040286,-0.137281,0.070678,0.289101,0.068848,0.496094,-0.291748,2.21298,-7.8671,2.30915,-1.073671,-1.429464,-0.130879,-0.24707,0.476318,-0.217529
1.918114,-8.072149,0.851692,-1.217266,-0.475937,-0.414744,0.007568,0.704102,-0.091309,-0.431308,3.907086,6.49894,-0.602514,-0.513529,0.142272,0.168701,-0.350098,-0.390137,1.127865,-4.752468,4.728007,-1.142031,-0.268153,0.060502,0.084473,0.47876,-0.323486,1.275506,-6.007569,4.154154,-1.836756,-0.236434,0.403679,0.085205,0.504883,-0.269043,2.58979,-8.65476,2.572447,-1.440609,-1.554342,-0.279979,-0.247803,0.475098,-0.194336
2.866256,-8.60183,1.141186,-1.413314,-0.048445,-0.337454,-0.003662,0.712646,-0.073975,-0.084805,4.927993,7.274509,-0.994989,0.011332,0.446724,0.174072,-0.34668,-0.394531,1.44089,-8.650925,4.033724,-1.977674,-0.26766,0.255538,0.073975,0.500732,-0.300781,2.315591,-12.160175,3.070361,-1.659614,0.083039,0.520933,0.082031,0.519043,-0.24707,2.837183,-9.158878,2.216055,-1.362691,-1.45058,-0.009551,-0.266846,0.478516,-0.16333
2.140264,-10.203376,0.383466,-1.009183,-0.005527,-0.324789,-0.000732,0.713867,-0.076416,-1.391162,3.246693,7.162606,-1.100044,0.028987,0.690725,0.16333,-0.345215,-0.4021,0.873326,-10.173638,3.238446,-0.390833,-0.30996,-0.181222,0.071045,0.500488,-0.313965,0.415737,-9.705527,2.909945,0.366664,0.498268,-0.374335,0.083496,0.516113,-0.265625,2.455301,-9.602549,2.285007,-1.137375,-1.673519,-0.206826,-0.267334,0.477783,-0.151367
2.178845,-9.917044,-0.01341,-0.400472,0.179758,-0.255328,-0.007324,0.720947,-0.071533,-1.154561,3.431275,7.772411,-0.131751,0.207236,0.832201,0.157715,-0.355713,-0.409424,1.324328,-7.728734,2.725516,-0.163877,-0.101133,-0.169903,0.0625,0.514404,-0.310547,-0.680963,-7.323648,2.652648,-0.931944,-0.12688,0.155564,0.078613,0.530762,-0.248291,3.666846,-9.918742,1.708413,-0.518134,-1.639586,-0.122861,-0.283203,0.484619,-0.133301
2.975483,-9.332815,0.689254,-0.168061,-0.060467,-0.250996,-0.013184,0.720947,-0.069336,-1.352613,4.745181,8.357796,-0.322729,0.139712,0.923233,0.147461,-0.351562,-0.421143,-0.141053,-8.519224,1.77506,-1.007859,0.10652,-0.102184,0.060303,0.520264,-0.296143,-0.017325,-11.70428,1.299007,-1.075046,-0.303128,-0.108019,0.07251,0.536377,-0.23291,3.447979,-9.518827,1.534977,-0.274927,-1.360572,-0.285586,-0.291992,0.478027,-0.116943
3.213701,-8.324059,1.104387,-0.025853,0.331101,-0.122917,-0.001709,0.718994,-0.073242,-0.56662,3.598365,8.033426,-0.780226,0.080916,0.901978,0.14917,-0.350586,-0.425049,0.172903,-10.545198,1.707906,-0.653573,-0.22511,-0.144797,0.064453,0.521973,-0.287842,0.117172,-9.326576,3.619256,0.306996,-0.193424,-0.361658,0.073242,0.528809,-0.237549,3.973808,-9.234539,1.61865,-0.183212,-1.648731,-0.077778,-0.290283,0.470947,-0.101318
3.264187,-8.209212,1.185464,-0.594965,0.241912,-0.092942,-0.011963,0.726318,-0.066406,-0.813306,2.835033,7.873887,-0.448929,0.111668,0.857923,0.140625,-0.346924,-0.433838,-0.593044,-9.358608,3.006514,-0.146219,-0.246304,-0.330193,0.046875,0.53125,-0.283936,0.30428,-8.916303,5.809854,-1.208683,-0.375643,-0.08436,0.059326,0.541504,-0.215088,4.111547,-8.844353,0.625907,-0.405244,-1.513395,-0.079261,-0.30249,0.476074,-0.07959
2.662614,-9.691733,0.741964,-0.11654,0.544913,0.065869,-0.004639,0.724609,-0.0625,-1.365948,3.936468,7.842252,-0.146505,-0.039746,0.838728,0.13501,-0.3479,-0.434082,-0.535828,-9.186392,1.63836,-0.756929,-1.047345,-0.354719,0.0354,0.535645,-0.270752,-0.781215,-12.999178,2.83866,-0.993388,-0.378483,-0.081686,0.053711,0.547119,-0.198242,3.380067,-9.632306,0.252112,-0.434142,-1.812064,0.106399,-0.303711,0.471436,-0.058594
3.207372,-8.189609,0.790912,-0.024641,0.334871,0.128126,-0.003662,0.724854,-0.076904,-0.775583,4.139169,8.526351,-0.61915,-0.251106,0.776313,0.130371,-0.35083,-0.450928,1.514398,-10.499534,0.485501,-0.645876,-0.677153,-0.427967,0.021729,0.537109,-0.269287,-1.666272,-11.173562,3.108103,0.182039,-0.954641,-0.787584,0.033936,0.548828,-0.215332,4.282476,-9.530363,-0.338243,0.256174,-2.082736,-0.050731,-0.310791,0.467041,-0.052734
2.840645,-9.520526,0.04094,-0.22352,0.509276,0.156126,0.008057,0.730469,-0.068115,-0.539365,2.078621,8.684658,-0.59565,-0.226953,0.788586,0.121338,-0.35083,-0.452637,-0.876874,-10.448651,0.821666,0.02234,-0.769751,-0.456343,0.012695,0.543213,-0.266602,-0.8515,-8.685461,4.097241,-0.14903,-1.65438,-0.56262,0.017334,0.552002,-0.205566,4.190791,-7.970959,-0.440672,0.288619,-1.911953,-0.019066,-0.30957,0.469238,-0.033203
3.792096,-9.135712,-0.180825,0.329994,0.468294,0.144216,0.000977,0.73999,-0.083252,-0.008099,2.686908,9.155359,0.394441,-0.343184,0.595648,0.102295,-0.358887,-0.452393,1.334289,-8.800986,1.312985,0.052478,-1.281089,-0.527762,-0.013916,0.554443,-0.273193,-0.293687,-9.357807,3.501932,-0.575341,-2.030877,-0.616552,-0.013672,0.564941,-0.19873,4.102413,-8.159885,-1.066022,-0.119037,-2.166589,0.004465,-0.320068,0.476562,-0.014893
2.311082,-8.028372,0.452394,-0.22864,0.532198,0.072148,-0.002441,0.736572,-0.079834,-0.538269,5.516156,9.672481,0.045915,-0.126229,0.702443,0.098389,-0.372803,-0.448486,-0.046762,-9.39652,1.699359,-0.823993,-0.937405,-0.271568,-0.033203,0.55127,-0.257324,-0.352547,-9.728209,3.179426,-0.413354,-2.158419,-0.515331,-0.045654,0.5625,-0.192139,4.298314,-8.727923,-1.375295,-0.298496,-2.057865,-0.055995,-0.331299,0.467529,0.004639
2.979264,-9.432457,-0.333514,-0.14707,0.298808,-0.022431,0.007568,0.73877,-0.084473,-1.047861,4.314616,8.883064,-0.8149,-0.507281,0.484505,0.09082,-0.348389,-0.466064,-0.34129,-11.331794,0.79172,-0.198535,-1.789203,-0.359046,-0.041748,0.560303,-0.258301,-0.575081,-8.503019,2.656355,0.031856,-2.317406,-0.575652,-0.058838,0.564209,-0.19043,3.30813,-8.992902,-1.579174,-0.043177,-1.953978,0.087418,-0.322021,0.469238,0.020508
1.863971,-8.297297,0.122527,0.070533,0.150896,-0.057234,0.003174,0.740234,-0.09082,-0.099609,2.016663,9.266605,-0.476771,-0.41787,0.484211,0.068115,-0.354492,-0.466797,1.118228,-8.87797,1.314333,0.28023,-1.478803,-0.336858,-0.061279,0.55835,-0.264893,-0.642985,-7.614789,3.221945,-0.546705,-2.425362,-0.270154,-0.082275,0.567627,-0.181396,3.118568,-7.780783,-0.832826,0.221982,-2.207693,-0.140806,-0.327881,0.461914,0.033203
3.245804,-9.189439,-0.457232,-0.157097,0.277363,-0.198384,0.005615,0.734863,-0.081299,-0.569446,2.478458,9.154432,0.334085,-0.574459,0.548239,0.05835,-0.36792,-0.463623,0.384324,-9.704787,0.964971,-0.714599,-2.053717,0.002083,-0.072754,0.557129,-0.239014,-1.088144,-10.39662,1.053831,-0.627359,-2.928616,-0.207343,-0.099854,0.571045,-0.150879,4.503434,-7.081166,-0.758368,-0.3088,-2.173069,0.016712,-0.326172,0.456299,0.069336
2.947289,-7.997179,0.070481,0.290582,0.294908,-0.127436,0.011475,0.737549,-0.0896,1.183813,4.338456,8.908823,0.070434,-0.737981,0.773788,0.046875,-0.369385,-0.463867,4.073089,-11.990471,-0.338428,0.174486,-1.654523,0.057613,-0.079834,0.560547,-0.245117,-0.020247,-8.957546,0.408017,0.939271,-3.248835,-0.514214,-0.12207,0.56543,-0.160645,3.57577,-8.375577,-1.267857,-0.543873,-1.864151,-0.079444,-0.318848,0.455811,0.085693
2.811487,-8.103505,0.16741,-0.119989,0.501816,-0.102159,0.021973,0.743896,-0.09082,-0.118155,3.148405,8.485503,-0.433805,-0.570083,0.975863,0.037598,-0.36377,-0.469482,0.109453,-8.684606,1.286801,1.336448,-1.180207,0.195403,-0.076172,0.562744,-0.263428,-1.003257,-5.928276,2.025171,0.229589,-3.270902,-0.154356,-0.129883,0.573242,-0.150635,3.728079,-8.710984,-1.552476,0.086527,-2.087043,-0.225089,-0.307861,0.455811,0.104736
2.268469,-8.541847,0.545922,-0.063802,0.283046,-0.302504,0.009766,0.740723,-0.099854,0.148416,3.272177,9.460147,0.135684,-0.807744,0.924352,0.016602,-0.36499,-0.473145,0.592593,-5.736278,0.733432,0.021245,-1.681624,0.27485,-0.094482,0.562744,-0.268066,-3.316301,-8.716845,0.078118,-0.455685,-3.855677,0.042287,-0.158936,0.577393,-0.138184,3.621763,-6.85539,-0.599095,-0.001181,-1.920299,-0.137821,-0.317871,0.453369,0.112793
3.090244,-8.622078,0.561813,-0.328971,0.484152,-0.436488,0.004883,0.738525,-0.091064,0.859271,4.434751,9.049352,-0.449236,-0.522924,0.814523,-0.001221,-0.350098,-0.485596,0.177406,-8.841922,-0.898146,-1.074474,-1.3109,0.657208,-0.093506,0.572266,-0.243652,-2.593484,-7.100779,-1.710837,0.367669,-4.210907,-0.317573,-0.180176,0.578125,-0.113281,4.608006,-7.42638,-0.09087,-1.098684,-1.99635,0.027803,-0.312012,0.447021,0.151611
3.063866,-8.402715,0.339279,-0.200509,0.270741,-0.57684,-0.008301,0.729736,-0.097412,1.134963,2.926815,8.201335,-0.832471,-0.623979,0.711718,-0.012451,-0.352539,-0.492188,1.750809,-9.659011,-1.44353,0.151344,-1.519596,0.215656,-0.107422,0.565918,-0.246582,-2.987953,-7.032897,-3.632591,-0.907469,-4.235392,0.335334,-0.195557,0.577148,-0.083008,4.285204,-9.560883,-0.763037,-1.045165,-1.183686,0.057247,-0.315918,0.435059,0.169189
3.682014,-7.663474,0.749089,-0.643478,0.514511,-0.620449,-0.010254,0.730225,-0.084961,2.371099,3.148052,7.875136,-0.482164,-0.207369,0.732882,-0.020996,-0.356934,-0.488525,3.571054,-5.522703,0.55769,-0.379961,-0.629951,0.033816,-0.108643,0.569824,-0.231201,-0.739941,-11.059531,-5.489982,-1.358275,-4.700572,-0.111793,-0.204834,0.576172,-0.029541,3.84072,-9.356068,-0.030034,-0.67514,-1.425572,0.186297,-0.307129,0.432617,0.197754
3.118669,-9.581188,0.584564,-0.856998,0.458882,-0.618928,-0.021484,0.731934,-0.083984,0.40987,3.011549,8.158769,-0.962242,-0.072816,0.827419,-0.028809,-0.342041,-0.48877,-1.213617,-8.419645,0.190188,-1.713522,-0.492303,0.288759,-0.110107,0.583496,-0.211182,2.261133,-9.978144,-3.722561,0.155234,-3.308584,-0.284238,-0.217529,0.579102,-0.021729,5.768149,-9.14954,0.970964,-0.992156,-0.841074,0.3264,-0.302246,0.432617,0.205811
4.15673,-9.475051,0.786594,-0.319123,0.51641,-0.378842,-0.015381,0.721924,-0.080078,2.055477,1.628614,8.03798,-0.78092,-0.440566,0.526881,-0.047363,-0.330811,-0.510254,0.105665,-11.367271,-1.725726,-0.693696,-1.366281,-0.223192,-0.111572,0.575928,-0.195312,-0.512573,-6.70907,-1.963332,-0.506719,-2.645528,-0.303991,-0.212891,0.570557,0.007568,4.655656,-10.425324,-0.008721,-0.987359,-0.002844,0.39076,-0.289062,0.422119,0.222412
3.408282,-9.333911,0.506923,-0.492674,0.398883,-0.146817,-0.022461,0.727539,-0.080566,1.119986,1.551417,8.843098,-0.23203,-0.250767,0.377206,-0.04834,-0.321533,-0.502441,0.577655,-10.168998,-2.110418,0.106049,-0.876019,0.110599,-0.117676,0.580811,-0.200928,-1.319004,-9.820946,-3.259577,-0.568975,-2.637531,0.229558,-0.217285,0.574951,0.027588,3.940558,-11.149431,-0.575723,-0.375143,0.166259,0.228115,-0.290771,0.428711,0.2229
4.601609,-9.846385,0.115546,-0.225075,0.402483,0.111425,-0.014404,0.725586,-0.068604,1.927564,2.726703,8.722731,-0.198301,-0.997359,0.116423,-0.065674,-0.325439,-0.512207,0.093924,-8.950507,-1.710073,-0.045947,-1.287987,0.210162,-0.120117,0.581299,-0.186523,-2.044394,-8.408185,-2.606936,0.804183,-2.600372,-0.353404,-0.220703,0.570557,0.039062,4.666981,-11.014185,-1.103371,0.035853,0.569341,0.278853,-0.288086,0.431396,0.226562
3.24456,-8.811756,0.523881,-0.277189,0.397171,0.211788,-0.009277,0.718506,-0.076416,2.798061,3.043584,9.045601,-0.612232,-0.471833,0.176499,-0.066162,-0.315918,-0.509033,2.502912,-8.020172,-0.859695,-0.219744,-1.079309,0.283829,-0.118652,0.570312,-0.188232,0.080428,-5.576964,-2.907029,-0.246187,-2.937892,0.301189,-0.213379,0.558105,0.050781,3.8706,-10.057316,-1.568772,0.249197,1.088262,0.354997,-0.289795,0.427734,0.205078
3.571497,-9.803423,0.117947,-0.80507,0.394193,0.120434,-0.009033,0.723633,-0.064941,1.831556,2.643888,8.523194,-0.441963,-0.558252,0.033438,-0.086426,-0.306396,-0.516113,0.963381,-7.632532,-0.768503,-0.25151,-0.725088,0.265268,-0.122314,0.574707,-0.176758,-0.250994,-10.065856,-4.911528,-0.849353,-2.147079,0.285318,-0.20874,0.563965,0.079346,3.38325,-9.381825,-1.419294,-0.092433,1.123574,0.538745,-0.290039,0.437012,0.204102
2.841514,-11.32526,-0.841734,-0.455949,0.065452,0.148458,-0.004395,0.73584,-0.055176,3.606546,3.963212,8.692019,-0.184601,-0.106257,-0.077685,-0.083984,-0.313477,-0.507812,3.236085,-7.822702,-0.55638,-0.635265,-1.055009,0.054626,-0.124023,0.585205,-0.159912,0.067169,-9.06419,-5.576629,0.59885,-2.365194,-0.121119,-0.202148,0.571289,0.087646,2.71923,-10.341916,-2.149501,-0.357887,1.581999,0.530048,-0.289551,0.452148,0.20166
3.529549,-10.315169,-0.68141,-0.013179,-0.042622,0.316192,-0.005615,0.733154,-0.06543,1.738024,3.143682,8.731696,-0.774099,0.073308,0.054569,-0.084717,-0.309326,-0.525146,3.059417,-9.536589,-1.096957,-0.511378,-0.145575,0.220312,-0.124512,0.58252,-0.16333,1.365342,-7.211711,-5.646875,-0.421297,-1.30403,0.100007,-0.204346,0.561768,0.0896,2.223835,-11.120229,-3.054916,0.273949,1.439535,0.334516,-0.295654,0.455566,0.171387
3.166124,-9.438329,-0.24734,0.055033,-0.063848,0.338517,0.005127,0.737305,-0.060791,2.878374,1.042471,8.144487,-0.294634,0.068046,0.168195,-0.08667,-0.291504,-0.521484,2.848396,-9.286078,-0.76018,0.117297,-0.371957,-0.105833,-0.121582,0.583252,-0.155273,-1.654378,-10.658045,-6.075284,-0.508887,-1.266984,0.079862,-0.194092,0.565186,0.113281,3.71739,-8.730258,-2.552223,1.213172,1.347102,0.052682,-0.294434,0.466064,0.153564
2.636316,-9.128462,-0.614407,0.130615,-0.068187,0.381503,0.002441,0.744141,-0.073486,1.518851,2.73245,8.557221,0.789519,0.3692,0.365208,-0.079834,-0.310791,-0.512207,4.132316,-8.492397,-1.218721,0.032701,0.379089,0.105861,-0.124756,0.587646,-0.165771,0.19755,-8.984712,-7.307324,0.7365,-1.119866,-0.460352,-0.209229,0.56665,0.093506,3.046311,-6.761516,-0.441902,0.259118,1.874817,0.069551,-0.306641,0.476074,0.123047
2.736067,-9.484426,-1.287274,0.204327,-0.372347,0.331307,0.005859,0.73584,-0.06665,2.8172,4.573281,8.839292,0.276456,0.116588,0.363303,-0.080811,-0.308594,-0.518555,1.763099,-9.544371,-1.528005,0.250508,0.829836,0.289948,-0.116455,0.577393,-0.165283,-0.851728,-6.836999,-5.91876,0.353128,-0.105684,-0.342796,-0.209961,0.55542,0.099121,2.215312,-10.26801,-1.586795,-0.549616,2.088303,0.213413,-0.310303,0.472168,0.121582
2.269707,-9.406684,-0.487921,0.414853,-0.875853,0.355423,0.00415,0.743896,-0.064453,2.102596,3.29096,8.512446,0.127777,0.467553,0.303964,-0.077881,-0.315918,-0.514404,2.148227,-8.977505,0.023259,0.984084,0.619431,0.319199,-0.110352,0.576904,-0.17627,1.643294,-8.073711,-5.782918,0.383115,-0.478281,-0.438436,-0.218994,0.55542,0.095459,2.477562,-11.747313,-2.657891,0.999749,2.191694,-0.01682,-0.317627,0.482422,0.090576
3.351959,-9.573609,0.217275,0.211708,-0.78536,0.306685,0.008789,0.751953,-0.062744,2.122597,3.592218,8.257736,0.561575,0.474634,0.417203,-0.081299,-0.316162,-0.510254,4.465382,-6.807986,1.565059,0.520738,0.951472,0.131427,-0.103027,0.581055,-0.185791,3.356536,-7.116616,-6.916167,0.423009,1.211218,-0.136691,-0.219727,0.560303,0.08667,4.7884,-8.375334,-2.112014,1.48085,1.946582,-0.066831,-0.317627,0.490479,0.053711
1.816661,-10.123539,-0.795761,0.772017,-0.72019,0.314806,0.01416,0.741455,-0.077393,1.57304,4.508534,8.592962,0.464497,0.962447,0.905752,-0.066162,-0.324707,-0.50708,4.220415,-8.262964,1.470192,-0.928748,1.795255,0.058173,-0.085693,0.575928,-0.182861,-0.822651,-8.498245,-6.474781,-0.929339,1.714431,0.585043,-0.206787,0.553223,0.083984,3.725086,-7.085323,0.329888,0.613444,2.593653,-0.100826,-0.31665,0.487793,0.013916
1.798631,-6.85833,-0.950996,0.759182,-0.905285,0.172807,0.014648,0.742188,-0.086426,0.92185,4.462194,8.376655,0.309369,0.912559,1.199424,-0.075928,-0.326172,-0.509766,1.78645,-11.46341,0.141483,-0.315652,2.482233,-0.025297,-0.073486,0.579102,-0.182129,-0.090686,-12.409998,-5.18062,-0.616615,1.758061,0.268855,-0.20166,0.559082,0.082031,2.911017,-8.869068,0.731575,-0.023779,2.502922,0.055064,-0.312256,0.494873,-0.008545
2.99161,-9.539391,-1.164441,-0.138659,-1.484561,0.0357,0.006104,0.749268,-0.075928,1.97882,3.394133,8.862896,0.227983,0.959507,1.237808,-0.076416,-0.328125,-0.504639,0.141138,-10.356483,0.7084,0.73131,2.366191,-0.163696,-0.066162,0.581543,-0.194092,1.80802,-10.56829,-4.349001,0.636946,2.690585,-0.355889,-0.211426,0.5625,0.055908,5.028702,-11.181388,-3.416611,0.376705,2.869206,0.088905,-0.312988,0.502441,-0.038086
3.936598,-11.347442,-0.484068,1.060667,-1.351356,0.255493,-0.009521,0.732666,-0.093018,1.178585,2.569712,9.647447,0.547808,0.932367,1.470918,-0.076172,-0.333252,-0.502441,1.553629,-9.966862,0.488747,0.386252,2.489833,0.127713,-0.061768,0.565918,-0.206299,0.047484,-7.447324,-3.821395,0.639068,3.877413,-0.207227,-0.229004,0.546631,0.019287,4.721289,-10.964133,-2.232214,1.24531,2.919056,0.072122,-0.314941,0.492432,-0.088135
3.971486,-9.494215,-0.087353,1.494423,-1.347474,0.270681,-0.003662,0.740234,-0.106445,1.881224,1.979744,9.40025,1.180711,0.703842,1.550969,-0.085938,-0.333984,-0.495361,-0.562248,-11.15266,0.320852,0.784829,2.825976,0.44802,-0.032471,0.573975,-0.220459,-0.792216,-7.464995,-1.658711,0.180613,3.866773,-0.030417,-0.220947,0.561035,-0.00415,5.931358,-10.0017,-0.150199,1.693886,2.531916,-0.085366,-0.30249,0.500244,-0.139648
2.343583,-8.438944,-0.684376,1.754797,-1.420623,0.207117,-0.011963,0.730225,-0.120117,1.31877,4.254974,9.210386,1.862517,1.016724,1.486835,-0.08374,-0.360352,-0.480469,-1.439973,-10.294584,1.342219,0.897227,2.386211,0.184477,-0.020264,0.568115,-0.229248,2.775503,-11.2574,-2.685256,-0.325163,4.447967,0.483713,-0.206787,0.561768,-0.024658,5.761555,-8.83876,-0.510908,1.949851,3.198135,-0.007773,-0.287598,0.491455,-0.19165
2.983124,-6.136334,1.07978,1.237833,-1.905698,0.031297,-0.027832,0.724365,-0.128174,0.329283,5.951441,9.717259,0.717187,0.797048,1.325446,-0.081543,-0.36377,-0.472412,-1.200742,-10.220877,0.781857,0.616955,2.232589,0.082167,-0.012207,0.565186,-0.240723,-0.35087,-11.642457,-2.607572,1.43887,6.189424,0.377907,-0.19458,0.55957,-0.085205,5.032862,-7.44062,0.550845,1.365496,3.153405,0.142958,-0.270508,0.486328,-0.240479
4.27205,-8.339818,1.699865,0.178815,-1.883247,-0.055826,-0.044678,0.724854,-0.123779,1.242444,3.084105,10.00503,-0.352281,0.531174,1.289755,-0.088379,-0.349121,-0.477295,-0.832154,-9.633907,0.989209,0.348598,1.616548,0.135736,-0.003906,0.567383,-0.248779,-2.235488,-4.688921,-1.093697,1.196572,6.033015,0.22012,-0.174805,0.558105,-0.134766,5.988258,-7.847244,2.13556,0.625716,3.007553,0.347938,-0.248779,0.48999,-0.278076
5.810537,-10.60168,1.636396,0.703494,-1.462305,-0.041614,-0.044189,0.720703,-0.124268,2.395024,0.922726,10.185951,0.390476,0.51138,1.249966,-0.097656,-0.359619,-0.476318,2.360195,-11.106242,-1.015856,-0.043213,1.619322,0.377222,0.017822,0.564697,-0.241455,-2.673835,-7.980671,-3.260492,-0.79536,6.391008,1.41373,-0.112793,0.565918,-0.145508,5.13463,-9.059744,2.715265,0.379555,3.029921,0.367607,-0.208252,0.490967,-0.30542
3.70164,-10.527787,1.766145,1.328714,-1.143202,-0.09807,-0.055176,0.716309,-0.136719,1.051924,1.102135,9.734778,1.301519,0.605751,1.211923,-0.110352,-0.37207,-0.475098,-0.53337,-13.393727,-0.76271,1.285828,2.015022,0.835682,0.041016,0.558105,-0.259766,-5.16155,-13.339013,-3.127765,1.866511,6.681226,0.680873,-0.072266,0.556885,-0.193848,3.522441,-10.937827,3.760318,0.839036,2.701928,0.502023,-0.18042,0.491211,-0.333496
4.865014,-10.148989,2.07959,2.381069,-1.082506,-0.226471,-0.062744,0.705566,-0.154297,2.101828,2.453703,8.871582,2.342131,0.310766,1.009398,-0.114258,-0.388428,-0.455566,0.122249,-9.968125,1.311183,2.842045,1.157132,0.27355,0.050781,0.544189,-0.293213,-1.894552,-6.186113,1.016766,3.305652,5.90391,0.288056,-0.029053,0.538574,-0.248535,3.349559,-11.229425,3.647479,2.485753,2.346445,0.554275,-0.14624,0.4729,-0.378662
4.297482,-6.96274,3.5175,2.035834,-0.903358,-0.166575,-0.06543,0.682129,-0.17749,2.314776,4.391973,9.697788,1.889703,0.743368,0.669733,-0.112549,-0.410889,-0.425781,1.537255,-8.170572,1.12259,1.512853,1.103725,0.495975,0.070312,0.523682,-0.313477,-0.01669,-7.305675,-1.197565,1.098787,7.527823,1.099876,0.049561,0.516113,-0.266113,3.429103,-7.244339,5.337634,2.643763,2.33666,0.427619,-0.107422,0.437256,-0.42334
5.401533,-9.183431,2.870806,1.340255,-0.670775,-0.279066,-0.07666,0.674561,-0.187012,1.18619,3.867237,9.586903,1.5252,0.311697,0.503983,-0.112305,-0.427979,-0.411377,1.57152,-10.074734,-0.068861,0.996566,0.638551,0.400172,0.078613,0.518799,-0.325684,-7.738627,-5.300747,-1.707055,3.343047,7.580676,0.982804,0.123535,0.487305,-0.300781,2.138537,-7.255564,5.731203,1.279785,2.429278,0.923735,-0.06665,0.433594,-0.446533
4.30195,-9.471241,3.637281,1.499966,-0.555592,0.016122,-0.079346,0.668457,-0.208252,2.026751,4.665859,9.530657,1.616031,0.167613,0.371863,-0.111816,-0.43457,-0.401367,2.845344,-10.834728,-0.46021,1.351308,1.205913,1.014574,0.10498,0.507812,-0.346924,-4.246489,-0.331083,2.463238,0.775531,5.717775,1.612327,0.199463,0.473877,-0.288818,0.574201,-9.778863,6.294478,0.416129,2.058744,0.661273,-0.02832,0.434814,-0.463867
4.012506,-9.326491,3.613855,1.108158,-0.256546,-0.011264,-0.092773,0.665283,-0.221191,0.890387,5.756028,8.733697,1.304748,0.232052,0.014709,-0.113281,-0.450928,-0.388672,-0.64158,-7.906047,1.862105,1.518401,1.396329,0.50359,0.112305,0.497559,-0.361328,-4.861717,-11.141596,1.56662,-1.267831,6.45574,2.60955,0.273438,0.465576,-0.234131,1.183224,-10.617916,5.322297,1.393334,1.807427,0.88356,-0.005371,0.423096,-0.487305
2.818565,-10.259005,3.570617,1.035859,-0.613552,0.035946,-0.088135,0.653564,-0.217041,0.809176,4.737367,7.5636,0.627955,0.095075,-0.159071,-0.106445,-0.465088,-0.37793,-0.683709,-6.642018,1.982113,0.663548,0.552904,0.98339,0.13501,0.483643,-0.358154,-8.39709,-10.452644,2.924089,2.704234,5.386621,1.31708,0.335205,0.430908,-0.219482,-0.386682,-8.171051,6.043588,1.209215,2.132603,0.56314,0.039795,0.405029,-0.491455
6.366127,-9.638073,4.231272,1.530258,-0.355115,0.127438,-0.087158,0.646729,-0.236816,3.298287,2.656515,7.177096,1.325409,0.253548,-0.745435,-0.086182,-0.47168,-0.361084,3.063876,-9.471534,0.645108,0.888507,0.542038,0.382593,0.14624,0.477783,-0.369385,-2.09786,-4.062192,6.370147,1.226767,4.145451,1.64837,0.383057,0.403564,-0.197021,-0.631653,-9.804438,5.976653,0.14711,1.502426,1.209235,0.07959,0.406982,-0.495605
4.07084,-8.515706,4.237255,1.496999,-0.050981,0.146379,-0.090332,0.629395,-0.26001,1.020089,4.027921,7.629956,2.145665,0.848626,-0.920086,-0.078857,-0.493896,-0.337402,0.043078,-9.739461,1.249892,1.830685,1.129975,0.522941,0.161865,0.44458,-0.389893,-5.330445,-10.843015,3.870162,0.007953,4.64124,2.196962,0.429688,0.372559,-0.150391,-1.250729,-10.658887,5.015823,1.44206,1.502937,1.014742,0.110352,0.379639,-0.516357
4.964049,-8.583217,4.341014,1.597702,0.056219,0.25947,-0.091797,0.621826,-0.2854,0.052258,5.426594,7.491902,1.979654,0.033863,-1.300988,-0.062744,-0.52002,-0.305176,0.4223,-8.512255,1.660228,1.938474,0.238795,0.172827,0.161621,0.426025,-0.418457,-5.941892,-9.620837,3.847023,3.001241,2.382261,1.291152,0.45166,0.340332,-0.157471,-2.656648,-6.978131,5.534953,1.891431,0.948003,1.131594,0.137451,0.356934,-0.544678
3.796897,-7.709148,4.764955,1.654404,0.32497,0.319742,-0.077637,0.620605,-0.300049,1.147519,5.464857,6.515844,1.77051,0.299635,-1.371003,-0.043457,-0.523193,-0.280273,0.565571,-6.724629,2.289953,2.055214,0.987533,0.552099,0.183838,0.411377,-0.426514,-1.073272,-1.074729,3.314308,1.768282,2.929297,1.229915,0.482178,0.325684,-0.134277,-1.895718,-6.299934,5.258496,0.698815,0.556008,1.355063,0.166016,0.352051,-0.544434
4.308,-7.787643,5.072155,1.025311,0.381672,0.469065,-0.068848,0.612305,-0.323975,-1.117712,6.443714,6.472092,1.795663,0.020093,-1.770314,-0.016846,-0.533691,-0.256104,-2.358572,-4.232278,3.964472,1.24477,0.280673,0.39795,0.192139,0.393799,-0.444336,-7.472275,-5.815764,2.844667,-1.232035,3.670764,2.065974,0.510254,0.29541,-0.079102,-3.647895,-6.756229,4.758546,0.822487,0.52986,1.056901,0.185059,0.338379,-0.562256
3.428417,-8.042977,4.924195,0.595895,0.54274,0.655326,-0.052979,0.605225,-0.331299,0.056581,8.289024,6.846598,0.948265,-0.066755,-1.97354,0.011475,-0.541016,-0.246826,-1.183487,-5.090937,4.258364,-0.423118,0.023204,0.788541,0.205566,0.381836,-0.434814,-8.214554,-9.667936,2.662637,0.173287,2.601849,0.813026,0.527832,0.27124,-0.041504,-3.184085,-4.895723,5.664428,0.459916,-0.594326,0.692154,0.192383,0.322266,-0.562744
3.185617,-8.170154,4.674739,0.293288,0.643753,0.697973,-0.042725,0.613525,-0.339111,-1.633636,6.061705,6.250591,-0.136191,0.110075,-2.126348,0.038086,-0.535645,-0.24292,-4.299775,-9.100564,2.793245,-0.371634,-0.179174,0.812363,0.20752,0.381348,-0.42749,-7.586286,-4.443543,5.083499,0.582029,2.809163,0.871987,0.536865,0.259277,0.003174,-1.740099,-5.981183,4.432461,-0.865645,-0.350778,0.639575,0.189941,0.337891,-0.556396
1.535922,-8.723059,4.223002,0.653409,0.610706,0.470148,-0.029785,0.608154,-0.355225,-2.295449,3.657416,5.99015,0.931857,0.215925,-2.359671,0.06543,-0.539551,-0.231201,-3.283562,-7.998687,1.872404,1.399285,-0.59109,0.381083,0.206543,0.355713,-0.441162,-10.489926,-5.044971,5.210056,-0.866857,0.809679,1.210511,0.545654,0.236084,0.021973,-3.559266,-8.606825,3.892443,0.080951,-0.825184,0.814284,0.19043,0.330566,-0.561768
3.646268,-7.400665,4.844695,0.901135,0.616381,0.314098,-0.023438,0.604004,-0.369873,-2.516737,6.87965,6.259065,2.047826,0.243611,-2.706104,0.117188,-0.539795,-0.198486,-3.290536,-3.815421,3.509862,0.777278,-0.490215,0.717759,0.203613,0.342773,-0.447266,-6.132886,-7.843158,2.975835,-0.706994,-0.859122,0.688933,0.548584,0.229492,0.019287,-1.304514,-5.544921,4.676311,1.804065,-1.519132,0.287007,0.168945,0.308838,-0.587402
4.097488,-5.333737,5.86329,-0.102058,0.697996,0.594107,0.006836,0.613525,-0.371582,-1.970217,10.398888,6.928634,0.329716,-0.24405,-2.875902,0.147949,-0.525391,-0.198975,-2.783751,-6.593553,3.98643,-1.69915,-1.109718,1.058258,0.217041,0.35376,-0.429932,-7.352163,-7.451649,2.183621,-1.121455,0.069108,0.230335,0.564453,0.226318,0.036133,-1.426474,-1.085511,6.42595,-0.031829,-1.305023,0.210266,0.164062,0.313965,-0.586426
3.595851,-6.066089,5.143275,-1.525487,1.075599,0.823413,0.020264,0.632324,-0.354004,-1.723291,7.541445,6.746028,-1.72841,-0.239587,-2.903142,0.196289,-0.501709,-0.215576,-3.043429,-12.218572,3.176854,-1.518691,-0.93933,1.02073,0.210449,0.35376,-0.408203,-9.875774,-11.160789,1.809519,-2.575628,-1.221426,0.022668,0.557861,0.220947,0.052734,-1.813068,-4.068067,5.249352,-2.811742,-2.154401,0.034667,0.125244,0.354248,-0.559814
2.557841,-8.381563,4.451214,-1.673254,1.139236,0.665402,0.04248,0.664795,-0.351562,-2.942192,4.060607,6.797104,-1.119224,-0.202676,-2.90651,0.217529,-0.486328,-0.231689,-4.1578,-10.32509,3.484859,-0.181492,-1.23204,0.43073,0.204102,0.356689,-0.419922,-7.453481,-14.599139,-0.849178,-1.291246,-2.208485,-0.827598,0.552002,0.241455,0.022217,-0.630609,-8.195303,3.324967,-1.846301,-2.415482,-0.162586,0.088379,0.392822,-0.554443
2.554542,-8.585161,4.001341,-0.947898,1.645598,0.510156,0.064697,0.668213,-0.343018,-2.494346,5.287333,6.966987,-0.043973,0.010558,-2.654671,0.253906,-0.465576,-0.233398,-0.416992,-8.455314,4.512743,-0.892631,-0.843438,0.38131,0.199463,0.343018,-0.404541,-4.336329,-9.314696,-0.771241,0.451152,-2.580602,-1.0188,0.542236,0.241943,-0.008057,-1.07227,-6.600177,4.822935,-0.446167,-3.083555,-0.316096,0.040039,0.387451,-0.545898
2.772198,-7.334178,3.891119,-0.687039,2.03467,0.382829,0.099121,0.679199,-0.337158,-2.484573,5.566752,7.045721,-0.413808,0.141988,-2.197387,0.2771,-0.44751,-0.234131,-1.172813,-12.018496,5.702567,-0.90373,-0.239122,0.382993,0.203369,0.344727,-0.392578,-6.479236,-6.794058,1.959145,-0.516315,-1.94025,-0.194375,0.544678,0.245117,-0.021729,2.219146,-4.959532,5.002772,-0.698411,-3.86787,-0.196546,-0.014893,0.401123,-0.52832
1.382453,-6.182665,3.744532,-0.539132,2.597218,0.344378,0.128906,0.689209,-0.346191,-3.984331,4.567028,6.085298,-0.034402,0.284045,-1.633051,0.30249,-0.433594,-0.230225,-0.733174,-10.32305,5.535639,1.090211,-0.314123,0.131632,0.199951,0.327881,-0.411133,-7.868798,-7.251608,1.970915,-0.114421,-2.837345,-0.280493,0.536377,0.249512,-0.064697,3.139422,-5.698525,3.967961,-0.982706,-3.499181,-0.105013,-0.069092,0.418701,-0.517334
0.075622,-5.767116,2.291589,-0.972292,2.58642,0.245375,0.151123,0.699707,-0.334717,-5.715762,6.766679,6.080079,0.287212,-0.029378,-1.410389,0.314941,-0.426025,-0.225342,-1.420095,-5.39837,6.107373,0.115531,0.179446,0.591919,0.199219,0.317627,-0.402588,-3.628103,-5.005556,1.339879,-0.573051,-2.701368,-0.234642,0.52002,0.254395,-0.088135,3.543559,-6.165732,3.49714,-0.995374,-4.090063,-0.093206,-0.134277,0.432129,-0.48999
-0.688229,-6.277966,1.533988,-1.192332,2.147084,0.088496,0.177246,0.7146,-0.324219,-5.888389,6.840844,6.372024,-0.823994,-0.255377,-1.139524,0.322021,-0.408691,-0.22998,-4.309323,-10.221354,4.413024,-1.747281,0.162526,0.935521,0.211426,0.322754,-0.390137,-9.048368,-8.428612,1.103712,-1.50962,-1.72387,0.478841,0.523193,0.251221,-0.103516,5.696296,-5.869483,3.054196,-0.941156,-3.207411,-0.00359,-0.175049,0.442871,-0.461426
0.079796,-7.109721,1.686087,-0.999302,1.621623,-0.183496,0.206055,0.72168,-0.313965,-5.936836,4.63972,6.828668,-0.400828,-0.474775,-1.436959,0.335205,-0.391846,-0.243408,-3.969734,-13.339298,4.717261,0.171451,-0.245193,0.503167,0.228271,0.310547,-0.397705,-9.093294,-11.808925,1.975331,-0.829633,-3.007521,-0.129693,0.525146,0.252441,-0.138916,2.672601,-4.460534,2.391417,-0.637643,-2.318057,-0.053197,-0.188477,0.448975,-0.439453
-0.096679,-8.44171,1.978112,-1.191685,1.449407,-0.578931,0.200928,0.744141,-0.291016,-4.956928,4.885284,7.05529,0.128096,-0.496797,-1.300091,0.337891,-0.380127,-0.233643,-3.244699,-9.927756,7.624443,0.876897,-0.321634,0.361441,0.218018,0.30542,-0.398926,-7.443023,-11.489914,6.218712,0.251769,-1.956898,0.187415,0.514648,0.25708,-0.155273,2.818939,-3.417145,3.340657,-1.254137,-2.919758,-0.368605,-0.236084,0.46875,-0.389648
0.642597,-7.561424,1.834326,0.045933,1.535551,-0.588828,0.206787,0.724854,-0.286621,-4.488273,5.718713,7.05775,0.444927,-0.506821,-1.034666,0.345703,-0.375244,-0.236572,-1.352501,-8.636403,7.504973,0.34847,-1.058169,0.336431,0.210205,0.274902,-0.405762,-9.877337,-9.057243,7.413598,0.247943,-2.9969,-0.130813,0.493652,0.241943,-0.194336,5.183493,-6.595684,3.827907,-2.031065,-2.323694,-0.291502,-0.264893,0.466797,-0.341309
-0.330357,-4.952349,2.964078,-1.644674,1.592833,-1.024879,0.20752,0.748047,-0.264404,-5.203046,6.676749,7.4341,-0.278349,-0.248974,-0.534723,0.349121,-0.368164,-0.235107,0.184491,-8.845784,5.104191,-0.015392,-0.094222,0.299279,0.213867,0.282227,-0.407959,-2.980744,-10.186632,1.892434,-0.845278,-3.942752,-0.040359,0.474365,0.256836,-0.231689,2.7803,-7.240368,3.101093,-1.29459,-1.798303,-0.240786,-0.282959,0.483887,-0.305176
0.855148,-10.503985,0.073426,-1.342263,1.550253,-1.203328,0.198242,0.760742,-0.241211,-5.872786,4.350906,7.472187,-0.880542,-0.54651,-0.50597,0.357178,-0.363037,-0.254883,-5.274889,-9.788873,6.594851,-0.312985,-0.169344,0.362435,0.21167,0.283936,-0.407471,-6.217604,-11.31902,4.275153,0.28334,-1.513511,-0.374114,0.457031,0.261719,-0.253418,3.356092,-5.173072,2.53924,-1.442439,-2.187474,-0.427447,-0.306641,0.495361,-0.259521
0.604694,-7.068833,1.501508,-0.297754,1.433891,-1.247652,0.185547,0.757568,-0.233887,-4.254025,1.946589,6.571151,0.036974,-0.723491,-0.302842,0.348389,-0.360596,-0.25415,-2.037578,-12.919533,5.900771,-0.084496,-1.404029,0.283595,0.196533,0.275635,-0.416992,-8.86035,-7.793785,7.217232,0.841039,-3.333189,0.148154,0.425293,0.255127,-0.294434,4.636609,-6.157669,2.735181,-2.490249,-1.488091,-0.128948,-0.323975,0.505371,-0.205322
1.29599,-7.888467,0.942837,-1.06334,1.535097,-1.313152,0.182373,0.761475,-0.217529,-4.703668,6.602253,6.716059,1.66326,-0.769153,-0.094595,0.347412,-0.370117,-0.243164,0.774217,-10.453482,7.331896,1.725476,-0.783415,-0.029811,0.193359,0.259033,-0.43335,-0.406962,-11.484753,6.301603,-1.557973,-3.301213,0.174741,0.404541,0.26416,-0.311523,3.441357,-10.029929,1.833157,-2.625794,-0.875406,-0.359805,-0.325928,0.509766,-0.151367
1.525125,-5.716297,2.192177,-0.940072,1.383622,-1.35642,0.172852,0.755859,-0.199707,-4.500175,11.559445,8.459922,-1.182404,-0.861961,0.342108,0.333252,-0.367432,-0.253906,-4.085553,-2.299265,10.080796,-0.176608,-0.713027,-0.036115,0.184814,0.255615,-0.435547,-5.879225,-13.32131,7.110935,-0.541454,-0.609043,-0.706729,0.391113,0.270508,-0.312012,4.083652,-10.711619,0.786615,-1.785179,-1.12841,0.212896,-0.32666,0.510254,-0.111572
1.191883,-8.221668,0.854445,-2.812195,1.388614,-1.725388,0.149414,0.770508,-0.155029,-5.791624,3.929547,5.891446,-3.207762,-0.77963,0.351942,0.324219,-0.351318,-0.293457,-2.97829,-7.885383,6.770834,-3.437562,-2.158376,0.044493,0.159912,0.294434,-0.413574,-7.569091,-6.865328,7.587371,0.1489,-2.852814,-0.83776,0.349609,0.286133,-0.34082,3.621767,-7.054467,1.089544,-1.745153,-0.2507,0.495706,-0.322998,0.516113,-0.075439
2.221797,-11.356647,-0.745595,-1.250073,0.952767,-1.583123,0.128906,0.774902,-0.143799,-4.216832,1.844342,6.431264,-0.275229,-1.102459,0.154457,0.3125,-0.336426,-0.308838,-1.654672,-13.038737,4.926733,-1.12296,-1.434237,-0.219531,0.139404,0.311523,-0.424072,-1.357514,-4.695564,6.871727,-1.92357,-1.756168,-0.382869,0.325684,0.314209,-0.340332,1.500305,-8.314153,-1.376839,-3.668947,-0.196929,0.699201,-0.314209,0.533936,-0.02002
3.162156,-8.235954,0.048988,-1.905727,1.091259,-1.502759,0.114746,0.77124,-0.109619,-3.324911,7.604377,9.354055,-0.598077,-0.741666,0.372343,0.303467,-0.344482,-0.317627,-0.649431,-6.816046,5.02503,-0.013711,-2.189879,-0.692054,0.115479,0.313232,-0.424316,-6.080396,-11.627002,4.623557,-2.925551,-1.934716,-0.060768,0.308594,0.345459,-0.318848,3.065987,-13.886836,-2.84313,-3.29349,-0.611337,0.860635,-0.298096,0.529053,0.042236
3.433197,-13.315173,-1.354028,-1.840979,0.947572,-1.231282,0.090332,0.769043,-0.086426,-3.370624,4.293573,7.267604,-2.517626,-1.156174,0.664898,0.288086,-0.323486,-0.348145,0.318685,-6.717549,5.114846,-2.618844,-1.178276,-0.01083,0.097168,0.341553,-0.401855,-2.544683,-13.125358,5.182636,-0.702182,-2.754819,-1.431459,0.256348,0.364258,-0.333496,3.476881,-12.792726,-2.183692,-0.669289,0.039408,0.278785,-0.300293,0.528809,0.054688
2.533774,-10.295952,-0.469821,-0.01057,0.867575,-0.789403,0.091553,0.762451,-0.089355,-2.620588,2.266556,7.227008,-0.937045,-0.880965,0.382977,0.27417,-0.322754,-0.364014,-5.109691,-10.80477,4.317238,-2.368045,-2.169742,-0.665922,0.07666,0.365234,-0.391357,-4.581275,-4.757061,7.128905,-1.086056,-1.457116,-1.099636,0.234375,0.386963,-0.329346,1.624324,-8.37515,-1.355116,-0.909953,0.221342,0.279867,-0.289062,0.522217,0.069824
2.2234,-8.427085,-0.316346,-1.331733,0.353743,-0.987985,0.070312,0.766113,-0.067139,-4.80728,6.033177,8.910991,-0.561888,-0.929186,0.262067,0.26709,-0.314941,-0.370361,1.635424,-8.381795,3.357135,-1.646981,-2.625234,-0.845994,0.035156,0.391602,-0.377441,-5.89049,-7.368659,3.593765,-3.659445,-3.097146,-0.849203,0.186523,0.431396,-0.297852,1.600482,-10.336293,-3.163219,-2.08726,0.245155,0.429033,-0.286865,0.5271,0.100586
3.118843,-10.523572,-0.961011,-0.830519,0.255257,-0.893959,0.060059,0.745361,-0.057617,-3.164239,4.682244,9.048338,-2.165087,-1.262323,0.519539,0.260742,-0.296631,-0.396484,0.878967,-7.864598,2.890693,-2.462617,-1.516811,-0.549048,0.017578,0.406006,-0.349365,0.039084,-11.022666,1.821984,-2.117768,-3.270067,-1.188617,0.143066,0.444824,-0.280029,1.537694,-11.425045,-3.282397,-0.979517,-0.04123,0.43848,-0.282227,0.507812,0.115967
4.631497,-8.369948,-0.344521,-1.124005,0.316243,-0.923495,0.047607,0.741699,-0.048828,-1.331012,2.139748,7.966686,-1.496133,-1.018659,0.566115,0.243408,-0.281006,-0.413086,1.48468,-8.615065,2.787476,-2.695108,-1.947598,-0.812709,-0.007812,0.429199,-0.324951,-2.10647,-6.584899,4.81985,-2.085585,-2.349927,-1.596366,0.099365,0.472412,-0.259277,4.322074,-9.130877,-1.861132,-1.040341,-0.205057,0.439651,-0.277344,0.503906,0.134277
4.140169,-11.910923,-2.38695,-1.486404,0.196985,-0.741509,0.039795,0.731689,-0.022217,-1.502096,3.48555,9.355178,-0.944075,-0.768373,0.76415,0.232666,-0.279785,-0.418701,1.133063,-8.254479,1.835914,-3.235499,-1.406882,-1.075299,-0.028564,0.452881,-0.282471,-2.738198,-8.135285,2.488343,-4.228586,-3.838522,-1.070199,0.056396,0.501709,-0.200928,2.882498,-11.02341,-2.371744,-1.950703,1.158709,0.751521,-0.267334,0.49585,0.156006
3.878231,-12.330018,-2.672505,-0.26752,-0.061637,-0.500014,0.030273,0.72168,-0.026123,-2.196969,3.136772,9.886057,-1.322475,-0.713735,0.589975,0.221191,-0.27002,-0.431885,-1.551514,-9.478889,0.780425,-3.532788,-1.966852,-1.207204,-0.056396,0.469727,-0.239502,0.385136,-10.671581,-0.399951,-3.182579,-2.534857,-1.597708,0.015381,0.518311,-0.155029,0.130608,-13.033687,-2.88543,-0.765519,0.936668,0.242172,-0.270752,0.484863,0.156738
3.093658,-9.801855,-1.87264,-0.253091,-0.636221,-0.57204,0.030273,0.706787,-0.019043,-2.51112,2.843602,9.628879,-0.789701,-0.615907,0.49424,0.204834,-0.267578,-0.441895,2.271018,-8.916946,-1.443606,-3.264456,-2.088048,-1.554535,-0.080078,0.476074,-0.19043,-4.452686,-5.699921,-0.521033,-2.834885,-2.373809,-1.653512,-0.015137,0.523438,-0.106689,2.702905,-10.727848,-2.702314,0.300494,1.06665,0.048097,-0.268555,0.475098,0.145264
4.530087,-10.763254,-2.737893,-0.717258,-0.819636,-0.553571,0.021729,0.710938,-0.006836,-1.253189,3.136973,9.771618,-0.704475,-0.565777,0.442763,0.203369,-0.251709,-0.450195,3.8534,-9.07662,-1.280026,-3.51631,-1.533779,-1.368012,-0.104736,0.500977,-0.138672,1.351717,-7.581769,-2.361204,-4.664047,-4.241151,-1.34222,-0.048828,0.549561,-0.021729,2.534169,-8.630876,-2.837485,-0.566225,1.901054,0.191975,-0.268311,0.47998,0.138184
4.412708,-10.917503,-3.114677,0.265679,-1.089536,-0.374201,0.011475,0.705566,0.003418,-1.179821,2.938599,9.598252,-1.030094,-0.472917,0.918915,0.192871,-0.241211,-0.458984,4.737476,-7.500682,-2.303497,-3.98023,-1.198638,-1.879955,-0.132812,0.504883,-0.071777,4.056314,-8.835506,-3.942936,-4.331759,-2.048273,-1.538186,-0.077148,0.548584,0.060059,3.139972,-11.97187,-3.312067,-1.195952,1.774262,0.064615,-0.274902,0.471924,0.149902
4.027584,-9.079109,-1.961356,-0.148164,-0.907905,-0.21989,0.013184,0.702148,0.0,-1.291411,1.389392,9.164591,-1.078753,-0.22321,1.001008,0.185547,-0.246338,-0.465332,2.726715,-9.24211,-3.385042,-4.789813,-0.682771,-1.615735,-0.151611,0.503662,-0.011963,-3.093587,-7.82084,-3.134448,-4.318691,-2.18911,-1.474431,-0.094727,0.541016,0.128906,4.097528,-12.971883,-3.900435,0.514798,2.392005,0.094203,-0.279297,0.475342,0.116211
2.600094,-10.374881,-2.240418,0.114209,-1.527994,-0.256004,0.001465,0.69873,0.004639,-3.418181,2.144606,9.386415,-0.178658,-0.139081,0.917219,0.173584,-0.236328,-0.466309,0.49472,-10.291376,-3.902585,-3.823999,-0.671713,-2.266946,-0.182373,0.493896,0.041748,-0.149732,-7.050574,-4.798843,-4.516649,-3.073891,-1.63127,-0.116455,0.52417,0.21167,2.348173,-9.303634,-2.962686,0.835922,2.545903,-0.129643,-0.290039,0.4729,0.081299
2.612141,-8.222881,-1.278948,-0.44159,-1.594283,-0.341674,-0.009277,0.689941,0.013184,-2.910016,3.441718,10.007497,-0.754612,-0.364003,0.622983,0.163818,-0.228516,-0.464355,1.802906,-8.593274,-4.591378,-3.549774,-0.895947,-2.065679,-0.2146,0.473877,0.091309,0.513166,-7.263758,-4.889926,-3.980261,-1.533983,-1.171025,-0.129883,0.49292,0.274902,3.939487,-8.855483,-2.433283,-0.840448,2.203539,0.44902,-0.292725,0.465332,0.071777
4.583415,-12.602116,-3.454858,-0.100487,-2.087911,-0.142795,-0.010986,0.684814,0.024902,-1.296702,-0.399815,9.133669,-1.502658,-0.664696,0.681546,0.156006,-0.220215,-0.481689,2.679305,-8.144277,-6.683035,-3.299391,-0.861014,-1.970931,-0.230469,0.450684,0.139893,-0.298608,-3.515695,-5.771305,-3.031443,-1.957832,-1.482141,-0.133789,0.466064,0.328857,5.336903,-13.963261,-3.394278,-0.789243,2.726611,0.269154,-0.287842,0.466309,0.056885
2.825871,-7.883458,-0.353474,1.078804,-1.508822,0.223323,-0.006836,0.685059,0.022705,-3.04211,-0.842876,9.657086,0.261315,-0.38256,0.681051,0.15332,-0.223145,-0.473145,2.378091,-7.695989,-5.715399,-3.078873,-0.866686,-1.669051,-0.245361,0.434082,0.188232,2.604056,-2.859636,-5.846274,-3.991296,-1.362764,-0.470686,-0.128662,0.437012,0.391846,3.864835,-12.827993,-2.168328,1.66514,2.726538,0.350207,-0.28125,0.472656,0.013916
2.937889,-9.288742,0.575864,-0.872879,-1.743954,0.049646,-0.010254,0.687744,0.031494,-4.725216,3.956681,11.214072,-0.018886,-1.024368,0.510835,0.140137,-0.233398,-0.484863,1.834015,-12.393019,-7.201776,-2.899731,-1.560541,-1.004201,-0.244873,0.412842,0.219971,0.889255,-9.022504,-7.27589,-2.966748,-0.605424,-0.459923,-0.125732,0.406738,0.423096,3.342474,-7.791979,0.0666,1.002429,2.283559,0.250229,-0.274658,0.476562,-0.026123
3.624283,-15.604557,-1.144631,0.56413,-1.280704,0.318439,-0.012451,0.682861,0.028809,-1.413236,-0.918676,9.704885,-0.907473,-1.479352,0.964687,0.115479,-0.227051,-0.496094,5.253214,-13.202927,-8.439961,2.075433,-1.207381,-1.03417,-0.256104,0.414795,0.209717,0.461965,-8.156576,-7.723384,1.712136,-0.801785,-1.085436,-0.138672,0.413086,0.410645,2.856136,-11.322195,-0.537546,-0.956879,1.72759,0.776063,-0.268066,0.477051,-0.026855
4.643916,-6.207705,1.368575,1.869382,-0.802055,0.509725,-0.003662,0.685791,0.018066,-1.034481,-1.130287,10.248129,0.923426,-1.022864,0.49544,0.093262,-0.235107,-0.492676,-0.760222,-1.933628,-5.771365,1.858038,-0.712593,-0.789932,-0.259766,0.421875,0.203613,-0.709648,-1.393976,-5.27918,0.136834,-0.531284,-0.808369,-0.13916,0.413574,0.417725,3.243386,-13.121721,0.035229,1.519408,1.09976,0.365648,-0.255615,0.483887,-0.050537
3.124639,-10.491622,-0.137353,-0.778795,-0.457795,0.296744,-0.002197,0.687744,0.01416,-1.281008,3.469375,11.302181,1.243413,-1.250304,0.73752,0.071533,-0.255371,-0.491699,1.252035,-4.43328,-7.129101,-1.351686,-2.26801,-0.268179,-0.250244,0.410645,0.220703,-2.158665,-5.253125,-8.172946,-0.51434,-1.023619,0.078469,-0.125244,0.403809,0.416992,3.571503,-7.526505,1.565875,2.134147,1.019989,0.224769,-0.248047,0.481201,-0.103516
3.351728,-11.388101,-0.673236,0.470545,-0.434877,0.414016,0.002197,0.694336,0.022949,0.175362,4.895627,10.557063,-1.135492,-0.967218,0.27511,0.063965,-0.241211,-0.490479,3.829944,-8.187439,-6.961049,-0.644124,-1.049054,-0.149225,-0.248535,0.408203,0.247559,0.602194,-3.222343,-7.399174,-0.20284,-1.109557,-0.597487,-0.124023,0.405762,0.437256,3.042607,-6.30452,1.902214,-1.258241,0.902677,0.593885,-0.237793,0.496582,-0.078857
3.13819,-9.274169,0.443035,0.023336,-0.212388,0.419326,0.008545,0.696045,0.024658,0.104471,-1.47482,7.502,-1.272848,-0.915369,0.77598,0.040039,-0.218262,-0.51001,2.790127,-6.43074,-5.887334,0.548005,-1.394243,-0.651333,-0.242676,0.406006,0.249268,1.27726,-7.374332,-9.69944,-1.785841,-0.930055,0.49417,-0.103027,0.384033,0.460449,2.216935,-14.349081,-0.157126,-1.476912,1.002861,0.77184,-0.222412,0.50293,-0.071045
2.560288,-11.992869,-0.050075,-0.148699,0.085765,0.508204,0.021484,0.693848,0.023193,0.387854,-0.446576,9.781127,1.224491,-0.391337,0.362901,0.030518,-0.23999,-0.508301,3.853277,-5.75223,-8.202526,-0.426905,-0.340462,-0.298246,-0.239014,0.396973,0.258301,-0.487537,-12.84839,-13.752505,0.324997,0.064861,-0.804355,-0.108398,0.381104,0.457275,0.676624,-12.874824,1.022675,1.946886,0.217754,0.287604,-0.210693,0.503418,-0.098633
2.189648,-13.783126,-1.747046,1.866217,0.0826,0.452368,0.020752,0.696289,-0.002197,-1.546839,2.412336,11.133206,1.708889,-0.581751,0.42016,0.018066,-0.269531,-0.490967,-1.743462,-12.620776,-9.932653,0.771061,-0.477244,-0.081464,-0.244385,0.402344,0.251465,-3.566318,-4.620286,-11.142073,3.77565,-0.148954,-0.954694,-0.125,0.415771,0.408936,3.511599,-8.949138,0.655356,1.864283,-0.027687,0.280004,-0.209717,0.504395,-0.12915
0.68469,-4.99084,0.12139,1.163581,-0.090227,0.514124,0.026855,0.694336,-0.016357,-0.126372,5.220031,11.358954,0.407549,-0.65761,-0.210287,0.025635,-0.268555,-0.497314,3.255363,-7.377199,-9.002607,2.987999,-0.596008,-0.583312,-0.247559,0.411865,0.226318,0.783792,-0.542921,-11.359591,0.274297,-0.428876,-0.193059,-0.129395,0.411133,0.413574,2.308763,-7.913349,1.84701,0.307295,0.83138,0.488813,-0.202148,0.503174,-0.134033
1.174781,-11.497382,-2.27014,-0.83861,-0.523289,0.223909,0.027344,0.706787,-0.006836,-1.346984,1.279816,9.16345,-0.424738,-0.862274,-0.02887,0.008545,-0.265137,-0.496582,1.103677,-4.866915,-6.577681,1.13068,0.162091,0.418764,-0.24585,0.428711,0.212158,-0.024134,-10.009784,-12.453785,0.471407,0.873243,0.572312,-0.126709,0.427246,0.397461,2.027635,-11.581077,0.239702,-0.408191,0.707627,0.570182,-0.186768,0.520752,-0.141357
1.289782,-11.314184,-1.29547,1.479854,-0.664149,0.517413,0.029541,0.711182,-0.022217,1.033106,1.772891,8.66979,1.092212,-0.946393,-0.385281,-0.00708,-0.268799,-0.491699,5.552217,-8.252524,-6.549739,0.558335,-0.435493,0.014857,-0.24707,0.434082,0.208496,2.35337,-5.553278,-10.404973,2.841875,0.398064,-0.613222,-0.145508,0.448975,0.36377,2.123392,-12.285724,0.251284,0.856106,1.084081,0.583047,-0.174072,0.525391,-0.160645
2.428776,-8.100949,0.993532,0.328233,-0.602315,0.461121,0.044678,0.716309,-0.017822,0.868516,4.29839,9.126205,0.59706,-0.609162,0.035979,-0.017578,-0.2854,-0.486816,4.762851,-9.477331,-7.720971,2.237631,1.287894,0.324705,-0.241211,0.449463,0.185059,2.546452,-5.875147,-11.088515,0.717878,1.643963,0.56726,-0.144043,0.462402,0.359619,0.905971,-10.217161,1.587274,1.036841,0.993132,0.549571,-0.150635,0.532715,-0.176758
2.136461,-12.471992,-0.447625,0.461664,-0.431011,0.49843,0.044922,0.716797,-0.032959,1.593349,2.006626,9.2719,-0.00471,-0.602908,-0.007444,-0.018066,-0.279785,-0.491211,2.472131,-6.961528,-6.653622,3.208341,0.855094,-0.076807,-0.255615,0.466553,0.134277,-1.160833,-10.471734,-11.842614,2.970559,1.064732,-0.327036,-0.16748,0.481445,0.30249,1.264741,-9.784261,1.284236,0.63848,0.374288,0.79362,-0.138184,0.534668,-0.198242
2.230555,-9.893035,-0.006428,1.49729,-0.323391,0.614937,0.045166,0.722412,-0.039551,1.602255,1.951806,9.364292,1.357187,-0.412295,0.012721,-0.028809,-0.294434,-0.480957,5.833586,-6.889213,-5.746946,2.077199,1.44006,0.175,-0.266357,0.479248,0.11499,5.151502,-5.327154,-10.706161,3.188115,1.335117,-0.431092,-0.192871,0.503906,0.261475,2.271588,-10.826371,1.016467,0.633017,0.532774,0.634807,-0.12915,0.543701,-0.200928
1.500395,-11.246035,-0.043954,0.614587,-0.376862,0.362087,0.046631,0.720947,-0.046387,2.071782,3.950792,10.237506,1.235493,-0.280856,0.106292,-0.031982,-0.307861,-0.473145,0.946149,-9.722031,-5.038234,2.533906,2.002863,0.017458,-0.27417,0.484131,0.06543,1.004886,-7.954156,-9.649268,2.096113,3.701097,0.162511,-0.21875,0.515869,0.212158,0.861119,-11.264265,1.106443,1.276637,0.521447,0.837012,-0.111328,0.541016,-0.229004
1.806831,-11.793521,0.430122,1.729359,-0.398351,0.487116,0.056152,0.734375,-0.062988,1.24468,3.696566,9.738891,0.971975,-0.054294,-0.130212,-0.036133,-0.325195,-0.463379,2.217124,-5.734061,-3.752538,2.775363,1.177143,-0.554263,-0.285156,0.496094,0.034668,-1.435363,-5.689697,-6.691129,2.86831,2.81191,-0.387528,-0.238281,0.535645,0.157959,0.998469,-9.840932,2.083534,1.513711,0.144167,0.47462,-0.098145,0.547119,-0.246338
2.089903,-9.031479,1.061713,1.344344,-0.376795,0.391658,0.0625,0.732666,-0.083984,2.162452,3.688675,9.374485,1.127337,-0.23634,-0.083282,-0.042969,-0.326172,-0.44873,5.2694,-6.911776,-3.953528,0.414656,1.630535,0.063644,-0.285889,0.494385,0.010742,4.108963,-5.713649,-7.035597,0.80058,3.187899,0.324771,-0.243408,0.536377,0.116455,1.538509,-10.1067,1.975262,0.942802,0.181165,0.862601,-0.079346,0.545898,-0.268066
1.948343,-10.846615,0.801025,1.14495,-0.257023,0.480559,0.071289,0.73291,-0.099365,1.967566,3.734064,8.937491,1.184167,0.018953,0.011897,-0.037354,-0.3479,-0.448486,4.034056,-13.402834,-4.545358,1.128047,2.008314,-0.150014,-0.286621,0.499023,-0.019775,0.972185,-11.345227,-7.372956,1.913452,4.361145,0.409399,-0.247314,0.542969,0.057373,0.328346,-10.651384,1.720679,1.306531,0.103745,0.651798,-0.064209,0.543945,-0.289307
2.143899,-11.034771,0.69641,1.894597,-0.234142,0.484029,0.070312,0.731689,-0.124268,2.042176,2.871156,8.648355,1.463426,-0.29822,0.157144,-0.047119,-0.35791,-0.430664,3.90078,-11.328632,-4.52785,3.950058,1.959244,-0.397525,-0.30127,0.496826,-0.081299,0.509921,-7.027128,-6.70253,4.117901,3.584776,-0.108758,-0.255371,0.542236,-0.034668,1.050823,-10.825405,1.801903,1.435792,-0.486013,0.884113,-0.053711,0.542236,-0.310547
2.22002,-10.929526,0.440207,2.327096,-0.125776,0.54555,0.087646,0.731689,-0.157715,3.370328,3.08712,7.873331,2.593289,-0.044399,0.198855,-0.048828,-0.388184,-0.407959,6.076292,-7.377365,-2.677709,3.591477,2.150429,-0.639305,-0.302246,0.492676,-0.144287,4.366688,-5.844452,-6.590119,3.284877,4.215685,0.533413,-0.232666,0.543945,-0.114258,1.779998,-12.268514,1.525702,2.033593,-0.350688,0.975442,-0.03418,0.532959,-0.343506
0.861097,-9.677049,0.969677,2.54564,-0.12596,0.654993,0.088135,0.719482,-0.191895,1.528114,6.177519,8.560362,3.037013,0.102042,0.381525,-0.050781,-0.416992,-0.381348,2.249612,-7.232327,-0.9533,3.394969,3.008126,-0.271537,-0.302734,0.47583,-0.208252,-0.680314,-2.94142,-5.214699,5.169721,6.087612,0.275884,-0.206787,0.514404,-0.23291,1.170217,-10.184511,2.433614,3.032082,-0.418993,0.866254,-0.027344,0.505615,-0.391602
0.650435,-10.145557,1.655584,1.853916,-0.554802,0.532964,0.0979,0.714844,-0.214111,2.76283,7.233879,8.78616,1.918474,-0.098812,0.130668,-0.063232,-0.438721,-0.36499,2.325936,-5.659272,1.179844,2.860632,1.373994,-0.562435,-0.303223,0.465576,-0.255859,-1.892796,1.722842,1.322006,2.161007,5.40804,0.976877,-0.152588,0.502686,-0.284424,1.772658,-7.96545,3.875354,2.153854,-0.200103,0.983579,-0.007812,0.492676,-0.420166
3.570196,-10.820453,3.543554,1.917293,-0.421921,0.607735,0.104004,0.709229,-0.246338,4.605397,6.2435,7.773115,1.595022,0.323061,0.44782,-0.05835,-0.454346,-0.339355,9.190375,-5.271243,0.775382,1.078925,2.454945,-0.721789,-0.29541,0.457275,-0.289307,0.853407,-12.243282,0.250031,-1.295152,5.763886,1.700197,-0.078125,0.518799,-0.290771,0.444029,-9.191113,4.389353,1.16646,0.037441,0.984811,0.01123,0.482422,-0.443604
1.4357,-9.928092,3.945352,1.637375,0.000683,0.635981,0.108398,0.69873,-0.27832,2.90935,6.345789,8.480509,1.768188,0.71487,0.272307,-0.060791,-0.47168,-0.334717,0.039454,-8.831882,0.644077,0.243452,2.743256,-0.145202,-0.286377,0.452881,-0.320068,-4.980705,-11.591548,-0.121486,4.541429,5.997644,0.054421,-0.028564,0.474121,-0.380127,-0.370335,-9.949281,4.373572,1.650078,-0.797839,0.907683,0.010498,0.462891,-0.474365
2.115022,-12.176638,2.279045,1.64068,-0.184204,0.53838,0.121582,0.693115,-0.290771,3.148014,5.044106,8.23455,1.419574,0.447353,0.345715,-0.062012,-0.481934,-0.308838,6.625732,-12.904325,-1.826633,0.976112,1.494998,-0.869915,-0.282715,0.444824,-0.332764,-0.31165,-0.200485,2.48071,2.440558,4.115788,0.50394,0.029541,0.448975,-0.39917,1.644767,-9.813492,3.422798,1.754837,-0.979552,0.748379,0.018311,0.450195,-0.48877
0.870516,-9.39069,2.44023,3.183083,0.071849,0.722791,0.138184,0.664795,-0.347168,2.337826,4.234601,7.071252,2.612162,0.819698,0.121198,-0.056152,-0.512207,-0.277344,1.04703,-9.419115,-1.364299,3.855254,4.001167,-0.349953,-0.24707,0.408203,-0.415771,-2.740379,-5.164299,-0.009536,1.443476,5.354167,1.616256,0.114258,0.425049,-0.419922,0.80898,-9.439057,3.368296,2.627434,-0.720052,0.942536,0.026855,0.412354,-0.53125
0.16525,-6.055848,3.850717,1.541486,-0.427501,0.517961,0.14209,0.652344,-0.356445,1.200935,8.010056,8.413943,2.468898,0.321609,-0.197468,-0.056641,-0.523438,-0.250488,-0.240268,-2.590324,2.741892,1.974893,1.429332,-0.669955,-0.244141,0.385742,-0.437256,-4.579974,-4.184904,3.413914,2.181291,3.623384,0.864496,0.165771,0.393555,-0.422607,0.714346,-5.671043,4.38235,2.76144,-0.964501,0.51997,0.020996,0.375977,-0.55542
2.696068,-11.225667,3.662743,1.41247,-0.321166,0.42597,0.13916,0.639404,-0.387207,4.553052,6.810226,7.2349,1.006346,0.355907,-0.155582,-0.051514,-0.534912,-0.242432,6.919026,-9.499825,1.989833,-0.392054,2.853353,0.266897,-0.216064,0.391846,-0.458984,-3.17228,-6.166174,5.380828,1.387114,4.026577,1.985943,0.229004,0.368896,-0.426758,1.786563,-4.67206,4.962824,1.547101,-0.802873,0.810284,0.017578,0.351807,-0.579346
0.888964,-7.490767,5.202714,2.654803,-0.082026,0.426658,0.144043,0.608643,-0.418701,1.628406,5.140907,5.963803,1.949574,0.808674,-0.406544,-0.042236,-0.547363,-0.211914,-2.447995,-11.354131,1.877338,3.06678,2.360551,-0.335912,-0.19458,0.354492,-0.504639,-6.769947,-6.02354,4.320521,2.186141,3.247704,0.892686,0.275635,0.333496,-0.431885,0.205631,-6.404309,5.382045,1.340307,-0.839268,0.471275,0.008545,0.327393,-0.595947
0.506982,-6.568742,4.608592,1.106418,-0.345997,0.270349,0.14502,0.602051,-0.421387,1.444597,8.610304,7.088746,2.28471,0.297144,-0.741736,-0.027344,-0.557129,-0.183594,5.129059,-2.115558,3.514476,2.726815,1.45369,-0.459626,-0.179199,0.322266,-0.524902,-1.132167,-1.464175,2.759903,1.967924,2.507585,1.313169,0.315918,0.302979,-0.414551,0.932351,-6.559934,5.184001,1.881976,-1.376989,0.429179,-0.007812,0.307861,-0.601807
0.72919,-8.750093,4.195337,1.551774,-0.554095,0.232598,0.145264,0.58252,-0.458008,1.420338,9.022037,7.525104,0.73871,0.256979,-0.736412,-0.022949,-0.573242,-0.175537,0.383566,-5.938473,3.679384,-0.804804,2.936302,0.91904,-0.132324,0.333008,-0.541016,-3.965394,-3.24341,3.278102,-0.121955,4.518327,1.647421,0.385742,0.284912,-0.382568,2.068807,-4.564348,5.639409,1.93339,-0.978442,0.234876,-0.015137,0.269287,-0.632324
2.022435,-6.560233,5.906752,1.3744,-0.629172,0.085721,0.13623,0.563721,-0.467529,2.478029,6.309177,5.459739,0.533321,-0.016627,-1.122013,0.003174,-0.57959,-0.170166,0.517306,-12.069964,2.252931,1.023857,0.861048,0.320954,-0.118408,0.322754,-0.55249,-9.208649,-7.914618,5.556331,0.2761,2.854609,1.715871,0.427002,0.262451,-0.355469,1.708602,-4.118217,5.887947,0.915616,-0.904985,0.285612,-0.028564,0.251465,-0.634521
0.07095,-7.870602,5.075977,0.977862,-0.81545,0.022345,0.128906,0.553223,-0.470703,0.334041,7.528141,5.497038,1.544922,0.424376,-1.461193,0.030518,-0.580322,-0.143555,3.297993,-5.893682,3.317653,2.893907,2.402552,0.267297,-0.083496,0.285156,-0.575928,-3.155433,-5.409057,3.274776,1.393988,1.731498,1.079711,0.453369,0.23999,-0.336914,1.711,-6.319233,5.550266,0.753199,-1.038108,0.262783,-0.044678,0.245117,-0.633301
1.577371,-8.176188,4.689443,1.979652,-1.167134,-0.122114,0.106934,0.52124,-0.493896,0.269932,8.812759,5.70968,1.145603,-0.255639,-1.708423,0.054688,-0.585938,-0.138672,-2.350834,-3.593151,6.179602,0.919379,1.601983,0.637079,-0.061035,0.268311,-0.590088,-5.522893,-3.193478,3.776701,0.700238,3.314299,1.891746,0.48999,0.206055,-0.303711,2.029082,-6.642546,5.689732,2.12998,-0.853409,0.065838,-0.061768,0.20459,-0.650146
0.535085,-4.477946,6.433941,1.59689,-1.250643,-0.107925,0.101318,0.491943,-0.509033,0.309466,8.843736,5.263397,0.791684,0.305083,-1.797586,0.082031,-0.584717,-0.118408,2.349693,-7.788464,5.529324,0.372762,1.428694,0.582501,-0.022705,0.256104,-0.594482,-10.129346,-5.755643,4.131896,-0.08415,2.034484,1.626414,0.530518,0.180664,-0.27417,1.574214,-2.391295,7.097241,2.401894,-0.811765,-0.080054,-0.060059,0.154053,-0.660156
2.37219,-6.287864,6.199073,0.550567,-1.527633,-0.385056,0.075928,0.487793,-0.505615,-0.924404,9.195578,5.505699,0.525971,-0.231625,-1.933139,0.105957,-0.591064,-0.109863,-1.232197,-7.193156,6.038297,1.715078,1.976396,0.683837,0.008057,0.234375,-0.601562,-5.238557,-6.258365,2.515059,0.457488,1.272928,1.320424,0.543701,0.160645,-0.253662,2.600851,-1.649853,7.327835,0.577447,-0.850493,0.072537,-0.079346,0.148682,-0.657471
2.558819,-7.268354,6.562988,1.367796,-1.254423,-0.322179,0.047852,0.470947,-0.521729,0.767738,7.203151,4.657641,-0.207775,0.044542,-1.821068,0.143311,-0.577148,-0.11377,0.634376,-4.919721,6.84906,0.980132,1.295628,0.547267,0.023193,0.22583,-0.613525,-6.97925,-4.635191,4.790083,0.540188,3.036749,1.405735,0.562744,0.148193,-0.216797,1.412943,-5.290918,7.225599,0.140944,-0.587006,0.131877,-0.093018,0.154785,-0.662354
3.271483,-5.392759,7.810727,1.385389,-0.99017,-0.270407,0.045898,0.438721,-0.521729,-1.377915,5.70548,3.522089,0.862664,-0.043923,-1.824042,0.169189,-0.574463,-0.105225,-0.624755,-6.884516,7.163965,0.652874,1.859303,0.887041,0.070068,0.202393,-0.607422,-13.60261,-5.254659,7.870156,-0.117187,1.393951,1.535076,0.592285,0.107666,-0.186035,0.804787,-6.431526,7.733058,1.607131,-1.414841,-0.072276,-0.107422,0.114502,-0.652832
1.817668,-6.11659,7.58711,1.164087,-0.63294,-0.178549,0.036133,0.42627,-0.529541,-1.337307,9.118025,4.282053,1.31862,-0.008089,-1.82735,0.196533,-0.572754,-0.086914,-1.957814,-6.53142,7.661894,1.53151,1.17952,0.413427,0.09082,0.185059,-0.612305,-8.794619,-7.421147,5.564345,-0.144999,-0.393797,1.199756,0.595215,0.099854,-0.187988,1.708797,-2.980495,7.832932,2.337898,-1.629228,-0.10841,-0.132812,0.079102,-0.653564
1.9337,-4.311896,7.561341,1.320936,-0.703971,-0.139713,0.016357,0.401611,-0.538086,-2.652613,9.817972,4.647238,-0.184854,-0.179486,-1.727541,0.229492,-0.572021,-0.077637,-0.692613,-3.153926,7.518623,1.417613,1.356888,0.45158,0.103516,0.155273,-0.615479,-8.557823,-6.394354,4.869123,0.805465,0.265829,0.735361,0.587402,0.080078,-0.187256,1.663692,-0.119581,7.776703,1.289922,-1.808884,-0.058683,-0.172607,0.049805,-0.647949
2.501954,-3.741256,7.866408,0.263367,-0.538515,-0.311709,0.012939,0.385254,-0.531738,-0.915735,6.768206,3.861742,-0.69062,-0.072443,-1.756597,0.246582,-0.555664,-0.09375,-2.185754,-3.320088,7.726095,-0.166542,1.373155,0.629769,0.133545,0.147217,-0.602539,-9.305669,-3.599906,5.701903,0.087661,-0.68317,0.435039,0.590576,0.065186,-0.187744,2.812397,-1.054654,7.729275,-0.000928,-2.111094,-0.035007,-0.202393,0.041992,-0.624023
2.780678,-6.824262,6.618942,0.355695,-0.389511,-0.351656,0.000977,0.387207,-0.541016,-2.112874,5.577969,3.332413,0.242137,0.201031,-1.840252,0.271973,-0.542725,-0.096436,-1.951932,-7.709738,7.604534,0.041719,0.793155,0.371444,0.141113,0.150879,-0.605469,-10.153292,-7.917689,6.720042,-0.828696,-0.680382,0.983034,0.584961,0.061523,-0.199219,3.628905,-3.669956,7.286628,0.075211,-2.042127,-0.150653,-0.241455,0.044434,-0.615479
2.274487,-4.8351,7.118725,1.458863,-0.098397,-0.25136,0.001709,0.365234,-0.551758,-2.136579,7.018946,3.806449,0.444265,0.204108,-1.814602,0.302734,-0.529297,-0.085449,-1.745349,-5.608399,6.884696,1.623229,0.923852,-0.070913,0.154785,0.131348,-0.608398,-10.603754,-9.301329,5.266349,0.953971,-1.790619,-0.155437,0.575439,0.058838,-0.228027,2.97199,-3.708754,8.076597,1.203791,-2.145205,-0.353064,-0.274902,0.026367,-0.598389
2.276963,-3.789524,7.395629,0.470907,-0.112043,-0.298665,-0.002441,0.3479,-0.557861,-4.017781,6.442175,3.88846,-0.059249,0.286277,-1.824999,0.334473,-0.51416,-0.074951,-3.918169,-3.265145,7.224346,0.642996,0.651787,0.015461,0.165527,0.114746,-0.608398,-7.6278,-3.643566,5.843708,1.580763,-1.940301,0.049999,0.560303,0.044434,-0.263428,4.404845,-1.790808,7.768904,1.128504,-2.522561,-0.384359,-0.316406,-0.001465,-0.578613
2.185566,-4.557546,6.525839,1.178691,-0.026461,-0.194155,-0.001465,0.32959,-0.547119,-4.438142,7.047389,3.594084,0.519141,-0.045428,-1.975017,0.346924,-0.491943,-0.068359,-2.113801,-4.472022,5.556277,0.368557,0.338155,0.090201,0.171875,0.107666,-0.591553,-9.523674,-2.096829,6.001783,0.114269,-2.719835,-0.106381,0.540527,0.042969,-0.287354,5.245338,-1.274334,6.279198,0.862813,-2.054713,-0.310284,-0.342529,-0.017578,-0.540527
3.040105,-0.459175,7.998883,0.524593,-0.241588,-0.369335,-0.004639,0.322021,-0.552734,-3.417367,8.267983,3.679446,-0.439652,-0.0711,-2.052086,0.37915,-0.472412,-0.083252,-1.86923,-3.645845,6.695537,0.439331,1.034859,0.143209,0.181885,0.098633,-0.591064,-7.113609,-4.556693,4.674093,-0.481015,-3.92318,-0.144557,0.502686,0.05249,-0.341309,4.69124,0.033717,6.002815,0.492894,-2.296911,-0.374709,-0.376953,-0.023682,-0.521484
3.169742,-4.593971,6.960486,-0.637203,0.175187,-0.431934,0.002686,0.329834,-0.558594,-2.886207,4.828856,3.060791,-0.828126,-0.03009,-2.042032,0.408447,-0.454102,-0.090332,-3.088739,-4.50654,8.439345,0.341203,0.504357,0.172294,0.199219,0.09668,-0.59082,-7.59238,-5.950276,6.602524,0.692039,-3.142817,-0.197755,0.476318,0.050293,-0.384766,6.20159,-0.663022,4.995051,-0.357486,-2.566217,-0.197117,-0.404541,-0.019531,-0.493164
2.907908,-3.247314,8.037296,0.501578,0.303682,-0.425545,0.009277,0.318115,-0.556641,-3.428431,5.759808,3.337776,0.484834,0.260008,-2.033867,0.420166,-0.435791,-0.080811,-0.935425,-3.423898,8.473059,0.490578,0.301532,-0.00957,0.206299,0.085938,-0.580811,-7.222283,-2.672684,7.089528,0.424035,-3.744894,-0.639455,0.437988,0.051514,-0.422607,5.480002,-1.762581,5.216395,-0.743186,-2.745398,-0.252851,-0.434814,-0.01001,-0.446533
1.584837,-2.501639,7.465172,-1.25807,0.584179,-0.521798,0.011475,0.33252,-0.552002,-6.483238,8.020213,4.036545,-0.298205,0.406148,-1.931893,0.444336,-0.414795,-0.077881,-3.883816,-3.230725,8.592689,0.058506,0.607304,0.2005,0.208008,0.077637,-0.568604,-4.749354,-3.477983,5.346354,-0.233589,-3.122409,-0.07833,0.395264,0.05127,-0.44873,7.471419,-3.874204,6.262485,-1.612137,-3.34941,0.004546,-0.475586,0.002686,-0.392334
1.535929,-6.698566,5.309871,-0.446197,0.257201,-0.37211,0.011719,0.345215,-0.552979,-5.114269,5.23948,2.725291,-1.113545,-0.1965,-1.790733,0.464355,-0.388916,-0.095947,-0.236884,-4.17352,8.046968,-0.37874,-0.328862,0.021152,0.20166,0.087402,-0.569092,-5.246457,-4.786708,6.932695,-0.526901,-3.278682,-0.500504,0.347412,0.06958,-0.479248,7.116948,-5.629923,6.443815,-0.473707,-2.156897,-0.039195,-0.498779,0.015625,-0.361816
1.756851,-2.474096,7.471145,0.366821,0.385619,-0.217249,0.023438,0.338379,-0.556396,-4.956196,4.373921,2.695804,0.295836,0.340074,-1.311651,0.478271,-0.367432,-0.082275,1.331856,-6.73713,8.439269,-0.551517,1.423101,0.255689,0.224609,0.096436,-0.554443,-3.280335,-8.45617,7.757911,-0.700186,-3.825408,-0.317298,0.300781,0.080566,-0.50708,5.789313,-2.94949,5.912555,0.35902,-2.693047,-0.258637,-0.519775,0.008789,-0.320068
2.946872,-3.984906,7.388101,-0.545698,0.599602,-0.071966,0.028809,0.337646,-0.558838,-5.64541,6.902471,3.972522,0.189359,-0.488179,-1.148161,0.48584,-0.359375,-0.086426,-4.231049,-8.141444,9.332662,0.359227,0.496201,0.084215,0.230225,0.078857,-0.553467,-2.08707,-6.968131,8.87159,1.297518,-3.541302,-0.983787,0.245117,0.059326,-0.532227,9.528114,-2.787529,4.795537,-0.478388,-2.888461,0.118384,-0.542236,0.006836,-0.274658
1.834826,-2.583644,8.133102,0.329932,1.057031,0.133135,0.052246,0.337158,-0.562012,-4.306085,5.941027,4.085072,-0.816021,-0.466343,-0.679648,0.48877,-0.35083,-0.100098,1.39678,-4.873271,8.785216,0.776614,0.09918,0.097473,0.236084,0.068115,-0.550293,-0.506952,-0.334751,9.567193,0.683988,-3.618185,-0.316402,0.199951,0.048828,-0.556152,8.950869,-4.004216,5.320096,-0.44725,-2.288321,0.247795,-0.551025,0.012939,-0.234619
1.653513,-1.301038,8.134746,-1.398073,1.210484,-0.103839,0.067139,0.359863,-0.552734,-6.210047,4.234882,4.16129,-0.250234,-0.4972,-0.505242,0.485352,-0.341553,-0.112061,-2.82252,-3.878316,10.147046,-0.115358,0.948772,0.496365,0.244385,0.063477,-0.533447,0.573013,-4.839954,8.554805,-1.678794,-3.243424,0.320707,0.145996,0.075928,-0.550781,8.395538,-2.568614,4.037202,-0.199458,-2.786745,0.573914,-0.568359,0.023438,-0.178223
1.288597,-5.429977,6.153705,-1.449516,1.004273,-0.292318,0.086426,0.382812,-0.554932,-6.515366,6.458043,4.882338,0.547508,-0.468181,-0.312796,0.493896,-0.331055,-0.111572,-3.330315,-5.978183,9.730486,-0.231344,-0.292146,0.328069,0.249023,0.060303,-0.538086,0.369968,-9.858997,8.840524,0.194717,-2.643683,-0.230829,0.115234,0.072754,-0.563721,8.485025,-1.58539,3.612911,-1.184091,-2.255771,0.817857,-0.568604,0.043945,-0.143066
2.958501,-4.605632,7.073865,-0.966296,0.750762,-0.38507,0.094727,0.397705,-0.550293,-6.802267,7.476101,4.435836,-0.251153,-0.522117,-0.37167,0.486816,-0.324951,-0.123535,-2.734561,-6.321059,9.501672,0.685922,0.189556,0.309822,0.246338,0.052979,-0.5354,0.540046,-5.766383,11.37649,1.372419,-2.603636,-0.577625,0.06665,0.054932,-0.577393,8.724286,-3.786441,4.960275,-1.646085,-2.197857,0.978822,-0.573486,0.066406,-0.100342
2.333344,-6.049097,7.171559,-1.117358,0.814994,-0.280237,0.10083,0.408691,-0.542969,-5.543993,5.445481,4.193502,-0.468876,-0.784623,-0.303859,0.489014,-0.314941,-0.125732,-3.303344,-4.508095,9.659982,0.701518,-0.673313,0.177927,0.234863,0.032715,-0.539062,1.573384,-3.674132,10.888475,0.411999,-2.950974,-0.221241,0.015381,0.037842,-0.579346,11.560795,-4.894426,4.786456,-0.518981,-1.453257,0.40401,-0.574951,0.072021,-0.073975
2.362402,-5.657273,7.618828,-0.372111,0.960932,-0.143631,0.113281,0.41333,-0.542236,-5.368596,5.397407,4.151531,0.162318,-0.651515,-0.225808,0.484619,-0.324219,-0.130859,-0.743261,-4.635021,9.761109,0.199858,-0.515808,0.484622,0.228027,0.023926,-0.541504,3.870608,-4.915605,9.74811,0.282241,-3.064283,-0.061406,-0.031494,0.032471,-0.579346,10.278002,-2.910113,5.379228,-0.172816,-0.449634,0.45193,-0.576172,0.078125,-0.06665
1.01079,-4.767148,8.044574,-0.70592,1.075538,-0.121889,0.134521,0.425537,-0.542969,-6.113807,6.293044,4.700906,-0.055111,-0.801726,-0.016221,0.473389,-0.319092,-0.14624,-3.146396,-4.859436,10.049041,0.781137,-0.780997,0.41777,0.226807,0.012695,-0.55127,4.343621,-5.694851,9.742424,0.494498,-2.42844,-0.202496,-0.068115,0.027832,-0.58252,9.77138,-3.411258,4.99126,-0.977524,-0.447464,0.450339,-0.569092,0.086914,-0.062988
1.74674,-5.92447,7.686045,-0.849867,1.127907,-0.249118,0.142334,0.440918,-0.529297,-4.964509,5.361488,4.829116,-0.19017,-0.590611,0.064075,0.473633,-0.308594,-0.151611,-1.045681,-2.73866,10.518862,0.953586,-1.23517,0.218104,0.203613,-0.001953,-0.550293,4.566143,-5.258267,10.030883,0.759472,-2.756334,-0.356303,-0.116211,0.019287,-0.56665,10.677653,-4.37715,4.929911,-0.52232,0.164978,0.523939,-0.570068,0.101074,-0.050293
1.272142,-5.644289,7.547825,-0.734614,1.162703,-0.374529,0.16333,0.463379,-0.526855,-5.928039,5.616675,4.851721,0.383652,-0.26631,0.155117,0.473145,-0.313232,-0.144287,-3.194935,-2.881516,11.019548,0.251036,-1.137307,0.37001,0.195312,0.003174,-0.559082,7.83242,-5.001662,9.866829,0.380098,-2.384414,-0.399594,-0.150879,0.021973,-0.5625,9.893935,-3.01509,5.325495,-0.554658,0.825845,0.475617,-0.561035,0.121826,-0.064941
