# sampling frequency: 40
# units are seconds/meters/radians/a.u.
seg1_acc_x,seg1_acc_y,seg1_acc_z,seg1_gyr_x,seg1_gyr_y,seg1_gyr_z,seg1_mag_x,seg1_mag_y,seg1_mag_z,seg2_acc_x,seg2_acc_y,seg2_acc_z,seg2_gyr_x,seg2_gyr_y,seg2_gyr_z,seg2_mag_x,seg2_mag_y,seg2_mag_z,seg3_acc_x,seg3_acc_y,seg3_acc_z,seg3_gyr_x,seg3_gyr_y,seg3_gyr_z,seg3_mag_x,seg3_mag_y,seg3_mag_z,seg4_acc_x,seg4_acc_y,seg4_acc_z,seg4_gyr_x,seg4_gyr_y,seg4_gyr_z,seg4_mag_x,seg4_mag_y,seg4_mag_z,seg5_acc_x,seg5_acc_y,seg5_acc_z,seg5_gyr_x,seg5_gyr_y,seg5_gyr_z,seg5_mag_x,seg5_mag_y,seg5_mag_z
-0.7950721902248505,1.0520193701055982,9.731888057493247,0.0193730593402621,-0.017335850581246755,0.01713340253491319,-0.030733616874502913,0.07247609583027965,-0.5965006580390431,0.19170891749804309,1.6431793725555992,9.823387631471359,0.0010866809945921801,-0.03843612463535781,-0.040017195321901705,-0.12553721417268157,0.12807490595272186,-0.6709040491381487,-0.061455927103869636,5.813160841972812,7.687121635152506,0.002267279218964066,0.019018961082102083,-0.011659560810799864,-0.06019116624612562,-0.23094612278447943,-0.5800222629681963,0.32306803900630787,5.597526337834645,7.833994993531786,0.002406036297979514,-9.89498325307552e-05,-0.005685788271070877,-0.15589662939646337,-0.128290896640769,-0.7421537495148356,0.45805794737951167,5.507040600579946,8.006634253257454,-0.006933261301512955,-0.0005566242187071301,0.06935995659026967,-0.05827670588830288,-0.26313060931521076,-0.6800843146744484
-0.828710455948774,0.982731298047346,10.007199009949804,0.028823415251726724,-0.04972324138821422,0.05016531328593401,-0.028549455029789964,0.0700236246158688,-0.5965112400325394,0.27776697859431565,1.746936906249349,9.918143509363661,0.0028788866642048294,-0.017108875467141255,-0.05413339628939343,-0.1269995348821084,0.12828324776947458,-0.6726191948550411,-0.05523114471878961,5.8597554472331455,7.674012251647083,0.004966055346928757,0.03593641164851549,-0.03056050353184123,-0.06506355454089169,-0.22848553302831587,-0.5805227900472735,0.33918796967345716,5.647244530628057,7.825290844311814,0.0021492525851656927,-0.01881985890375133,-0.03102519210525618,-0.16177752580522178,-0.1274900862065108,-0.7380474823440544,0.48765703050709375,5.603287884426829,7.953991985229714,-0.004017698663781746,-0.01839010493743218,0.08714665473692769,-0.06440371190695193,-0.26067291345928256,-0.6742563899728765
-0.9185590888729231,0.9711541734573467,10.066458635302057,0.04878313851250874,-0.0901577560452267,0.07768349710690667,-0.044615896840707596,0.07309861579255947,-0.6043629297105434,0.12839745109790016,1.6765873049324087,9.85770251166305,-0.0023737041934236715,0.02106274473587766,-0.06942447951978739,-0.13335116569563477,0.1317753209366408,-0.6809903453138382,-0.19492838557998174,5.760769485585212,7.7722449227723445,3.8911600202782204e-05,0.05298228152739018,-0.04606802150125115,-0.06092294348441016,-0.23020928902684284,-0.5788034389090573,0.25139045952014977,5.689171407870031,7.938108649097301,0.0022207632627737808,-0.02845697624846522,-0.04434578565461437,-0.1581247495204496,-0.130210927972828,-0.7394706163841468,0.4235417301443829,5.7222808802036855,7.968190751072143,-0.003859706740709148,-0.026920673338456814,0.11148998282303135,-0.06268829086977237,-0.26287335713992005,-0.6769354689701338
-0.7633141931678171,0.8763337535266079,9.703669261324993,0.05752565000022651,-0.09940652856289851,0.09761635632989525,-0.04270492143931961,0.06817303178236775,-0.6002438044182229,0.13338193113977664,1.621761325031205,9.75824380913489,-0.018373401366577648,0.03315305363813949,-0.07917974368921187,-0.13307516274823988,0.12448221869811665,-0.679158495125787,-0.147405202080503,5.901402578866176,7.753596482561382,-0.011537516998648509,0.06311103346239803,-0.054045277303516284,-0.0491605064861198,-0.2234266846064045,-0.5870845440972009,0.29946158033493264,5.78633827560349,7.893455127259947,-0.013837559253808343,-0.03510142307403554,-0.05165280237387811,-0.14973806040393692,-0.12494741355817193,-0.7470185383941887,0.4943360393343787,5.788872818386836,7.923535876250656,-0.021840896991345657,-0.032204437615242394,0.1333632981464518,-0.0538535714366127,-0.25801860738983473,-0.6817628151770468
-0.6806267941115489,0.9834339971048065,9.717197395261348,0.036251878251415244,-0.06957680243023281,0.09749896625518095,-0.03724489435324502,0.07677730797194297,-0.6113852630961897,0.18375185617206538,1.455099688894189,9.603366051550484,-0.016948700539271628,0.021680982327164984,-0.06378709335248983,-0.12797885310368487,0.13457520271739998,-0.6903066852297145,-0.14844822271478425,5.889653813721319,7.763892787361037,-0.005403820450601158,0.06800560043020057,-0.05477799474848975,-0.06067220200038619,-0.23241396591207494,-0.5858821273143986,0.35123172543630843,6.0303852705954695,7.893440824578482,-0.007087124411998772,-0.03559066108432194,-0.05505538031064523,-0.1637097354535408,-0.12946489003714576,-0.7434183930401518,0.561676438472063,5.680805442320073,7.870620133914161,-0.016395547492315216,-0.03476856515816693,0.12505442308558914,-0.07096201666230775,-0.26064066313605083,-0.6801518764373278
-0.6995368015125332,0.8372729157410366,9.781453252493728,-0.02138810471507536,-0.06292270780845403,0.0861969329254173,-0.03581537686231228,0.07984017984888324,-0.5981721148866006,0.22823311634902588,1.5294560532122583,9.714595003826714,0.03470476678712235,0.03348460367066766,-0.041034279672851066,-0.12531433823161425,0.13434034091463107,-0.6758923127692112,-0.14489027428283313,5.935472863811383,7.8056714160699805,0.0607443291007154,0.05947817904799281,-0.03707307911731758,-0.04795695060046051,-0.2295367656017408,-0.5900069940044748,0.4047241677056934,6.050486240352605,7.977182378163779,0.06147337056118609,-0.03415183003713395,-0.04060484865089162,-0.15389729618979298,-0.12859665867734915,-0.7494639168388914,0.6330215319899501,5.604628361416481,7.948764912331734,0.05669106465663723,-0.033797231078729034,0.06628157910391069,-0.0582468536898296,-0.25995293607898623,-0.6832544966329531
-0.7319458190579898,0.8412759248084822,9.785908740361988,-0.0035539420681672796,-0.06953991197037995,0.07963430488757918,-0.04532832599556925,0.07411004002159052,-0.6082649718333596,0.12302285535558741,1.5806338176932808,9.752274613371103,0.018471810790139112,0.04020526859299374,-0.024093225053913623,-0.1313838732785723,0.1307096899475971,-0.6868290789214759,-0.2180611778219853,5.910703271532054,7.946033757752428,0.08010205562160687,0.048573209786123145,-0.0352143940068017,-0.057549532304481725,-0.23705180455088642,-0.5704905754845593,0.35067939509407176,5.954538664803179,8.052041929842543,0.0804276413744321,-0.026171638436289828,-0.0391308635926407,-0.15971317039700433,-0.13843545349801442,-0.7294164120394718,0.6022686694175584,5.675979220606055,7.868832956297159,0.0739311990951683,-0.02737817167587251,0.024664152550554774,-0.07033856636946466,-0.27017948845231293,-0.6672203217234431
-0.6590426911321593,0.9514495451398453,9.584132007556368,0.022614387527692608,-0.06749510882236866,0.08372986434244327,-0.03757297576783197,0.07129691553526142,-0.5972689449386328,0.1413917906853991,1.6026837131859024,9.592388032565792,-0.023265210695188165,0.03920239974990804,-0.030912290357670236,-0.12309050157257613,0.1275731243207457,-0.6723568129339176,-0.19531246264083238,5.89443883486325,7.723415520928816,0.010097276988747461,0.05285667394608748,-0.027934134509046596,-0.05969484138841547,-0.2331513431901163,-0.5878324221597994,0.34872206385722515,6.054111688506358,7.916952987130582,0.003660966554168281,-0.023447670944497675,-0.024468477867816394,-0.16688145791021672,-0.13067355989036483,-0.7448963270182903,0.6176661766547094,5.966332325654178,7.892394243121018,0.0003962502719608436,-0.02300171446265213,0.0025294354114289356,-0.07290658153161315,-0.2613625588387825,-0.6823615547088057
-0.4674180452444534,0.9593031298508995,9.581286477623719,0.03803324791398475,-0.06124273164432802,0.091001036257035,-0.0417367556497556,0.07177717653004163,-0.5933754831792495,0.2608627294718862,1.4673256591034574,9.629236255731763,-0.08856575775270037,0.041546352297150695,-0.03186046831876506,-0.12579973684439733,0.13221085109811792,-0.6717058593408216,-0.029417605146164278,5.869945266977864,7.732867926499238,-0.09830182887368182,0.04608521486967155,-0.028545900152308765,-0.05528752601428881,-0.2299944739018119,-0.5878254587161466,0.47853119233015806,5.946169783590539,7.845566031387659,-0.09736006190767604,-0.027742149663771615,-0.016346452317441428,-0.16197940534764793,-0.1280240313665615,-0.7451255960204802,0.7519277819019274,5.7509776262313945,7.9184864638575325,-0.10323677102110176,-0.023090037123604034,-0.0039004163581837677,-0.06899737589466588,-0.2611333461837849,-0.6825835768852849
-0.5180515200304971,0.8407888548959543,9.664088279681371,-0.00903966210956868,-0.04892931126025808,0.09657673086484969,-0.044642545137112986,0.07183850942577759,-0.5992457087056722,0.23555217469158007,1.4588079735105712,9.65531681197303,-0.06470165145681668,0.03291997503428559,-0.02902821214788512,-0.1282423353138582,0.134074193763751,-0.6763807580378437,-0.1253987411793428,5.819591822715191,7.759300425636973,-0.06440293630296162,0.05858751742406851,-0.018332757966032762,-0.04944039588803952,-0.22830135872924498,-0.5792691734649915,0.4631499240172492,5.8897834987612745,7.910551415815538,-0.06534842822959756,-0.03374717029338383,-0.00994730788256232,-0.1578830253702986,-0.12775141552840022,-0.7365551116300881,0.7246808653769331,5.725017291200253,7.944641283641865,-0.0697623356320037,-0.028469559982418093,-0.016047942534018696,-0.06511428454239135,-0.2565179851498723,-0.6752325104948536
-0.6253217519912252,0.8744218550469104,9.842420798409552,0.0730374407738405,-0.04086348621032117,0.07053217574232792,-0.040515625102354354,0.06597219488193411,-0.6012284325138205,0.16234213419282711,1.3853065636482063,9.620690966879868,-0.024565294102951787,0.03876420416651883,-0.01425673966837882,-0.12063502467180416,0.12743761109504775,-0.681140734117275,-0.2127030444380215,5.81923578547842,7.816620196938006,-0.019855228427445668,0.05438135211308416,-0.011696057474495838,-0.04456623007026072,-0.23491864921602093,-0.5870652924478201,0.4056240386959118,5.90845069793261,7.996158196160872,-0.017860818223061674,-0.03382460411955756,-0.0070707166933740165,-0.15493868534598226,-0.1334421103469898,-0.7447996220644855,0.6849653740931859,5.625124848741321,7.888658360909307,-0.023342852605021842,-0.03164494546621555,-0.0349071028689072,-0.06267610546864967,-0.26604221057552113,-0.6813331651192189
-0.5443244533670296,1.0623125060408598,9.71958885372637,0.059469301427995516,0.002819207544653256,0.017863719167250172,-0.040498025399970876,0.0691479725434191,-0.6014484949942412,0.0753392941756327,1.2768563611066643,9.548349289862806,0.01948817849552958,0.03542697196486938,0.009963295555524656,-0.12456671076394926,0.13186233306701356,-0.678290919922694,-0.2067783286488914,5.783695182931968,7.84619991241083,0.026605755029342457,0.04048097147004661,0.0028016632845313133,-0.05480828766259644,-0.22926002169148957,-0.5824540045784833,0.41810537082826166,5.956481082100264,7.941763289497568,0.03076395739067858,-0.025422464998065657,0.001473705563075293,-0.16595343400862067,-0.13014083600810383,-0.7370804031507405,0.6744509058131012,5.712146702248162,7.856925861495916,0.026724923151883954,-0.026269022467246456,-0.07254533491645895,-0.07490555629608067,-0.26380468844529703,-0.6757833984415824
-0.43283493129194217,1.1696410981210397,9.656560620111941,-0.10071636640767802,0.07748917035331566,-0.03513727030645913,-0.038476636613991845,0.08256124968295572,-0.6008464171305871,0.19890848271573888,1.2539331597795456,9.527977265774462,-0.005396186717191583,0.009735146476245597,0.013090914941257852,-0.12071643669947976,0.14382992249378046,-0.6792181129666769,-0.09278535647242046,5.596179910402827,7.80892828454597,-0.0004265866266607052,0.048299721220987545,0.018282942783502877,-0.053369382173403604,-0.2336563212647929,-0.578296317354203,0.5263796167282935,5.729157167182855,7.901036980870315,-0.0002425571759013949,-0.022619548359715216,0.020290359164364818,-0.162601244091708,-0.13403166697551197,-0.7311734836368139,0.7714425828461473,5.743681316001318,7.889928898640345,-0.00323805807261472,-0.02213399396690584,-0.08907721609924364,-0.0715120470576031,-0.2638229940067706,-0.6713694989236066
-0.5826719092962667,0.9294916906251782,9.79800096004337,-0.20183818835919054,0.09695998470827068,-0.05271693533630198,-0.04050328671260687,0.07324423991465272,-0.5945801646336693,0.22927639259120258,1.5569232292813235,9.774045160104672,0.003843275119677632,0.014521003586940499,0.013580088408494544,-0.1245487784328898,0.12680152319828933,-0.6742995734200553,-0.18690560901141964,5.763548505910541,7.922008404977327,-0.0007711109561644227,0.03905110364415344,0.013442688461274008,-0.047740494407650005,-0.22928302142963217,-0.576822696957923,0.5274419905165644,5.556871310318438,8.094990806796558,0.0013904817720988409,-0.01781606351858372,0.014732188946088466,-0.16032991730502996,-0.12822190775901396,-0.7363240750081456,0.7930642040919514,5.806271192743054,7.935745679825379,-0.001959487853931171,-0.019504143733408048,-0.050951435176811805,-0.06759498967892796,-0.2594445212045436,-0.6701226182507577
-0.671578308172778,0.7432216701317576,9.775411756113364,-0.10820576321675028,0.031401592823682545,-0.03121972083181116,-0.03605112401879976,0.08396550708709127,-0.5947225990573999,0.1994607695014661,1.7213739982255878,9.850956831094262,-0.0006054973957527703,0.0427355487079784,0.010262775381530188,-0.12021984333784466,0.13957285553233106,-0.6710878503067799,-0.23355740301802538,5.759060508595344,7.972310362415025,0.001868255879011015,0.014666509844687384,-0.011622892021619615,-0.052867772654535225,-0.23219720302832336,-0.5819584268368075,0.48069376138613706,5.471529843782816,8.122999363055646,-0.001903339736769616,-0.0042755432281328725,-0.010173765966976089,-0.16643857545972587,-0.13112307386773464,-0.7385421800008539,0.7453784576241334,5.761719431895949,7.970306437849897,-0.006794579502849276,-0.005544682176097474,0.025952214663599087,-0.07440799594025767,-0.2608771670751304,-0.6752892149538664
-0.6419578134148163,1.07233761297454,9.56844484061719,0.029261893618304082,-0.020946641388028122,0.020547318229696104,-0.04458641081505633,0.07653941468257675,-0.6072659725233085,0.051764732608083466,1.923024887609147,9.787190021178695,-0.005770365648963472,0.05674315774020468,0.0005963002159246326,-0.12430925025825104,0.1305649972865158,-0.6829084227067371,-0.2891826408022162,5.911890807160879,7.751218577233345,0.01116342756417074,-0.0026629839637962657,-0.04421083250096153,-0.04603416341013655,-0.23295600135103486,-0.5821870439847192,0.34692730052727344,5.557640725437901,7.891619091072752,0.00834798108204924,0.002089009229756039,-0.0447728663957507,-0.15863042777685057,-0.1319116395803645,-0.738729697678084,0.6121200471990096,5.788091578330158,7.873567410051278,0.003528873686545617,0.0035269601927203176,0.10572941491516623,-0.06684101470379233,-0.2635893441967188,-0.676959370703524
-0.6849191915772044,1.2591736558257496,9.537810453466648,0.03448587196517519,-0.04663018789951411,0.09261754644373575,-0.041935188577052605,0.07500869144090634,-0.6006752350075122,-0.05458816977469021,1.7451442362640688,9.625623498477328,-0.012118361774711258,0.04917246582586539,-0.03434134147789392,-0.1189471360711954,0.13091233317983317,-0.6782657308989396,-0.36974279061512333,5.823727052463808,7.688013837625966,0.0036858136884963958,0.005354374990791602,-0.06142554220283023,-0.04648983604870694,-0.2246531676276002,-0.5821947645711438,0.24684522173192952,5.856804265275855,7.880750523060902,-0.0007153371056408057,-0.001414260963495449,-0.06144903898965732,-0.1590451979255043,-0.12509832767458604,-0.7426844967372478,0.5449625640724266,5.868795495796143,7.874690444666159,-0.005342803918978391,-0.0016366369423047645,0.1526758742820962,-0.06875220955610212,-0.25625502595934585,-0.6794024786072898
-0.6513361621901539,1.0412677953618916,9.476715883325804,-0.024862621669147513,-0.05145689538613401,0.14806540078612995,-0.0350660722409223,0.08132037711131603,-0.6005986532952499,-0.06990387635808744,1.6346732855295127,9.557380575147105,-0.01499717716683304,0.03696274527093165,-0.07052174433508321,-0.11700861069000744,0.1352505769192235,-0.6822427453072779,-0.36740770180413884,5.907273609920577,7.879817616210663,-0.008674686590532053,0.004604636777227385,-0.05751663539104011,-0.051419802881986186,-0.23928681037362529,-0.5868325590905761,0.3131818824674786,5.975796888832272,7.969758935846535,-0.01252221561294151,0.004851061159863253,-0.051223449783924846,-0.16305761125975496,-0.13946823638700317,-0.741639105025053,0.6108885918236238,5.7667195684082095,7.784739231962596,-0.01838365388099292,0.004847987788284027,0.14394885357788892,-0.0710007569879869,-0.2689430175471088,-0.6789417477580741
-0.6480308269570719,0.8128885378104291,9.499221870845568,-0.00856701075851187,-0.03153561946270252,0.14058153970833853,-0.04218289742457225,0.06992910850883227,-0.6065762300560648,0.025602974440122498,1.5667668866587166,9.53516228666647,0.01115008331027792,0.01308233393437513,-0.04934066690878183,-0.12256257581673755,0.1234533652316993,-0.6852277717344323,-0.3392656448681124,6.015922761654006,7.755102957116331,0.02844486649291662,-0.014711106465046059,-0.05260173428485252,-0.04506098426346695,-0.23638134241093037,-0.5865771737062516,0.33681468781531904,6.04788566521308,7.9362736341111635,0.025971719681301315,0.018581884412352423,-0.0538351808902123,-0.1605814432801905,-0.1353417350269396,-0.7426270770197844,0.6761018106354805,5.594402801362656,7.791698761556306,0.021733466501456796,0.019614755185490797,0.11435542283968575,-0.07073087011770679,-0.26503471435774056,-0.6808887252251303
-0.7108690879182639,0.8206390234652488,9.574361215296312,0.0033950741111609703,-0.04124643845418063,0.10400132449457176,-0.04363292986812886,0.07624820918720782,-0.6018932798610289,0.0013650207503042647,1.411054409739736,9.59200699282884,-0.006433253382748258,0.01781489022861777,-0.01911266572343212,-0.1243187325756986,0.13159091685960397,-0.6799952065947381,-0.3137657146844831,5.884912074181639,7.785793430730273,0.02491264642286614,-0.03089954340993099,-0.03773319485899709,-0.044824802475863415,-0.23784648788731694,-0.5855984720682494,0.32939202758990593,6.189985044687159,7.88100497447245,0.024865869061957886,0.02876014636658214,-0.03899788288825866,-0.15840454426114706,-0.13730339117155224,-0.7416228047304169,0.6961967650648818,5.701449082540942,7.7413203230991705,0.024039732593094897,0.02902577473414846,0.05130918557076267,-0.07195632958207841,-0.26478714541148035,-0.6799182280751965
-0.5753426098410068,0.7771252800926549,9.300437253447994,0.021689940062802386,-0.062271797760781955,0.07937095949849864,-0.03824700689296376,0.07890769114019108,-0.6020951769817242,0.02642142490486335,1.3718324376375484,9.53565321094813,-0.0265031763616155,0.011723388454306278,-0.017330529994623454,-0.11895876658762335,0.1352126340054847,-0.6839535712219434,-0.23936978828173464,5.817782899105569,7.775877638513658,-0.012429246883016188,-0.027447064102260988,-0.01649663741758934,-0.046765417671168416,-0.23344213906136882,-0.5834092331404206,0.37043303722734755,6.027476523527667,7.858286610193876,-0.016337258136194462,0.03626395200727802,-0.007688653354468812,-0.15496755704573092,-0.1334131451075325,-0.7404048123484844,0.7357179826246806,5.681954866337616,7.80357013359052,-0.014454714511099611,0.036287042559023666,-0.02029732863512368,-0.0695137022901028,-0.26260100024509264,-0.6786820924742304
-0.4322034729867019,0.7954990861475555,9.225182789649084,0.06235790871571834,-0.04769753685033035,0.07469661146272644,-0.0467848198926794,0.0813821459640261,-0.6006444690487872,0.11868070062398384,1.5288275907679587,9.437686482849546,-0.05113203790147342,-0.020588232553953235,-0.0013708122944537627,-0.12045492855493992,0.1406330368729411,-0.6806293439249576,-0.16749257306567208,5.823242019830951,7.669947258798065,-0.04870733251497713,-0.027190937190898174,-0.01292823498997765,-0.04701964945054198,-0.2329486379813504,-0.5777951679567612,0.4151357360846186,5.718519128801755,7.836373506236344,-0.05319742597552292,0.03614298503119909,-0.008347026992485337,-0.15571999115314494,-0.13240378002283765,-0.7362662282862962,0.7763412375660469,5.57318460117128,7.831341467256982,-0.05245686587459916,0.037478728766135,-0.034913263936343725,-0.0712287973198272,-0.25820428172864085,-0.6745354284745669
-0.5348322432962727,0.9061614439509749,9.704228603657652,0.12143827929673655,-0.06686158123281641,0.09845682208712254,-0.044212187015034654,0.06302338564064706,-0.5963839488381104,0.130095366627134,1.6773559061049255,9.665717258145774,0.02395967472012516,-0.017269734209318374,0.01987257428330043,-0.12157934267532555,0.11851579400642111,-0.6741558930779017,-0.2421680324244512,5.884345829766774,7.543590972061385,0.04006953115138505,-0.03184722583082736,-0.023604633383902954,-0.043594930794912376,-0.23272012124492117,-0.5804729594406064,0.31871011105511965,5.665496944213989,7.752433873974753,0.03825676431495099,0.032242232776766085,-0.028599413695373617,-0.151806054853968,-0.13219322559473662,-0.7372189457044176,0.676655214776701,5.550768370935185,7.8396807564619655,0.03582884344192873,0.02568110796380817,-0.024318446010487382,-0.06561836510067678,-0.26139849452315556,-0.6757290062632669
-0.6269540367742239,1.082647047528834,9.931630849475862,0.14632690895188408,-0.12102441866535735,0.1318171671114932,-0.043477310828693654,0.06302526128535606,-0.5971130588933874,-0.023797257050632334,1.713490175788703,9.757310071209865,0.08317900948924926,0.015567590359494683,0.0092929123952799,-0.11427028975261559,0.1228838257592273,-0.6778795054341362,-0.34116034382620797,5.806432686893619,7.903578210821268,0.09736251889923388,-0.03856625603712276,-0.032185391451331105,-0.04921752962892823,-0.23440724989968725,-0.5804837415549992,0.2718924960354993,5.822792656052167,8.076193679259774,0.09718708028799378,0.03006168275053942,-0.043972582461131095,-0.15401230268840627,-0.1314315889391368,-0.735040364262772,0.6527338041117853,5.7681656058869155,7.987675621292279,0.09625537805119923,0.02297208529942549,-0.005508651851100723,-0.06807188289493317,-0.26017150001824524,-0.67281115775483
-0.4497262080318172,1.3037313775774044,9.565930753150706,0.17604674497952374,-0.10780053968538399,0.13092313343582362,-0.043728976938609596,0.06156261262005163,-0.5971255108411431,-0.07018037005942633,1.447317128062227,9.565949924733088,0.04834850460791883,0.011579494561166609,-0.020542018836666558,-0.11354687169519376,0.12436744902053665,-0.6769270221887728,-0.3429241874187104,5.878161201847338,7.880012145169248,0.06262366839935884,-0.043094100847021845,-0.028542781353502585,-0.047525126518666284,-0.23880806547341935,-0.5807215145525674,0.2661313723935397,6.012240346620737,8.05052216707958,0.06164195869153144,0.03396298695314921,-0.036344467280340596,-0.15231968830586606,-0.13634287979884308,-0.7376829916756669,0.6413913300868532,5.790349137119402,7.9820503800484754,0.06478413080159545,0.027650604395230677,-0.008288056036262216,-0.06320676747354757,-0.2672692851173551,-0.674501432768977
-0.21286821025831307,1.3113628447462276,9.56831639029367,0.10544979242482956,-0.02227625533062921,0.10284206948523049,-0.04639536462728732,0.0647534459678803,-0.59759906890522,0.14152887711874917,1.266889733422109,9.527288473368337,0.0031787072419629525,-0.03777639134192801,-0.0426621649175402,-0.12015529943344258,0.12753398215746417,-0.6755257610706784,-0.02985251514608768,5.648033623632767,7.737124027904307,0.01856240613516826,-0.04156087360756768,-0.01154219915998904,-0.05340741561205589,-0.2446450167893625,-0.5804844905936537,0.45203597325413103,5.902562571554533,7.8757446784507765,0.01806867069362766,0.03163385724925141,-0.004113964012874304,-0.15797055809901575,-0.1426598303834286,-0.738899534273677,0.8322833886975275,5.906680866910242,8.085832964205212,0.018698777259367347,0.0308371408704927,-0.04962199622080873,-0.07152000996046483,-0.27187409100536614,-0.6755299929701574
-0.5790284478336777,1.070308243115802,9.911783775526315,-0.030484240570310815,0.033369990581758324,0.065857492219373,-0.040997094970382134,0.06284681098471084,-0.607115042935885,0.06690140007401324,1.3567540659282358,9.689489325885102,0.019062801968425833,-0.021777095318241475,-0.03082420413591899,-0.11426966021463887,0.12589688267035506,-0.6874533187106726,-0.26643240600059104,5.803809377491226,7.893224803357538,0.01934297959119808,-0.03875010692241387,0.000644239890093271,-0.0494672385543946,-0.23831583489110336,-0.5848761219822185,0.3120446600937704,5.863525208594533,8.065488536158389,0.018933600945091836,0.01823744161007333,0.00034920018783430196,-0.1520630648138747,-0.13684963126241217,-0.740119071587642,0.6997663784567828,5.839456420446785,7.99244603048568,0.017383562577337936,0.015881983357834653,-0.018361227130593398,-0.06319633118309279,-0.2670222954255431,-0.6762101144760191
-0.6951240640227481,0.8091163873385554,9.759954303422516,-0.08171326200358627,0.009414841539987062,-0.014291630435684976,-0.049507825278271474,0.07431470240851605,-0.6004665807138228,-0.018200902867141284,1.2951856368688335,9.78603658657265,0.04475026805446346,-0.02161821718860241,-0.0014763074341349065,-0.12115344316503299,0.13262282609357434,-0.6775659187814943,-0.353674361180915,5.859502740917069,7.732820658225213,0.057195130767215406,-0.04044067358317938,0.004176421753112035,-0.0555690163376863,-0.237315098771267,-0.583669116969063,0.16674571051243026,5.895717850750207,7.938468371166385,0.05530594858201718,0.01813114249331798,-0.0007722100298954923,-0.15815295585449743,-0.13682032285605097,-0.742112356848376,0.546425527540516,5.838827693779,7.974054246612102,0.051493224582579836,0.015435873975686267,-0.004236052253540825,-0.0707470554591722,-0.2674781174961815,-0.6796706430695354
-0.6404611352882666,0.8415722023390952,9.632398586495286,-0.0023180840787188303,-0.004523966647171984,-0.04215621759573866,-0.043233806622721194,0.05891431564630226,-0.6022714971894628,-0.11463157183975566,1.5233889476158466,9.658800747519354,0.0629153354230684,-0.010046627865939376,0.016874490070106565,-0.1166787993786495,0.11672409191663399,-0.6804666923948548,-0.31253493057666815,5.9343835406117815,7.776909932222849,0.08440926802714448,-0.030635211029629347,0.01956131939036228,-0.04974587255350314,-0.2449034663648694,-0.5807213687211465,0.1489717209557595,6.1160912205236375,7.917491331505336,0.08707387875106858,0.012848799695081136,0.01616202678007585,-0.1530676936466298,-0.14050150268055156,-0.7396135816730304,0.5355406812349404,5.927219254073754,7.96315962176483,0.08362398051401249,0.00813515017922401,-0.02534942548764234,-0.06785685007287716,-0.2726203567090436,-0.6762425265746166
-0.5977540879695316,0.9333709018532401,9.464277917599913,0.044499796180413845,0.009965953832225894,-0.03077331157213288,-0.05054150954769993,0.06695984029968456,-0.5958891003816739,-0.055823952409930905,1.6107949371387829,9.672892055709625,0.009118187645345681,-0.022079191391453902,0.028338816957731546,-0.12626280061905076,0.1277732886130791,-0.674074644711424,-0.341325164534766,5.951181430777307,7.673096810486602,0.01445309181218436,-0.02307218868852724,0.022758012439349027,-0.05952259398280346,-0.24437231427137912,-0.5743949109012096,0.14615068749590565,5.99010623128478,7.832406419572003,0.01621384118590279,0.0048552098263138525,0.02440857073941012,-0.16069520631065318,-0.1433394437737245,-0.7337857326777456,0.5225512420665204,6.004157312027759,7.892873002061248,0.011518825286745523,0.00584806530481361,-0.023063573036372038,-0.07472795485832649,-0.2726013875181573,-0.6699325694276009
-0.6431107461566524,1.0218192545777283,9.651225751750035,0.08232000408702571,-0.016125817167042547,-0.023078978981037824,-0.050544516074026824,0.05946385395719446,-0.6052261890453849,-0.03222055294032247,1.7000443895932662,9.646849698288435,0.01025511557743239,-0.023963373496073737,0.03285688719555116,-0.12474682355970652,0.12052556175031295,-0.6844502361585791,-0.356863038453679,5.996904254216693,7.620733999142953,0.01622613131396189,-0.018773537621590775,0.022161355142517374,-0.04727379011607651,-0.23636684981270642,-0.5792579479805854,0.1169808300232703,5.99052241903994,7.819465493338591,0.01930366378371826,0.002281169536517735,0.023883809936248186,-0.14792168365084896,-0.13637647111492687,-0.7381418987228253,0.5122371090478611,5.9235848499752715,7.836859908771607,0.013363742203830874,-0.0005145421054883924,-0.01088654406739022,-0.06223960484464392,-0.26947032003712607,-0.6742546216444285
-0.4487085368912527,1.2849249229966144,9.704879806625534,0.10149546654218516,-0.03753904461224993,-0.005152265422479812,-0.05464360663177448,0.07045885128175246,-0.6034471892049277,0.06195186009758924,1.7023839021552507,9.603299801152055,0.046849338438177554,-0.00861504437576955,0.02766352369653259,-0.12968528048856173,0.13128856253401547,-0.6819522787346303,-0.20383865648496483,5.819836045717649,7.6295013679633055,0.04875218892827232,-0.021157211407256855,0.022155579842799925,-0.053892556609808864,-0.24391012325454312,-0.5804861352151419,0.2736601480728399,5.821464868568525,7.814392707306511,0.049933646150364205,-0.005112809278734532,0.02302471768360047,-0.15356242064208137,-0.14295027490440168,-0.7413097664494246,0.635362250049735,5.838213060172189,7.843595441570633,0.04582030809612863,-0.0063898647461146305,-0.0005239394070030174,-0.0690800566242176,-0.2731039314343149,-0.6760058808101569
-0.40092188669548784,1.475356213802029,9.606430494640883,0.07833782088287736,-0.0057354936153322204,0.013719093895396514,-0.05422986002886977,0.057745546781145136,-0.6015920688790667,0.015125734091784034,1.7012873730471647,9.577056153383431,0.05881549562414945,-0.018883607121309445,0.000989463275563246,-0.12402552344799454,0.12156724044345396,-0.6808039738738415,-0.23547154963140685,5.888066550191297,7.6591367329257505,0.06241603970892185,-0.018886691460016376,0.01805325537814259,-0.04729250087038917,-0.24442853935902945,-0.5851104638128048,0.2417525705712597,5.7419591581153755,7.851828702622794,0.06226522105404532,-0.007792732804281696,0.015990083912598544,-0.1501052413492352,-0.14080113231017052,-0.7449633776009809,0.618151382280996,5.848426330325577,7.88411139638378,0.05697297770130605,-0.010244270182292518,0.03185703936775477,-0.0595251542979932,-0.2716696918165342,-0.681078216884896
-0.46284850157070156,1.187358202478216,9.666359202474654,-0.01400917299938916,0.024831572428811927,0.012470643511296963,-0.04787953698071006,0.06182465309306028,-0.5966518378237308,0.08945929425272157,1.7917682441305816,9.542478704492769,0.08785439410681328,-0.029628077936167292,0.011080760259708118,-0.1167241049438751,0.1241532889631078,-0.6742423001634459,-0.23937754314198784,5.952827080412712,7.538079431121455,0.08674745775398718,-0.02698173467003552,0.001565360474784143,-0.05729807654170878,-0.2446355581635938,-0.5875729251221565,0.24935599408299752,5.81238533500542,7.849207394065328,0.08277875326355201,-0.017106526558044653,-0.001994554399080057,-0.15696545196498116,-0.14613751299759808,-0.7469263593804318,0.6289311799575251,5.8688928182659295,8.020755327015332,0.07552766495440509,-0.020565689551183205,0.06968068472553557,-0.06905899015395148,-0.27431951519917847,-0.6806462551823849
-0.5408701168619978,1.1674224269397433,9.7527781237536,0.008529304619894797,0.02469336970925896,0.02788919819756196,-0.05348152260468043,0.06067155266934646,-0.6015661914416199,0.016282959111228682,1.629040585239649,9.64854007900836,0.08646810149058617,-0.014292026204284033,0.0014902860764784537,-0.128406390273255,0.11839315664867286,-0.6795368705145846,-0.23130674547292246,5.778857281826405,7.516907952457357,0.08782750665186456,-0.019596442533597692,-0.004115312059138526,-0.05951298727095793,-0.24339750024882872,-0.5770806881318314,0.1693854248162161,5.842529068280014,7.821276178688673,0.08642150428820163,-0.04638772854787213,-0.008034908196941372,-0.16167267707286354,-0.14308548672039545,-0.733304806774837,0.5498760509633285,5.982492140604523,8.20192051070669,0.07817664614332427,-0.048083866788761156,0.10570490923047111,-0.07765721011446387,-0.27478536489078237,-0.6714164095403669
-0.6426481556745691,1.1090921764020314,9.843939620810609,0.03460298599072058,0.030225379192991786,0.04324613304291905,-0.0471182878658632,0.061394920785991174,-0.6047085065478007,-0.030470734660763773,1.4113540870857864,9.7409245100083,0.06275516706491457,-0.0007966754740283495,-0.036645258545188936,-0.12328461510066428,0.12079289213422384,-0.6834751613470168,-0.2266445470807471,5.68807668561406,7.522232689397632,0.061035314170424564,0.017841607341765636,0.0026484339863068708,-0.049956388502206864,-0.23684637217508006,-0.5817043627456477,0.1384534376873679,5.766768736617754,7.749311162377378,0.06121685077541547,-0.08594088108312198,0.003021670696353531,-0.15352809180545757,-0.13708510316623418,-0.7403711547018007,0.5417359431400441,5.994869160764473,8.203120738845627,0.05131136467191562,-0.08982174023034616,0.14276363723125687,-0.07295637723607344,-0.2679596272905108,-0.6779744489167112
-0.6847484676675832,0.7875692033036377,9.810102441627638,-0.07492648478102187,0.004574207029027387,0.018667533243974542,-0.04321465694251596,0.06402578891778472,-0.6002783057072744,0.0826111311801496,1.5909650985839034,9.818996339617714,0.015849344480368042,0.025257304893314684,-0.01587006084010925,-0.11549631812095237,0.1238579248768923,-0.6776538101772127,-0.23763901349772623,5.991449529180311,7.439571592576137,0.011494387090310133,0.05821899892728561,-0.005859406738128784,-0.06317141469868384,-0.24411801074439632,-0.5805060188285438,0.19625258442505494,5.80104355150681,7.808781544095644,0.00859291632268745,-0.13327343608139708,-0.00024422352273051784,-0.1696861991262902,-0.14356544082355077,-0.7404345948753424,0.6304679926931959,5.9486108717480555,8.23871527798256,-0.009152236942169746,-0.130476212069995,0.19328721775849556,-0.08762879012507035,-0.27327493784010953,-0.6773301331741417
-0.6646060352645397,0.7235657069084009,9.833033550542686,-0.03111496061182917,-0.06172456560395742,-0.0012914771105502648,-0.052227306345319316,0.06628942847648414,-0.6027372755506111,0.10274413327688722,1.7465129353652962,9.873997451808304,0.04746092213283352,0.06435174874995515,0.04006733844571855,-0.12450958566709017,0.12106063600203329,-0.6817724260967091,-0.23274437619057062,6.071767691253747,7.458985062327233,0.040357078569288975,0.07952876983586286,-0.024557370354876925,-0.0558940030947617,-0.25146433199255236,-0.5716953085583107,0.25476959453955283,5.854371221749012,7.766335661282362,0.03968681747578152,-0.1685498154130593,-0.02538256046713262,-0.16417513161593691,-0.15038362022164084,-0.7318080827996662,0.7223042854132742,5.971795373135136,8.061823566860008,0.018414132339652518,-0.17085974796286574,0.23968202331264596,-0.08501611477579694,-0.27964348926508914,-0.6685339009542257
-0.5021061050488493,1.052623750798511,9.780336091845797,0.13141380319381066,-0.14322141192347468,0.033285584068554065,-0.04324594806432338,0.056233257914693906,-0.602780565971828,0.05167535744642793,1.9959825975625363,9.814231903702616,0.11666017281915333,0.10055617855789316,0.052475017347671134,-0.11152234289635435,0.11110584171304486,-0.682073321224444,-0.28840533567669474,6.110850135466062,7.535465272790302,0.1029652265218568,0.08959554947727111,-0.03765527185094514,-0.04341207672941829,-0.24516721928379237,-0.5746034507046507,0.2801405819812508,5.937910041878346,7.7674748156317515,0.09911414222674862,-0.19418964035793118,-0.04606508583855229,-0.15781798289009538,-0.1467485727707004,-0.7293491716367847,0.8123878544015332,6.240681456485847,8.024096703756227,0.07188760201667097,-0.2002484269587315,0.3159680286909521,-0.08034794010655746,-0.2735560062893364,-0.6697208955950693
-0.408357559958529,1.6164543698180815,9.769165628988063,0.16399929223443283,-0.17532872282785278,0.09569222032202551,-0.057888805565638975,0.054872309424230395,-0.6062672109784886,-0.056767159415786944,2.001438423112925,9.682484877792533,0.13764143751599198,0.11416708974170078,0.023770648717309415,-0.12029317181189018,0.10855676902198788,-0.6859516597282507,-0.33208545410314194,6.0952934844504485,7.539687509097046,0.13150331604589124,0.1017484001068615,-0.04528247873768039,-0.05442103622595929,-0.24902785132621819,-0.5714501013683869,0.3023891705249036,6.116817380379827,7.710316408200024,0.12939588271813923,-0.21524318334478015,-0.05859194759690891,-0.1724730131346049,-0.1473786876647028,-0.7291972843336023,0.870737149949393,6.233819529046325,7.853212064479073,0.09849726892324759,-0.22393083093181287,0.381479291609452,-0.10182861260378918,-0.26956973227387027,-0.6676385340653889
-0.34941322380975115,1.4632432449352362,9.500689039941435,-0.018404247428653025,-0.18375636581271199,0.17273253916934614,-0.052296822749026015,0.05721284774993522,-0.5971934353848004,-0.1211518453380346,2.1944933876346444,9.753561634965402,0.10043627264565365,0.11312905599758712,-0.01018818998363893,-0.11371446189333527,0.10918761305042682,-0.6793584313369927,-0.3832976010024123,6.345228164007241,7.623506295498489,0.09571078577537417,0.11132389685758125,-0.04646360015865159,-0.046120118538927175,-0.24906015936019624,-0.5714321362895413,0.3174149895626598,6.336684244720007,7.7688876197417205,0.09164084185611684,-0.223517370939358,-0.05131612254700877,-0.16709135258356775,-0.14668767282591974,-0.7298985155408317,0.960701815692402,6.228717132861661,7.767215455354508,0.05909761019091342,-0.22849464870770236,0.39790338607715636,-0.1013545103649915,-0.27176973531087384,-0.6666614487547112
-0.38607937346694904,1.1156031081929103,9.52243288817704,-0.007842048402493647,-0.2055189436726196,0.2480156946798802,-0.0598377158714643,0.059480235889579125,-0.6011116174811513,-0.11705889982861813,2.3441574682472726,9.586376342369332,-0.019499790484569922,0.09694084908434997,-0.02167369370603814,-0.11398143496975158,0.11522719422474445,-0.6831225479153277,-0.47421946225029754,6.459307374978433,7.532925017270532,-0.028767454597066557,0.10774620641471074,-0.05936373759496837,-0.048569655519556124,-0.25247041417267924,-0.573631669125047,0.37701721478873,6.408228254032581,7.7790110872100895,-0.034624659066422536,-0.22628185691666747,-0.04986230548098286,-0.17761726357849114,-0.1495369440038152,-0.7287288337542907,1.069105362271156,5.922965272644286,7.692192065509992,-0.07320619024258795,-0.2196610048472686,0.37841746557030675,-0.11282496250417973,-0.270260771240682,-0.6664794016249281
-0.29273945794942646,0.8432562527826551,9.39060123382829,0.1699032908645568,-0.2645736214131277,0.3117627890042953,-0.060356284958985,0.0492751675565645,-0.6070538330965568,-0.07849900558862177,2.32991487801927,9.554994064762418,-0.027841142228492065,0.10572694541723096,0.0013906653640401452,-0.11100559968701551,0.10664434809587463,-0.6861483300783671,-0.47401580380752123,6.372240585892888,7.473999934949235,-0.0450402286370811,0.07536780813419136,-0.07618568135396032,-0.04784885787293051,-0.2546702560456302,-0.5724083235129528,0.4225240044331344,6.135655363904586,7.756706456535444,-0.05140297359742504,-0.22108851540598898,-0.06385535838062609,-0.17643797890419025,-0.155158505063037,-0.7284390253444746,1.1796720506032112,5.744754811964633,7.681464364375637,-0.08769337034398582,-0.2107605647015374,0.34169377549262087,-0.11844830658648399,-0.27560750841025244,-0.6687149044702735
-0.2087803335799857,1.0388094147295823,9.269464077671827,0.38221999107242444,-0.3387781828703996,0.4040378921458059,-0.06478498868527346,0.05068103477139157,-0.5965619136020586,-0.21732511316961556,2.0634516304608885,9.561757238244658,-0.006089081306637244,0.1111032348207063,0.009987753411861621,-0.10248345843158764,0.10993641822424677,-0.681549742828742,-0.5513425935843642,6.148936172869129,7.583928279464753,-0.02895410725888863,0.04974636143743807,-0.09313517748722308,-0.041967682310768986,-0.24883251520112115,-0.5716673479132302,0.3954354755912368,6.053298522493441,7.7648846328578935,-0.041246692935793326,-0.21508765851275666,-0.08613015262589606,-0.17763764372034255,-0.1482870344436552,-0.724342015232715,1.2076976436356412,5.653839537848862,7.693784281893008,-0.0800532388106305,-0.2061441592906285,0.32923439307473357,-0.1211135843675792,-0.26485979251985653,-0.6648101208029071
0.04930547926236105,1.5116190334471011,9.367134074450261,0.426599270785785,-0.3886247088662611,0.5152900479328612,-0.07450188515110057,0.051311360601656905,-0.608069808041099,-0.10721925524785053,2.10170440759202,9.63280744151015,0.05348042197960135,0.1176191325207976,0.0030429806011245232,-0.10933973908623809,0.11684772546335305,-0.6897349607752199,-0.4247960722758732,6.208810925445934,7.585208183596294,0.02266010831764959,0.03482649696696698,-0.09534053768488107,-0.043911158152905916,-0.24638393328930905,-0.5716735343642906,0.5469270554036341,6.088750137343844,7.747857432605277,0.009102835261661292,-0.21115295028240802,-0.09641477271784646,-0.1852109245215369,-0.14773869808729082,-0.7231743289963699,1.4023034416170383,5.489110786015499,7.746084115510773,-0.03474117073984229,-0.20725652062087171,0.2945822313323655,-0.13281498146085502,-0.26066434039269804,-0.6651142334698548
0.2744044120613685,1.6078985140706754,9.324516918930415,0.27244280546791294,-0.4657284444500728,0.6472101233145913,-0.08211994386665881,0.04086519903714593,-0.6096467924970911,-0.08292556279458421,2.3963810364110247,9.705649003244183,0.1384711844239671,0.10941172884697067,-0.01697011396369076,-0.10881895037710632,0.11140627216029929,-0.6940385842567905,-0.3939700952154024,6.418409620865046,7.6388539026228255,0.08905262424967927,0.0170747268268346,-0.10917869457469441,-0.0432084200001874,-0.2532217385072386,-0.5704464651362642,0.6593484299442296,6.170873691962013,7.772098767186518,0.07149796360788312,-0.20108357433417842,-0.11828719488988129,-0.18498627433465586,-0.1521464471871697,-0.7248528766322896,1.5827686012669429,5.462126186867321,7.656334642936575,0.029863576097885345,-0.20621861732954833,0.2502105830782046,-0.13577967864462703,-0.2665145519016154,-0.6629404841951071
0.478535906871132,1.5128382248898986,9.258231215474856,0.2537911003268096,-0.5226688449835638,0.7690100977538945,-0.08848702347824373,0.03940885575801666,-0.6065092342947506,-0.0983533837278615,2.335153548289953,9.771492216931204,0.03722108831971534,0.09687900540674485,-0.023497288241323754,-0.10685986396973184,0.10972731865043492,-0.692786056189179,-0.3652190897476853,6.3439453810641435,7.624280407075463,0.030085166091211247,0.008178922068432293,-0.13077996773230502,-0.038351871006751366,-0.25934270466996373,-0.5692100007780515,0.6669762024321049,6.305160724896094,7.753757063104441,0.01820614923538614,-0.19796185310359007,-0.13265647609827227,-0.18433226177130804,-0.15723484139654886,-0.718223758219036,1.676267268294824,5.71763457303581,7.732727997101607,-0.021985720299076087,-0.19793418550383438,0.19905240909334526,-0.1370086380975565,-0.26919554006539775,-0.6631944391688999
0.6364557502046128,1.343429739102692,9.033046442990535,0.3987257683841084,-0.6188033186417874,0.890954352081751,-0.09882988200723085,0.028656366187034384,-0.5983340079691204,-0.11737535596902594,2.1216292008829303,9.559397608330558,-0.036302879167731686,0.10390768295196708,-0.08179661480578863,-0.10736265398830112,0.10848099530327006,-0.679580144433017,-0.4017604983242661,6.01520569933178,7.433249625946495,-0.03106981167128478,0.006074469335351496,-0.1302344188684572,-0.031489551763159485,-0.2569346677498188,-0.5770091452048619,0.6453607404503278,6.13262312832887,7.7404555993083015,-0.04808894652572949,-0.2112482490238206,-0.11720074970073956,-0.1798769556616052,-0.1558517614159689,-0.7260159429085926,1.705059688965995,5.830404880714315,7.853843302984017,-0.08835991629780744,-0.19777047088650543,0.16523536971899924,-0.1364775278147674,-0.26187035150556925,-0.6658689952873006
0.9533762249100662,1.4239446019453668,8.906619338836025,0.6683885278343689,-0.7621176199981122,0.9931820487271296,-0.1110816311323072,0.017034737255820217,-0.6026236110231753,0.041158888347642794,2.1640534271988585,9.764951938959806,-0.017002549823547056,0.12181356935733477,-0.09371030714880614,-0.10586857220978213,0.10470799016020803,-0.686595486251455,-0.28225528327152166,6.265425416301565,7.504334078450243,-0.03949702966035901,0.002712064805917126,-0.14915695323214814,-0.04492573966276453,-0.25345631212341047,-0.5670319769762141,0.8280607036395777,5.791246580953818,7.732147276436906,-0.06672328293199263,-0.22983729832477665,-0.13428239112610738,-0.19627924663589635,-0.15446306127502116,-0.7178314909591205,1.880898655567807,5.912322410303952,7.833666169383392,-0.11704439507074896,-0.2100465338489344,0.21108546931177166,-0.1567836137028186,-0.2591173098657225,-0.6564564284941055
1.0668169836315513,1.9374084237562164,9.237366300971871,0.7294370904923972,-0.8547006886880976,1.0082125943703926,-0.11671008909054686,0.018489112194658028,-0.5975072583623817,-0.16128898367095248,1.9230269852434294,9.62103677563624,0.034534425801749466,0.1251336460044062,-0.056913626015106564,-0.09518236641687508,0.11484959934807275,-0.6818650151509981,-0.41662371272842147,6.0808569066983384,7.522698483126948,0.005023748067661595,0.0046772763065097344,-0.18459142966753692,-0.03735085097802257,-0.25373273621054077,-0.570677392609283,0.7146118752774967,5.8299598664743275,7.670194184565084,-0.025184898207229255,-0.23976743634769987,-0.18161812141838485,-0.19356549780583068,-0.1545105833485496,-0.7222085400723754,1.8180776989101926,5.841301310263303,7.858455851665304,-0.08112700688538353,-0.22623965301017876,0.306033635559317,-0.15575018420584186,-0.25642542602121204,-0.6647486845708581
1.3126434514185654,2.29116300227306,9.301928009745186,0.5406168410614134,-0.9626224555636658,0.9990928906319757,-0.12945882208197604,0.0066107680917979195,-0.5998477607629987,-0.24383540843824866,1.5815230035670658,9.35461884971659,0.1466941366131237,0.10858171885172153,-0.08501127508475505,-0.09267827713493042,0.10376656157789947,-0.6882671842094471,-0.3584659530247937,5.754375774774759,7.410477730704979,0.09041464458737862,0.017066360398725985,-0.17527192045755305,-0.03665967216478769,-0.26081018525756394,-0.5640781396337615,0.7420153318642276,5.959821054774903,7.619596163168373,0.05837692398655287,-0.25771318690726697,-0.18494805858123603,-0.19733081770142882,-0.16077345272912344,-0.7131586080170679,1.9490941648798634,5.931284933486589,7.976940378319325,-0.0069085821774932474,-0.2598744719259436,0.3614445872239738,-0.16677680039437326,-0.26005142339078025,-0.6601760856920255
1.9016698140693815,2.0293716854261596,7.870927374233478,0.2337968614174661,-1.089734641719978,1.0705557785588629,-0.1514423549318419,0.009361747127703263,-0.5935658215096411,-0.17016340542077774,1.551189814631425,9.516313334249578,0.19286696409566645,0.04888484424203404,-0.17844256408422562,-0.0973247958034329,0.10522550439155376,-0.687323152891246,-0.3777084238020583,5.744954305117053,7.416304805346258,0.12145519716886888,0.06105464989739782,-0.14063543385142083,-0.035683688755173325,-0.2632585301468163,-0.5684690559034518,0.7913359158867164,6.16796126500514,7.597704465198744,0.09410841605407404,-0.2876033199993893,-0.15870920383557524,-0.2014947812588548,-0.16417226346782954,-0.7146276257347569,2.119367073020674,6.003410561501077,7.983098339815382,0.01739288074088586,-0.2974635189624188,0.38939121694772216,-0.17386821225294202,-0.25880653961583844,-0.6572839786333159
2.0427147765474345,1.0778246037170471,7.995400752734409,0.3781445247486337,-1.05226352722194,1.2222234150608764,-0.16955579447448446,0.006705155037163733,-0.5851128674461484,-0.2136180155926198,1.9216845851435065,9.336969654578356,0.25088299409593146,0.019218051804839188,-0.19080772896370662,-0.10047914583995506,0.09850620435397026,-0.679401712122546,-0.22892376398779613,6.3518762770134485,7.3285107280269735,0.1156906632655827,0.08932730097970673,-0.1306938016083794,-0.023690931788465344,-0.25916027284356846,-0.5747934804159155,0.9256125487921394,5.958614543039681,7.611862869448486,0.08992737553262171,-0.3277903037953083,-0.13964499235058278,-0.19483365232383207,-0.15887924906927647,-0.7195019619857468,2.225781356541852,5.959330458611135,8.026903768313305,-8.165182608608221e-05,-0.3372714543644173,0.42301030104583753,-0.17235417534817526,-0.2509952703428039,-0.660684520148303
2.4345784654450173,1.5845911486615285,8.139620054731788,0.868359532847912,-1.0663492366111798,1.2148835133431148,-0.17933841289757724,-0.0010082158725105515,-0.5913151750810497,0.21427108883097365,1.3331209455096455,9.770464828186457,0.20304700331339298,-0.042136000638948456,-0.13364512041075613,-0.09335081747431936,0.09247243812605252,-0.6917416473257191,-0.1646977084966104,5.730184700133488,7.563200508764332,0.16494354767447347,0.13153238516162868,-0.13999562737547075,-0.031780098153973035,-0.26156098647771564,-0.5638229847772509,1.1954807485132177,6.029376597097191,7.634117297993527,0.13627032632522987,-0.3627973077537794,-0.1777074898866811,-0.2058978802459676,-0.160691869368338,-0.7097972790368572,2.58680721654233,5.622071829056133,7.95168788597056,0.02286839429295291,-0.37956642921779987,0.519286040327786,-0.1904440492766708,-0.2470278706074562,-0.6537002669605169
2.463420173096433,1.7200451590351642,9.32284957334914,1.0479284709795103,-1.1660397888064167,1.1060408618902076,-0.2070590637973665,-0.019004490059909333,-0.5818002944163236,0.16018440372647838,1.593620555607533,8.9111833737181,0.22211065140823924,0.09883313397798903,-0.04231948512324429,-0.10039917253940257,0.08491669297789525,-0.6889413517819213,-0.1225191830026096,6.017935227554929,7.0419178275463254,0.2062667122138467,0.1205460739069444,-0.09679929741021696,-0.019091983070207298,-0.2630749887693522,-0.5633063353002984,1.193184276340214,6.2957591327444415,7.391087096231071,0.18766992708927724,-0.38715013069087617,-0.1392416722261796,-0.2042098091406891,-0.16068276253475436,-0.7066121118498628,2.7446628098926094,5.5628258221839975,7.946371587376804,0.06533094150506388,-0.41890968722551697,0.4893175713712737,-0.19458827142696883,-0.24457144944886156,-0.6532314163866793
2.4621923342797496,2.854003360120584,9.591606570697968,1.133647394216206,-1.1898064798220553,0.7944053538919877,-0.22153268723387995,-0.02462364024953268,-0.5716471011863854,-0.15766313798147857,1.3081771216474807,8.88798265232195,0.3867724631634508,0.052746259130068335,-0.0056056807134128835,-0.09601587078941588,0.0862075884333292,-0.6860253216566135,-0.7285171395590005,5.822285737336038,7.343860755439276,0.34105918799603885,0.0824817129727855,-0.05719501621258339,-0.013189970114357097,-0.25773515276428555,-0.5735509400026756,1.0914691937239354,6.042050543824386,7.682401586604547,0.30257168706916676,-0.4012988750309076,-0.12900516739668327,-0.2044058731089332,-0.1612205388963645,-0.714422193763982,2.638541306479238,5.193568309388546,7.787242221154216,0.14947158302203092,-0.46292489840076195,0.4731933879404195,-0.20233661226570998,-0.23403856533147582,-0.6574132479730084
2.8244912725180393,3.278795974827172,8.76155045838438,0.539514752771023,-1.0230900969711791,0.6259915237221068,-0.23481348625729098,-0.03562098668559117,-0.5615313252564295,-0.4370075953310883,1.874295633135669,8.676394981257566,0.6778775914922271,0.05903872424663921,0.08763866597014462,-0.09277855871317721,0.07233749779605446,-0.6840784243211528,-0.6491688384597796,6.324918785244915,7.042487658963328,0.4456178011655981,0.05507999088998228,-0.024030739770072564,-0.01669324139376407,-0.269181508769954,-0.5547511746441829,0.8954923745131507,6.397170207244481,7.305847454136953,0.41917016627900905,-0.41019015421798877,-0.12350137067356996,-0.21313293001369843,-0.172532982048466,-0.6987792917726166,2.610696046498387,5.462886929916549,7.851099444774511,0.2602673207567655,-0.5125394854671205,0.4298473002732417,-0.21708294981200196,-0.2403443757497288,-0.6443182966580983
3.3018513828921727,3.00232547498449,8.012083901103583,0.15665056910902309,-0.8598923788708234,0.6119557411052661,-0.2529042276008694,-0.03484825023250039,-0.5545164742948047,-0.4270433441518814,2.0746098991742628,9.288146453987183,1.037521744317495,-0.04987721588602735,0.1189977434695352,-0.09807038084928242,0.054548756095518645,-0.6803707321560123,-0.6565385889555252,6.98705182812083,7.519679836075978,0.47725497743585,0.07156460654899009,-0.016962724403662553,-0.02479963464037656,-0.278177339121149,-0.5476813762153877,0.9410363318943085,6.575778991137429,7.508356289053719,0.47450728412371945,-0.433105558591387,-0.14420672177043053,-0.22476261542688664,-0.18237534285804965,-0.685607253324288,2.773718219626178,5.523969403706274,7.690409573897657,0.3100112870693006,-0.5570281851058309,0.41787857043445037,-0.2393738926031708,-0.24612973449393652,-0.6349277061185392
3.417763787853276,2.495985691689461,8.912259231044299,0.17290200122170143,-0.7517039269952674,0.6375753926457831,-0.2641462500936256,-0.03312220702870264,-0.5491761627747727,-0.6260809792333004,3.6420510956010568,9.628948735970942,0.8656806594844968,-0.14072688449701634,0.12050473208654605,-0.09629790757789282,0.04136773920153799,-0.6806361057470233,-1.0285717346969103,6.2576018023127356,7.294373027962375,0.34667775428524444,0.0897967654052812,-0.02995173601794381,-0.015779835043340334,-0.2845648033007571,-0.5530277161394411,0.9077519962253817,6.82403791488999,7.443743689676365,0.3285545923309785,-0.4542653428631678,-0.1351706716363914,-0.22479336574224715,-0.19144111229765573,-0.6904309162360189,2.9284047466064034,5.407123293154674,7.506326665411401,0.1528388779998391,-0.5313372319833868,0.3407472306563665,-0.2423157395753522,-0.2502675463988353,-0.6356808814181507
3.5871532470209146,2.5938540475361425,9.036835861644754,0.47818946578206234,-0.8612550193437946,0.6126834149511359,-0.27424854550239913,-0.04799047518438645,-0.5456694053659188,-0.28457023610495225,2.4450031218083623,9.064954173152534,0.44903758960159046,-0.03284813278688947,0.05995980442937179,-0.09402180064323479,0.025706564506848415,-0.683299453152905,-0.8682643491374268,6.15193524001057,6.850304003477075,0.43458654472063923,0.06481744159586195,0.05869974169230088,-0.020916613759538374,-0.2886971920893007,-0.5559644723978211,0.9724887260114782,7.141888882643373,7.3766202568019965,0.4188467080462553,-0.4418652159198123,-0.06068302134825468,-0.23650607652003822,-0.193086736355826,-0.6931821331840238,3.283677718184046,5.6325686600973786,7.270784024720887,0.23013888186113676,-0.5507666004588617,0.18702448618214243,-0.2608569528965834,-0.24848556865862204,-0.6370028159513198
3.4757535378852746,2.5393463509749434,8.145170465211717,0.36136158070366947,-0.8251017342734034,0.5451374531715533,-0.2876863565412431,-0.04310767329249812,-0.5366508998262577,-0.27016426682083816,3.0541536397758007,8.159137445551421,0.2643718635866227,0.035696755375552724,0.11317661691530674,-0.09451552943978823,0.025297078983042582,-0.6784097182438074,-0.8688963705702785,6.650269590983929,6.8228412814912565,0.23405290719153793,0.0007457976993669082,0.08239341795301947,-0.024364243849355066,-0.29209572231671055,-0.5484011456788983,1.2204942264671925,6.887782204392291,7.347388882254913,0.23031974438082828,-0.46353334871635005,0.02300593165156721,-0.24614980451972296,-0.1978142071446113,-0.6797857485146707,3.4047192437743603,5.688336253915082,7.131569117876997,0.04668079309967284,-0.5077251289650869,0.06088556971049437,-0.2699541035812595,-0.2465128236173039,-0.624110840756562
3.4756704631887327,2.8563510639534053,7.741272750083198,0.40085654443966007,-0.5436646992796208,0.45798968264699386,-0.2933588467521299,-0.05261495138876905,-0.5347947112562145,-0.5220544498996507,2.551971765962192,7.843701866880318,0.6392963245551592,-0.05421307583388141,0.2024648308370969,-0.09323059919043362,0.012341346623979534,-0.6796558082464237,-0.9388443787544076,6.750911370667156,6.78126436103933,0.3010872452696188,-0.07950807517039885,0.09208441675794357,-0.015616201742196143,-0.3014050740036238,-0.5461776822857346,1.1778946225423734,6.327434444355608,6.881297827512046,0.30937757778503594,-0.45049722769118594,0.0021254609899698756,-0.24012805188386857,-0.20662408126388507,-0.6765149872584595,3.0945415092413957,5.476884207474736,6.94509675769408,0.13641625381424052,-0.5272543047814997,0.061293266014025655,-0.2680476102851802,-0.2550681319428877,-0.6216691819421081
3.980353127733587,3.248983122254572,8.129478124604333,0.30815897246963053,-0.3349770443840739,0.46707849670924884,-0.3033618634648863,-0.04143495585184079,-0.5215631464795685,-0.7663777719748862,3.873497812857786,9.217816972641339,0.696217652106061,-0.1638750153283031,0.22908603203397662,-0.09739565166239447,0.012464596136678184,-0.6711185385737805,-1.1204945294551096,6.775959077352956,6.837560632871437,0.4408407485866158,-0.11852023418306588,0.09996010344524177,-0.024189310086532814,-0.3057626221973701,-0.5410656605667429,0.8592759923354527,6.644357945967237,6.884382203022357,0.44487214949947396,-0.40828124869648225,-0.04029550701454109,-0.25314614466504665,-0.2108811732556629,-0.6692471348855655,3.008720613576375,5.839473362696144,6.887166683483186,0.264627015501665,-0.533831760837681,0.09981438708233657,-0.2854205594597583,-0.2581809377380158,-0.6168862332637984
4.381173046340996,3.1877996341712254,8.618597225526086,0.19907525863372932,-0.31524217567293583,0.5487722650990187,-0.30822161087625877,-0.04136332375496177,-0.5274410112228536,-0.6335795247883924,3.305648799996078,9.548216546509373,0.5602144307607427,-0.18822909458231002,0.16094473544089766,-0.10711299481036232,0.004036383183185053,-0.6758771080600036,-0.9680363487042535,6.693194937378277,7.014626720548866,0.5144175032567655,-0.07284901567605262,0.1340281467159268,-0.0325455554337949,-0.31451132185365266,-0.5313105954198297,0.990082244842076,6.959007689647341,6.802500253728158,0.5256654185638313,-0.3932229404200797,-0.04037100368455627,-0.2657235441098528,-0.2197633525571878,-0.659505798783092,3.226333712510062,5.830727854448474,6.9271909008892445,0.35086226759683964,-0.5473186098006056,0.08606645472387121,-0.3038148663120807,-0.2625185045327073,-0.6047862673661526
4.512996558241369,2.3144904730486378,8.41608244062727,0.4223745731692845,-0.3421760865214289,0.5936702143100532,-0.3131786222453305,-0.04583566839586297,-0.5143111225447308,-0.08281629641062965,3.151006482701293,8.871028536335977,0.5110969771352796,-0.13127117724805665,0.08865556655443979,-0.11050053985585451,-0.005116541098132037,-0.6674272222817674,-0.6942730360666696,6.379412624606526,6.545235651964995,0.5151403369489556,-0.029424289327047173,0.17662359317405688,-0.024776133235228554,-0.32137133890369596,-0.5234762190072784,1.457191972810963,6.798795583602108,6.711245724616537,0.5480808915229227,-0.39898927789018956,0.0008550363168923839,-0.2594909249954819,-0.2270665286846788,-0.6496502970999699,3.6130831343602043,5.845225685239828,6.867432092375973,0.36709704954095945,-0.5622319318621392,0.04535859753000926,-0.30243971284118176,-0.27010560869908423,-0.5940452979359745
4.204309665359942,2.2251579222536395,8.310031056229565,0.6534963763985895,-0.36285674032066245,0.5164663521302976,-0.32097763576618316,-0.04552563574738468,-0.5175136291970945,0.2647182759765688,3.564736708435754,8.837477848483728,0.5539231212309836,-0.053794332867993504,0.1522477838361282,-0.10949453031066042,-0.010295336205203405,-0.6707573056191558,-0.38606329429809544,7.181414278640728,6.571923145559432,0.42045489603795017,-0.07278024429747366,0.15756709435893193,-0.024531299148126975,-0.3233284419475993,-0.5273801125695232,1.6738487114554073,6.652714302016,6.803095714421181,0.44621128349031947,-0.4149468438607294,0.014560594663038297,-0.2648627143354275,-0.22973298769798975,-0.652354129309553,3.8074505981753726,6.048988156535373,6.757688434483629,0.26906662376045987,-0.5462133213293098,0.10264966366506645,-0.31046882126797065,-0.26982513148899107,-0.5987286453932413
4.507004060697064,3.225921994251979,8.610573663100531,0.7806792244400558,-0.30659654590134344,0.4019841104944801,-0.3279354521560998,-0.06457473896912183,-0.5120751236549616,-0.30832847667418134,3.5602536759668872,9.265879668518744,0.7284593973327947,-0.04491156975872314,0.23911843129576768,-0.11402429109534039,-0.033950959237354125,-0.667683194496513,-0.6657433430744001,6.678729637382453,6.78530111958094,0.21718135613096345,-0.05219244337822396,0.09918694930950603,-0.03287404155962466,-0.33281627630241184,-0.5251934387687386,1.4048675409424907,6.902743797903248,6.766645322216574,0.25423109000538224,-0.45075737862500964,0.013942418003522134,-0.2762426265705015,-0.24278084181743714,-0.6435535135129378,3.656859381002632,5.821605128482052,6.659985385392337,0.08262361988143106,-0.5161544923798087,0.14421373804125195,-0.32544027924784064,-0.276858442742434,-0.5895418553243883
5.065753367793664,4.640857002240263,8.897975650995999,0.7030462917051511,-0.1945680882809755,0.34001855723963376,-0.3274082746887882,-0.06329234223543916,-0.5203643146610488,-0.4858090934914838,3.9565066896608427,9.56089955882719,0.26666462244926903,-0.04827800332197391,0.13472775107316323,-0.10989663344958674,-0.02650227534651355,-0.6761033140119228,-0.7602731309493748,6.680765457289251,6.7214320128342555,0.18250436926052122,0.01366833631009605,0.11442461991343218,-0.030903088651753192,-0.32427320125747483,-0.5181160912845799,1.309049916693666,6.7934776773209125,6.474732355277458,0.21503832359399644,-0.45499754116756225,0.04548826287468201,-0.27770232224377484,-0.23589159084490835,-0.6370162231278518,3.5593248041618146,5.653067352294721,6.609406385092691,0.03815672648953881,-0.50660308786695,0.10452423198605101,-0.3322783690366057,-0.2675621175868016,-0.5827328948573608
5.321211439545831,4.697195483348971,8.629753889313566,0.43868450522873925,-0.10758430526287129,0.20229619000446245,-0.32822999161331984,-0.07385486194962207,-0.5116609642956187,0.1175053088933969,3.596363585613028,9.29575309283758,0.23958648065121807,-0.0507256452633819,-0.012010734273017479,-0.10766929455352091,-0.03586103522625826,-0.6669076071899677,-0.22391865127661903,6.529678645063754,6.8594960493915895,0.20217215667379093,0.08643541423822851,0.14567017287809464,-0.03166095668001113,-0.3303725114231162,-0.5171357782962704,2.0008247764309237,6.846928121985914,6.434550768292732,0.2417428987485552,-0.46455105607398206,0.059490259616123475,-0.2833468327752847,-0.2397569907969718,-0.636783818157462,4.226212190189473,5.6738749550680785,6.581317508770877,0.054081530448058635,-0.5205229582213825,0.08972622805989595,-0.3393736634766378,-0.27119706388946024,-0.582532539707596
4.947095241525182,4.423057574426505,8.188321488486222,0.00864186860813672,-0.01763946136220997,0.020294749710474447,-0.32652220830500894,-0.07773145408918967,-0.516566772134833,0.12830801723061486,3.9465608004835926,9.273295105873459,0.1551339914037314,-0.03497951923331212,-0.0883296401348569,-0.10591823441613016,-0.04324935327517642,-0.671176591472355,-0.3045202031963685,6.878778813958883,6.844004608964013,0.10316850294565422,0.11294710455071323,0.14190770144908552,-0.027748432003422425,-0.3247670144253285,-0.510051851767651,2.112488447067553,6.851716148095909,6.579610035893684,0.1623576816522567,-0.46502516675647154,0.09506342584622313,-0.2934180244153961,-0.2356918884472859,-0.6232041810918136,4.361533169340218,5.877402302453165,6.297564791601378,-0.01021199296266221,-0.49914031177757423,0.0973891428769991,-0.34649372313780696,-0.2619087643138496,-0.5688890447588996
4.546653885132648,3.7081501463964655,8.324035665118517,-0.20205978312379555,0.0920002985007957,-0.14673127902642025,-0.32405898308077713,-0.06948576221104102,-0.5111212409444585,-0.05394371567200164,4.226729860986694,9.171184907970392,-0.0020234368022979854,-0.07146905061096923,-0.07882063195809726,-0.10667489340545351,-0.0395178076166779,-0.6668447180701864,-0.4837120036332282,7.12068435679875,7.008284551198439,-0.047273905414623896,0.12843706490511808,0.08840287660143008,-0.04023047627450033,-0.3344870521041283,-0.5132449492195875,2.116276657545972,6.810150510519695,6.695213864853861,0.014330230522805394,-0.46599695896258275,0.09762751730833011,-0.30769109753704327,-0.24924669206720346,-0.6205224949637252,4.366525558058959,6.41135094425166,6.300487837174694,-0.15177935040642382,-0.44617641222012583,0.188091970986484,-0.36485217369857637,-0.2713626237559885,-0.5668050035750299
4.571828675216013,4.0570234940908145,8.75749059539939,-0.21530269986893738,0.11660241226238999,-0.3259587829998417,-0.3211186908674632,-0.0718971944301502,-0.5169887395897901,-0.2877041583032629,4.348937363426365,9.753095872475525,-0.33723902995308996,-0.0928160561839675,-0.04926128865299239,-0.1074180429071092,-0.03593347000928391,-0.6713016015928297,-0.8993105863798274,7.342868794614114,6.9552480232135805,-0.27905884130325154,0.14757496611814253,0.02515727987513363,-0.03286757185465751,-0.3245056367013059,-0.5132371350939631,1.8044513029008293,7.469058544437052,6.77563936694489,-0.19598398457700847,-0.4620808030095639,0.11662393106200619,-0.31130237421911267,-0.23870133529601972,-0.617197573416682,4.350700950935763,6.273098781396261,6.195984133789596,-0.3423902195590338,-0.37176055921868756,0.263684136380491,-0.3694262008962661,-0.25449886738069094,-0.5668107576522319
4.963761799476676,4.036366090610313,9.300378104415502,-0.25651272013253806,0.011553295301806075,-0.45527443935155804,-0.3270068145717372,-0.07216576071939215,-0.509933834318176,-0.2072324053828988,4.4036769833955836,10.07299229564801,-0.6329728355743189,-0.016808300015616794,-0.07053934053839267,-0.1150394769371966,-0.02729511579904141,-0.6636447616530496,-0.8042947805989905,7.153296921693255,7.043183386493071,-0.4431414210344113,0.18819664952907372,0.018251713306801066,-0.027672297356912658,-0.310370654401196,-0.5193403912960785,2.002072843951285,7.752282364337238,6.685076078273429,-0.3393298176277489,-0.4478301919215568,0.1840132605037481,-0.31213778158460176,-0.22359467765786847,-0.6226738588856267,4.6413785958637055,5.934326688630944,6.310632785868686,-0.46506804555779235,-0.309823760774991,0.16601431234172637,-0.3701100390345787,-0.24375270821613684,-0.5680230520103224
5.02935252790575,3.9963390576053515,8.95934157320079,-0.46152589759598084,-0.020141183324740828,-0.5724991751325965,-0.32204605310545953,-0.06261446363214955,-0.5169196873531262,0.19343878069781079,4.652723851685905,9.41721211149065,-1.641547571921128,0.10267556989121682,-0.08482115418551339,-0.1061641583919576,0.009427580714721162,-0.674989700810164,-0.5398622330590578,7.335649607524818,6.874901457015909,-0.40798862664017993,0.16047725168080965,0.05275326056495391,-0.02720215440301495,-0.3155003058187364,-0.5203122163510273,2.4984606195663934,7.386159106627831,6.6127457593529675,-0.3009903381133017,-0.4176108756853902,0.20625592344638702,-0.32438327301269776,-0.22912505539619088,-0.6227178561116279,4.928048973471515,5.5322542798547865,6.2771800229763,-0.42644274227558243,-0.28973212429777734,0.0824259310616418,-0.37964037105140086,-0.24347297449685612,-0.5663666369972795
4.5210574919733055,3.517770155676652,8.118993367416905,-0.6380930732549647,0.03986911517504532,-0.6807788430798899,-0.3201125836182077,-0.06725399430989999,-0.5181684390626661,0.07747842730518273,4.520611245146283,9.381988157263963,-2.5235938625997307,0.14946675397485593,-0.034303573679618025,-0.10678729487113264,0.03937302123525685,-0.6801309439438216,-0.5879021334028557,7.008456390174642,6.837920982722058,-0.14564448301693905,0.08541433488096639,0.08662618966900641,-0.029357959582168584,-0.31061711229019695,-0.5305748641084224,2.6964761452111006,6.763983000077348,6.542824989138874,-0.11502585020587125,-0.34727073586563695,0.16228808396723246,-0.3316662465723217,-0.22493749062992452,-0.6247463854947386,4.8887294645480734,5.335724383502099,6.0738643048317815,-0.2324628063003949,-0.2970694874783031,0.06588460449394387,-0.3864313405212558,-0.23953437960862792,-0.571770855439008
4.733507840595883,3.5097538640604946,7.996721206873835,-0.7630789480133283,0.15462013044671172,-0.7672300919662328,-0.3220484427189752,-0.057788140184384454,-0.5098016173712211,-0.4791820191061902,2.4916002994768167,9.829204799978191,-2.303866814247615,-0.002482417733064347,0.038515079601968566,-0.10896806269601977,0.08209890541826804,-0.6652229492270982,-0.9161684077643683,8.279901547868675,7.833004745681343,-0.043262606033769226,0.07972812088372248,0.0311819088658377,-0.02516357856274557,-0.29744640158356017,-0.5269144750108009,2.652684175305916,6.9715884789416975,6.504696435949333,-0.014998741623832069,-0.30004743262146644,0.048579035354441504,-0.326459962905172,-0.21005646958995283,-0.6211481018504033,4.6048523513033635,5.230259324641076,6.484457169913838,-0.13284681400770612,-0.2645197276543115,0.13828503639834228,-0.3837029606836112,-0.22148457714071074,-0.5668515856425134
4.777812407679928,3.39326379111176,8.368988081185657,-0.7519896606882285,0.21577691891325407,-0.6743036522675121,-0.3166372715884575,-0.04976363934860304,-0.5092283597216475,-0.3661406786095805,1.8287876567465753,9.781954612087743,-1.723004061464619,-0.07614859331971924,-0.02267010224622912,-0.10715273964924087,0.11161614441243828,-0.667423579908714,-0.8506565971884221,6.854611999527281,6.989517366310526,-0.005103259561282322,0.09627715289948163,0.023068926360366563,-0.026415414177876215,-0.3067205563603979,-0.5293506629690561,2.313086548397433,7.325990954289075,6.717927089214238,0.03246389816978103,-0.2427572968180549,0.0039033228425140185,-0.33947081234945387,-0.22316975326114438,-0.6240772766654478,4.842876067685948,5.2929308599327145,6.317154651840703,-0.053489360958611995,-0.24867684374616605,0.10936083691013082,-0.393242096596005,-0.2287695142574282,-0.5688660945778001
4.471612234514513,2.981676212873698,9.156083609865371,-0.5038101543347681,0.17965976396552963,-0.6414428049468069,-0.31368026073234223,-0.05334720598698001,-0.521208209092367,-0.10960651613147915,3.156047841975081,10.429965630557223,-2.201722819121051,0.022853701916919582,-0.08744844529975163,-0.10997766384190341,0.1406600653424288,-0.6674266324763651,-0.7789140767229542,6.583871530485105,6.848796674860814,0.02312834715028592,0.10540713158459471,0.06521264210414876,-0.02837472673154614,-0.3067105781400657,-0.5264248974705668,2.3195990788145657,7.176801592963561,6.5169634028033565,0.03106428297946356,-0.2292203004593935,0.06771667575477386,-0.3448852403889696,-0.224071582527523,-0.618491659870571,4.812454875337818,5.359925186837145,6.337677078932555,-0.07285780607826947,-0.22161794939949298,-0.02047930466165893,-0.4000970286527025,-0.22947855459760394,-0.5659759511048796
4.119931005609255,3.3702529384832363,9.726683958280317,-0.3230813828848731,0.13151696742122973,-0.7881695489851922,-0.31734974914394853,-0.04730358641691145,-0.5111649790198568,-0.4429226048492713,0.7657046440092088,10.101414209730647,-3.052065068262078,0.09732980626822145,-0.028039902981045587,-0.11173075798848578,0.19539445513004572,-0.6500326823358582,-1.1082141679403763,7.327168913259957,6.836684989996475,-0.06658824781782464,0.14067927717868872,0.047186095526475215,-0.025196421472608,-0.3033025917960807,-0.5222707826719342,2.202231683152563,6.9633508979598995,6.545657379888676,-0.020781443007270806,-0.21744708647499914,0.0764428764965697,-0.34340588161917884,-0.21573764155171765,-0.6119445830081814,4.483983541558286,5.47285179251743,6.46837724583231,-0.09919394315109084,-0.20049647674871954,-0.06336066826106179,-0.39815229184883427,-0.22387739367880802,-0.5605865343344458
4.22692868765196,3.583773736665833,8.575151911449678,-0.4315460491697539,0.12446614293285795,-0.8878831335499023,-0.3248876385068801,-0.04865304393051807,-0.5207276978995048,-0.10602571219636131,0.1767677806841771,9.468471429164596,-2.9393799172991484,0.1709623914066538,0.03317267075420377,-0.11513255010892604,0.2418328257910792,-0.6464214745437509,-0.6178453845924506,6.8214716115119876,6.605132348094688,0.08305273794069762,0.1295169222084447,0.06014856958569738,-0.024731135638584364,-0.30940783878978656,-0.5227528254485665,2.381229837727005,6.536294155299075,6.344519065527961,0.08427917977472044,-0.21191095774730975,0.03236664816007752,-0.34906544117397514,-0.2195879543729461,-0.609270270606012,4.518388447526093,5.286149236898378,6.56490632333055,-0.009646975574896575,-0.22304471635245285,-0.03955816060576116,-0.4035667008390259,-0.23094003315162945,-0.5576957937781389
4.212602186841129,3.504287065417177,8.337586534617689,-0.8894881687004627,0.2649815432816963,-0.9828073180369322,-0.3088150250410636,-0.05437476243387212,-0.5180229142211252,-0.02449703283138922,-1.0102541237733553,9.705869291423326,-1.9289917650117723,0.0697683940519329,0.09147141593515554,-0.10598063979338855,0.26242840343782153,-0.6294148670051096,-0.44786897353000227,7.749180724221186,6.989559081088949,0.03342069918520317,0.1458065633241683,-0.014268101995971913,-0.020856106723433902,-0.3135674625668167,-0.5159050584446219,2.8957161614402516,6.605969792082563,6.362625423550595,0.04539417019304647,-0.23293223155478512,-0.04353254125815194,-0.3494064540492724,-0.22735607497508803,-0.6028740380797931,4.901344644463909,5.359109743273182,6.597332062342278,-0.034882401572933854,-0.2426558170249989,0.047324209844801776,-0.4055667049309089,-0.231186172281652,-0.5494060564384446
4.479891184458517,3.6754973224501613,9.212162305748123,-0.9433834344675384,0.2815914313461336,-1.0990226088655626,-0.30872220345735696,-0.03921166327925714,-0.5213218990924019,-0.04841652770444646,0.008677646557170376,9.878061471353538,-1.5479792342146432,0.06821405235069426,0.09893843297295152,-0.10858073051188866,0.2935355940166874,-0.6228591726448082,-0.7527323505037229,6.075362675352006,6.623487192236568,0.10716793151236606,0.15447876105694625,-0.036330823713091584,-0.011558091166436234,-0.31238971938998955,-0.5234549404113328,2.6601697916480114,6.8756560335277825,6.300563015106774,0.05687722052873127,-0.2433525763278185,-0.07974599925099272,-0.34473455055050933,-0.22889651424258095,-0.6094254787275752,4.983640398453102,5.326039252291403,6.540318727686477,-0.05122404731117049,-0.2440039559076098,0.0894985458457297,-0.40430994814690824,-0.230695772128123,-0.5555026022699205
4.102274731990095,3.364189824352251,8.907131169307624,-0.8726877216895119,0.31159255681748854,-1.1885627493125086,-0.30137942344443625,-0.03800445872532272,-0.5244575540234828,-0.3377578420337616,-1.550533519076595,9.787708669614029,-2.3294036540799015,0.17337484430107886,0.06877718718281671,-0.09872713148931707,0.3218769885077838,-0.6101317294372184,-0.8202236414986711,7.484105888823261,6.800707942287234,0.12441321292132926,0.16171641603692433,0.009440694718313616,-0.018404787468930456,-0.31309213658113305,-0.5198071569979434,2.4496644902381974,7.188830366772739,6.601271204991821,0.1336302841816672,-0.23819885862368986,-0.05403564429983501,-0.35455793450599155,-0.22901669157656207,-0.600943851403083,4.871862204068452,5.774729690175288,6.547577862736441,0.04871381781516044,-0.2826543243334088,0.08127148989956733,-0.41364463318629835,-0.23091593783420133,-0.5453005454539028
4.1041436267781455,3.3795195955788544,8.281210545640045,-1.058359727077897,0.37312116644698295,-1.1475567497866248,-0.28987191457625916,-0.036550281728885206,-0.5307489420191368,-0.1888038110108298,-0.9545033860858654,9.704651261623697,-2.2353419111728607,0.15954719827057826,0.023306581539774888,-0.09400405416334301,0.3514004093541555,-0.5981656578971977,-0.792117928266312,6.550930535445191,6.300564403885088,0.05924576449782079,0.153478859475668,-0.017016523972801043,-0.005695701915413928,-0.3070346370509904,-0.5149015930308016,2.7869580752192897,7.089104325850909,6.44927962278524,0.044796730802010486,-0.26981479754454774,-0.03574605436194224,-0.345748586802773,-0.22098540481594697,-0.5955676783206233,5.256428823975741,5.851767012366886,6.545470742039547,-0.055596880980135,-0.27765993987072213,0.09164606794766285,-0.4065385533694349,-0.21849690048326778,-0.5413395366288077
4.1181049659651565,3.113222155380413,8.215308209855468,-1.1309137773653382,0.4968926118878132,-1.0462999711376126,-0.2807591862092584,-0.020253097801741057,-0.5291202183611471,-0.13264936574676797,-2.4032863641445026,9.3402526534998,-1.9959399651360634,0.10951323182568233,-0.05922602641359894,-0.09150488095367683,0.38351132886760975,-0.5769672820332653,-0.5136778128732432,7.88011093871731,7.25976236423387,0.08492570902109506,0.1960104520658518,-0.03788058807891845,-0.01720353165480426,-0.3126007718515361,-0.5097949329607209,3.0922717545466805,6.862096646525857,6.182961857292538,0.053669466131213,-0.29555258055592776,-0.06873457090083859,-0.3634339910834045,-0.22690166878906762,-0.5856344363508043,5.156688731591967,5.561682366243825,6.59969052721004,-0.06749630174451332,-0.2864826564799945,0.1729269978950051,-0.42857938086174785,-0.2189140860375468,-0.5294992612237589
3.67441319908852,3.208371400471552,8.832960386458511,-1.2226626772752758,0.5495115231681499,-0.9411032259266113,-0.29042805716447045,-0.012279969771304723,-0.5430124972908883,-0.08297527883418142,-1.5078267543139878,10.047088765432818,-1.7465288195631254,0.10445180044488475,-0.06481635792187285,-0.10452167224177013,0.3979371062588008,-0.5721036637071605,-0.7314084216198133,6.644832596934712,6.401094689101818,0.03690582408085616,0.1353285708135795,-0.08444225690652102,-0.007921305070124856,-0.3141056335186059,-0.5144116649210642,2.6986835521714285,6.81998071019148,6.431363611480579,-0.00815294755836001,-0.3096454729512997,-0.09183681666889681,-0.3600032202171417,-0.2308713352955857,-0.5916889989353541,5.205691765123465,5.687440499211659,6.390892918425467,-0.12268251097865639,-0.293630509419121,0.2591195158401609,-0.42657353408199056,-0.21891052196477082,-0.5390102684781733
3.440145420590716,2.1679631363845835,9.483146163856976,-1.071900612224517,0.487707660190032,-0.9046733219243677,-0.2781748567308917,0.0049009499369732715,-0.5315990673895725,-0.542784592519295,-3.5248708041049404,9.2910084882629,-2.277117134998274,0.18369236226826338,-0.04084681116756014,-0.09940492290799584,0.4400369838792796,-0.538371474131089,-1.1899491236370696,6.84918567812894,6.709988790685106,0.09171252010694088,0.14574154679535456,-0.1027513125869029,-0.0040132393542320925,-0.3165661747685226,-0.51977323746256,2.486282264835455,6.694620710011221,6.311505297284914,0.01845323841100591,-0.32021093375896376,-0.13537428824322267,-0.3614617350534981,-0.23086764916130553,-0.5926756472437914,4.800065931191265,5.443513323000504,6.387598480922776,-0.11576075766016937,-0.2990258790201953,0.3549002186349609,-0.43315012895288546,-0.21351527810759385,-0.5380634962639035
3.126145205726587,2.622039241929824,8.157106458372953,-0.9783196837550218,0.4791029403365248,-0.8326102361797931,-0.2737254703818358,0.009818853865035237,-0.5391112552247632,-0.389842227935738,-2.896676429385602,9.067832179097767,-2.1118445691607266,0.2896939964233501,-0.23526470312950085,-0.10000663143467321,0.4583800245547961,-0.5218313102375459,-0.7705837807159882,6.986747593401036,6.718405489108877,0.18243904818972703,0.20220678838441708,-0.0615639454298215,0.006714506415207703,-0.31806980212951136,-0.5158418237899033,2.676869930026332,6.896599277132081,6.070980755603832,0.12296180973857809,-0.3149779454453143,-0.1380383523150806,-0.35542160157174135,-0.23355066059106627,-0.5857819874617646,5.208134348186632,5.351256511989472,6.259323575836201,-0.02212140687901796,-0.333999415658925,0.3849700784660927,-0.4287667704256249,-0.20597282697675195,-0.5307062397126913
3.2548645397414346,1.7261393643150702,8.440338146002787,-1.0456620946623847,0.4602515495888981,-0.6823111714652573,-0.2622130472711068,0.019497161983155882,-0.5355718243255547,0.025896091667379953,-4.151587134676266,8.974346773699569,-2.1070929877029405,0.25679679611954953,-0.2417588606438863,-0.09429789079775619,0.4810836856848708,-0.49461024331078585,-0.7258578841492281,7.108667783391927,6.391296363173993,0.13577077344107152,0.23029329087598333,-0.09200166538016018,0.008183185147857484,-0.3180768904630955,-0.5175476486741716,3.2429117516909063,6.817794823784531,6.166893719217956,0.055141458185907724,-0.34174020462456867,-0.152508128640049,-0.36029767751321023,-0.2327855542322303,-0.5860630740546449,5.661775996172247,5.214661833712154,6.217856540637019,-0.10547478807269732,-0.3285546779141191,0.43406421557503344,-0.4407003378362661,-0.1951873319860047,-0.528562922503259
2.841130108691326,1.5981506853585137,8.903543851944109,-1.017552121230065,0.3379350286843431,-0.6843773235506179,-0.25597514364268964,0.04268373419867982,-0.5387836788080731,-0.3249636101993253,-4.032950404326983,8.91317718449841,-2.1165006292606288,0.24479496350144261,-0.16478049888469457,-0.09180011558608527,0.5131976867563987,-0.47316788681319294,-1.0157446099936087,7.5056840799579465,6.47773204264276,0.16174602802182145,0.1709168699285618,-0.14656850632720264,0.012830774822114494,-0.30978549076921763,-0.5070463035062371,2.9587344752757696,6.934090415284484,6.039303927647661,0.056559331149903976,-0.3431956536856934,-0.2146219114445799,-0.35935158007948365,-0.22538658226185707,-0.5736540845942767,5.434311223032317,5.192668057390002,6.123037894303656,-0.10254977574765001,-0.33540480982030146,0.5341760922369272,-0.4446092953560136,-0.17907205433448836,-0.5168466658347087
2.459098529786344,1.1582689235426824,8.397040372813741,-0.9806698179834277,0.1924273950981535,-0.7190247325211351,-0.25914726495997187,0.04705319588050255,-0.5333907767174056,-0.6077420341219173,-4.8108826844961925,7.885705698709346,-2.1221143463164456,0.2896324290767088,-0.11116105137165083,-0.0931425067857418,0.529525534132556,-0.44560763734175307,-1.1954963217839707,7.1455535303176125,6.346172399643152,0.19150797903896305,0.10529631435479359,-0.16045598993091092,0.014280221984263692,-0.3166312979924228,-0.5121646310052205,2.6992347361611047,7.170290513256188,6.049328975806044,0.06851990535983489,-0.34674474845295467,-0.2404060658984637,-0.36599120309985095,-0.2331600990305937,-0.574622512285733,5.48895357505207,4.9358819588488325,6.231403898547398,-0.0989984506883571,-0.3396641673250078,0.5600002706550364,-0.45752509653487994,-0.1763343192203992,-0.5193572584645633
2.31231453919847,0.7395618413593485,7.729413962480374,-0.5907321205602006,0.1375755392115916,-0.7774500995723703,-0.24811621304795123,0.04998252493433358,-0.5406485291249135,-0.31542463002427046,-6.477237010643688,7.095725255032331,-1.9306526131388686,0.24486378476172257,-0.12657746638411893,-0.08396672994960655,0.5454746310425143,-0.4290122355325109,-0.8304518733426355,6.7349583307115175,6.384111488372226,0.1567178720859536,0.12807610101991798,-0.14408861052278368,0.019358188800171074,-0.3217673183775412,-0.49872145468337625,2.8725551800030518,7.180800087012474,5.987213602411918,0.052430898556128445,-0.3747556566940951,-0.22322040814041733,-0.3631736889576534,-0.23749209046735506,-0.5621239123141224,5.856028052671856,4.585065107275086,6.189741353737391,-0.13758714784639547,-0.35320181734010064,0.5028122259453764,-0.4597748116204644,-0.17243410298459627,-0.5071580130228291
2.4623799465623843,0.3310917629806521,8.357072366327564,-0.32952640118421245,0.003739901139554527,-0.8351347205655192,-0.2615734935847797,0.0495107757720258,-0.5338691298682715,-0.35833525389164367,-6.125323394913209,7.291273729820073,-1.60717177736562,0.22464508594307955,-0.12979136223208462,-0.09191401433398018,0.5653864342101095,-0.4042082982537473,-0.8176898535531018,6.681284240623083,6.518665970501475,0.26994235660012,0.17110480017588264,-0.08027366289727221,0.010344587660065054,-0.32247247431423093,-0.5089943889570894,3.04184620296804,6.896324464457647,5.714584743982527,0.15421550712060902,-0.3803621725134235,-0.21334838602014786,-0.3760795104706874,-0.23768204471527002,-0.5675786777038903,5.91013080395169,4.483505268355672,5.894568762955972,-0.06259692699408893,-0.3980329469137447,0.4623758726642826,-0.47628791455452313,-0.16064205823850908,-0.5150481220965656
2.4200680101034386,0.44409847275476333,9.527460446644996,-0.19839091181608867,-0.17106300274347278,-1.036187638105265,-0.2655136559565612,0.043907049580151784,-0.532707546788805,-0.6200603693349094,-6.311480691610951,7.170976187241691,-1.462774256388272,0.17886294932535776,0.031430519059856096,-0.08830500381396734,0.571052143461005,-0.3876938843146832,-1.3508359995591266,7.364728386286193,6.29542875568785,0.24499103522101198,0.14329144445758982,-0.08312802782211497,0.017136374769795196,-0.3315296423106513,-0.5048223525549564,2.9872762413652802,7.309730922972114,5.87961585278084,0.15192645210681005,-0.3805650005190163,-0.22354552806799388,-0.371302009166616,-0.24867333291004617,-0.5630806604619303,6.0298869133914526,4.690161273256408,6.024785902044183,-0.06990291282946692,-0.400027913915647,0.4683440616387184,-0.4780493455590472,-0.16089027594033783,-0.5057810462476907
1.9850597059778066,0.2536535793284722,8.423013543614077,-0.023382144662100614,-0.21642604121764145,-1.2613042228688764,-0.2645640701510914,0.045057835386704104,-0.5243944609703206,-1.0916512348077014,-6.421678076710718,6.537459476822151,-1.6822877660267477,0.09640703311007547,0.14223272431001,-0.08067304804738419,0.5982484241282281,-0.3551731287876887,-1.493072496292077,7.006086284875376,6.260417235187147,0.25599906653529747,0.1271988285685056,-0.06397813230203174,0.0215311394590267,-0.3273896410634652,-0.4972481936577862,2.6554158443272597,7.5470490300508555,6.037654588321627,0.15930977190576198,-0.3714752556143885,-0.20694021246379063,-0.3720927508092735,-0.24713415359644636,-0.5525975450998275,6.140585299891955,4.645436343601551,5.8396786888201895,-0.06241223139524029,-0.4009736185551023,0.4277759142274075,-0.48368565447502776,-0.14989608050288386,-0.49432435673951675
2.0124054320634595,0.34082344453687324,7.275642241640562,0.4394223964302318,-0.26072621461537654,-1.3403608519599672,-0.2771290400482977,0.025327303989991605,-0.5219125594239974,-0.9175765489308952,-7.276516203038753,6.090875278832718,-1.803127993319462,-0.017482550292653394,0.07814845337557569,-0.0829524680575097,0.6076702285672072,-0.33140530979790606,-1.3627991652525189,7.55118890240993,6.6621976101009,0.2704088735786393,0.1640178115026958,0.0005433100382125368,0.02367384029032637,-0.33740236903866355,-0.4901554212349442,2.9130042014066078,7.6899064492389675,5.729367892604678,0.20986154295561443,-0.357394264722682,-0.17914472433656076,-0.37418476993813277,-0.2558320140822527,-0.5408344554999845,6.372879689211789,4.554212135161158,5.758789386944421,-0.020093585924360054,-0.4014322776265355,0.3365259753158327,-0.4910620651820404,-0.1508540658786587,-0.48557730568780383
2.609243288789775,0.4432099795999129,7.427491055103572,1.2857674914271737,-0.6466992451568773,-1.3255939846135385,-0.28339917982110546,-0.006379024832720673,-0.5219416938623588,-0.5027890687100643,-8.351928049761401,6.5629833818257035,-0.5616677592460643,-0.012079046062079742,0.07410764374702108,-0.07491174248484658,0.6085602090735444,-0.3243259389244837,-1.144195057456557,7.274539907953662,6.2155322743571615,0.22876325947771034,0.1901450243669539,0.027754187479086256,0.02491419899309254,-0.3357032799862971,-0.49650113606312557,3.0939822622669078,7.741321706115297,5.629676608042854,0.19809616291870166,-0.3505158392426182,-0.13494343217782148,-0.3763107299488654,-0.2507254613254114,-0.5462533107272776,6.740825262090966,4.491811290207993,5.671610069708361,-0.02743808131819775,-0.4023861820878382,0.2642119028078581,-0.49759752951031866,-0.1393521725621862,-0.4877972392792176
2.7018143605912726,0.7375878536498469,7.60284144505855,2.181097760587007,-1.1131083068668148,-1.3415428415643071,-0.31344809285028263,-0.055787471973738983,-0.5214704170030164,-0.765785726080621,-7.141413699900266,6.866925206303979,-0.4130012075280694,-0.05307026293558545,0.19975030192293672,-0.08513746041310172,0.6040432543292934,-0.328661788286506,-1.431364333608865,7.6204614520693825,6.076810678115787,0.19556142172221255,0.15529352862665952,0.022146695140987008,0.028778405316447354,-0.34059253509791304,-0.48550278946265496,3.088286180479673,7.608818014662764,5.777081836585551,0.16646607604387786,-0.342734832552725,-0.11008742157308171,-0.3757469046365565,-0.2608859140111541,-0.5312899965476587,6.662474347228448,4.3752715913959355,5.488302089112857,-0.04950609618122761,-0.3789567849287418,0.2041916607659735,-0.49914021036710743,-0.1391190260426697,-0.4736453086874384
2.5781445126800144,1.864899442388016,7.217130453766844,2.7979290558893943,-1.4304259722196957,-1.1861635241518014,-0.33088600483351144,-0.10978294389629037,-0.5051166370263223,-0.9124272070202425,-6.158505411086839,6.545547196529359,-0.37552729979999433,-0.07321799994118182,0.1901482073003537,-0.08150001410181655,0.6066332213042553,-0.3208860563337491,-1.4591982296281765,7.244024058477238,6.433292868812515,0.22153648121442715,0.13681450447175852,0.032439847799842096,0.02608249356288949,-0.3457128039656109,-0.49014347395306296,3.017431532436065,7.535652293078422,5.532436983689237,0.1679240283580943,-0.3282145976224314,-0.0992830717722584,-0.38334753814193195,-0.26473459344538847,-0.530581531354819,6.600826786846795,4.475660920913129,5.488187651013297,-0.05053173977528593,-0.36112660569424004,0.1577769955222867,-0.5091661027854341,-0.14176682140777294,-0.4724830660618743
2.968499322011845,3.1028427667360807,6.821068445758539,2.810484337830428,-1.6670960983424434,-0.9358671699585696,-0.349063907819897,-0.15581253371714374,-0.4764949102101159,-1.132557629414709,-8.043237731536964,6.288199390482513,-0.6571798069774191,-0.1083815153448126,0.07370867355803164,-0.0796077700148358,0.6147027890444836,-0.3061229808478907,-1.6463346225042093,7.765485890741413,6.433339409498146,0.20580522956467937,0.1868396757307488,0.06422835238941027,0.02952950956161448,-0.33717958935885606,-0.4881889422496618,2.9868321972954632,7.779650197880163,5.651153042212562,0.20260090754659324,-0.287742178210071,-0.10375419888477054,-0.38451824379533994,-0.2576464845201516,-0.5306359384963996,6.670746648537624,4.4312137729104455,5.406080909995504,0.0034540129208534397,-0.3522077178986592,0.13865695372523196,-0.5135178501908801,-0.12807997208187485,-0.47078226035593473
4.075650372800782,4.2836535265298386,8.089160834101849,2.399441499982783,-1.9293133172510153,-0.6015852288489597,-0.3718086798126339,-0.1893557567690566,-0.4492584712305424,-0.7672747670323087,-8.263843265955229,6.6566369345870084,-0.12110557285647772,-0.0706021530725397,0.06472560977407658,-0.07380611507628064,0.6248374083580566,-0.30042331828394087,-1.4816364053071824,7.502641161255006,6.075428617127563,0.26013873817895034,0.19877305947349805,0.1014131885072585,0.03095045401139807,-0.34768202056961767,-0.4867133472734401,3.153621997506783,7.720683938704978,5.50697509502107,0.2549434150816253,-0.247539974848293,-0.09880508797437818,-0.38317401821251823,-0.2685986571190377,-0.5239626387918536,6.9271141222713135,4.454641104815111,5.277749177297643,0.06760780981406098,-0.3504301661670957,0.09604969101068186,-0.5157660534479449,-0.13540027499891344,-0.46665321296970647
4.213429837878541,4.499433688059155,8.198596623929806,1.452915313593641,-2.00238123117917,-0.3110958920260469,-0.4051830289815082,-0.2105402849504394,-0.43417468678212695,-0.9770780080667056,-6.507097028901214,7.486477462918217,0.3392245840289774,-0.13084489931627843,0.16006983365169142,-0.08060443375131691,0.6230292050425882,-0.3189618837614146,-1.6491973238245696,8.373007150586679,5.703827416577417,0.2904010766136918,0.12234973088192411,0.06792149799385669,0.031160573961988403,-0.3486486728991364,-0.47279607189784306,3.0892874382346354,7.578962561841781,5.528009392638489,0.24014917613727238,-0.22963277125083045,-0.12989863811546717,-0.38646432607444864,-0.26944266607750267,-0.5071329624416753,6.5797101872685815,4.464609620477648,5.350441257822992,0.06212726314121053,-0.3217525417619093,0.100019733534606,-0.5226781357254966,-0.13124328958072948,-0.4500844957344657
3.974078678340877,4.797349739015635,6.9304818366477265,0.6016647986066662,-1.926760314188701,0.07610428420961843,-0.42809541419701996,-0.22750299395058102,-0.40412392344552417,-1.0359034055302327,-7.228525031284204,6.7961581331606435,0.29961996609753966,-0.15557392363986283,0.08964361582403571,-0.07957975531899515,0.6134898041649974,-0.32026462356926344,-1.6162839348815126,7.581621134390145,6.437958526977912,0.3196482469338028,0.08754609254963948,0.05113089338586401,0.03257824967489257,-0.3589045208274556,-0.4693666788255584,2.8632503339856745,7.688677891134228,5.3665574374815606,0.2707268664054915,-0.21028436415667445,-0.2120738401582956,-0.3843485509721611,-0.2801929214314976,-0.5060711679509935,6.6271656625311115,4.372739932422744,5.430666082972707,0.08775105974379613,-0.3199498862178449,0.14357586714009007,-0.5227407649954114,-0.1390630542766033,-0.44423486261129325
4.968653946225466,4.806780659714535,7.195183215475017,0.40148461040536537,-1.9456378616127272,0.44683381836618574,-0.4418928232619613,-0.22792161864618796,-0.3726865028697373,-1.1214409860189098,-7.759669956853416,6.6710791382645445,0.25856644635362325,0.02833314070602733,-0.0850937245852554,-0.06786259325883028,0.6121587350024343,-0.3155843285849375,-1.8071731321503255,7.369960581710444,6.2783192913044985,0.30207959544084795,0.216240912387114,0.10767167096911869,0.03577492536730107,-0.35281352576557584,-0.4688757107270832,2.802232447255014,8.061734870959976,5.577964119495672,0.3007940892471984,-0.18265857977870684,-0.1484156336717068,-0.38337901732853413,-0.27601445853805845,-0.5007211053941605,6.990257813899673,4.339263760884892,5.375716034786033,0.13835178887563757,-0.324704849607747,0.032422604801611174,-0.5295626914606542,-0.13049573980932222,-0.44084471702127254
6.045479293248667,4.090910991904999,7.596667393484098,0.8557358995705998,-2.0193579217806907,0.4365835940489136,-0.4749785097214957,-0.23694022639259435,-0.3526230884340576,-1.0006771920499598,-6.9251371944868865,7.280230086601747,0.16940388527613556,0.001388364166592741,0.02904349357929952,-0.07732697598641047,0.6041051346176668,-0.32718572295925097,-1.7332677343450777,8.080562958265608,5.5316465270292765,0.2091612194452548,0.20124784751629596,0.06936692969442752,0.03185289200504589,-0.3608610034637596,-0.4759576766972494,3.0557247985725886,7.822711527485969,5.617918377992034,0.19994169432341022,-0.18313750379382596,-0.09467667172672674,-0.3906944695251564,-0.2796594626862218,-0.5058723628055899,6.997937509141568,4.6393103101644,5.2891939756308615,0.06054812293983104,-0.2747825987970233,-0.02677534113353614,-0.5334590338761962,-0.13608908460096175,-0.4464879692593605
5.620469616844128,4.292419118591444,6.292325540536478,1.1807604940355614,-2.0499586687614846,0.29362848195387614,-0.49543474328662274,-0.2444649961665061,-0.3134543414260335,-0.8265462626429054,-6.405485943565563,7.093198607369669,0.11134837512480884,-0.1628595438854333,0.19216936706846247,-0.0734429704305892,0.6073668478450304,-0.3230823535309896,-1.4993135635732697,8.092728152654601,5.473194092170209,0.13488324080450786,0.08479838238548017,-0.013798339605873901,0.031135317088830924,-0.3586627429174686,-0.47913501926773805,3.017945454466987,7.828812978137424,5.3799326820355375,0.08340119782135415,-0.216980053340263,-0.1123239760889009,-0.3943546050258069,-0.2793901646411291,-0.505898182948647,6.925403298357968,4.543615932346044,5.4247677340834395,-0.06273835093829579,-0.2200312196102409,-0.013471132557182589,-0.5397977754429844,-0.12947606666466988,-0.44358642516633817
5.724038298885842,4.4885378269481775,4.993512964786755,1.4809229741963574,-2.0520772069714153,0.4074061324990198,-0.5165651428040883,-0.2511449206014468,-0.28819917550347873,-0.5915245047945158,-6.197226159925808,7.187599261155411,0.13437416940888264,-0.0920264554229916,0.10543687546087967,-0.07002095307085072,0.609432673584604,-0.33190154936753624,-1.3017704540261106,7.638371150380161,5.689653177846055,0.1642912199946944,0.05340150602062115,0.004736733619751952,0.03672977961660287,-0.36136681297260803,-0.47448272315052303,3.2521942710752034,7.717341592510235,5.118167831572369,0.11502765964639604,-0.22007494079231285,-0.1210021939409896,-0.38315468759385496,-0.2796828090583417,-0.5014274860496686,7.0731018060162,4.3378337129957885,5.3074984389383975,-0.04570774397522313,-0.2391320446342269,-0.012550778890155259,-0.5327391154304303,-0.12902021656025495,-0.4393956180233797
6.786137167740514,5.64175032639832,4.726828116033437,2.154516865499103,-1.8033459093982465,0.7203937368720876,-0.5346090019797867,-0.2613942053551086,-0.2456241083504381,-0.23724257116040842,-6.767169294664192,6.803796373632321,0.28844894944807653,-0.11227799758545469,0.09080627790247539,-0.06512932622118675,0.6065806231510975,-0.328671255094814,-1.0104205127209709,7.69568015728708,5.644832191524529,0.2611339399448868,-0.009203006162080751,0.007314812946409947,0.03620609775995742,-0.36673032536494904,-0.4676434853910776,3.4395704671348537,7.35017138570119,4.833615260794985,0.16044755828935675,-0.23396697495059002,-0.16829531301986236,-0.38838739001254946,-0.2881453244445953,-0.494325781132199,6.9335339331650845,4.230713396772357,5.32002255104292,-0.029594192215030093,-0.263303443238079,0.03223827813502975,-0.5386503761760841,-0.13486282959987078,-0.4340641761671647
6.757474558661412,5.7101938348324435,4.475070319226651,2.559728935633061,-1.5706577529482137,0.8547104869430964,-0.5492032538511259,-0.265078450033594,-0.20200794741822212,-0.23276817126183713,-7.402245770110403,6.329326994564117,0.544716002182762,0.0021190311315773414,0.01703907764794163,-0.07075718685750919,0.6104019386584906,-0.33216303364608124,-0.8007793616239784,7.475159916228738,5.93854192325349,0.4865428719309719,-0.00400711496337379,0.08148791858816966,0.036420760872742715,-0.3659871985916666,-0.45275058468816415,3.5197305303454693,7.006075301267817,4.5243752253747775,0.3743797147788266,-0.20453950776225488,-0.2815247906996805,-0.3872962127708244,-0.2892530285724849,-0.4760005192297815,6.668728428774665,4.1944115227766225,5.150014604196506,0.17031622941149113,-0.3817726683759526,0.1944322582524754,-0.5435961401942463,-0.12900296802616631,-0.4187035716343452
6.382001307215504,5.938158625067896,5.205012700359947,2.0391932623950018,-1.257515678161807,0.8697974615260031,-0.5678333840430658,-0.26609720928086056,-0.18426684777283722,-0.6706389632798507,-7.013141540319758,5.999226266642253,0.6221914023876022,-0.01366703314199889,-0.15862154438172776,-0.07582376001078314,0.603492047206905,-0.3496361533907012,-1.10386874258355,7.651836489758934,5.938547595349783,0.6231696840474142,0.08735000389907224,0.1268211835935856,0.03763897621374742,-0.3743029768703289,-0.4664132421164637,3.4062385052315483,7.221624226479366,4.8352795578464995,0.5136808772857343,-0.19716160894289234,-0.36932811694211454,-0.3792372191850346,-0.2957030841467131,-0.48298537130219993,6.868533856020534,4.260196058477449,5.286205312924093,0.28374522153778575,-0.4697004264280567,0.35054635951864427,-0.5423325885685275,-0.12533973224111516,-0.4238193662815397
7.213387907555815,5.457894181381544,4.019168663548099,1.2345709343987568,-1.1864797090988852,0.6852279351160497,-0.5706641865176327,-0.27023750049260276,-0.15257024341161335,-0.784058660307637,-6.580243784555553,6.343043132997645,0.7915618660943678,-0.165198137676621,-0.1106645352874089,-0.07160983551611469,0.5926406807348367,-0.3572615529895489,-1.4160126243326991,7.916046161124293,5.051898325024936,0.7706317784532385,0.04550492873209329,0.154777880800474,0.0385382268715051,-0.38112390574857996,-0.44321270336210794,3.131308761969926,7.550253594391937,4.650301645293453,0.6242598865078618,-0.18817776750508775,-0.4597108208210817,-0.37575435001188534,-0.30218654285926394,-0.4626548821431714,6.806664198984471,4.024513902358296,5.140837641582536,0.3618020668470045,-0.527427385130268,0.4608644394709616,-0.5495267997029323,-0.12167719470844171,-0.4009056902129695
7.164446817058268,5.9281680592623776,2.8690987925311964,0.7127367205220559,-1.418740593833875,0.4094323423379831,-0.5870908324368239,-0.26328195603035726,-0.1257246237674471,-0.47853955062701115,-6.591977160055659,6.383068609750972,1.121881413342818,-0.2969389711621333,0.062270424593817125,-0.07572574840236174,0.589255148011938,-0.3686882686285682,-1.131836687945434,7.915487198059146,4.8308963122994575,0.9350444574785339,-0.04633619074867935,0.19936681384718055,0.0360271196920621,-0.39722550494924386,-0.43978705817987873,2.9088731887603108,7.70426229534311,4.436808180816805,0.7350286838493711,-0.1936130736504548,-0.5395767932475272,-0.37006277311561236,-0.31975918192520975,-0.4556653778909513,6.868588974941262,3.8748811173263125,5.07606218571171,0.41991648784290586,-0.5940331776043378,0.4983412255553135,-0.5578820105912815,-0.12336440959582982,-0.39216492600524805
6.872455488565732,5.4648438329041555,3.5801662681294806,1.0715978100312238,-1.3213906023256545,0.1911842740701461,-0.5928799088711302,-0.2773685437871383,-0.10022185636058975,-0.4034637300260872,-5.695866835875814,6.991531825109463,1.5713033981208824,-0.3433093810198096,0.11476625982649616,-0.08070280598400767,0.5661038754246974,-0.39370231926856386,-1.0697901026699246,7.899744079604939,4.593745539070725,0.9824861878296026,-0.08796142895614947,0.22280817019590413,0.027632441889505005,-0.4123160045112574,-0.4236789142594848,2.81850776809506,7.809209896496564,4.211646145453096,0.794724229924107,-0.21623309376230046,-0.572706997562907,-0.36999286986353075,-0.3328606076101274,-0.4428830203400952,7.075351900452745,3.9798158097952387,4.57977397989438,0.4291199267038779,-0.6560993698478582,0.5162463034530147,-0.5706565903713369,-0.12479479258636253,-0.3790533401384127
6.256231937386692,6.328473533980712,4.274451414235683,1.4795435230300715,-0.812349912994024,0.07867404584337542,-0.6034788576601579,-0.2811376016696422,-0.07954045797349063,-0.42523388483470975,-3.9452222271017328,7.699443652977065,1.5169589047480476,-0.382469877320759,0.06897887915765609,-0.0915914661727457,0.552742235246937,-0.41571664710418604,-1.073943442298921,8.28394324693401,4.3533002341476,0.9154450979846405,-0.17824994597793814,0.19185745583571723,0.022444456313581874,-0.423764819523038,-0.4161128176112756,2.669683763170258,8.324126951917323,4.202717542093177,0.7419341104732525,-0.24434089336506798,-0.5570688657417715,-0.3652774047677134,-0.3440353392520002,-0.4293498104598688,7.5110624003405455,3.9504912673385615,4.354435395308363,0.3567162375686006,-0.6630742061622168,0.49735169337526935,-0.5772947782002579,-0.12087648961234797,-0.36785546618163895
6.64402701696704,7.292636309849044,3.8355770718628985,1.017556241079957,-0.2661350128788329,-0.048364436399199115,-0.5986246077194438,-0.2802543172051227,-0.0709690312504873,-0.29578506277670574,-4.552512451086508,7.540280886117737,1.0985773878320382,-0.4184983152261347,-0.007090149435833708,-0.08861803611437839,0.5481329530916546,-0.42930847335016903,-0.959217040918217,8.256113976972744,4.466239043228698,0.9027021066777267,-0.22202660679998368,0.2193425052594221,0.012140836738785753,-0.4295737628761436,-0.4036793386621525,2.74706614340376,8.573962926361332,3.7611062202398893,0.7538695261188589,-0.2556895146397687,-0.53141455564522,-0.3624677203878253,-0.35204786572895425,-0.4195131206131001,7.798786437694702,3.994700153983017,4.075171625396686,0.3354955862441821,-0.6807043462998447,0.45666161840489045,-0.5878466408517653,-0.11377312604185198,-0.35325756466912434
7.197456801520521,7.737572269393127,3.325877184922873,0.059052560219400564,0.06400757598930927,-0.23939352779159856,-0.5911208772266902,-0.28742743893795253,-0.06415931221824195,-0.07642058775067562,-6.300347336606039,7.163250021738597,1.5883695256547221,-0.4112428644117997,-0.020860113944348706,-0.08849896775856654,0.5283391624132522,-0.44484799700137023,-0.7542284316830007,8.003105695321253,4.163448487853251,0.8621485496746378,-0.2222084216287096,0.2782311707882425,0.010876502928836457,-0.4368870149427037,-0.39635211843699386,2.5948728891474095,8.824377797389579,3.674932340341337,0.7894571283913916,-0.2542258823078993,-0.4874005134894587,-0.3542629428458718,-0.3593838497803073,-0.4125745734679588,8.21447876646117,3.943607450778044,3.9164535510953664,0.34838865272902586,-0.7167032018919435,0.4077214933266215,-0.5937369584199673,-0.1118055059616686,-0.3464518806354808
7.348094524134855,6.9556153215380085,2.918656431143457,-0.9526033823777219,0.2832263782541626,-0.47506821524761444,-0.5955042802338505,-0.29487249147040595,-0.07693143995272013,0.4378409237060959,-3.66906839667882,8.410235301414216,1.7149579777497064,-0.4411128792714316,0.04661862131707439,-0.1022854832901612,0.5072130265688614,-0.4630745424442522,-0.24442936083291777,8.992278612233914,3.99798827096445,0.8656720216593605,-0.25410525438706594,0.29459670573697916,0.00912231801038987,-0.4459105285308994,-0.39170957648289784,2.8494667916514387,8.550077400254693,3.335686910857882,0.7771866689779837,-0.30509017967003116,-0.43488762614129883,-0.34902576403993635,-0.36887395722067645,-0.40222317660932616,7.939247909970852,3.6570441209110864,3.676145906320655,0.28324485529819615,-0.7090451218760128,0.3511186553786827,-0.5959617569379733,-0.11058287109106672,-0.34060271953943755
7.20678184994473,6.965076703300658,2.5885655495844877,-1.174830669549898,0.5153921097876202,-0.6282304766426127,-0.5817657096822583,-0.2945705264111179,-0.09347643367595529,-0.03244043541714233,-4.0390426692263395,9.049837422566215,2.012916912673611,-0.5027189144411519,0.07046052828105798,-0.09873001405667363,0.486783124265816,-0.4883641215316499,-0.8506133901930261,9.022238704799909,3.9973529606618174,0.7753132437536191,-0.330392432636814,0.2405201798863657,-0.0001714202166058713,-0.4470902489334338,-0.38660169017446044,2.448581171931899,8.831153482861644,3.3586469697082317,0.7110924346992703,-0.31591657613589175,-0.4499471140367936,-0.34643079206402627,-0.3732277816666683,-0.3931440427223452,7.901932005506741,3.601120396448542,3.4090071529727695,0.2345041843960103,-0.7197224012799052,0.3484834321365209,-0.6033219592245991,-0.1027566268077521,-0.3286712899638236
6.871694130539342,7.207827890546992,3.378687624412923,-0.800072053465197,0.8062625607823166,-0.4093850347859873,-0.5866499532237961,-0.3037276670608639,-0.10553092359248495,-0.358911904004722,-3.9785243647621154,8.993766102793584,1.6336350637707175,-0.3274084916474599,-0.12582320454899434,-0.11300564701459337,0.46218127529492814,-0.4953016692154054,-1.065843973214159,8.539748732782591,4.405616350061495,0.8434242525469909,-0.2603482919840636,0.29009167964547056,-0.0066059940662503164,-0.46048016914015993,-0.3702466893113918,2.059347460432007,9.102746081891246,3.1971830885912356,0.7751554190813462,-0.2694765572810948,-0.44315803944388904,-0.341999072947127,-0.38608079069098983,-0.37520644545599935,8.12458296256134,3.54215979980405,3.242832511805718,0.29027209905239665,-0.7501857984249065,0.25782924108467853,-0.613956068644553,-0.10469614831281934,-0.30553924649214065
6.645070271492361,6.761881886145766,4.2034608532469075,-0.5925690343257375,1.0850262632775218,-0.21172302754844635,-0.5672587117962058,-0.298065408462325,-0.12445368836035585,-0.5360305333017144,-3.7229681830996837,8.86279447515205,1.3365662486355718,-0.14525250116949204,-0.36331470541837524,-0.10802635966066088,0.4477524012965435,-0.5126322683275454,-1.1770023200678439,8.552162675904976,3.597264905040883,0.7638799587938925,-0.1627338091864664,0.32494368057050144,-0.010801812716162578,-0.4641144966731224,-0.3560927706229084,1.7353318275673237,9.11094330444078,3.3974112054574053,0.7544886748157337,-0.23963433287300626,-0.35864281972082934,-0.33795637416315055,-0.38772186393738056,-0.3605204367694291,8.231394684326313,3.81083366878556,3.1206769606051763,0.30389159506296215,-0.7370499690880308,0.10854979688337302,-0.6171955966841911,-0.10201386109951188,-0.29188189501443
6.923816968642957,6.228610744231956,4.424593409840396,-0.8583593497154891,1.2721148743801651,-0.2962078500120126,-0.553996134627992,-0.3025671494334355,-0.15080456830934813,-0.31181904816492034,-3.027084118564766,9.444992270600569,1.5761486747805749,-0.23287006914387146,-0.2808012449302271,-0.10765410045491498,0.4255426817299491,-0.5266657020077596,-0.9914824820371565,9.431717015483379,3.163519115078766,0.5702713963616949,-0.2051454595813702,0.2424994675248405,-0.018864273771872858,-0.46359197723698636,-0.35220460766798795,1.7731172072567407,9.208910543874431,3.5528865042172937,0.5619011464231359,-0.2957962077757323,-0.26936296843824203,-0.3392376997013545,-0.39035746627528684,-0.3541632089001791,8.221622929213114,4.081326523441923,3.1492983771819167,0.12634499253178413,-0.6172270537671166,-0.001228538199797791,-0.6238220753417588,-0.10077669602478075,-0.2848371475257924
6.993361762750443,6.688947212442013,4.726946700868358,-1.3292734253131393,1.3322151221939063,-0.3653431978142603,-0.5535744194086246,-0.28651364262546425,-0.17436005863411475,-0.4298132968611008,-2.93226316453984,9.749489680439185,0.9590489426884716,-0.3359804729137138,-0.18848705109052358,-0.12424202852680295,0.4241616990382246,-0.5315536486202984,-1.068403216499928,9.536128015555333,3.575377276297749,0.5835871805356994,-0.20625787520590838,0.2069290514981813,-0.025478586056184555,-0.4655137594759158,-0.3453813243650803,1.7770247864070237,9.070572652563213,2.622466606511022,0.5380979646574204,-0.2945566518727321,-0.3022199285074822,-0.3385838469861862,-0.3932344678446448,-0.34535057117945217,7.714892621867903,3.7515847533206848,2.9633353885574594,0.1004794584400148,-0.5883043545468685,-0.039876127968922745,-0.6297222373158398,-0.09881035584981025,-0.27607848821081127
7.256723621257895,6.719635981328693,4.768529168721051,-1.513174083245899,1.3460291128198618,-0.30075505007116415,-0.5507854857993364,-0.29163755880061154,-0.20783746519963361,-0.023001190163282836,-3.872184320087988,9.56290733092263,0.7938708031102801,-0.2761039351578437,-0.23642022742860214,-0.1402079883114172,0.3979683498152476,-0.5455473332901501,-0.7072837079266304,9.637898251892972,3.2460042384325325,0.8206087278162828,-0.1344581959206044,0.3003822705612271,-0.03286470722322113,-0.4767082329471729,-0.336843181779765,1.6343596549701913,9.236954560344943,2.141801058251087,0.771671013828885,-0.20498019851985394,-0.43151748840117954,-0.33529759283611515,-0.4017292978286879,-0.33428651888369076,7.674297833767099,3.532469405655252,2.871393059249859,0.31791778194038306,-0.7199656908181337,-0.0862155193504893,-0.6352153238877563,-0.10906091248690589,-0.2612277072702976
7.072953767842344,5.557562261453639,5.236310402932497,-1.5451634811201094,1.3224014814383922,-0.30480366760642896,-0.5310467326690514,-0.2736907202199198,-0.23667301112511016,0.21195227404537909,-3.4411766790056184,9.715286795792279,1.0405742638967552,-0.2564817071335711,-0.19642294255400675,-0.13603464893042097,0.39589239173514046,-0.5540518832759322,-0.4713077272906574,10.036217615983139,3.0231254600446005,1.060230374806013,-0.08105419655381492,0.3833600045358365,-0.02777004471981528,-0.47524993865781673,-0.31925530809526237,1.9061585695393066,9.361723397076773,2.205271022924444,0.9814941043083962,-0.15163118202599576,-0.5543910318910819,-0.31637093793331794,-0.40174506189215947,-0.31658331525596495,7.988277478297764,3.6527674528312852,2.746626293294221,0.4812480360580714,-0.849642221156428,-0.14219630435992617,-0.6282314422115104,-0.10691314597294352,-0.2423881077858686
6.539525160588202,4.868768069777995,5.393005537511723,-1.4722061839676226,1.311613300266804,-0.43182382571219086,-0.5197445610574525,-0.2750580390641293,-0.2566588386796607,0.2161592081582126,-2.7701676072533017,9.97326709905876,1.1405434503233627,-0.40408605501270695,-0.025203799192707182,-0.14788216154284187,0.3716647622551116,-0.5539096873654298,-0.4714842819531267,10.136356109029526,2.8624654112619328,1.1865820798683318,-0.10924783192663631,0.3666408868166141,-0.040089581523623866,-0.49300804658117614,-0.2992484715156848,1.8249947268835738,9.46237171529099,2.240607047531137,1.048876773115309,-0.12079627267340182,-0.663008300714576,-0.31346283308341544,-0.4211677739725977,-0.2966593433220766,8.176640170946182,3.9520017235269562,2.3311016195040017,0.543146071637162,-0.9033755928530741,-0.14001206843867284,-0.6386598118217137,-0.12301008018772115,-0.22220046807345772
6.190591843349881,5.406896569731187,5.666743784529174,-1.2452562907492604,1.3049752396125243,-0.5026749273403521,-0.4996397532967894,-0.27765054366369,-0.28199169210773,0.19917069410141522,-2.2717079410205394,9.92652389593504,1.028303174867519,-0.5021684738878115,0.09632769101129234,-0.14606909178699534,0.3536573838112771,-0.5653257473530506,-0.5321065053536578,9.885363840647173,2.3314366100860857,1.159035945387753,-0.1188901703775394,0.3261330724423961,-0.03621846396108595,-0.49912204138119853,-0.29410813199359964,1.1387376334073196,9.915689954037136,2.1516704335826873,1.0080713591777393,-0.12903648637685383,-0.6884671553923698,-0.296940553278854,-0.42636583697318275,-0.28992425549030115,8.525068825587237,4.280276079998353,2.0257916749586036,0.5006517517571327,-0.8851956672815963,-0.1822686031421867,-0.6338617602252251,-0.12816953023493055,-0.21046064034525894
5.919378061107293,6.079089215422964,6.229204342621526,-0.6806880368615856,1.2748011112519049,-0.36688859345914415,-0.49050872629471975,-0.270256827186618,-0.2967912709039035,0.43314717969168687,-2.0589434845358703,9.627949741593763,1.018028134321249,-0.36279486313618403,0.02782798629786793,-0.157982918682102,0.34264754728753005,-0.563207735211018,-0.3409775747096431,9.037495002036458,2.250577285968236,1.0927715870908412,-0.05368660216402168,0.35731205633737917,-0.053374910526101285,-0.5061218128341564,-0.2760724814406496,1.0566439706535022,9.951958432437063,1.675245488238495,0.9733703318252191,-0.1509495985457828,-0.6107633313439254,-0.2971101681545169,-0.4335704390486618,-0.2718111035909779,8.771817061455678,4.1927186761946285,1.8282610538185802,0.45176785795168994,-0.8639764803595928,-0.3295407791354383,-0.6488881830070093,-0.13399536902926687,-0.1905315753715708
5.614145920248377,5.807613889672873,6.324271588803191,-0.45199034611168115,1.2786280080986796,-0.24937956710293116,-0.48087449215646344,-0.26814947149033086,-0.32286070441402376,0.6511331042714925,-2.0215429930481443,9.894044911218401,1.021940309619332,-0.22525394418352723,-0.06949268936304064,-0.16522439107767026,0.32923118163616155,-0.5749596731045317,-0.04207914300871261,9.480754647215443,2.124770287051147,0.9985093274008862,0.003160100198751647,0.35757823225996815,-0.04513048652101722,-0.5171348849222093,-0.26969871316687744,1.280906907203376,9.611379771762463,1.7890042279648253,0.9090449145092953,-0.1702832057556784,-0.5116131879734507,-0.2811082746990403,-0.44119153178724496,-0.26286636964806537,8.553715235189769,4.383035035207865,1.5628460954450567,0.4001969257625441,-0.8366978647473067,-0.4338681273065658,-0.6382737874470569,-0.15162717936463704,-0.17974999069238776
5.441820953690638,5.607989836864266,6.43913750425743,-0.7421344685755327,1.2349118079315111,-0.31551183604650795,-0.46348862189210427,-0.2739361092948823,-0.3438341521532441,0.6574963172930117,-1.2472661612223488,10.312392089866531,0.9435734686000817,-0.28797473741571067,0.005494934882492321,-0.16510333383772607,0.30732558453229103,-0.5853360966534986,-0.06935904924156829,10.09878574247521,1.670124732965394,0.8557659068691569,-0.001353263170166471,0.26398216668025504,-0.04786289727475789,-0.5195515469638049,-0.2526126120010306,1.2267185764432278,9.626701248177456,1.6721052158009344,0.7525835492114281,-0.23029230332415535,-0.4837263190896119,-0.27223220130439874,-0.44355586799879065,-0.24155155582359789,8.331074961959825,4.525878913169876,1.403237306962499,0.24914248209617218,-0.7391439301268179,-0.4410266072921681,-0.6364538532039704,-0.15556543383582977,-0.15850412907015718
5.185796146855383,6.383473516158498,6.927364311209131,-1.1884863559536547,1.2768941942073397,-0.3082071236240179,-0.44843673270620044,-0.25292201258159946,-0.35606154914770144,0.7521290364886652,-1.01016002878546,10.124331930022779,0.7237903032315822,-0.33487490456837404,0.06321473810162151,-0.16659675582499778,0.3103953207657492,-0.5765997326372201,-0.03430456412110863,9.900099773064877,1.5544073673610221,0.7930419355820405,-0.03201738212022899,0.20530133661634553,-0.0591424065555323,-0.525602085623951,-0.24066904731928662,1.0815834015477113,9.846411425608476,1.2606029758953932,0.6650757820664347,-0.26437700694714195,-0.4991172076029748,-0.27207953206326774,-0.4473990134312481,-0.231758800680749,8.485220199828353,4.415830583429703,1.1469931517357836,0.16837377353584518,-0.6803692720718139,-0.4656091488209505,-0.6463528595586961,-0.17068057973635248,-0.14490451085511122
4.58737846299514,6.179677454180063,7.457511142737365,-1.651531098382481,1.3011463840340851,-0.048175518384136834,-0.4367755541411176,-0.24053124710520843,-0.38716961675696204,0.7418002740652291,-0.8673515773419708,9.938882054568218,0.7662881601492834,-0.23746806394590253,-0.05209968048664976,-0.17795132836139016,0.2896147723809863,-0.5894562907825533,0.03955265157251823,9.691410594888405,1.631703486481027,0.792659577810137,-0.0343425891964683,0.22438644753000994,-0.06406568169705541,-0.5299683312958479,-0.22993411603802072,1.0849060732601148,10.043213461041484,0.9671130729751776,0.6642299131517735,-0.26186734878999735,-0.47747236706964014,-0.2726809067725937,-0.45023218565185585,-0.21758346549503435,8.771475058619547,4.304333086480117,0.7773833045909726,0.1705318798042255,-0.64861413341746,-0.552557554047137,-0.6449899994425696,-0.17583025580628056,-0.13025470615748194
4.19013471208423,5.281456181172054,7.72041391566892,-2.090568159034467,1.3916454159482703,0.19139607162740754,-0.41694302784928877,-0.2059726859380708,-0.41733872081958084,0.5171192148184887,-1.266500389642055,9.957989298880122,0.7389024076579536,-0.20422010691448225,-0.20399218597563185,-0.17866087909070016,0.28774716735196587,-0.5987044953768578,-0.08707385967379198,9.791854486446299,1.6927835141520615,0.7115616948848157,-0.0022609642439094272,0.2114221284027203,-0.05528319836617005,-0.5273112214366723,-0.22210427129249782,1.0617515661001966,10.03431982116588,0.9134422558494395,0.6016119459614901,-0.2302634845179972,-0.4119331656094943,-0.2539123880017528,-0.4481191587219096,-0.2106377962442052,8.691407745279191,4.0637179214134385,0.548632459660528,0.17382659148249738,-0.6109452788717763,-0.6875715280986151,-0.6309176265508611,-0.18614903584531398,-0.12139942198910243
4.379410837584819,4.163200096403911,8.174896681015982,-2.4768223861370777,1.4652002230512777,0.2844008256048507,-0.3971792481026048,-0.17468932378911795,-0.43459525479318134,0.6611820359663002,-1.0801325723973085,9.875712409048514,0.70726068565258,-0.26103970278682703,-0.24216228185497274,-0.18054014785494168,0.2711914997562248,-0.5952558567510993,-0.05739800807742228,9.9737158876655,1.2437779109224147,0.5954177701526874,0.008392757225702057,0.16209135940744052,-0.06533343563542103,-0.5341030579041807,-0.21577246363351288,0.8640071740521603,9.932389162043162,0.9722305495256511,0.49953593000265684,-0.20880045533803163,-0.36148799290296124,-0.2547475211410267,-0.4551406702391668,-0.2025396565409949,8.38678008360957,4.3232550262876694,0.5022850791714061,0.14342224950072854,-0.5383278697178554,-0.8398672376883066,-0.6344796110992103,-0.20665734317409878,-0.10972392004762542
4.557681546796779,3.0293025046687423,8.773318983308645,-2.1887673116081947,1.4370258100715763,0.21242939388080423,-0.38033836176574615,-0.14240974689386698,-0.4523425517381414,1.038186896037385,-0.3791632433645204,10.020706348987757,0.6703727098458413,-0.23137357520037655,-0.09151264939307166,-0.1853925020049254,0.2648180248524418,-0.5954011524977132,0.019878396902373446,9.819185463424484,0.45869518430420025,0.5993239194799775,-0.022206383174567242,0.17493465918582757,-0.06755099193705316,-0.535308555664058,-0.20845225843146956,0.534012920702725,9.873548143299223,0.2974483228898839,0.5007268702251287,-0.19218301732954152,-0.3614936868019416,-0.25089871924358026,-0.45584754619983536,-0.19445336416868722,7.906034143382056,4.776183791999005,0.38858571830702543,0.15395396450404128,-0.507822242415605,-0.9645151938287313,-0.6284851182285863,-0.22426727585559375,-0.10238702730087937
