# sampling frequency: 40
# units are seconds/meters/radians/a.u.
seg1_acc_x,seg1_acc_y,seg1_acc_z,seg1_gyr_x,seg1_gyr_y,seg1_gyr_z,seg1_mag_x,seg1_mag_y,seg1_mag_z,seg2_acc_x,seg2_acc_y,seg2_acc_z,seg2_gyr_x,seg2_gyr_y,seg2_gyr_z,seg2_mag_x,seg2_mag_y,seg2_mag_z,seg3_acc_x,seg3_acc_y,seg3_acc_z,seg3_gyr_x,seg3_gyr_y,seg3_gyr_z,seg3_mag_x,seg3_mag_y,seg3_mag_z,seg4_acc_x,seg4_acc_y,seg4_acc_z,seg4_gyr_x,seg4_gyr_y,seg4_gyr_z,seg4_mag_x,seg4_mag_y,seg4_mag_z,seg5_acc_x,seg5_acc_y,seg5_acc_z,seg5_gyr_x,seg5_gyr_y,seg5_gyr_z,seg5_mag_x,seg5_mag_y,seg5_mag_z
-1.090787,-0.070505,9.757657,0.048464,0.0314,-7.5e-05,0.196777,0.386963,-0.584229,0.035612,2.082885,9.374296,-0.159453,0.046595,0.057071,-0.107178,0.034424,-0.67041,-0.041326,7.47755,6.600571,0.133621,0.008463,-0.004361,-0.094238,-0.383789,-0.567627,0.085076,7.317114,6.430155,-0.160656,-0.108122,0.004855,-0.090332,-0.45752,-0.515869,0.667721,6.85236,6.851489,-0.281684,0.021436,0.073438,-0.037842,-0.420654,-0.579346
-1.292882,0.113104,10.061214,0.014099,-0.081693,0.035789,0.194336,0.392578,-0.585693,-0.147569,2.785834,9.786445,0.337991,-0.086472,-0.124831,-0.10498,0.027344,-0.673828,-0.584479,7.47605,6.567766,-0.085207,0.094576,-0.06581,-0.0979,-0.384033,-0.566895,0.425374,6.868522,6.153252,-0.027372,-0.00733,-0.037368,-0.092529,-0.453613,-0.510254,0.39047,6.231256,6.637527,0.021025,0.012346,0.124324,-0.04126,-0.421387,-0.578369
-1.372523,-0.249861,10.01082,0.032158,-0.058916,0.055452,0.185059,0.392578,-0.593018,0.097951,3.50871,9.826887,-0.095695,0.106129,0.011412,-0.11499,0.033203,-0.681152,-0.460738,7.036582,6.560093,-0.061639,-0.006967,-0.006814,-0.097168,-0.381836,-0.566895,-0.105399,7.312339,6.474865,0.190963,0.057869,-0.013585,-0.0896,-0.458252,-0.508301,0.484076,7.075914,6.864895,0.307625,-0.040569,0.038385,-0.041748,-0.428467,-0.574219
-1.060091,0.074493,9.873327,0.088426,-0.170313,0.083882,0.183594,0.383057,-0.591797,-0.443814,2.212076,9.366664,-0.277621,-0.01913,-0.103031,-0.114502,0.030518,-0.678467,-0.478903,7.152811,6.56004,0.078706,0.078448,-0.111236,-0.082031,-0.379883,-0.573486,-0.033643,7.66677,6.447407,-0.016726,-0.163951,-0.045315,-0.083008,-0.453857,-0.516602,0.594,7.608928,6.893496,-0.042159,-0.028908,0.179741,-0.035156,-0.421387,-0.581055
-1.054114,-0.002098,9.86519,0.047445,-0.03869,0.079036,0.190918,0.393311,-0.602051,0.156564,2.217774,9.343518,0.150847,0.046862,-0.02722,-0.107178,0.037598,-0.689209,-0.566836,7.616351,6.672773,0.026206,0.057676,-0.069308,-0.093994,-0.385498,-0.570801,0.477803,7.44552,6.265889,-0.067785,-0.053138,-0.054835,-0.096924,-0.461182,-0.515381,0.555018,6.877077,6.636118,-0.22225,-0.000474,0.144469,-0.048096,-0.425781,-0.583252
-1.004046,0.191564,9.940466,-0.044964,-0.091607,0.070379,0.188965,0.394531,-0.5896,-0.245312,2.739705,9.629175,0.044364,0.03217,-0.055919,-0.106934,0.03833,-0.675049,-0.392854,7.11074,6.49441,-0.103271,0.02703,-0.013021,-0.08374,-0.381836,-0.576904,0.093383,7.435417,6.397197,0.113432,0.021998,-0.007359,-0.083984,-0.459229,-0.518555,0.637402,6.602342,6.661032,0.137722,-0.055605,0.079251,-0.040771,-0.423828,-0.584961
-1.184118,-0.380636,9.81379,-0.057891,-0.051667,0.053405,0.179443,0.390625,-0.599121,0.019875,2.530295,9.460865,-0.017637,0.058698,0.014648,-0.113525,0.031982,-0.686035,-0.596461,7.094432,6.672576,0.213061,0.107338,-0.077273,-0.087891,-0.391113,-0.557373,0.117183,7.725663,6.566071,0.150957,-0.098303,-0.032123,-0.092041,-0.470459,-0.497559,0.726425,7.2583,6.783098,0.268806,-0.021237,-0.019657,-0.044922,-0.436035,-0.564941
-0.982053,0.073777,9.742612,0.123395,-0.097843,0.074102,0.188232,0.387939,-0.587158,-0.381768,2.607419,9.354145,0.057285,0.05067,-0.030299,-0.104736,0.032715,-0.673584,-0.624695,7.700684,6.566999,0.091478,0.00553,-0.047973,-0.092041,-0.385254,-0.572021,0.331117,7.730915,6.342662,-0.01679,-0.015334,-0.013196,-0.093994,-0.460693,-0.514648,0.560438,7.534772,6.694674,0.023537,-0.011427,0.025397,-0.050537,-0.428467,-0.580078
-0.771917,0.126625,9.709533,-0.016258,-0.084231,0.069547,0.186279,0.390625,-0.584473,0.259202,2.887951,9.479659,-0.139413,0.014532,-0.039762,-0.104004,0.034424,-0.671631,-0.289569,7.538046,6.657017,-0.242115,-0.000888,-0.009788,-0.085205,-0.384033,-0.574707,0.218052,7.673398,6.271564,-0.14881,-0.043132,-0.004026,-0.092529,-0.458984,-0.513916,0.873631,7.357594,6.781785,-0.212826,-0.100713,0.002304,-0.049316,-0.424316,-0.580811
-0.883664,-0.081148,9.828024,-0.024799,-0.037482,0.080991,0.183594,0.390381,-0.5896,-0.276129,2.103056,9.390918,-0.21321,0.08425,0.027267,-0.107178,0.040039,-0.675537,-0.390559,6.761634,6.462648,-0.15823,0.108859,-0.018946,-0.083252,-0.378662,-0.568848,0.363935,7.278825,6.422579,-0.17438,-0.052815,-0.010536,-0.091553,-0.45459,-0.508301,0.836702,6.746058,6.67534,-0.174048,0.033567,0.021683,-0.046387,-0.417725,-0.575195
-0.971201,-0.255019,9.918656,0.096225,-0.050031,0.061247,0.186768,0.385498,-0.593018,0.047283,2.246022,9.428955,0.101895,0.013814,-0.054213,-0.101562,0.032227,-0.678955,-0.673276,7.145459,6.594867,0.138347,0.045541,-0.062726,-0.076416,-0.389404,-0.572998,0.255698,7.25869,6.38305,0.05396,0.003985,0.017385,-0.086182,-0.459961,-0.514648,0.521225,6.836844,6.70616,0.066856,-0.063605,-0.055673,-0.040771,-0.427979,-0.58252
-0.799788,0.473161,10.017442,0.180826,-0.013972,0.017793,0.182861,0.384277,-0.593262,-0.282373,2.462185,9.298049,-0.027925,0.113174,0.070893,-0.103027,0.035645,-0.679688,-0.465856,7.508746,6.710014,0.004023,0.032178,0.010693,-0.087646,-0.383545,-0.569336,0.16858,7.663128,6.451725,0.13538,-0.04094,0.006916,-0.098389,-0.45752,-0.51001,0.878862,7.157051,6.679912,0.107142,-0.063164,-0.057289,-0.055176,-0.427002,-0.577393
-0.679517,0.757907,10.070383,-0.124104,0.077735,-0.054108,0.188721,0.398682,-0.591797,-0.134957,2.123631,9.285023,-0.06372,-0.065406,-0.011429,-0.100098,0.047852,-0.680176,-0.446176,6.933249,6.7554,-0.173419,0.026534,0.029154,-0.084961,-0.385986,-0.563965,0.467816,7.638365,6.571573,-0.112677,-0.080688,0.035696,-0.095947,-0.463379,-0.502441,0.761728,7.264979,6.803512,-0.018347,-0.030579,-0.106666,-0.050293,-0.428955,-0.570557
-1.004075,-0.020153,9.819195,-0.348665,0.147616,-0.067939,0.184814,0.389648,-0.583252,0.098006,2.341447,9.504812,0.141361,0.086656,0.052099,-0.104736,0.031982,-0.671875,-0.472279,6.772899,6.54835,0.129659,0.084848,-0.001676,-0.082275,-0.381348,-0.564697,0.443058,6.941124,6.520402,-0.185413,0.043468,0.022789,-0.093506,-0.453857,-0.504395,0.888246,6.85347,6.769382,-0.126536,-0.046616,-0.023642,-0.049805,-0.422607,-0.572754
-1.11126,-0.682587,9.598699,-0.139519,0.016211,-0.050555,0.190186,0.401855,-0.582031,-0.19679,3.129049,9.77007,0.134622,0.025556,-0.011118,-0.098877,0.038574,-0.673584,-0.705028,7.707318,6.819942,0.15603,0.014905,-0.070143,-0.084717,-0.385498,-0.570312,0.183921,6.940487,6.674119,0.120513,-0.003011,-0.000958,-0.098145,-0.457031,-0.510986,0.8736,6.735552,6.828184,0.047579,0.006598,0.018511,-0.052734,-0.426514,-0.575439
-1.041521,-0.15287,9.568554,0.184046,-0.011215,0.013863,0.182129,0.391846,-0.594727,-0.037529,3.094926,9.481459,-0.084091,0.104986,0.034782,-0.107422,0.036133,-0.684082,-0.608838,7.483281,6.583754,-0.137301,-0.025866,0.01559,-0.07959,-0.38501,-0.568604,0.268412,7.430899,6.474194,0.099876,-0.02795,-0.03491,-0.09082,-0.460938,-0.509277,0.68154,6.986203,6.75049,0.056757,0.050209,0.090402,-0.045898,-0.429443,-0.574219
-1.058264,0.538613,9.730131,0.03736,-0.057907,0.080178,0.185059,0.389648,-0.589844,-0.548924,2.817759,9.322813,-0.030988,0.055223,-0.027646,-0.099854,0.033203,-0.678467,-0.708834,6.999581,6.440517,-0.035209,0.020751,-0.088601,-0.079102,-0.379395,-0.571045,0.093114,7.458027,6.339108,-0.044901,0.04547,-0.07,-0.09082,-0.453369,-0.51123,0.521394,7.106435,6.679763,0.053322,0.010648,0.171359,-0.047119,-0.419922,-0.57959
-1.039034,0.07737,9.591323,-0.102626,-0.071982,0.127428,0.189209,0.400391,-0.591797,-0.200661,2.79491,9.262134,-0.03622,0.038212,-0.06802,-0.096436,0.039551,-0.68042,-0.804135,7.234216,6.625713,0.099644,-0.000124,-0.062462,-0.08252,-0.391357,-0.570068,-0.032464,7.443619,6.415686,0.036008,-0.043876,-0.032564,-0.093018,-0.466309,-0.511475,0.671876,7.269328,6.672614,0.016292,-0.000899,0.125243,-0.052734,-0.433838,-0.578857
-0.929007,-0.208459,9.572622,-0.006175,-0.039542,0.127856,0.181396,0.38623,-0.595215,-0.438699,2.390272,9.29408,-0.103432,0.021934,-0.022132,-0.097656,0.029785,-0.685547,-0.697854,7.600324,6.537562,0.053348,-0.046477,-0.056914,-0.077881,-0.390381,-0.571045,0.315969,7.666159,6.389313,0.086212,-0.049624,-0.057971,-0.091553,-0.466309,-0.51416,0.785007,6.988474,6.653871,-0.092349,0.038404,0.145806,-0.052002,-0.426514,-0.581543
-1.147975,0.099199,9.699112,0.044544,-0.040805,0.094807,0.182617,0.393066,-0.591553,-0.092078,2.2878,9.383416,0.055365,0.003362,-0.016504,-0.101074,0.032227,-0.682617,-0.628617,7.285748,6.559973,-0.078727,-0.021234,-0.014741,-0.080566,-0.390869,-0.572998,0.231831,7.78584,6.30375,0.04781,0.080491,-0.040522,-0.090332,-0.467285,-0.512207,0.63666,6.85445,6.497032,0.117367,0.041834,0.029223,-0.051514,-0.431396,-0.580078
-0.914046,-0.092577,9.401812,-0.057714,-0.096227,0.049729,0.185547,0.396484,-0.591309,-0.398192,2.537396,9.299651,-0.018884,0.060756,0.007558,-0.095703,0.036621,-0.684082,-0.637443,7.001734,6.57272,-0.013098,-0.062695,-0.002459,-0.078125,-0.38916,-0.570068,0.039971,7.754388,6.363294,-0.069924,0.009304,-0.00405,-0.084961,-0.462891,-0.505859,0.769643,7.438099,6.707404,0.124391,-0.007731,-0.048695,-0.044678,-0.427734,-0.574219
-0.71786,-0.331301,9.275339,0.090556,-0.048309,0.06362,0.181152,0.398926,-0.592285,-0.183756,2.401484,9.142976,-0.087976,-0.060934,-0.002927,-0.102295,0.044434,-0.679688,-0.44431,7.352219,6.490873,0.052382,-0.022578,-0.029176,-0.081543,-0.383057,-0.567871,0.382813,7.35372,6.346572,-0.195161,-0.012859,-0.019014,-0.088867,-0.457031,-0.50708,0.941283,7.244487,6.782873,-0.252992,0.033287,-0.021553,-0.049561,-0.421631,-0.572021
-0.932323,-0.02137,9.718583,0.139788,-0.054502,0.084145,0.180908,0.37915,-0.587402,-0.00212,2.442716,9.452536,0.082959,0.025788,0.051282,-0.100586,0.023682,-0.677002,-0.600876,7.307352,6.367577,-0.054606,-0.019124,0.001105,-0.078369,-0.386475,-0.566406,0.259484,6.898842,6.187153,-0.049173,0.103224,-0.027011,-0.084229,-0.458008,-0.508545,0.722723,6.197984,6.57717,-0.193425,0.06915,0.007901,-0.044678,-0.420166,-0.577393
-1.207589,-0.041503,9.917908,0.165694,-0.141144,0.114864,0.182861,0.382568,-0.591309,-0.446458,2.92896,9.586114,0.207222,0.039132,0.015104,-0.095459,0.024658,-0.677734,-0.777894,6.953896,6.6306,0.095846,-0.00248,-0.028575,-0.078857,-0.382568,-0.5625,-0.195805,7.146562,6.588474,0.291967,0.050718,-0.043911,-0.083984,-0.461426,-0.505615,0.483324,6.491964,6.709774,0.436201,0.008426,-0.056786,-0.043701,-0.426758,-0.571533
-0.555236,0.408827,9.879202,0.257516,-0.152258,0.123086,0.182129,0.377686,-0.590088,-0.213618,2.936331,9.362354,-0.09853,0.022421,0.00226,-0.094482,0.0271,-0.678223,-0.651751,7.362453,6.659421,0.174745,-0.084088,-0.037921,-0.078857,-0.391602,-0.565186,0.183388,7.953733,6.476125,0.234034,-0.091183,-0.027872,-0.086426,-0.469482,-0.506348,0.884974,7.948887,6.96629,0.343234,-0.041431,-0.04377,-0.045654,-0.43457,-0.569336
-0.584138,0.805289,9.991968,0.122552,-0.048371,0.092952,0.17749,0.378418,-0.590576,-0.441762,2.053537,9.112505,-0.107928,-0.065233,-0.001397,-0.098633,0.034912,-0.675293,-0.422264,7.46584,6.800441,-0.052512,-0.088064,0.011172,-0.085938,-0.392578,-0.567139,0.458247,7.974621,6.495363,-0.111093,0.035163,-0.019526,-0.090576,-0.469482,-0.506348,0.905469,7.688671,6.895333,-0.24086,0.032819,-0.019045,-0.05127,-0.4375,-0.57373
-0.741307,0.436477,10.023795,-0.099813,0.10289,0.059324,0.185059,0.37793,-0.598877,0.195802,2.045516,9.465236,0.074006,-0.002789,-0.054949,-0.096924,0.027344,-0.685791,-0.402129,6.671056,6.535964,-0.114059,0.033152,0.042103,-0.079346,-0.387451,-0.571777,0.05462,6.947126,6.323122,-0.284528,0.117259,0.010421,-0.082764,-0.461914,-0.510498,0.695301,6.555232,6.627842,-0.202727,0.071098,-0.003914,-0.043457,-0.427979,-0.577881
-1.344833,-0.096529,9.863977,-0.178418,-0.035195,-0.0502,0.177734,0.392822,-0.59082,-0.719693,2.589142,9.820999,0.114875,0.026627,0.045274,-0.099609,0.037842,-0.676025,-0.955215,7.224671,6.566316,0.2898,-0.0195,-0.06774,-0.087402,-0.388672,-0.568359,-0.119081,7.052199,6.364848,0.31686,-0.015496,-0.005845,-0.088867,-0.464355,-0.510254,0.549276,6.815464,6.734127,0.314896,-0.01043,-0.02853,-0.04834,-0.432129,-0.576904
-0.821158,-0.30914,9.652912,0.060593,0.044326,-0.033366,0.181641,0.375977,-0.592529,-0.065672,2.236261,9.16483,-0.006056,-0.034049,0.032844,-0.096191,0.02002,-0.68042,-0.499041,7.638552,6.686129,0.052534,-0.08113,0.079215,-0.083496,-0.395752,-0.566895,0.078944,8.029345,6.419703,0.306824,-0.019041,0.03366,-0.085205,-0.474365,-0.506348,0.598692,7.720191,6.759146,0.258687,-0.003938,-0.058623,-0.044922,-0.440186,-0.573486
-0.962001,0.190491,9.639442,0.065136,-0.030071,-0.061802,0.172852,0.385254,-0.589111,-0.606158,2.644105,9.478844,0.16175,0.034196,0.031988,-0.103271,0.029297,-0.675537,-0.73573,7.281503,6.458351,-0.039994,0.046535,0.00169,-0.09082,-0.395996,-0.561035,-0.02295,8.083133,6.340174,-0.166699,0.044646,0.023826,-0.093506,-0.473389,-0.503418,0.571751,7.646541,6.760016,-0.142801,0.00253,-0.002314,-0.050781,-0.438477,-0.568604
-1.17533,-0.214969,9.656191,0.031697,0.031028,-0.026215,0.174805,0.380615,-0.595947,-0.195631,3.005453,9.51455,-0.024986,-0.059244,0.052968,-0.104492,0.02417,-0.68335,-0.784478,7.286791,6.353802,0.054217,-0.03875,0.029274,-0.078125,-0.389648,-0.56543,-0.116623,7.110001,6.148401,-0.221295,0.026828,0.013937,-0.080811,-0.463379,-0.506348,0.532513,6.867004,6.554516,-0.146201,0.020738,0.008098,-0.040039,-0.429199,-0.573486
-0.658885,0.359327,9.851744,0.259716,-0.098737,0.000827,0.171387,0.385498,-0.598145,-0.226015,2.50793,9.252753,-0.025911,0.025192,0.063302,-0.107666,0.036865,-0.681641,-0.514364,7.390827,6.508021,0.032466,-0.055186,0.034425,-0.089111,-0.394287,-0.56665,0.045848,7.10443,6.248272,0.215002,-0.067507,0.04365,-0.088379,-0.470947,-0.507324,0.569198,6.858761,6.60206,0.175047,-0.058386,-0.015866,-0.050049,-0.436279,-0.57373
-0.798035,0.775032,9.93391,0.069188,0.03264,-0.016673,0.173096,0.372803,-0.594482,-0.289635,2.709093,9.237057,0.16261,-0.012461,-0.001074,-0.105225,0.022217,-0.679688,-0.506801,7.062348,6.384412,-0.00012,0.037369,0.023352,-0.080811,-0.39209,-0.571777,0.251153,7.673804,6.372158,0.144733,-0.003482,0.024422,-0.081055,-0.470459,-0.510986,0.857787,7.298607,6.730071,0.129049,-0.005175,0.012875,-0.039795,-0.436035,-0.576416
-0.781661,0.384216,9.872863,-0.109225,0.003209,0.01993,0.18042,0.379883,-0.588623,-0.216193,2.974847,9.366595,0.065554,-0.024588,0.039108,-0.099854,0.023926,-0.673584,-0.783393,7.322357,6.348371,0.217218,-0.038891,-0.009868,-0.089111,-0.398438,-0.570068,-0.054165,7.483927,6.331085,-0.069772,0.044663,0.007467,-0.087402,-0.472656,-0.513672,0.538284,7.131346,6.832995,-0.03737,0.030986,0.095829,-0.047607,-0.437988,-0.581787
-0.913984,-0.1096,9.780988,0.014394,0.05656,-0.003468,0.172363,0.376709,-0.593506,-0.161749,2.657822,9.380645,0.04269,0.002623,0.027705,-0.10791,0.022949,-0.678467,-0.343145,7.530254,6.408805,0.029303,-0.036512,0.003826,-0.092773,-0.393066,-0.55957,-0.044801,7.063469,6.15743,0.065769,-0.080802,-0.001664,-0.092285,-0.469482,-0.499023,0.628124,6.907196,6.787137,0.152303,-0.062931,0.096684,-0.052734,-0.437988,-0.568115
-0.986197,0.325498,10.001786,0.109682,0.004445,0.0591,0.179199,0.377441,-0.595947,-0.461663,2.59187,9.58876,0.043572,0.021506,-0.02358,-0.102539,0.022461,-0.681885,-0.710198,6.800115,6.432736,-0.102357,0.059294,0.031044,-0.085205,-0.386963,-0.569092,-0.010589,7.351479,6.148866,0.160745,-0.066328,0.041766,-0.083984,-0.467773,-0.506592,0.540315,7.470544,6.946808,0.218259,-0.034673,0.134019,-0.047119,-0.434326,-0.57373
-1.122092,0.316742,9.924316,-0.166749,0.037934,-0.003259,0.18457,0.385498,-0.591064,-0.060948,2.474884,9.640602,-0.008292,-0.013061,-0.015776,-0.097168,0.0271,-0.677002,-0.503304,7.055642,6.164964,0.254646,0.008839,-0.056294,-0.098389,-0.394531,-0.562988,-0.109659,7.575804,6.242797,0.021847,-0.143169,0.035176,-0.100586,-0.470215,-0.504883,0.63221,7.541421,7.049243,-0.082525,-0.146408,0.224344,-0.067627,-0.436768,-0.572754
-1.084964,-0.761467,9.555095,-0.144401,-0.081885,-0.041456,0.172607,0.38623,-0.596191,-0.158349,2.526782,9.653677,0.103739,0.11741,0.065136,-0.104004,0.023193,-0.678223,-0.553205,8.067072,6.386846,0.115416,0.127682,-0.06268,-0.085693,-0.406738,-0.556885,0.09596,7.37893,6.114518,-0.050802,-0.212378,0.011527,-0.0979,-0.475586,-0.497559,0.813907,6.852188,6.71336,-0.144138,-0.115985,0.299184,-0.060791,-0.438721,-0.564697
-0.963433,-0.254033,9.726786,0.308502,-0.148915,0.037476,0.18335,0.371094,-0.59668,-0.196861,3.050728,9.599541,0.25504,0.094435,0.03879,-0.092529,0.009033,-0.682129,-0.704649,7.367698,6.27028,-0.137192,0.067266,-0.011823,-0.07666,-0.395508,-0.556885,0.159267,7.237985,6.132154,0.136029,-0.186584,0.009774,-0.090332,-0.475098,-0.5,0.732732,6.948056,6.60596,0.306443,-0.160765,0.298509,-0.061279,-0.435791,-0.566162
-0.737094,0.800858,9.930235,0.281007,-0.194171,0.060979,0.166504,0.366455,-0.599365,-0.326491,3.421424,9.423427,0.137956,0.171554,0.048387,-0.100098,0.010742,-0.686035,-0.611726,7.015716,6.199261,0.229197,0.10166,-0.076539,-0.086182,-0.399414,-0.554932,0.014345,7.669253,6.103932,0.276985,-0.221532,5.2e-05,-0.106201,-0.476807,-0.493408,0.953714,7.870628,6.661747,0.307092,-0.204637,0.412073,-0.078369,-0.441162,-0.560547
-0.735684,0.939195,9.797651,-0.136465,-0.198587,0.151157,0.173096,0.371826,-0.595459,-0.442701,3.137122,9.331625,0.081677,0.091091,-0.021462,-0.092285,0.010498,-0.678467,-0.761916,7.901773,6.336454,0.306437,0.143971,-0.120118,-0.075928,-0.399902,-0.553223,0.195485,8.044948,6.086398,0.168479,-0.287886,0.009895,-0.099609,-0.477539,-0.494385,1.102223,7.778872,6.496451,-0.044712,-0.152952,0.443796,-0.078125,-0.435791,-0.563232
-0.763016,-0.467893,9.371179,-0.166709,-0.216788,0.191764,0.167969,0.377441,-0.593994,-0.389565,3.627763,9.288829,0.134704,0.132128,-0.01608,-0.092773,0.009766,-0.681641,-0.930455,8.425348,6.254244,-0.041209,0.087827,-0.064756,-0.078857,-0.404785,-0.55542,0.254949,8.254055,6.171788,0.003184,-0.207944,0.006768,-0.109375,-0.47998,-0.490723,1.00485,7.34959,6.452028,-0.113175,-0.157181,0.436849,-0.090088,-0.435791,-0.560547
-0.725453,-0.393309,9.359665,0.216967,-0.310169,0.287914,0.162354,0.367432,-0.601807,-0.316758,3.536748,9.331795,-0.191259,0.081653,0.001224,-0.0896,0.006104,-0.686035,-0.841756,7.61497,6.034925,-0.275464,0.053391,-0.062474,-0.076416,-0.404297,-0.55957,0.213912,7.947984,6.200666,-0.237708,-0.248529,-0.005983,-0.109375,-0.480225,-0.495361,1.327617,7.061422,6.495934,-0.147069,-0.200249,0.366919,-0.095947,-0.437012,-0.565186
-0.674961,-0.361803,9.213249,0.338205,-0.376815,0.36596,0.160645,0.36377,-0.592041,-0.465833,2.791586,9.150448,-0.081436,0.177806,0.038458,-0.084717,0.012207,-0.674805,-0.998759,7.200099,6.229902,0.015648,0.049644,-0.09766,-0.071533,-0.402588,-0.554932,0.310411,7.287115,6.087471,-0.158268,-0.221447,-0.047966,-0.109863,-0.474365,-0.493652,1.256848,6.87332,6.476441,-0.071296,-0.101572,0.38418,-0.099121,-0.427734,-0.563965
-0.218777,0.2767,9.322863,0.61019,-0.47331,0.480017,0.151855,0.362549,-0.605225,-0.490553,2.999349,9.295016,0.173314,0.063734,-0.016091,-0.088135,0.016357,-0.688232,-0.825172,7.641537,6.250635,0.096792,-0.01662,-0.131877,-0.075928,-0.396729,-0.553223,0.27083,7.452248,6.147149,0.15745,-0.246138,-0.025685,-0.116699,-0.473877,-0.490234,1.315967,6.911015,6.636335,-0.004757,-0.235866,0.315958,-0.110352,-0.424316,-0.562012
-0.212914,1.138938,9.465708,0.249844,-0.517275,0.609849,0.140625,0.355713,-0.608643,-0.190761,3.56185,9.355767,0.243043,0.164038,-0.009344,-0.088379,0.008789,-0.689209,-0.735334,7.741563,6.230298,0.109189,0.006526,-0.079411,-0.074707,-0.403564,-0.554932,0.549502,7.958482,6.228032,0.168763,-0.304882,-0.063716,-0.119385,-0.481689,-0.487549,1.881814,6.787378,6.437856,0.007676,-0.195756,0.304003,-0.115723,-0.427246,-0.562744
0.282221,-0.102433,9.150613,0.014601,-0.63171,0.68782,0.136963,0.359863,-0.605469,-0.547688,3.821557,9.370376,0.057715,0.085415,-0.014514,-0.085449,0.010986,-0.689453,-0.814044,8.003392,6.348559,0.102304,-0.009962,-0.181243,-0.068848,-0.410645,-0.550781,0.664387,8.063127,6.093713,0.013806,-0.17621,-0.087652,-0.117188,-0.484375,-0.483887,1.597203,6.985572,6.478914,0.163425,-0.125649,0.19865,-0.115479,-0.432373,-0.555664
0.081461,0.102537,8.927823,0.503831,-0.689847,0.842602,0.124512,0.346191,-0.596924,-0.241065,3.414299,9.300046,-0.200007,0.098019,-0.07386,-0.085449,0.008789,-0.678223,-0.727877,7.628549,6.243367,-0.25759,-0.032786,-0.067424,-0.063477,-0.405762,-0.560303,0.31199,7.810285,6.168321,-0.181017,-0.206072,-0.057555,-0.115723,-0.481445,-0.48877,1.816445,7.627117,6.701273,0.033868,-0.242907,0.185039,-0.115723,-0.43042,-0.562012
0.739506,0.025174,8.664483,0.523806,-0.931951,0.9223,0.111328,0.333496,-0.60083,-0.298424,2.880273,9.427201,-0.035551,0.112992,-0.096447,-0.08252,0.002197,-0.685791,-0.708681,6.974508,6.020555,0.015203,-0.046384,-0.153707,-0.075439,-0.405273,-0.550293,0.615018,7.286985,6.121591,-0.180576,-0.349865,-0.079528,-0.129395,-0.477295,-0.482178,2.02062,7.280995,6.677866,-0.312321,-0.166394,0.261023,-0.134277,-0.423584,-0.554932
0.820409,1.021246,9.175767,1.067706,-0.915083,0.963374,0.103271,0.327637,-0.599854,-0.289901,3.047513,9.339603,0.061896,0.167935,-0.044952,-0.075439,0.012451,-0.675781,-0.655936,8.053455,6.39876,0.213127,0.008957,-0.242014,-0.069824,-0.405029,-0.552246,0.822746,7.200043,6.092663,0.023741,-0.236229,-0.124722,-0.126709,-0.477783,-0.487549,1.864496,6.452573,6.476655,-0.195649,-0.141352,0.376273,-0.135254,-0.418945,-0.5625
0.997314,2.455832,9.37764,0.50461,-1.103098,0.912558,0.092773,0.312744,-0.604248,-0.766993,2.603573,9.033928,-0.019295,0.097393,-0.056858,-0.06958,0.005859,-0.685303,-0.844856,7.280873,6.44649,-0.342998,-0.038085,-0.101452,-0.06958,-0.408691,-0.550049,0.336308,7.480533,6.062161,0.099288,-0.226172,-0.121789,-0.130859,-0.484131,-0.478027,1.828333,6.837036,6.59068,0.29477,-0.256262,0.365365,-0.143555,-0.425049,-0.551025
1.439539,1.044207,8.453063,-0.18984,-1.226571,0.913605,0.067871,0.322266,-0.596924,-0.499617,2.511627,8.959033,0.36324,0.038442,-0.172464,-0.077148,0.005615,-0.681396,-0.476511,6.023821,6.143961,0.119649,-0.009856,-0.125108,-0.069336,-0.4104,-0.55249,0.611611,7.509515,5.971926,0.108307,-0.438436,-0.08652,-0.134033,-0.488525,-0.479004,2.356568,7.791474,6.678634,0.218284,-0.284954,0.421896,-0.152588,-0.427002,-0.553467
2.411149,-0.643969,7.618864,0.313699,-1.148338,1.164234,0.048096,0.318359,-0.587402,-0.388725,3.019651,9.141103,0.20323,0.031105,-0.187884,-0.078369,-0.001465,-0.678955,-0.743662,7.545319,5.929025,0.652462,0.122488,-0.256063,-0.056396,-0.41333,-0.55127,0.943847,7.600075,5.936845,0.141554,-0.338416,-0.042953,-0.131104,-0.482178,-0.483887,2.270003,7.526937,6.808119,-0.203371,-0.224595,0.487637,-0.151855,-0.415527,-0.557373
2.077989,0.076602,8.141812,0.996688,-1.308039,1.073228,0.035156,0.306641,-0.596191,-0.354239,2.609158,9.877795,0.081053,-0.146899,-0.093353,-0.071533,-0.000977,-0.688477,-0.317868,8.823721,7.034237,-0.049598,0.061014,-0.145389,-0.061523,-0.410156,-0.549561,0.815078,7.493518,6.097786,0.008664,-0.429818,-0.09288,-0.141602,-0.478027,-0.473389,2.568505,6.38924,6.46719,-0.199835,-0.359639,0.628526,-0.170898,-0.406738,-0.550293
2.519835,1.823576,9.716712,1.240642,-1.116045,1.122933,0.010254,0.284424,-0.590088,0.701334,1.460274,8.300529,-0.003696,0.115166,-0.027002,-0.081055,-0.008545,-0.68335,-0.619774,5.823323,5.442734,-0.406686,0.137683,0.02376,-0.052979,-0.401855,-0.550537,1.293392,7.364033,5.523951,0.268274,-0.454801,-0.065687,-0.140381,-0.483398,-0.470459,2.958007,6.50166,6.475249,0.403894,-0.380896,0.542357,-0.176025,-0.409668,-0.546387
2.137291,2.117916,9.763946,1.203531,-1.513168,0.61637,-0.010986,0.274902,-0.581543,-1.379561,2.407734,9.486352,0.73176,0.168636,-0.002524,-0.073242,-0.011963,-0.682861,-0.846216,6.133576,5.873519,0.831756,0.164859,-0.222099,-0.042725,-0.408203,-0.55249,0.999345,7.690679,6.192979,0.335523,-0.372742,0.039779,-0.140625,-0.480469,-0.478271,2.863295,7.457521,6.749596,0.180987,-0.315883,0.463527,-0.177979,-0.402832,-0.551758
3.078426,4.826671,9.741539,0.849916,-0.843401,0.636912,-0.020752,0.260498,-0.573975,0.021644,1.991931,7.441197,0.410013,-0.026137,0.175854,-0.072021,-0.021973,-0.676514,-1.324727,8.444374,5.945823,0.760511,0.068054,-0.055675,-0.045166,-0.421143,-0.5354,0.591935,7.598732,5.756951,0.402851,-0.329829,-0.086969,-0.147217,-0.490723,-0.460693,2.417954,6.350099,6.4175,0.0006,-0.398609,0.646044,-0.194824,-0.39917,-0.541016
3.253258,1.848111,8.708942,-0.649653,-1.194837,0.410875,-0.043213,0.271973,-0.565674,-1.290109,2.405197,9.055875,1.342989,0.075067,0.09291,-0.073486,-0.045654,-0.673096,-0.736157,8.054756,6.015607,0.292454,0.003414,0.050061,-0.055664,-0.430176,-0.523682,0.78158,7.800609,5.532622,0.606884,-0.615859,0.051707,-0.162109,-0.502197,-0.443848,2.974026,6.266253,6.230247,0.548138,-0.590468,0.355553,-0.215088,-0.407959,-0.526123
3.164925,0.694164,9.003307,0.473006,-0.544252,0.614524,-0.051025,0.267822,-0.561279,-0.785996,4.777213,8.383225,1.987283,-0.20706,0.253564,-0.078369,-0.078369,-0.67041,-1.527392,8.194176,6.123327,0.365305,0.338436,-0.18195,-0.039795,-0.433594,-0.526611,0.933132,8.936922,5.934489,0.589477,-0.422667,-0.076398,-0.156494,-0.50708,-0.444336,3.088965,7.940543,6.381164,0.563226,-0.448677,0.484371,-0.218262,-0.414307,-0.526611
3.420732,2.336945,9.35039,0.516844,-1.161085,0.555391,-0.066162,0.253418,-0.558105,-0.33749,7.042806,10.197493,-0.324944,-0.00973,-0.055333,-0.074463,-0.084717,-0.671875,-1.572318,6.654246,5.619895,0.019018,-0.108373,0.22965,-0.052734,-0.429443,-0.534668,0.715335,8.468491,5.378838,0.109861,-0.445959,0.083944,-0.170654,-0.507812,-0.446045,3.191162,7.404693,6.003801,-0.091482,-0.56387,0.246855,-0.239014,-0.407715,-0.526855
3.381982,1.984647,8.992859,0.240071,-0.693941,0.414774,-0.077637,0.259033,-0.547607,-0.488689,1.274531,6.932677,-0.633782,0.002129,0.356268,-0.077148,-0.067871,-0.669922,-0.770249,7.281418,4.954382,0.801652,0.054584,-0.038383,-0.054199,-0.438477,-0.518555,1.162685,7.944765,5.568149,0.317745,-0.537612,0.117354,-0.183105,-0.509766,-0.429688,3.809174,6.779792,5.722769,0.200176,-0.55754,0.197989,-0.247559,-0.410645,-0.516357
3.769036,1.75199,8.659307,0.489863,-0.769269,0.47328,-0.088135,0.247559,-0.547119,-0.70022,2.2891,7.08334,1.337806,0.084379,0.050723,-0.071533,-0.093506,-0.669678,-1.634089,8.980727,5.625503,0.309045,0.118137,0.029981,-0.041016,-0.446045,-0.516602,1.318353,8.15549,5.609578,0.234427,-0.406344,0.163917,-0.177734,-0.516602,-0.431396,3.13742,7.039584,5.92374,-0.021578,-0.312859,0.034741,-0.243408,-0.414795,-0.517578
3.595642,3.071408,9.032208,0.401889,-0.233755,0.367169,-0.094727,0.259766,-0.536133,-1.445587,5.778834,8.468495,1.508676,-0.154666,0.381149,-0.079346,-0.105469,-0.655273,-1.778765,7.374137,5.473255,0.036183,-0.23545,0.313301,-0.055908,-0.446533,-0.514648,0.71337,7.587743,4.907411,0.301473,-0.298456,0.010732,-0.188232,-0.518066,-0.423096,2.802608,6.15156,5.314762,0.197951,-0.601999,0.328429,-0.26416,-0.412354,-0.508789
4.486665,2.22222,8.89136,-0.012946,-0.512775,0.549931,-0.102783,0.262207,-0.53833,-0.545421,6.319563,9.47387,-0.065511,-0.169043,0.160996,-0.086426,-0.10498,-0.662598,-0.98053,7.236198,5.589142,0.782101,0.029592,-0.011945,-0.062256,-0.456543,-0.500732,0.625489,8.06646,5.107208,0.803728,-0.464839,0.102325,-0.19873,-0.529297,-0.408447,3.509668,7.012583,5.483424,0.828142,-0.599551,0.013274,-0.27832,-0.425049,-0.491211
4.08076,0.931931,8.711412,0.220692,-0.305852,0.52979,-0.109375,0.256348,-0.529541,-0.612091,2.618134,8.190346,-0.005859,-0.256103,0.212139,-0.093506,-0.109375,-0.655762,-1.313944,8.328204,5.430696,0.546354,-0.011541,0.249882,-0.053711,-0.462402,-0.493652,1.402825,8.642543,5.016141,0.546262,-0.541187,0.097672,-0.196777,-0.534668,-0.395508,3.5943,8.024823,5.748967,0.405797,-0.532376,0.175521,-0.277832,-0.430908,-0.480225
4.145885,1.196008,8.577377,0.897219,-0.463672,0.519715,-0.116211,0.253662,-0.531738,0.706788,3.96481,8.37789,1.243661,0.017785,0.087629,-0.09375,-0.123291,-0.651367,-0.643754,7.695969,4.674013,0.423394,-0.088025,0.173242,-0.057129,-0.466553,-0.496338,1.889471,7.908137,4.936394,0.223948,-0.382457,0.120703,-0.199951,-0.534424,-0.398926,4.097383,6.942587,5.334949,-0.040819,-0.604574,0.192797,-0.2854,-0.427246,-0.483398
4.222753,2.809964,9.343889,0.90088,-0.348271,0.385918,-0.124512,0.231201,-0.529053,-0.983334,5.350876,8.934161,0.601361,0.099352,0.353673,-0.093994,-0.142334,-0.650146,-0.948373,8.985902,5.78972,0.514572,0.127886,0.018903,-0.061523,-0.477783,-0.487061,1.146891,7.946956,5.260803,0.442434,-0.312474,0.129021,-0.209717,-0.545654,-0.392334,3.803109,6.722358,5.266738,0.292365,-0.36406,0.246696,-0.300293,-0.435303,-0.476074
5.216636,3.911655,9.626433,1.00678,-0.31384,0.331759,-0.124512,0.227539,-0.538086,-0.651758,5.735699,8.86197,0.648562,-0.105946,0.12773,-0.095459,-0.145752,-0.656494,-1.482213,8.04324,5.614501,-0.347482,-0.006351,0.189345,-0.058105,-0.465088,-0.489746,0.974217,8.546791,4.477531,0.217676,-0.50945,0.158496,-0.212891,-0.537842,-0.383789,3.329922,7.463789,5.465587,0.148917,-0.520256,0.138838,-0.303223,-0.42627,-0.469482
5.090547,5.507902,9.678717,0.458622,-0.093457,0.224586,-0.126465,0.217529,-0.529053,-0.202843,5.73908,8.934969,-0.166203,-0.072868,0.030507,-0.093506,-0.146729,-0.649902,-0.30733,6.661473,5.36208,0.194163,-0.074038,0.185236,-0.058594,-0.468506,-0.48999,1.919938,7.9921,4.839115,0.028445,-0.625255,0.166889,-0.220947,-0.54126,-0.383545,4.47153,6.87546,5.220811,-0.171135,-0.674504,0.242254,-0.313965,-0.421631,-0.46875
5.079656,4.342939,8.969474,-0.146979,-0.00568,-0.021654,-0.124756,0.2146,-0.53418,0.110516,4.02721,8.352321,0.088143,-0.043775,-0.063991,-0.090332,-0.1521,-0.655518,-0.439362,8.348705,5.383246,0.660204,0.368715,-0.038719,-0.05835,-0.470947,-0.472412,2.522789,7.712525,4.751423,0.276039,-0.399537,0.189971,-0.226562,-0.5354,-0.36792,4.695267,6.459725,4.846964,0.112609,-0.412672,0.16634,-0.31958,-0.418213,-0.452148
4.29568,3.457291,8.964102,-0.333043,0.154864,-0.144574,-0.117432,0.226562,-0.52832,-0.519543,5.551382,8.362952,0.488464,0.013303,-0.087921,-0.088623,-0.155762,-0.646973,-1.413002,9.734128,5.835644,-0.071817,0.099516,0.076623,-0.064697,-0.481689,-0.473877,1.645198,8.600239,4.992996,0.239156,-0.343131,0.260848,-0.243408,-0.547607,-0.36377,4.21278,7.581459,5.116991,0.205774,-0.404471,0.168911,-0.337158,-0.432373,-0.449463
4.386663,3.176721,9.042926,-0.078649,0.11385,-0.346729,-0.118896,0.220459,-0.533936,-0.434878,6.839896,9.663778,-0.370857,-0.137592,-0.047227,-0.0896,-0.151367,-0.650879,-0.760499,8.532312,5.225267,-0.543565,0.126863,0.069163,-0.060547,-0.466797,-0.477539,1.910102,8.944259,4.885931,-0.174946,-0.506921,0.151608,-0.248047,-0.537598,-0.361572,4.747884,8.114117,4.956829,-0.267973,-0.459837,0.463072,-0.345215,-0.414551,-0.446045
4.44248,4.149819,9.886901,-0.239239,0.042693,-0.462239,-0.124756,0.22168,-0.523682,-0.534775,5.3925,9.359101,-0.881325,0.024105,-0.006602,-0.098877,-0.136719,-0.650391,-1.742844,8.323012,5.658674,-0.362343,0.267995,-0.12365,-0.052002,-0.455322,-0.488281,1.909133,9.067551,4.858709,-0.293735,-0.344062,0.332749,-0.250977,-0.523926,-0.366943,4.645798,7.608672,4.982529,-0.652236,-0.207954,0.18767,-0.344238,-0.397217,-0.454102
5.23768,3.514379,9.339793,-0.467643,0.008016,-0.595024,-0.118652,0.232178,-0.53125,0.382878,7.429091,9.148567,-0.817394,0.031792,-0.275349,-0.090088,-0.116211,-0.657959,-0.804285,8.444371,5.137426,-0.428403,-0.044318,0.117939,-0.061035,-0.458008,-0.48999,2.228031,8.760229,4.666862,-0.489764,-0.560774,0.275506,-0.263428,-0.524902,-0.366943,4.919063,6.584584,4.883209,-0.704544,-0.389074,0.232531,-0.356201,-0.392578,-0.454102
4.25439,3.397425,8.892981,-0.730992,0.157601,-0.716526,-0.117676,0.228027,-0.537354,-0.208497,7.906511,8.945831,-3.114713,0.344655,-0.007537,-0.082764,-0.073242,-0.67041,-0.949543,7.80917,5.131529,-0.285505,0.271922,0.017398,-0.059814,-0.455811,-0.5,3.26693,7.946485,4.639839,-0.350409,-0.389646,0.255311,-0.269775,-0.521729,-0.374756,5.249845,5.772994,4.564206,-0.415258,-0.239673,0.101685,-0.359619,-0.387451,-0.459717
4.683307,2.567116,8.597694,-0.775477,0.177593,-0.80033,-0.119629,0.238037,-0.524414,-1.127749,1.791069,8.339718,-3.815359,-0.026717,0.026624,-0.088623,-0.005127,-0.664062,-1.528094,9.151248,5.783357,0.512824,0.036367,-0.033361,-0.052734,-0.448486,-0.491699,2.406559,7.968829,5.609202,0.268413,0.002127,0.128911,-0.266602,-0.510498,-0.370117,4.61859,6.014392,5.834716,0.140022,-0.154362,0.175959,-0.359619,-0.374512,-0.454102
4.685774,2.573147,8.941907,-0.827285,0.338157,-0.676378,-0.111816,0.249023,-0.529297,-0.48876,0.075903,8.513106,-0.901351,-0.068433,-0.048514,-0.088623,0.013428,-0.66748,-1.05763,9.991317,6.113258,-0.404138,0.103978,0.000776,-0.055908,-0.453369,-0.500977,1.943942,9.085711,4.279337,0.128307,-0.332723,0.028187,-0.272705,-0.521729,-0.368164,4.794463,6.886644,4.461601,0.163946,-0.418568,0.169709,-0.371582,-0.384277,-0.455078
4.3465,1.455175,9.189556,-0.520518,0.239811,-0.636868,-0.111572,0.244873,-0.535645,-0.299361,6.788562,10.456992,-0.681158,0.118249,-0.288917,-0.0896,0.016357,-0.670898,-1.390936,6.409168,5.537093,-0.749541,0.120831,0.221273,-0.058838,-0.446777,-0.504395,2.600112,8.834097,4.97149,-0.156473,-0.351458,0.143995,-0.282227,-0.519531,-0.367188,5.340672,7.227747,5.285682,-0.07501,-0.148965,-0.01867,-0.373779,-0.387207,-0.451172
3.668081,2.943656,10.102202,0.023168,0.226182,-0.78808,-0.110596,0.246338,-0.529297,-0.690992,6.999984,11.132666,-5.057968,0.185076,-0.065903,-0.091797,0.107422,-0.657227,-1.307624,7.403141,4.913609,0.995815,0.123243,-0.153201,-0.054688,-0.452637,-0.490479,2.250214,7.782185,4.924648,-0.184916,0.090574,0.120649,-0.277588,-0.51416,-0.364258,4.344407,6.657288,5.322086,-0.262763,-0.087473,0.01792,-0.372314,-0.377441,-0.452148
4.363798,3.585615,9.424831,-0.506608,0.149238,-0.897388,-0.119629,0.246582,-0.534912,-0.479291,-4.312531,7.45303,-4.423836,0.047512,0.157537,-0.095215,0.177979,-0.6521,-1.316602,10.306564,5.91561,-0.067943,0.18639,-0.027934,-0.052979,-0.453125,-0.489502,1.705949,7.906145,4.34081,0.118246,-0.344097,0.108376,-0.28418,-0.51416,-0.359375,4.448794,6.054856,4.9754,-0.105839,-0.346977,-0.021316,-0.380127,-0.378174,-0.446533
4.085301,3.367405,8.877812,-0.78478,0.398799,-0.985894,-0.102539,0.24292,-0.532959,-0.237113,-2.666523,9.005432,-0.535781,0.305358,-0.160387,-0.082275,0.178467,-0.645508,-0.749009,7.888301,4.804726,-0.372769,-0.048317,0.198704,-0.054932,-0.450439,-0.489502,3.139548,8.039434,4.832354,0.093894,-0.498797,0.001002,-0.286377,-0.517334,-0.351074,5.283156,6.112868,5.374503,0.04215,-0.2749,0.097043,-0.378906,-0.383301,-0.437744
4.451127,3.056009,9.708102,-1.067761,0.319597,-1.136743,-0.101562,0.259277,-0.535645,-0.771574,2.900196,10.582545,-0.791753,-0.005635,0.120713,-0.084961,0.200439,-0.642822,-0.838583,7.876543,5.673425,0.063754,0.393056,-0.343031,-0.040771,-0.452393,-0.496094,3.0424,8.300234,4.392561,0.087851,0.003233,-0.028144,-0.279053,-0.519531,-0.358154,4.989241,6.817526,5.133835,0.168565,-0.204055,0.118382,-0.375488,-0.37915,-0.440918
3.973925,2.429575,9.382439,-0.794173,0.521632,-1.175105,-0.087891,0.260742,-0.53833,0.173241,3.327513,10.71278,-3.336718,0.381911,-0.091708,-0.073975,0.247559,-0.625977,-1.762908,7.161186,4.808054,0.331862,0.037822,0.269047,-0.049561,-0.456787,-0.487061,1.771315,7.878186,4.864899,0.065145,-0.172518,0.023347,-0.290039,-0.515381,-0.348877,4.935907,6.652418,5.183434,0.032883,-0.276958,0.137244,-0.38916,-0.37915,-0.43335
4.107418,3.037038,8.961449,-1.029086,0.381609,-1.175064,-0.084473,0.263184,-0.541504,-1.661078,-3.884443,8.669722,-2.951847,0.079558,0.222502,-0.06958,0.290039,-0.609131,-0.714653,9.370052,5.248102,0.37711,0.138033,-0.39594,-0.036133,-0.456299,-0.484863,2.647591,8.572096,4.341165,0.282049,-0.586014,0.023968,-0.283447,-0.51709,-0.340576,5.266727,7.233809,4.928318,0.105381,-0.343791,0.093221,-0.381836,-0.373047,-0.428467
4.064055,1.788433,8.660326,-1.296841,0.707092,-1.046151,-0.070801,0.283936,-0.542236,0.640075,-0.772305,9.006438,-1.058852,0.195416,-0.408686,-0.068115,0.313965,-0.60083,-1.08506,8.794137,5.412513,-0.338774,0.247787,0.212367,-0.049561,-0.453613,-0.480957,3.425168,8.646941,5.178727,-0.082976,-0.255709,0.024442,-0.300781,-0.515869,-0.333252,5.550877,6.998215,5.900717,-0.24905,-0.231389,0.252951,-0.402588,-0.368408,-0.421387
3.738395,2.230679,9.17944,-0.98151,0.606305,-0.918117,-0.076904,0.285645,-0.551514,-1.449121,-0.650803,10.21254,-2.184267,0.175253,0.081161,-0.080566,0.337891,-0.589355,-1.327722,7.696763,5.264408,0.003808,0.059149,-0.268923,-0.037598,-0.456543,-0.489014,2.635405,7.88939,3.680317,-0.253654,-0.128727,-0.046348,-0.295166,-0.517578,-0.342773,5.272143,6.077535,4.070697,-0.171802,-0.251152,0.364036,-0.400635,-0.367188,-0.426514
3.005044,1.899073,9.788262,-1.30259,0.628451,-0.876182,-0.068115,0.310303,-0.539551,0.026881,-1.030625,10.302106,-2.511062,0.19422,-0.193686,-0.073975,0.380371,-0.556641,-1.331081,8.321355,5.510293,0.330223,0.305988,-0.078715,-0.03125,-0.461426,-0.488281,2.073198,7.780159,5.028113,0.198761,-0.400371,-0.004689,-0.295898,-0.518799,-0.336914,4.892128,6.57198,5.634907,0.05765,-0.114885,0.308016,-0.402588,-0.363037,-0.428223
3.263416,0.303337,8.196058,-1.039482,0.55188,-0.914687,-0.060303,0.318115,-0.548096,-1.418006,-3.492675,8.281172,-2.273759,0.396384,-0.224195,-0.070801,0.407227,-0.541748,-1.684868,7.685358,5.15138,-0.172615,-0.026931,-0.106097,-0.023682,-0.460449,-0.489258,2.784976,8.001102,4.377198,0.0966,-0.413252,-0.127294,-0.290771,-0.52124,-0.332031,5.016702,6.514726,4.837555,-0.063634,-0.453448,0.552432,-0.406006,-0.353271,-0.421631
2.710904,1.676674,8.488173,-0.772543,0.581345,-0.574286,-0.048096,0.325439,-0.543213,0.048818,-2.358614,9.616727,-2.140693,0.132349,-0.37416,-0.068359,0.433838,-0.512695,-0.417249,8.116643,4.610163,0.530056,0.272619,-0.117064,-0.020752,-0.45752,-0.483398,3.096156,8.368899,4.099268,0.166992,-0.459526,0.015188,-0.297363,-0.518311,-0.331299,6.205992,6.26725,4.79256,-0.123891,-0.323291,0.396331,-0.413574,-0.345703,-0.42041
2.869145,0.710231,8.731405,-1.339149,0.413418,-0.753424,-0.044678,0.352051,-0.540527,-0.668719,-4.167433,8.800403,-2.445943,0.486919,-0.191267,-0.064697,0.473145,-0.491211,-1.975237,9.389441,4.909002,0.240305,0.324745,-0.319381,-0.010498,-0.452393,-0.473877,3.180498,8.244023,4.67483,-0.002291,-0.354024,-0.184046,-0.296631,-0.510498,-0.315918,5.615954,5.973888,5.057733,-0.150315,-0.073414,0.680233,-0.419189,-0.326172,-0.410645
1.626814,0.157836,8.563883,-0.880625,0.325478,-0.75089,-0.044189,0.354004,-0.535156,-1.099168,-4.484726,7.841637,-2.122838,0.240334,-0.183065,-0.068604,0.492432,-0.458496,-1.709642,8.289081,4.844588,-0.341286,-0.086507,-0.024647,-0.018311,-0.455811,-0.483643,2.522236,8.158072,4.010518,0.030031,-0.21376,-0.121802,-0.300049,-0.516357,-0.321289,5.249156,6.023622,4.795632,0.025827,-0.380055,0.565168,-0.432373,-0.323242,-0.412109
2.409892,-0.502361,7.490191,-0.767639,0.196685,-0.741432,-0.033447,0.359375,-0.538086,-0.670475,-4.744842,7.742115,-2.356891,0.298888,-0.181839,-0.057129,0.515381,-0.439453,-0.942978,6.938368,4.786623,0.295445,0.072312,-0.177792,-0.009033,-0.458252,-0.469727,2.378614,8.346063,3.975683,0.135403,-0.609925,-0.135208,-0.300049,-0.520264,-0.307861,6.362378,6.20889,4.841627,-0.08155,-0.331953,0.600942,-0.436035,-0.318848,-0.39917
1.992438,-0.34147,8.17576,-0.137415,0.081955,-0.865808,-0.046875,0.360352,-0.537109,-0.759885,-7.838402,6.851051,-1.984977,0.232406,-0.073667,-0.06665,0.540039,-0.410889,-1.213326,7.915204,5.313141,0.410914,0.269911,-0.191778,-0.015869,-0.460205,-0.476807,3.613975,8.101216,4.241722,0.00069,-0.528221,-0.133304,-0.3125,-0.516846,-0.314697,5.884515,5.551556,4.72496,-0.344424,-0.21273,0.524642,-0.44873,-0.302734,-0.409668
2.150544,0.315816,9.340304,-0.110134,-0.067391,-1.046393,-0.049072,0.349854,-0.537598,-0.950135,-6.695713,7.175959,-1.040414,0.321308,-0.165004,-0.064697,0.546387,-0.399414,-1.911129,8.669575,4.745305,0.32283,0.169117,-0.086526,-0.007568,-0.473145,-0.473145,2.914681,7.872891,3.90968,0.255821,-0.161055,-0.086427,-0.306152,-0.528564,-0.305176,6.045297,5.099158,4.634701,0.089529,-0.446265,0.548814,-0.455566,-0.304688,-0.400635
1.867152,-0.457809,8.940646,-0.254193,-0.050195,-1.317267,-0.050781,0.356934,-0.524902,-1.693322,-4.751149,7.083961,-1.535476,0.17315,0.242204,-0.054443,0.569336,-0.36792,-1.756225,8.332382,4.991349,0.067687,0.121093,-0.113615,-0.005615,-0.468262,-0.467529,2.273583,8.89509,4.079657,0.469939,-0.49819,-0.147274,-0.307861,-0.528076,-0.293701,6.538267,6.232076,4.602304,0.362136,-0.356463,0.447581,-0.459717,-0.29834,-0.389648
1.485549,-1.262656,6.908098,0.484926,-0.115591,-1.373569,-0.062744,0.337158,-0.527588,-1.604714,-5.776006,5.933131,-2.287211,-0.01918,-0.050203,-0.05835,0.586914,-0.33667,-1.944935,7.667252,5.393559,0.240532,0.172596,0.024405,-0.00293,-0.476074,-0.456543,2.997913,9.129088,4.257343,0.079872,-0.500553,-0.044929,-0.311523,-0.531982,-0.280518,6.301744,6.461858,4.72732,-0.230409,-0.318936,0.404375,-0.4646,-0.297363,-0.381836
2.150518,-1.284771,6.341556,1.27862,-0.560703,-1.340947,-0.068604,0.303955,-0.527832,-0.661709,-11.382802,6.403791,-2.192352,-0.070112,0.234594,-0.050537,0.599854,-0.311035,-1.334105,8.567781,4.381312,0.531126,0.085862,-0.097105,-0.001953,-0.473389,-0.462891,3.261161,8.421217,3.338351,0.025956,-0.309502,-0.089565,-0.311035,-0.526367,-0.287842,6.951805,5.253923,4.095055,-0.219318,-0.490455,0.414091,-0.4729,-0.280273,-0.387451
2.106939,-0.787258,6.882896,2.3601,-0.999442,-1.405424,-0.101318,0.251709,-0.533203,-1.201452,-9.199031,6.197995,1.584985,0.131451,0.046112,-0.063232,0.581543,-0.342773,-1.926846,9.037701,4.434325,0.170937,0.381609,0.042126,0.002441,-0.477295,-0.447266,2.892958,8.471819,3.923939,0.34655,-0.402189,0.029472,-0.313721,-0.530273,-0.268555,7.000903,5.282328,4.312644,0.140752,-0.236588,0.18087,-0.475342,-0.280029,-0.368896
2.243968,0.279756,6.589768,3.028886,-1.318388,-1.23625,-0.11792,0.19458,-0.524902,-1.55797,-2.446287,7.67406,0.320644,-0.100951,0.232414,-0.057129,0.578125,-0.343506,-2.14167,8.356228,5.071045,-0.08457,0.013862,-0.051898,0.0,-0.484375,-0.454834,3.043246,9.082619,3.933787,0.217944,-0.345169,-0.046418,-0.320068,-0.53833,-0.270752,6.448192,5.999583,4.307207,0.071317,-0.376709,0.235523,-0.484863,-0.284668,-0.369141
2.413702,2.587727,6.527988,3.172038,-1.657343,-1.006357,-0.139648,0.141846,-0.502441,-1.393123,-5.405616,6.816845,-2.653946,-0.030362,0.071521,-0.051758,0.604004,-0.296143,-1.620299,8.05171,4.732887,0.369304,0.278098,0.128451,0.000244,-0.473877,-0.454346,3.114657,8.668055,3.598623,0.036384,-0.279187,-0.005793,-0.317383,-0.527832,-0.268311,7.061495,5.489515,4.239988,-0.185417,-0.395554,0.218828,-0.489502,-0.267334,-0.367432
3.947715,3.800541,8.001824,2.596105,-1.995356,-0.678424,-0.163574,0.10376,-0.474121,-1.390091,-12.762284,6.172561,-0.82131,-0.216226,0.243292,-0.044922,0.619385,-0.286377,-2.293992,8.988603,4.686845,0.361334,0.243461,-0.120997,0.006348,-0.487549,-0.450684,2.942434,8.514442,3.556942,0.327443,-0.315475,-0.045252,-0.318359,-0.539795,-0.265137,6.942608,5.047394,3.85906,0.10697,-0.280126,0.147455,-0.489258,-0.275879,-0.365723
4.443736,5.178302,8.89466,1.622884,-1.966079,-0.438879,-0.199219,0.080078,-0.464355,-1.115513,-7.911336,6.415604,2.589549,0.099832,-0.043677,-0.054932,0.600098,-0.338623,-2.119337,9.049519,3.423031,0.378399,0.107187,0.224291,0.005371,-0.487549,-0.435059,3.251141,9.023315,3.79395,0.390016,-0.259451,-0.037047,-0.324707,-0.533936,-0.243408,6.871127,5.594288,4.292324,0.213405,-0.304257,0.093251,-0.495117,-0.271484,-0.349854
3.885621,3.528707,7.389996,0.13728,-1.930802,-0.123897,-0.223633,0.065918,-0.435303,-1.96138,-1.157748,9.127737,0.562887,-0.26112,0.202118,-0.05249,0.587891,-0.338379,-1.939409,9.387341,5.266835,0.277685,0.144383,-0.172409,0.01001,-0.496826,-0.428467,2.874519,9.060826,3.429047,0.141933,-0.178409,-0.168,-0.31958,-0.546143,-0.242432,6.62514,5.566035,4.166817,-0.01691,-0.257389,0.248194,-0.496826,-0.273438,-0.341797
4.662472,3.024577,7.449552,0.613059,-2.092771,0.320351,-0.237305,0.063232,-0.402344,-0.735133,-8.201896,6.658771,-2.095564,0.011409,0.002172,-0.039551,0.603516,-0.302002,-2.210141,7.867163,4.734592,-0.125244,0.266484,0.316385,0.008057,-0.487305,-0.432617,2.620245,8.492037,3.528678,0.207412,-0.183582,-0.122698,-0.319092,-0.541016,-0.238037,7.075058,5.222435,3.986339,0.227364,-0.46435,0.090766,-0.499023,-0.267334,-0.338135
6.650095,3.930184,7.844473,0.828722,-2.139386,0.332755,-0.276367,0.048584,-0.381348,-2.084375,-11.457711,5.910254,1.042504,0.09355,0.043806,-0.050049,0.591064,-0.325684,-2.347676,8.244362,3.279382,0.735367,0.185044,-0.178399,0.006836,-0.499023,-0.431885,2.929396,8.88721,3.681642,0.462656,-0.335487,0.020359,-0.329346,-0.546143,-0.237549,7.494033,5.993054,4.153298,0.303494,-0.225589,-0.085337,-0.506836,-0.274902,-0.341064
5.618895,3.567796,6.764022,1.063938,-1.991996,0.054972,-0.296387,0.040527,-0.347412,-1.154314,-3.310771,7.890382,1.828863,-0.220005,0.069386,-0.047607,0.578613,-0.346924,-2.060287,10.818507,3.975028,0.395326,0.125581,-0.026499,0.004639,-0.498779,-0.431885,3.24435,9.556286,3.374455,0.108726,-0.183728,-0.107627,-0.330566,-0.546387,-0.23877,6.818054,6.191535,4.385623,-0.192211,-0.173584,0.093094,-0.508301,-0.268311,-0.34375
5.278128,2.773154,5.509513,1.355656,-2.117281,0.276094,-0.319824,0.032227,-0.31958,-0.78458,-3.343466,8.411053,-1.091756,-0.106484,0.243765,-0.045898,0.589844,-0.338135,-1.840541,8.400162,4.012433,-0.7579,-0.052468,0.124801,0.012451,-0.492432,-0.436768,2.901094,8.706225,3.167313,-0.265703,-0.25943,-0.012531,-0.321777,-0.541748,-0.237061,7.280021,4.992154,3.923432,-0.366905,-0.342554,0.04524,-0.505371,-0.262207,-0.337158
8.272909,3.888096,5.316416,2.629724,-2.028686,0.674083,-0.335938,0.014893,-0.272949,-1.122048,-9.453985,6.200252,-0.6917,-0.175366,0.202181,-0.040283,0.594971,-0.324707,-1.435958,6.892065,3.828537,0.540405,0.006923,-0.015301,0.010742,-0.499756,-0.430176,3.457906,7.880436,2.815667,0.134851,-0.365615,-0.140242,-0.325195,-0.546875,-0.227539,7.200172,4.641705,3.897741,0.087047,-0.143258,0.069167,-0.508301,-0.267822,-0.32959
6.561581,5.967565,6.124575,2.343035,-1.603438,0.652591,-0.357666,0.009033,-0.231934,0.276189,-7.666105,6.279696,1.677342,-0.011478,-0.123273,-0.044678,0.588135,-0.340332,-1.126845,9.003155,4.628696,0.815174,0.025091,-0.011865,0.008057,-0.503418,-0.40918,3.833303,8.030073,2.892448,0.377822,-0.277311,-0.173399,-0.325928,-0.545166,-0.213135,6.475166,4.754952,3.871197,0.038861,-0.28983,0.201686,-0.512695,-0.260742,-0.31665
7.085396,5.28856,5.683756,2.383743,-1.330025,0.962094,-0.375488,0.003174,-0.210693,-1.676647,-3.939574,6.850983,0.836872,0.228067,-0.001707,-0.046387,0.578369,-0.359131,-1.241181,8.842125,4.437433,0.311601,0.177173,0.199625,0.012695,-0.505127,-0.421143,3.227307,7.989864,2.845196,0.512715,-0.161159,-0.353327,-0.317871,-0.550049,-0.221191,6.986541,4.32714,3.886262,0.341438,-0.554673,0.488557,-0.513184,-0.255371,-0.322754
7.096089,8.278922,4.818089,1.247056,-1.271572,0.560646,-0.379883,-0.003662,-0.179443,-1.294993,-7.557602,5.986606,-0.379884,-0.397244,-0.157635,-0.045898,0.578369,-0.351807,-2.230396,7.756424,2.9477,0.750427,0.20997,0.078753,0.014404,-0.51123,-0.395996,2.987417,8.490236,2.905158,0.841074,-0.331724,-0.341877,-0.311279,-0.556641,-0.19458,7.183023,4.941388,3.83074,0.582173,-0.352742,0.412695,-0.519287,-0.249512,-0.301025
7.030069,5.644571,2.786617,0.391035,-1.430462,0.317534,-0.395264,0.005371,-0.152344,-0.830247,-9.107382,5.803031,1.545079,-0.237845,0.25947,-0.052002,0.570312,-0.368408,-1.65129,8.579054,3.155233,1.187395,-0.125189,0.230522,0.009033,-0.5271,-0.388428,3.002785,8.981652,2.528713,0.756303,-0.270326,-0.506186,-0.310303,-0.570557,-0.187256,6.632522,5.023175,3.876887,0.369023,-0.512979,0.647077,-0.527588,-0.250488,-0.292725
7.474748,5.072372,5.124756,0.989299,-1.399887,0.099591,-0.402588,-0.006592,-0.131836,-0.852336,-4.906857,7.072713,2.546237,-0.410684,-0.003201,-0.057617,0.535156,-0.411621,-1.118214,8.92606,2.73479,0.907503,0.065409,0.226561,0.002441,-0.539307,-0.37207,2.704298,8.469427,2.219554,0.585132,-0.296362,-0.47866,-0.308105,-0.577637,-0.174561,7.336041,4.42829,3.192958,0.399747,-0.658125,0.559478,-0.538574,-0.247559,-0.2771
6.839368,5.075577,5.942448,1.750083,-0.750228,0.002786,-0.416016,-0.014893,-0.110352,-0.674255,-2.420923,7.778873,1.905968,-0.345025,0.28064,-0.061523,0.517822,-0.436523,-2.120151,8.702209,2.394261,0.983377,-0.022321,0.203792,-0.001465,-0.545654,-0.359619,2.621671,8.399687,1.965056,0.973829,-0.384608,-0.481922,-0.302734,-0.589844,-0.158203,7.588432,4.887137,3.110369,0.67946,-0.597927,0.578873,-0.546631,-0.246582,-0.265137
6.923912,8.978304,5.859269,1.579631,-0.364436,0.045015,-0.413086,-0.019531,-0.095703,-0.896179,-2.128786,8.246524,0.756762,-0.472034,-0.045924,-0.062256,0.514648,-0.445068,-1.110062,9.11894,2.712833,0.941725,-0.29953,0.271529,-0.011719,-0.549561,-0.344238,2.751416,9.661536,1.759381,1.03507,-0.429776,-0.423217,-0.304199,-0.592285,-0.140137,7.962893,5.42881,2.845903,0.348153,-0.664509,0.498229,-0.556885,-0.236572,-0.250244
7.736564,9.416137,4.740099,-0.144871,0.101418,-0.310348,-0.404541,-0.025635,-0.092773,-0.215487,-6.733299,7.75605,-0.017679,-0.490835,0.233107,-0.05835,0.510986,-0.437744,-1.086841,8.884614,2.736558,0.82799,-0.019251,0.330251,-0.013672,-0.556396,-0.339111,2.725541,9.602138,1.538428,0.596907,-0.301964,-0.419983,-0.297119,-0.596436,-0.133789,8.209013,4.649154,2.47578,0.218625,-0.64042,0.582786,-0.561279,-0.229736,-0.245361
7.336875,8.06033,4.160417,-1.087383,0.284454,-0.457392,-0.406982,-0.030518,-0.103516,-0.057975,-7.600032,6.496885,3.358347,-0.501816,-0.019304,-0.076172,0.466064,-0.481689,-1.05009,8.62342,1.480692,0.955762,-0.306555,0.348939,-0.016602,-0.56543,-0.330078,2.44759,8.685893,1.253662,0.576892,-0.393561,-0.31798,-0.288086,-0.604736,-0.126465,8.242187,4.522009,2.638793,0.378848,-0.648475,0.358894,-0.561035,-0.228516,-0.238037
7.875695,6.170665,3.822076,-1.549547,0.625013,-0.714074,-0.390625,-0.029297,-0.123047,-0.144565,0.38604,10.020545,3.044512,-0.401693,0.182872,-0.072998,0.435547,-0.512939,-0.837318,10.446379,2.083539,1.223376,-0.04865,0.204361,-0.023682,-0.56665,-0.316895,2.911942,8.982359,0.663572,1.030862,-0.509932,-0.334211,-0.287842,-0.60376,-0.113037,7.963954,4.515154,1.973052,0.191563,-0.594293,0.49227,-0.570557,-0.217041,-0.229492
6.942353,5.187881,4.512579,-0.601235,0.838288,-0.349536,-0.395752,-0.038818,-0.136719,-0.850212,-1.639839,10.224248,0.353875,-0.455971,0.0521,-0.085205,0.422607,-0.513184,-1.972341,9.836467,3.200313,0.269441,-0.08172,0.372163,-0.031006,-0.571289,-0.302002,2.153835,10.18829,1.495917,0.965072,-0.144544,-0.380214,-0.282227,-0.614014,-0.090332,7.992357,4.21552,2.128735,0.333303,-0.800218,0.366416,-0.577148,-0.218018,-0.206055
6.935535,6.915939,5.597824,-0.443135,1.133942,-0.134483,-0.378906,-0.034424,-0.153809,-0.43587,-4.65009,8.416377,1.370692,-0.092749,-0.343572,-0.083496,0.407715,-0.526367,-1.308824,7.787795,1.613603,0.694347,-0.243198,0.500442,-0.03833,-0.570312,-0.294434,1.359126,9.591005,1.226586,0.392315,-0.297114,-0.249115,-0.280029,-0.61084,-0.083008,8.571461,4.685037,1.663446,0.573847,-0.720534,0.147122,-0.581055,-0.217285,-0.190918
7.149634,6.466039,5.28552,-0.918458,1.236937,-0.2337,-0.364746,-0.033447,-0.181641,-1.339721,-2.818277,9.278374,2.091023,-0.266467,-0.218856,-0.083984,0.375732,-0.546631,-1.59496,10.113236,0.638868,1.422598,0.064817,0.012751,-0.041992,-0.574219,-0.27832,1.887582,9.040105,0.779956,0.707138,-0.428265,-0.210699,-0.281494,-0.611084,-0.072021,8.344778,5.703368,2.394297,0.364362,-0.619755,0.070885,-0.585938,-0.215088,-0.18042
7.084767,6.755504,5.380003,-1.193623,1.439386,-0.333926,-0.360352,-0.014893,-0.207031,-0.422597,-0.401689,10.051968,1.461976,-0.397949,-0.147597,-0.097412,0.366943,-0.55249,-1.68534,11.796237,2.231672,0.369507,-0.19935,0.335603,-0.052734,-0.573242,-0.272217,1.826516,10.140435,0.765922,0.818478,-0.368379,-0.115535,-0.282959,-0.608154,-0.058838,8.084457,5.069949,1.691016,-0.390769,-0.424842,0.060288,-0.592529,-0.209717,-0.176025
7.309211,6.645702,5.43329,-1.658082,1.291308,-0.248017,-0.358887,-0.025879,-0.242676,-0.693154,-2.069143,10.422149,-0.329024,-0.329318,-0.100838,-0.116211,0.353516,-0.559082,-1.051873,8.521093,1.081415,0.078487,-0.142547,0.432756,-0.056885,-0.578857,-0.267334,1.735724,9.92605,0.034949,0.455238,-0.259306,-0.428794,-0.277832,-0.61792,-0.052002,6.847803,2.933297,1.138914,-0.040937,-0.660368,0.132615,-0.593506,-0.212646,-0.165771
7.203005,5.2241,5.578555,-1.672275,1.451859,-0.233559,-0.33667,0.000732,-0.269531,0.197205,-6.122088,8.82962,0.784505,-0.345323,-0.160016,-0.113037,0.354248,-0.561035,-0.786807,8.675433,0.440415,1.752145,0.080641,0.305629,-0.052979,-0.578613,-0.240479,1.760935,9.010684,-0.315401,0.939553,-0.322117,-0.438661,-0.26001,-0.613525,-0.032715,8.127628,3.674196,1.183072,1.077013,-1.110094,-0.211753,-0.58667,-0.210693,-0.137207
6.572246,4.567211,5.869144,-1.538098,1.328816,-0.396328,-0.324951,0.000732,-0.290039,-0.607667,-2.448782,9.629593,2.429404,-0.264521,0.001653,-0.121826,0.312256,-0.57373,-1.1718,12.401634,0.944055,1.744489,0.102365,0.236017,-0.066162,-0.593262,-0.213135,2.136934,9.924997,-0.133328,1.466288,-0.347572,-0.616316,-0.260742,-0.627686,-0.008789,8.528964,5.508687,1.241367,0.78939,-0.810958,-0.008569,-0.595703,-0.226807,-0.116943
6.204336,4.546129,6.143941,-1.172785,1.433738,-0.440651,-0.300781,0.001709,-0.315674,-0.145497,0.760145,10.692119,1.046712,-0.656593,0.157115,-0.122314,0.292236,-0.58252,-1.020803,10.945956,0.376043,0.341443,-0.060363,0.53865,-0.065186,-0.592529,-0.217529,1.393339,10.822577,-0.19798,1.020727,-0.00806,-0.623696,-0.243652,-0.626221,0.000977,8.078951,5.00894,0.752103,0.298372,-0.975779,-0.041549,-0.588623,-0.224854,-0.103516
5.890985,4.319817,6.669085,-0.714019,1.286022,-0.316272,-0.295166,0.003906,-0.329834,0.424391,-2.065941,9.914271,0.335156,-0.363947,0.213677,-0.134033,0.290527,-0.576904,-0.753977,7.701593,0.228551,0.709148,0.034122,0.360547,-0.081543,-0.594238,-0.203369,0.314328,9.88832,-0.595225,0.588351,-0.320461,-0.522413,-0.246582,-0.629883,0.015625,9.161948,4.789453,0.242245,0.604198,-0.995618,-0.22247,-0.602539,-0.228027,-0.078613
5.635805,5.343176,6.865372,-0.134502,1.344826,-0.125469,-0.284668,0.008057,-0.357666,0.276459,-1.893108,9.798303,1.58559,-0.230074,-0.136003,-0.144043,0.266602,-0.594482,-0.477696,9.238133,-0.11558,1.79179,0.10319,0.279714,-0.072754,-0.605225,-0.182617,1.795759,8.923124,-0.908146,0.887139,-0.528695,-0.46399,-0.229736,-0.636963,0.022461,8.535648,5.401422,0.4593,0.493099,-0.729833,-0.390898,-0.589844,-0.243408,-0.073486
5.25129,6.201427,7.16041,-0.784219,1.243557,-0.264814,-0.26123,0.00415,-0.376465,0.226297,0.237123,10.276107,1.149745,-0.251373,0.113497,-0.142578,0.239502,-0.603271,-0.568481,12.224465,-0.302196,1.140351,0.163172,0.152543,-0.074707,-0.605225,-0.161377,1.435678,9.936198,-0.839829,1.171563,-0.097058,-0.332516,-0.222412,-0.631836,0.047607,8.245764,5.221525,0.312021,0.13458,-0.862034,-0.289639,-0.585205,-0.245605,-0.049072
5.583132,5.63232,7.456579,-1.127234,1.369364,-0.292453,-0.246826,0.028076,-0.387939,0.307177,0.090568,10.374606,0.59863,-0.423939,0.111551,-0.147949,0.241943,-0.593506,-0.746765,10.407333,-0.460219,0.030112,0.011549,0.343359,-0.085205,-0.605225,-0.162109,0.500808,10.655437,-0.912392,0.598051,-0.417102,-0.437365,-0.222656,-0.637939,0.057861,8.578033,4.777557,-0.181082,0.111017,-0.743973,-0.352635,-0.591309,-0.255371,-0.034424
4.168362,6.075508,8.285016,-1.668895,1.360171,0.01261,-0.233398,0.039062,-0.416992,0.887157,-0.048575,9.936277,0.906547,-0.211379,0.04352,-0.155518,0.22168,-0.605713,-0.360635,8.029106,-0.84541,0.724325,-0.017564,0.254852,-0.095947,-0.604004,-0.145996,1.543928,9.553855,-1.565884,0.341487,-0.522207,-0.380882,-0.220703,-0.635986,0.069824,8.545895,4.909583,-0.494687,0.24445,-0.756186,-0.46914,-0.591064,-0.262207,-0.02002
4.610238,4.618542,8.180217,-2.312026,1.394712,0.209002,-0.210938,0.082764,-0.446533,-0.177498,0.589133,10.193749,0.745535,-0.147216,-0.198398,-0.157471,0.217773,-0.615234,-0.509399,10.472193,-0.269388,1.455613,0.206307,0.042634,-0.081543,-0.606689,-0.130127,1.321429,9.377707,-1.490632,0.807614,-0.147019,-0.334284,-0.203857,-0.631348,0.078613,8.870867,5.011425,-0.662237,0.118022,-0.740455,-0.564967,-0.575928,-0.267334,-0.010254
4.015673,4.02947,8.721192,-2.520451,1.431211,0.342312,-0.192383,0.115967,-0.459473,0.361399,-0.492297,9.804026,0.38769,-0.398546,-0.156089,-0.162354,0.207764,-0.609131,-0.823481,11.623601,-0.579361,0.3563,0.008615,0.203826,-0.093018,-0.610352,-0.124756,0.605571,10.417096,-1.291901,0.710861,-0.300353,-0.252721,-0.206055,-0.637939,0.086914,8.380179,4.710781,-0.699379,0.065975,-0.550243,-0.776228,-0.574951,-0.285156,0.002441
4.677287,2.347344,8.844281,-2.599465,1.475484,0.248451,-0.171387,0.156006,-0.475586,0.821373,-0.895131,10.081185,0.88143,-0.223209,-0.087712,-0.16626,0.195801,-0.609131,-0.351328,8.695049,-1.899387,-0.07545,0.003049,0.285116,-0.096191,-0.604248,-0.128906,0.84454,10.058166,-1.910634,0.169191,-0.284,-0.306552,-0.200928,-0.632812,0.090088,7.639986,5.12636,-1.035713,0.306426,-0.587672,-0.902366,-0.571533,-0.298096,0.01123
3.985612,0.529038,8.967149,-1.528643,1.345571,0.141216,-0.150635,0.182861,-0.491455,1.098093,0.886451,10.34478,0.934791,-0.171098,0.18475,-0.16333,0.186768,-0.615723,-0.468393,8.664259,-2.157682,1.167454,-0.028754,0.105393,-0.092773,-0.605225,-0.107422,0.604559,8.927705,-2.27186,0.374162,-0.179525,-0.309854,-0.191162,-0.630371,0.099365,7.726286,5.67935,-1.064487,0.219487,-0.737288,-0.990406,-0.553711,-0.312012,0.026611
3.468518,2.581338,9.32957,-0.839327,1.451766,0.195999,-0.132812,0.199463,-0.50415,0.886397,0.941615,9.915473,0.379319,-0.030008,0.248206,-0.17041,0.18335,-0.615967,0.258636,11.242012,-0.46447,0.805516,-0.080081,0.149178,-0.108398,-0.605713,-0.098633,0.601978,9.502667,-2.220759,0.814669,-0.325933,-0.28739,-0.200439,-0.631592,0.109375,7.954381,5.598469,-1.295312,0.116808,-0.641131,-1.008908,-0.55835,-0.327148,0.034668
2.852824,2.933768,9.290704,-1.626785,1.326852,0.281113,-0.116455,0.227051,-0.505615,0.604174,-0.639615,9.159278,0.253786,-0.124669,0.027447,-0.175781,0.179199,-0.608398,0.32022,9.38062,-0.933403,-0.031896,0.067072,0.349753,-0.096924,-0.610352,-0.099609,0.98972,9.904641,-2.094687,0.428591,-0.278787,-0.265004,-0.177734,-0.637207,0.117188,7.28587,5.646007,-1.253115,0.235748,-0.585219,-1.142668,-0.530029,-0.349609,0.050537
3.261596,1.377287,8.930921,-1.603661,1.460002,0.307113,-0.085938,0.248779,-0.514404,0.786759,-0.891805,9.379953,1.280503,-0.259989,0.025014,-0.171631,0.1521,-0.612061,-0.039232,8.929784,-1.875893,1.052455,0.154701,0.028524,-0.105469,-0.606934,-0.0896,0.834547,8.94275,-2.387467,0.281585,-0.17802,-0.33214,-0.182861,-0.630127,0.119385,6.756138,5.851243,-1.320408,0.252727,-0.618216,-0.995176,-0.52832,-0.363525,0.055664
2.894349,0.643921,9.175084,-1.383024,1.46431,0.30243,-0.066406,0.278564,-0.533936,1.594294,1.912449,11.064096,1.193446,-0.208923,-0.051925,-0.180664,0.139648,-0.623291,0.194157,10.549816,-1.466671,0.840902,0.08247,0.187259,-0.105225,-0.612061,-0.07959,0.195556,8.710861,-2.700542,0.73752,-0.181094,-0.484805,-0.170166,-0.634033,0.127686,6.25466,6.121166,-1.591455,0.440655,-0.720781,-0.903966,-0.514893,-0.379639,0.068848
2.215188,0.161046,9.633591,-0.763367,1.37712,0.265662,-0.043945,0.289062,-0.529541,1.136121,0.515806,9.342513,0.421848,0.086052,0.286948,-0.178223,0.131348,-0.613525,0.254524,9.120294,-2.31168,0.533191,0.128085,0.30505,-0.117188,-0.610352,-0.064941,0.463882,9.44781,-2.483419,0.965612,-0.430702,-0.468699,-0.170166,-0.632812,0.147217,7.118951,6.724632,-1.623399,0.529676,-0.932797,-0.760474,-0.512939,-0.387695,0.094727
1.301826,1.410252,10.029542,-0.96733,1.393634,0.156194,-0.021729,0.300049,-0.540771,0.447514,0.74299,9.17489,1.269469,-0.193651,0.056756,-0.180908,0.102051,-0.621826,0.01954,9.275881,-2.026528,1.115899,0.151164,0.036024,-0.111572,-0.616211,-0.051758,0.39487,9.902723,-2.665881,0.624008,-0.168367,-0.497277,-0.158691,-0.633789,0.154785,7.157587,7.111546,-1.789939,0.335683,-0.603868,-0.725621,-0.496582,-0.402344,0.107178
1.865396,0.57387,9.495271,-1.331986,1.211822,0.206558,0.001221,0.32959,-0.549316,1.198088,1.745917,9.513065,0.99987,-0.186809,0.15274,-0.185059,0.098145,-0.628662,0.329418,10.549731,-2.077973,0.859459,0.10765,0.178504,-0.115479,-0.612061,-0.047119,-0.466713,9.423673,-2.845796,0.41706,-0.288098,-0.409403,-0.153076,-0.63208,0.154541,6.604758,7.085612,-2.078352,0.191049,-0.731678,-0.766687,-0.484863,-0.411621,0.11084
1.281456,0.677614,9.138912,-1.538805,1.528524,0.386281,0.023438,0.355225,-0.545166,1.343942,1.416106,10.097326,1.256924,-0.190929,0.086548,-0.188477,0.072998,-0.625,0.037546,9.169215,-2.951166,0.163542,0.214537,0.138606,-0.119629,-0.611328,-0.035645,0.037553,9.083456,-3.060544,0.52088,-0.513106,-0.402936,-0.147217,-0.630859,0.173828,6.961602,7.116354,-2.429086,0.20886,-0.682974,-0.699393,-0.478027,-0.417236,0.129639
0.563244,-1.195643,9.714965,-1.717137,1.273627,0.402841,0.056885,0.387451,-0.540283,1.226185,3.223133,10.199209,1.286273,0.160844,0.270335,-0.175537,0.059326,-0.624756,-0.153715,8.532426,-3.051386,0.917094,0.022844,0.144847,-0.117676,-0.610596,-0.026123,0.066223,9.387496,-3.21794,0.600914,-0.171167,-0.334829,-0.137695,-0.627686,0.179932,6.373095,7.216881,-2.699952,0.17587,-0.543413,-0.765259,-0.463379,-0.430664,0.136719
-0.699721,-0.879428,10.734035,-1.451041,1.204643,0.513429,0.069092,0.403076,-0.537354,0.082256,2.387112,8.928169,0.698995,-0.136039,0.104025,-0.185547,0.041748,-0.62207,0.623788,10.684597,-2.240463,0.882861,0.120548,-0.0684,-0.121582,-0.606689,-0.019287,-0.981168,9.691592,-3.273342,0.340025,-0.279225,-0.287204,-0.13916,-0.621582,0.17749,6.412924,7.700802,-3.124129,0.291215,-0.661733,-0.721527,-0.456055,-0.434082,0.142578
1.066579,-2.097129,9.085447,-1.361925,1.187584,0.529697,0.08667,0.435547,-0.537354,1.993935,1.853553,9.965594,1.10282,-0.191112,-0.013416,-0.193359,0.032715,-0.633789,-0.02739,10.182957,-2.951515,0.06473,0.268916,0.090359,-0.120117,-0.597656,-0.013428,-0.145082,9.288041,-3.328057,0.225975,-0.532464,-0.303249,-0.130859,-0.612549,0.191406,6.522392,8.087693,-2.983788,-0.008752,-0.425003,-0.640147,-0.444092,-0.431396,0.155273
-0.8922,-1.723724,9.872006,-0.874597,1.177619,0.659428,0.109375,0.446045,-0.52832,0.675803,3.585188,9.610114,1.640297,0.06057,0.166838,-0.189453,-0.000732,-0.623535,0.175835,8.781799,-3.980078,0.342152,-0.032929,-0.042837,-0.123779,-0.60791,-0.008789,-0.051001,9.268415,-3.619658,0.271533,-0.130935,-0.260329,-0.133789,-0.617432,0.195557,6.134497,7.356208,-2.726253,-0.254549,-0.410914,-0.535361,-0.438232,-0.449707,0.156494
-0.612503,-2.443589,10.009651,-1.174821,1.071045,0.553099,0.133057,0.4646,-0.523193,2.449101,5.212844,10.412887,0.873009,-0.206411,0.154373,-0.190674,-0.009277,-0.62207,0.736533,9.494592,-3.211969,0.625729,0.096612,-0.047533,-0.129883,-0.607666,-0.000977,-1.075318,9.493431,-3.753919,0.233216,-0.28035,-0.290571,-0.130615,-0.623291,0.197998,5.751321,6.871381,-2.711246,-0.0255,-0.345455,-0.615518,-0.436035,-0.456543,0.162354
-1.422291,-3.610144,9.660579,-0.176617,0.698905,0.482029,0.158691,0.477783,-0.529541,1.404484,3.227122,9.513841,0.030732,0.458292,0.222574,-0.175293,-0.007568,-0.627197,0.433377,9.481482,-3.07596,0.393658,0.085814,0.071455,-0.122803,-0.609375,0.004883,-0.45425,9.100208,-3.789644,0.270155,-0.505068,-0.362213,-0.119629,-0.623779,0.201416,5.505307,7.080931,-2.743339,0.125092,-0.613105,-0.635299,-0.41626,-0.466309,0.169189
-0.307203,-1.166854,10.086939,0.162731,0.972188,0.664478,0.16748,0.473877,-0.533203,0.442307,1.747048,8.170069,0.913719,0.076888,0.080182,-0.182617,-0.021729,-0.627441,0.358161,9.047414,-3.223416,0.599561,0.173463,0.080247,-0.119141,-0.611328,0.00293,-0.34888,9.228806,-3.687359,0.512407,-0.19209,-0.317047,-0.106445,-0.622803,0.199463,5.994474,7.314799,-3.10798,0.234162,-0.584073,-0.765462,-0.398193,-0.475098,0.168701
-0.933531,-0.68897,9.753682,-0.6656,0.976329,0.612138,0.192383,0.479736,-0.528809,0.89792,3.153289,8.712957,1.637547,0.118124,0.06802,-0.180176,-0.051758,-0.630615,-0.28836,9.711161,-3.781276,0.63957,0.18628,-0.027378,-0.124756,-0.609375,0.015381,-1.468116,9.621278,-3.410471,0.346309,-0.198847,-0.336299,-0.108643,-0.618652,0.209229,5.169851,8.101749,-3.005816,0.277286,-0.42433,-0.789778,-0.389893,-0.480225,0.180908
-1.551038,-1.221128,10.042545,-0.996768,1.391598,0.722375,0.220703,0.49292,-0.51709,0.843832,6.137846,8.868983,1.495792,-0.058012,0.234377,-0.179443,-0.076416,-0.620117,0.206199,9.325581,-4.20006,0.31854,-0.07229,0.13,-0.124756,-0.602295,0.023926,-1.382788,9.184848,-3.815374,0.167798,-0.392756,-0.311343,-0.102783,-0.612793,0.216797,5.026126,8.119377,-2.944382,-0.08489,-0.61023,-0.803686,-0.375977,-0.48291,0.189453
-2.090048,-1.571133,9.738125,-1.561608,1.037803,0.689588,0.231934,0.533936,-0.501953,1.273852,5.705654,9.4376,-0.237885,0.040329,0.172318,-0.187012,-0.057617,-0.622559,0.782112,8.865904,-3.363634,0.450707,0.182126,0.017446,-0.126709,-0.605713,0.033691,-1.28989,9.106874,-4.213318,0.410929,-0.301567,-0.299385,-0.100586,-0.617188,0.223633,4.94716,7.392571,-3.471959,-0.090785,-0.473486,-0.98826,-0.361572,-0.501221,0.198486
-1.924179,-3.892903,9.10444,-1.168914,1.34956,0.741423,0.261719,0.533203,-0.498535,0.355535,0.621234,8.185562,-0.00952,-0.012093,0.14918,-0.185547,-0.072754,-0.629395,0.097841,9.288371,-3.599682,0.719309,0.329768,0.062801,-0.128418,-0.603516,0.037842,-1.324986,9.346981,-3.703617,0.394505,-0.350516,-0.283227,-0.09375,-0.611084,0.224365,4.369334,7.665015,-3.609692,0.341256,-0.587826,-1.140152,-0.342285,-0.506836,0.201172
-1.59571,-3.12392,9.124359,-0.187786,1.362482,0.650304,0.289062,0.547119,-0.486816,1.537269,1.823527,7.987331,2.767317,-0.191305,0.154098,-0.185791,-0.102539,-0.608154,-0.125501,9.67992,-5.018198,0.333548,0.132409,0.006069,-0.129639,-0.60791,0.042725,-1.092065,9.002073,-3.788831,0.129776,-0.294473,-0.352078,-0.086914,-0.614502,0.230225,4.388301,8.523139,-3.449217,0.218022,-0.542998,-1.049816,-0.323486,-0.518066,0.216064
-4.486222,-1.560871,9.56889,-0.522916,1.704349,0.343414,0.313232,0.550781,-0.478516,2.281294,10.462681,9.720592,2.63349,0.25452,0.376622,-0.187988,-0.144775,-0.602295,0.608568,8.055663,-3.980847,0.347603,-0.056988,0.203049,-0.131592,-0.610352,0.041016,-1.211303,8.318824,-4.224829,0.266364,-0.222963,-0.383549,-0.085449,-0.616943,0.226562,4.084437,8.095249,-3.659602,-0.084032,-0.445016,-0.947541,-0.312256,-0.527832,0.20874
-4.072469,-2.423408,9.053562,-0.866074,0.840817,0.605912,0.334961,0.557373,-0.463623,0.486341,8.109276,8.622643,-1.497419,0.230413,0.179663,-0.178467,-0.124268,-0.609375,1.285898,8.31905,-3.184703,0.683429,0.151494,0.011733,-0.13501,-0.600586,0.052246,-1.451379,8.550459,-4.190191,0.503637,-0.328443,-0.403639,-0.084961,-0.607178,0.23999,3.753577,7.458814,-3.855447,0.07712,-0.516879,-0.929203,-0.302734,-0.526855,0.21582
-2.963086,-2.470331,8.772946,-0.46298,1.318344,0.66169,0.35498,0.564697,-0.453613,0.795136,-0.17545,6.630255,0.088575,0.045291,-0.077716,-0.182129,-0.127441,-0.605469,-0.123781,9.241843,-3.957498,1.069645,0.438206,0.103318,-0.137451,-0.597168,0.070312,-1.011889,8.52843,-3.729824,0.448133,-0.222014,-0.456118,-0.073975,-0.608154,0.249512,3.499869,7.570752,-3.760253,0.511071,-0.501249,-0.948566,-0.281738,-0.533203,0.232178
-3.040297,-1.194326,8.590004,-0.805204,1.166951,0.634356,0.378906,0.570557,-0.44458,0.766896,4.293517,7.760495,2.958843,-0.120969,-0.095742,-0.18457,-0.171387,-0.595947,0.283267,9.816697,-4.69038,0.2946,-0.073834,-0.085578,-0.137939,-0.60498,0.071289,-1.673622,8.689196,-3.699945,0.303641,-0.177486,-0.460594,-0.068604,-0.613525,0.246338,3.710387,9.011252,-3.351551,0.468779,-0.527789,-0.864601,-0.267822,-0.54248,0.233398
-3.711605,-2.563281,8.271964,-1.520931,1.53471,0.322491,0.402344,0.598877,-0.419922,2.806221,10.809048,9.691442,1.477739,-0.008751,0.179561,-0.185791,-0.1875,-0.591309,0.692178,7.82219,-5.381502,0.392537,0.031106,0.163521,-0.128418,-0.599121,0.082764,-1.29171,8.352247,-4.054311,0.165652,-0.41836,-0.507965,-0.048096,-0.607666,0.255859,3.802266,8.803544,-3.603123,-0.195272,-0.310056,-0.618774,-0.248047,-0.54248,0.238525
-4.999728,-3.769937,7.967785,-0.903576,1.393885,0.302187,0.422852,0.609619,-0.398193,0.670871,7.48548,7.714038,-1.705593,0.370891,0.329584,-0.178711,-0.158691,-0.597412,0.725257,7.868484,-3.371064,0.60596,-0.123273,-0.243514,-0.133057,-0.598389,0.092529,-1.326342,8.199435,-4.562186,0.207933,-0.156701,-0.480535,-0.050781,-0.607422,0.258301,3.153512,7.819051,-4.248673,-0.036522,-0.33436,-0.574418,-0.240723,-0.544678,0.243896
-5.860734,-3.448298,7.879604,-0.59315,1.104848,0.404522,0.440918,0.612793,-0.389893,0.881173,0.215891,6.828269,0.118973,-0.23325,-0.129681,-0.181641,-0.163818,-0.594482,1.242185,9.491589,-4.264179,1.160337,0.037403,0.110632,-0.13623,-0.592773,0.107666,-2.152787,8.584705,-4.48842,0.49046,-0.202749,-0.439814,-0.047119,-0.601807,0.26709,3.464827,8.501767,-4.124437,0.48131,-0.432657,-0.585885,-0.232178,-0.544678,0.250244
-4.094321,-3.650271,7.702207,0.084104,1.194856,0.448439,0.452148,0.602783,-0.385986,2.014822,6.03963,7.57917,3.087378,0.131412,-0.342818,-0.185547,-0.217773,-0.583496,0.60155,9.621029,-4.77512,0.104149,0.151859,-0.315676,-0.132568,-0.592529,0.106201,-1.913348,9.124791,-4.272232,0.198807,-0.383537,-0.484458,-0.036865,-0.599365,0.264404,3.2998,9.571443,-3.920064,0.174009,-0.298164,-0.500242,-0.220703,-0.544678,0.249756
-5.470026,-1.361978,7.623203,-0.469823,1.209884,0.090491,0.47168,0.606445,-0.371582,1.609518,10.513123,9.592235,0.729782,-0.136123,0.088384,-0.179443,-0.231689,-0.577637,0.464399,7.669495,-5.94752,0.315461,-0.175412,0.216104,-0.124512,-0.595947,0.104492,-1.544184,8.595167,-4.587605,-0.060386,-0.318796,-0.433802,-0.021973,-0.602295,0.258545,3.524948,9.004623,-4.263748,-0.298348,-0.344271,-0.344229,-0.206787,-0.553467,0.242188
-6.477048,-3.016314,6.507058,-1.356838,1.277579,-0.064035,0.479492,0.629639,-0.348145,1.54765,6.979902,7.853109,-0.877909,0.450332,0.057125,-0.181641,-0.208008,-0.588379,0.594953,7.958827,-4.391813,0.669686,0.015407,-0.36973,-0.123535,-0.585449,0.126221,-2.136398,8.014308,-4.416561,0.057732,-0.078533,-0.457944,-0.018311,-0.592773,0.268799,3.056877,8.119446,-4.608895,-0.063305,-0.124032,-0.264887,-0.203125,-0.540527,0.251953
-7.195745,-3.550711,6.899328,-1.470689,0.740753,0.150819,0.496826,0.646729,-0.325439,-0.35339,4.134782,6.579746,-0.04526,0.054805,-0.238697,-0.168945,-0.205322,-0.588379,0.167914,9.039251,-4.606757,0.660248,-0.171068,0.068399,-0.124268,-0.591553,0.128418,-2.853724,8.383893,-4.230124,0.294116,-0.187938,-0.325606,-0.010742,-0.599365,0.268311,2.710691,8.905021,-4.080281,0.361865,-0.287298,-0.427415,-0.193604,-0.549072,0.252197
-4.738669,-5.633717,5.303972,-0.612501,0.86637,-0.009662,0.499756,0.651855,-0.30542,1.797629,3.872247,7.219042,1.003392,-0.130577,-0.195434,-0.176758,-0.224365,-0.574707,0.925923,9.058192,-5.15452,0.052638,-0.024124,-0.354031,-0.129883,-0.589844,0.132812,-2.4902,8.979525,-4.306453,0.015917,-0.34253,-0.332729,-0.014893,-0.600098,0.272461,3.035274,9.756508,-3.993621,-0.111428,-0.119625,-0.264902,-0.193604,-0.552002,0.258545
-5.481171,-2.25408,6.609036,-0.075771,0.895317,-0.007547,0.516113,0.660645,-0.29541,1.251378,7.789419,8.157597,2.069644,0.163152,-0.140533,-0.165283,-0.249268,-0.563477,-0.102019,7.500666,-6.125794,0.233025,0.006073,0.009895,-0.122559,-0.595215,0.129395,-2.314347,8.310489,-4.551272,-0.247467,-0.155257,-0.387873,-0.002441,-0.60498,0.258789,2.400036,8.621413,-4.352928,-0.455199,-0.091121,-0.163902,-0.183838,-0.557861,0.238037
-7.041,-2.960416,6.765286,-1.2005,1.154677,-0.553696,0.515869,0.667969,-0.276367,1.17771,10.883089,8.747342,-0.317316,0.189109,-0.021368,-0.166016,-0.249512,-0.56665,0.236743,8.594185,-5.203482,0.727687,-0.283808,-0.389612,-0.11084,-0.5896,0.141846,-2.688109,7.99987,-4.523776,0.066725,-0.150975,-0.378665,0.008301,-0.599121,0.262695,2.930001,8.159103,-4.831391,0.081043,-0.158339,-0.057051,-0.18042,-0.55127,0.244141
-6.138654,-3.031935,6.016421,-1.303139,0.872873,-0.461992,0.509766,0.682861,-0.255371,0.517195,4.767595,6.688604,-1.646594,0.188978,-0.041036,-0.169678,-0.231201,-0.58374,0.875742,8.488777,-3.836367,0.039753,0.042569,0.028196,-0.119629,-0.595703,0.145996,-2.529246,8.555025,-4.32535,0.137138,-0.229341,-0.421121,0.00708,-0.606445,0.266846,2.929434,9.471821,-4.860719,0.359304,-0.035291,-0.053513,-0.187256,-0.55835,0.250732
-6.761782,-4.225533,5.004912,-1.918057,0.968626,-0.503674,0.519531,0.699463,-0.2229,0.616356,1.859219,6.497913,0.376972,0.168873,-0.298916,-0.157959,-0.238281,-0.582031,-0.450034,7.379353,-5.413024,0.341525,-0.01328,-0.259872,-0.099854,-0.594238,0.159424,-2.077721,8.416699,-3.970759,-0.111421,-0.041399,-0.326034,0.027832,-0.60376,0.273193,3.595927,9.985733,-4.672688,-0.004762,-0.004044,0.271592,-0.172119,-0.553467,0.258057
-5.116219,-4.993532,4.3016,-1.223866,0.961107,-0.332836,0.518066,0.71582,-0.192383,0.568467,7.674833,5.816787,2.696485,0.191198,-0.26381,-0.155518,-0.276123,-0.555176,-0.356076,8.150844,-5.971212,0.319939,-0.059456,-0.192692,-0.102539,-0.589111,0.155029,-2.790308,8.032648,-4.022514,-0.196242,0.228184,-0.293185,0.02124,-0.600098,0.262207,3.30745,9.401569,-4.867925,-0.153231,0.321141,0.433374,-0.184326,-0.548828,0.246338
-7.434412,-4.724922,4.513839,-1.698437,0.995867,-0.534165,0.516357,0.730469,-0.165039,0.08329,12.622696,8.97734,-0.103698,0.104356,-0.08751,-0.153809,-0.272705,-0.564453,-0.931142,9.12389,-5.163329,-0.019967,-0.409258,-0.366035,-0.10791,-0.583008,0.162354,-3.343887,8.755407,-3.642323,-0.102161,0.057509,-0.071667,0.012207,-0.593262,0.264648,3.626846,9.672641,-4.113751,0.002051,0.293964,0.424392,-0.205566,-0.538818,0.249268
-6.752499,-6.13684,3.685446,-1.442262,1.058761,-0.444958,0.515381,0.741943,-0.13916,0.810188,6.166095,6.986783,-2.148202,0.030234,-0.145605,-0.150146,-0.245117,-0.580322,0.484029,7.213047,-5.011599,-0.882546,-0.30649,-0.22711,-0.095215,-0.585938,0.148682,-2.82096,8.654916,-3.803154,-0.734165,0.067085,0.024409,0.019531,-0.595703,0.255371,3.457352,9.782409,-4.028808,-0.504983,0.644971,0.477314,-0.206787,-0.537354,0.23999
-7.473528,-6.213008,3.602743,-1.325149,0.71544,-0.548444,0.514893,0.756348,-0.107422,0.59056,2.462604,6.097197,0.256346,0.288858,-0.357718,-0.143066,-0.247803,-0.575684,-0.501961,7.09981,-5.688803,0.176563,-0.19492,-0.400587,-0.08667,-0.583984,0.152588,-2.766767,7.862003,-4.236311,-0.59046,0.227307,0.097872,0.021729,-0.598633,0.243408,3.041263,8.414364,-4.009871,-0.595456,0.466772,0.52965,-0.213135,-0.54126,0.224365
-6.004202,-7.581152,2.795179,-0.192076,0.856363,-0.444231,0.513184,0.750244,-0.102051,1.134648,7.026709,7.346967,1.658403,0.116383,-0.32022,-0.137451,-0.282227,-0.564209,0.146032,9.183873,-5.400609,-0.309699,-0.314813,-0.409673,-0.078369,-0.586182,0.146973,-2.822263,8.264373,-4.260663,-0.276409,0.099653,0.107638,0.022217,-0.596924,0.242432,3.473992,8.107436,-4.170768,-0.139861,0.577504,0.622225,-0.223633,-0.535645,0.219482
-7.235434,-5.281391,4.074842,-0.05342,0.650009,-0.616359,0.503418,0.760742,-0.09082,1.049874,11.375759,7.300642,0.373423,0.52801,-0.308721,-0.12915,-0.281738,-0.561279,-0.247014,7.77515,-5.453145,-0.390217,-0.460306,0.021073,-0.083008,-0.594482,0.136719,-2.211347,8.622163,-3.885066,-0.369727,0.166737,-0.034356,0.01709,-0.603027,0.234863,3.198552,8.82067,-3.73514,0.101387,0.505169,0.772228,-0.238281,-0.536621,0.211426
-8.117265,-5.208948,4.477694,-0.568985,0.77406,-0.767919,0.503906,0.770752,-0.086182,-0.236443,7.34728,6.507055,-1.733324,-0.011273,-0.393893,-0.120117,-0.258057,-0.583496,0.119265,8.220084,-4.502291,-0.084938,-0.169638,-0.569205,-0.070312,-0.591797,0.145508,-2.515267,8.363088,-3.799547,-0.533495,0.292397,-0.017076,0.020752,-0.607178,0.232422,4.103553,9.201744,-3.637843,-0.186239,0.546997,1.130927,-0.253174,-0.531494,0.21582
-6.382269,-5.233896,3.706814,-1.08029,0.310011,-0.620107,0.493164,0.779785,-0.060547,1.017689,3.324251,6.205184,-0.276057,0.291327,-0.60476,-0.111816,-0.254639,-0.582764,-0.889146,8.386361,-4.87123,-0.225659,-0.444345,0.013194,-0.071045,-0.592041,0.136963,-2.90764,8.135445,-3.871622,-0.306778,0.257481,-0.067113,0.018066,-0.60498,0.224365,4.004676,8.305778,-3.277812,-0.279816,0.659957,1.208603,-0.275391,-0.520508,0.198486
-5.621939,-6.494894,2.170047,-1.126425,0.442319,-0.534362,0.483154,0.791016,-0.031982,-0.617138,6.811277,6.678679,1.738389,0.156987,-0.605139,-0.10791,-0.2771,-0.55957,-0.034992,8.106211,-5.162096,-0.370629,-0.264218,-0.447903,-0.059082,-0.602539,0.132568,-2.770961,9.014583,-3.572634,-0.125657,0.146189,0.083819,0.020508,-0.612793,0.22168,4.683565,8.310481,-3.391875,0.056582,0.518682,1.184906,-0.289551,-0.519043,0.195801
-6.956193,-6.687065,2.932974,-0.932883,0.619206,-0.685404,0.473877,0.786865,-0.027588,0.310141,10.693342,7.548097,0.060026,0.053337,-0.650212,-0.10376,-0.292969,-0.574707,-1.921213,8.799052,-6.25598,0.067554,-0.265156,-0.148442,-0.063965,-0.593994,0.137695,-2.695211,9.527513,-3.490552,-0.469986,0.271607,0.050617,0.013916,-0.610107,0.217529,5.04667,8.731797,-3.165623,-0.057859,0.701695,1.169584,-0.312012,-0.503906,0.19165
-6.023274,-7.616602,2.189618,-1.1487,0.318424,-0.550514,0.469238,0.800049,0.000244,-0.192563,7.630179,7.092548,-1.243489,0.084017,-0.353678,-0.09668,-0.268555,-0.578125,-0.837245,9.21217,-5.093878,-0.798411,-0.819155,-0.391569,-0.05127,-0.60498,0.126953,-3.2305,9.202244,-3.46028,-0.71877,0.331788,0.120192,0.017822,-0.617188,0.208984,5.030072,8.496073,-3.05342,-0.217073,0.659602,1.120527,-0.32666,-0.50293,0.186279
-6.575821,-8.324728,2.193241,-0.472804,0.439953,-0.647447,0.449951,0.797852,0.004395,-0.251746,3.787051,6.237036,-0.807885,0.211953,-0.508924,-0.095703,-0.265869,-0.588135,-0.668314,7.260586,-4.868246,-0.685444,-0.317539,0.090517,-0.048828,-0.601562,0.116211,-3.196621,8.81241,-3.750006,-0.496199,0.154821,0.183488,0.018311,-0.614258,0.199707,5.59073,8.249324,-3.311562,-0.192009,0.703925,1.054182,-0.339844,-0.490967,0.174561
-5.356417,-6.834498,2.029782,-0.041896,0.476977,-0.479487,0.449951,0.807861,0.015137,-0.653004,5.546675,6.221845,1.43304,0.136999,-0.577746,-0.085449,-0.281494,-0.572754,-1.796679,8.227392,-5.65167,0.058034,-0.457345,-0.444977,-0.043213,-0.600342,0.115723,-2.551277,9.181947,-3.718446,-0.271029,0.253487,0.186958,0.014648,-0.610596,0.190918,5.217429,7.782786,-3.13328,-0.166847,0.733767,1.001193,-0.361084,-0.478027,0.160889
-5.986674,-6.23089,2.480017,-0.402291,0.363224,-0.490373,0.443115,0.807861,0.024902,-0.842191,10.48048,7.413309,0.287824,0.1441,-0.423556,-0.080322,-0.288086,-0.573242,-1.172069,10.102426,-4.732583,-0.305213,-0.583342,0.144175,-0.044678,-0.605469,0.113037,-3.295297,9.693279,-3.434143,-0.349105,0.491584,0.186762,0.008057,-0.61499,0.186523,5.462412,7.628523,-2.88709,0.077768,0.521237,0.930811,-0.376221,-0.472412,0.157959
-5.713361,-7.057463,2.211396,-0.58412,0.64061,-0.426723,0.434814,0.810791,0.037598,-0.929854,7.088277,6.525626,-1.876782,-0.144465,-0.410905,-0.077637,-0.264893,-0.585693,-1.221037,8.408097,-4.762399,-0.907146,-0.41914,-0.158715,-0.039551,-0.605469,0.102051,-3.231724,9.323774,-3.357737,-0.555822,0.189161,0.138125,0.011963,-0.616211,0.184326,6.091504,7.87817,-2.533958,0.061614,0.580856,0.802145,-0.385254,-0.464111,0.155762
-6.122694,-7.012892,1.955997,-0.547958,0.340124,-0.267287,0.432617,0.815186,0.043945,-0.617075,3.212751,6.055367,-0.383154,-0.081103,-0.369513,-0.075684,-0.25415,-0.591064,-1.327566,7.715296,-4.635907,-0.237915,-0.407894,0.099782,-0.038574,-0.608398,0.095215,-2.424352,8.819812,-3.360761,-0.421857,0.244883,0.209844,0.00708,-0.624268,0.171631,5.943134,7.488919,-2.455059,-0.165603,0.604548,0.737441,-0.398682,-0.458252,0.139648
-5.779328,-7.275445,1.376558,-0.657938,0.581568,-0.357896,0.429443,0.816895,0.055908,-0.875369,6.780111,7.318207,1.15269,-0.136399,-0.632458,-0.072266,-0.272461,-0.584717,-1.553583,9.144841,-4.576213,-0.162426,-0.376365,-0.185213,-0.039795,-0.60791,0.097656,-2.632866,9.027985,-3.096599,-0.224444,0.412933,0.215801,0.0,-0.62085,0.176514,6.088072,6.788536,-2.596644,-0.025775,0.505798,0.64669,-0.414307,-0.452637,0.13916
-5.938731,-7.364572,1.429458,-0.848179,0.45425,-0.352741,0.414307,0.816406,0.075195,-0.336339,9.428643,7.950155,-0.265323,-0.065023,-0.298617,-0.078125,-0.273926,-0.584473,-1.650529,9.036659,-4.505607,-0.699562,-0.506259,0.148003,-0.038574,-0.5979,0.087158,-2.714386,9.327768,-2.800912,-0.401699,0.271987,0.226503,-0.000732,-0.611084,0.169922,6.323627,7.196387,-2.319763,0.248668,0.541991,0.569323,-0.423096,-0.43457,0.133057
-5.775129,-8.862116,0.583956,-0.61305,0.505954,-0.497497,0.406982,0.816162,0.093994,-0.665505,7.001868,7.255351,-1.40538,-0.035548,-0.492965,-0.07373,-0.254395,-0.591309,-1.050845,8.010583,-4.020431,-0.571874,-0.581577,-0.063871,-0.039795,-0.606689,0.082275,-2.173403,8.940949,-3.018017,-0.585441,0.242415,0.24856,-0.003906,-0.619385,0.165039,6.438706,7.640301,-2.216129,-0.048586,0.602696,0.567777,-0.430176,-0.434082,0.128174
-5.374205,-7.773536,0.671971,0.071493,0.427403,-0.37342,0.402344,0.819824,0.088379,-0.752437,4.412174,7.101458,-1.135432,0.008976,-0.361349,-0.069824,-0.238525,-0.605225,-1.405805,8.644206,-4.191192,-0.300025,-0.294314,-0.021585,-0.037109,-0.624756,0.072754,-2.14923,8.648814,-3.176702,-0.425066,0.380164,0.253004,-0.006104,-0.637207,0.153564,6.355645,6.87007,-2.70243,-0.214524,0.634713,0.692867,-0.441406,-0.442627,0.113281
-5.792333,-6.974852,1.19012,-0.264267,0.445713,-0.475089,0.407227,0.825928,0.105957,-0.709498,4.692153,6.910186,0.475309,-0.079837,-0.504896,-0.055908,-0.241943,-0.587891,-1.72801,9.423044,-4.23492,-0.358023,-0.620725,-0.045599,-0.027832,-0.614746,0.073975,-2.335133,9.193158,-2.999104,-0.208435,0.322229,0.237195,-0.001221,-0.629395,0.15625,6.459726,6.730666,-2.417438,0.207045,0.561832,0.689839,-0.444824,-0.426514,0.115967
-5.512611,-7.728874,1.026741,-0.41933,0.33861,-0.48186,0.38916,0.825684,0.104004,-0.647688,8.17168,7.879882,0.197202,-0.056484,-0.376983,-0.059082,-0.246826,-0.601807,-0.783757,9.178734,-3.889759,-0.717341,-0.50537,0.025289,-0.033447,-0.613037,0.068848,-2.176897,9.703754,-2.975736,-0.472505,0.30389,0.215547,-0.009033,-0.629395,0.152588,7.123222,7.654848,-1.87456,0.203326,0.584835,0.78932,-0.461426,-0.417725,0.111328
-5.853038,-7.143773,1.041513,-0.534984,0.325755,-0.428625,0.371826,0.820801,0.11499,-0.838519,7.756329,7.357306,-0.741594,-0.16248,-0.556086,-0.07251,-0.244141,-0.601562,-1.334602,8.349567,-3.778942,-0.537857,-0.357269,-0.053756,-0.027344,-0.617676,0.056641,-2.392773,9.140571,-3.180537,-0.660625,0.285435,0.279092,-0.009033,-0.632324,0.141846,7.07269,7.371328,-1.903295,-0.32591,0.687386,0.818191,-0.472168,-0.404785,0.091797
-6.007686,-8.120508,0.600461,-1.01634,0.160882,-0.474235,0.375244,0.82666,0.132812,-1.190141,7.829768,7.896866,-1.799428,-0.212112,-0.641884,-0.059814,-0.212646,-0.615723,-1.329375,9.485385,-3.140666,-0.181871,-0.316096,-0.089161,-0.033203,-0.614746,0.059326,-2.264174,9.028041,-3.177177,-0.3069,0.189782,0.243388,-0.020264,-0.630371,0.140137,6.73558,5.982909,-2.191431,-0.328799,0.638383,0.869205,-0.491699,-0.394043,0.085693
-4.776123,-9.173552,0.07824,-0.488502,0.133563,-0.459952,0.36084,0.821533,0.137695,-0.219948,4.516385,7.860297,-2.086783,-0.263153,-0.640841,-0.06543,-0.186768,-0.62793,-1.548448,9.194865,-4.184852,-0.717105,-0.160055,0.07504,-0.025879,-0.603271,0.042725,-1.965522,9.451856,-3.025945,-0.267015,0.248736,0.20281,-0.015625,-0.623779,0.129883,6.768205,5.747769,-2.195245,0.199839,0.450055,0.741271,-0.492432,-0.372314,0.074463
-5.514803,-8.053197,0.161491,-0.306451,0.270474,-0.523322,0.35791,0.829102,0.145752,-1.290421,3.318853,7.9272,-0.584075,0.14399,-0.578147,-0.054688,-0.169434,-0.62915,-2.507068,8.254412,-5.401012,-0.153636,-0.28467,-0.013387,-0.029053,-0.613525,0.049316,-2.150052,9.028709,-3.125749,-0.285229,0.391944,0.136072,-0.019287,-0.636963,0.134033,6.946381,6.360107,-2.042532,0.322484,0.384314,0.765052,-0.503906,-0.369873,0.080811
-4.416947,-8.339083,-0.329159,-0.405535,0.131892,-0.586497,0.3396,0.831787,0.155518,-1.34674,5.776772,8.36837,0.115156,-0.281097,-0.374546,-0.067383,-0.173584,-0.626709,-1.546818,9.974957,-3.360587,0.156599,-0.555693,-0.017009,-0.021729,-0.618652,0.050049,-2.774701,9.531063,-2.663288,0.049485,0.334487,0.083403,-0.016357,-0.640625,0.137207,7.364449,6.647911,-1.613387,0.226978,0.317344,0.730207,-0.511963,-0.365723,0.078857
-5.031745,-8.502904,0.047014,-0.21656,0.291767,-0.572143,0.334229,0.83374,0.160889,-0.560352,9.915017,8.980328,-1.364586,0.083113,-0.553817,-0.057373,-0.148926,-0.631592,-1.358396,9.948233,-3.188998,-0.706542,-0.245045,0.048783,-0.025146,-0.616943,0.039551,-1.967725,10.074814,-2.399692,-0.370202,-0.055495,0.099669,-0.019043,-0.641602,0.130859,8.158087,6.590425,-1.643241,-0.050212,0.476424,0.763131,-0.524658,-0.354004,0.06543
-4.839469,-9.029341,-0.540609,-0.079066,0.10415,-0.595922,0.328857,0.825439,0.153809,-1.740823,4.641898,7.990849,-3.957428,-0.176826,-0.255772,-0.053223,-0.09375,-0.653076,-2.282151,7.589944,-3.976293,-0.634927,-0.327865,0.053728,-0.022461,-0.611084,0.029785,-1.168684,8.930658,-2.672458,-0.629913,0.33872,0.092348,-0.016602,-0.63501,0.121338,7.55041,5.524929,-1.711784,-0.228266,0.577369,0.853308,-0.527344,-0.33374,0.054443
-5.092759,-8.941782,-0.392521,0.315422,0.131941,-0.557724,0.313965,0.838867,0.159424,-0.544963,1.099621,8.425098,-1.707546,0.098053,-0.509108,-0.054932,-0.056641,-0.646973,-2.068825,8.965886,-3.812338,0.307692,-0.490779,-0.054788,-0.023926,-0.623291,0.034668,-2.485495,8.890025,-2.494171,-0.083911,0.450068,0.15696,-0.022461,-0.650879,0.118408,7.828151,5.085245,-1.808021,0.218066,0.39882,0.711883,-0.541992,-0.334473,0.051025
-4.818561,-8.507797,-0.372729,0.166386,0.049779,-0.736113,0.305908,0.838867,0.157959,-1.922904,3.3931,9.574377,-1.211808,0.118589,-0.234581,-0.047852,-0.039307,-0.649658,-1.834636,10.507198,-2.763692,-0.464232,-0.455265,-0.003614,-0.01416,-0.622559,0.032471,-2.117123,9.989346,-2.156066,-0.127221,0.001816,0.100334,-0.011475,-0.649414,0.12207,8.097077,6.061954,-1.351992,0.369159,0.526514,0.720433,-0.537842,-0.321533,0.047607
-4.40117,-8.772962,-0.292235,0.192443,0.040371,-0.732752,0.287842,0.843018,0.14917,-0.787091,3.117723,8.74584,-1.252225,0.06052,-0.356533,-0.05542,-0.019287,-0.656982,-1.773871,8.596199,-2.840645,-0.787624,-0.501562,0.150149,-0.02002,-0.626465,0.013672,-1.090873,9.72081,-2.236415,-0.62568,0.268468,0.115687,-0.016846,-0.656006,0.108154,8.189285,5.995723,-1.15937,-0.170815,0.554501,0.7968,-0.551025,-0.312744,0.030029
-4.188607,-8.841891,-0.153802,0.375599,0.031429,-0.698842,0.276367,0.834229,0.138672,-2.186499,4.055995,9.181179,-1.492534,0.269055,-0.362307,-0.048096,-0.003174,-0.659912,-2.024783,8.498042,-3.090507,-0.088041,-0.282808,-0.128244,-0.017822,-0.624512,0.021729,-2.121051,8.882281,-2.275611,-0.492819,0.480078,0.114775,-0.023438,-0.65332,0.111084,8.121336,4.533462,-1.449867,-0.198701,0.590284,0.857848,-0.563477,-0.296631,0.0271
-4.899181,-9.390851,-0.333879,0.560772,-0.072298,-0.65283,0.269043,0.848389,0.138184,-1.583393,1.820861,8.82385,-1.919779,-0.148634,-0.30759,-0.046631,0.040283,-0.656006,-2.525625,10.122544,-2.682729,-0.149665,-0.477321,0.03266,-0.020996,-0.623291,0.016357,-2.021879,9.405501,-2.186904,-0.051358,0.122244,0.092214,-0.024658,-0.652344,0.102051,8.099563,4.437814,-1.254658,0.396822,0.479693,0.667959,-0.572021,-0.282471,0.01709
-4.282104,-9.664901,-0.319036,0.994985,-0.341887,-0.630214,0.257568,0.844482,0.118896,-1.385848,2.308742,9.394773,-1.03086,0.234051,-0.42288,-0.043945,0.050781,-0.656006,-1.711523,9.438877,-2.90048,-0.714367,-0.465123,0.063775,-0.018066,-0.630859,0.009033,-1.434071,10.201099,-2.077122,-0.287545,0.338597,0.100042,-0.022461,-0.662598,0.100586,8.705824,5.597651,-0.905811,0.390947,0.480159,0.688354,-0.575439,-0.276123,0.01416
-3.784423,-9.261196,-0.064007,1.536176,-0.33363,-0.640196,0.251221,0.841064,0.095703,-1.675,1.301742,9.215003,-1.527648,-0.118598,-0.274052,-0.043457,0.070557,-0.652344,-2.074196,8.494909,-3.35164,-0.265606,-0.395793,0.025449,-0.014648,-0.624268,0.005127,-1.883054,9.546192,-2.111224,-0.65352,0.346916,0.063055,-0.018555,-0.659668,0.091797,8.596662,5.073048,-0.87236,-0.203331,0.610746,0.724408,-0.578125,-0.258545,0.00293
-4.202625,-7.651381,0.728733,1.522504,-0.386965,-0.614103,0.243408,0.845459,0.064209,-1.303148,0.59027,9.234673,-0.33746,0.146324,-0.351004,-0.038086,0.082764,-0.659424,-2.015716,9.976127,-2.158252,-0.177674,-0.437232,-0.077207,-0.021484,-0.634766,0.002686,-1.654871,9.14216,-2.166443,-0.331157,0.219618,0.087635,-0.030518,-0.670654,0.08667,8.628252,3.893018,-1.245688,0.050468,0.492405,0.743287,-0.592773,-0.254639,-0.007324
-3.980591,-8.653721,0.883432,1.018318,-0.566703,-0.7573,0.220459,0.841064,0.057129,-1.953634,2.546046,10.018625,-0.378042,0.003561,-0.345611,-0.048828,0.084961,-0.64502,-2.135621,9.322383,-2.450743,-0.665268,-0.400338,0.151861,-0.008057,-0.625244,-0.003418,-1.396167,9.805018,-1.9552,-0.168612,0.328236,0.118922,-0.015625,-0.659912,0.091553,9.095556,4.462313,-1.010282,0.465255,0.543286,0.612354,-0.580566,-0.237061,-0.008057
-3.584231,-9.442395,1.243597,1.228621,-0.564644,-0.735945,0.20166,0.849609,0.02832,-1.228522,1.99495,9.512165,-0.904155,0.110699,-0.387251,-0.054443,0.10791,-0.651123,-2.183678,8.815311,-2.459939,-0.419048,-0.440388,-0.050482,-0.018311,-0.637939,-0.013672,-1.827963,9.979893,-1.721722,-0.547146,0.433828,0.101064,-0.03125,-0.675781,0.077881,8.735001,4.943348,-0.591014,0.169592,0.64113,0.692754,-0.598633,-0.235352,-0.022949
-3.565559,-9.273777,1.684535,1.336587,-0.971303,-0.692399,0.200439,0.839111,0.008057,-1.846353,0.997762,9.393756,-0.911654,0.135769,-0.311849,-0.040771,0.111816,-0.649902,-1.951482,9.093362,-2.376803,-0.412798,-0.418757,0.109496,-0.023682,-0.636475,-0.021729,-1.802527,9.179055,-1.932903,-0.637848,0.241644,0.122984,-0.031738,-0.676758,0.064453,8.886879,4.267159,-0.711205,-0.014336,0.536985,0.701925,-0.606445,-0.219482,-0.037842
-2.633553,-8.450936,2.094949,1.582831,-0.8403,-0.594672,0.188965,0.841797,-0.019287,-1.540877,0.516848,9.126317,-0.639739,0.116514,-0.416624,-0.03833,0.130859,-0.648193,-2.077233,9.525905,-2.204132,-0.240799,-0.389531,0.003626,-0.012939,-0.638184,-0.020752,-1.135622,9.191813,-2.059797,-0.199512,0.269696,0.13395,-0.025146,-0.681396,0.064941,8.80679,3.73802,-0.577343,0.170986,0.695154,0.761445,-0.601807,-0.209961,-0.047363
-3.066237,-8.208179,2.683187,1.249075,-1.090127,-0.555643,0.179199,0.837891,-0.040527,-2.220865,0.953944,9.523937,-0.26206,0.044797,-0.359221,-0.039062,0.133545,-0.650879,-2.104635,10.223019,-2.009579,-0.432923,-0.357452,0.002972,-0.018066,-0.630615,-0.01709,-1.859072,10.152945,-1.683757,-0.245321,0.504577,0.079139,-0.032227,-0.677246,0.072754,8.434886,3.955852,-0.345253,0.286644,0.530114,0.701266,-0.61084,-0.192139,-0.039551
-2.31831,-8.580342,2.944311,1.401264,-1.022204,-0.523402,0.168945,0.835938,-0.05542,-1.816576,0.982709,9.701719,-0.770023,-0.075937,-0.428943,-0.039307,0.148193,-0.644043,-2.350873,9.031537,-2.106218,-0.612185,-0.356283,0.118378,-0.010742,-0.635986,-0.040283,-1.909297,9.667631,-1.807777,-0.644409,0.199814,0.020024,-0.021484,-0.677246,0.050293,9.055836,3.747059,-0.350689,0.109217,0.482866,0.730619,-0.607422,-0.178955,-0.06543
-2.095992,-9.003999,2.560125,1.367897,-1.110562,-0.565845,0.151855,0.817383,-0.078613,-1.783255,-0.938216,9.17783,-0.358128,-0.037591,-0.301629,-0.043701,0.142334,-0.645752,-1.966449,8.881007,-2.241041,-0.02235,-0.333589,-0.003571,-0.005615,-0.644775,-0.02832,-1.054253,8.828917,-1.973971,-0.262913,0.307668,-0.014667,-0.018799,-0.692871,0.056885,8.650141,3.001309,-0.307382,0.160241,0.457343,0.67772,-0.60498,-0.176025,-0.060547
-2.4651,-10.280319,2.490252,2.122943,-1.182237,-0.490229,0.140869,0.816162,-0.114746,-1.655149,1.432033,9.99714,0.373728,-0.018818,-0.367972,-0.044434,0.144287,-0.647217,-2.333379,9.934707,-2.013029,-0.098186,-0.240215,0.03645,-0.020264,-0.644287,-0.033203,-1.663515,9.608369,-1.535344,0.096275,0.53746,0.01136,-0.032471,-0.689453,0.055908,9.08087,2.917942,-0.219057,0.439716,0.239452,0.596692,-0.621582,-0.163574,-0.06665
-1.801631,-8.256769,4.446506,2.708227,-1.397917,-0.501943,0.126465,0.802734,-0.151367,-1.819368,2.260776,10.377344,-0.924119,0.040671,-0.193573,-0.042969,0.160156,-0.641357,-2.374848,9.389848,-1.670111,-0.482445,-0.396696,0.06991,-0.020264,-0.636963,-0.047363,-2.083503,10.12503,-1.193361,-0.292958,0.332296,-0.020573,-0.029297,-0.689453,0.042236,9.428224,3.431615,0.251248,0.457448,0.372412,0.500049,-0.62085,-0.151123,-0.080811
-1.921871,-7.316518,5.283977,2.560823,-1.421488,-0.459337,0.106445,0.788086,-0.188232,-1.97907,-0.589745,8.780687,-1.07618,0.091783,-0.302407,-0.044922,0.177246,-0.641357,-1.989258,8.833452,-1.391481,-0.339044,-0.262921,0.048154,-0.009521,-0.644531,-0.048828,-1.676464,9.49614,-1.154355,-0.566549,0.231154,0.047865,-0.019043,-0.694092,0.039795,9.462729,3.611424,0.382831,0.159031,0.452677,0.400488,-0.613281,-0.147217,-0.084961
-0.865002,-7.246302,4.80392,2.376102,-1.465561,-0.270502,0.098633,0.767334,-0.219238,-2.033936,0.636286,9.334608,-0.511337,0.000997,-0.501512,-0.04126,0.184326,-0.635498,-2.296276,9.3271,-1.464668,-0.277189,-0.194173,-0.053485,-0.023438,-0.644043,-0.05249,-1.415479,9.037625,-1.411239,-0.385168,0.203465,0.07543,-0.036133,-0.696777,0.03125,8.948206,2.773002,0.14386,-0.120454,0.596065,0.43366,-0.628906,-0.138916,-0.095459
-0.534892,-7.673885,4.517384,2.570025,-1.628764,-0.112093,0.084473,0.746826,-0.265381,-1.095885,-1.596851,9.337423,-1.085859,-0.104939,-0.258346,-0.044678,0.201416,-0.647461,-1.699175,9.398345,-1.790719,-0.21925,-0.395151,0.120243,-0.014648,-0.642822,-0.056152,-0.6862,9.276039,-1.542669,-0.145594,0.164743,0.018774,-0.023926,-0.695801,0.031494,8.622507,1.867253,-0.101419,0.159572,0.34932,0.382161,-0.618164,-0.130859,-0.100586
-0.347775,-5.742836,6.169039,2.680565,-1.644987,-0.095348,0.066895,0.727051,-0.280518,-2.050359,-2.257344,9.724133,0.718358,0.068283,-0.348253,-0.046875,0.195801,-0.627686,-2.180709,10.051445,-1.557173,-0.053159,-0.069391,-0.114361,-0.013184,-0.640137,-0.055176,-1.038167,9.874543,-1.298715,-0.091214,0.552277,-0.033944,-0.024414,-0.692627,0.031006,9.067358,2.514759,0.0458,0.652173,0.255107,0.419193,-0.620361,-0.123291,-0.10376
-0.011062,-6.275391,6.734149,2.242764,-1.757135,-0.252941,0.048096,0.705811,-0.30835,-1.955865,1.495207,10.20652,0.52797,-0.124945,-0.192252,-0.048584,0.186035,-0.636475,-2.684865,9.927069,-0.830934,-0.293025,-0.370789,0.070706,-0.007568,-0.64917,-0.053223,-2.04316,9.731773,-1.014147,-0.285423,0.437881,-0.148533,-0.015381,-0.701172,0.031494,9.082544,3.275109,0.548579,0.394543,0.215509,0.366137,-0.615479,-0.125732,-0.0979
-0.287462,-5.648294,6.806889,2.581859,-1.702276,-0.139067,0.025146,0.678711,-0.334717,-1.927979,0.222304,9.548353,-0.999325,0.015215,-0.235208,-0.052979,0.201416,-0.634766,-1.845547,8.519097,-0.899396,-0.369244,-0.23698,0.070758,-0.012695,-0.645264,-0.064941,-1.428734,9.217646,-0.943957,-0.196615,0.247452,-0.080116,-0.017334,-0.700684,0.022217,9.803802,2.482784,0.314701,0.17185,0.131137,0.420907,-0.623535,-0.114258,-0.110352
0.822518,-5.145574,6.851825,2.328098,-1.968669,-0.098932,0.005371,0.645996,-0.343262,-2.063776,-1.861439,9.077587,-0.267134,-0.072788,-0.321303,-0.055908,0.200195,-0.62207,-2.543438,9.199351,-0.933871,0.197231,-0.032421,-0.125975,-0.014404,-0.64502,-0.060303,-1.364368,9.67498,-0.927071,0.033069,0.454333,-0.033705,-0.023926,-0.702881,0.025391,9.652827,2.519964,0.350599,0.569149,0.389438,0.265091,-0.625488,-0.109375,-0.115967
1.050027,-4.940717,7.642891,2.823007,-1.834267,-0.052335,-0.012207,0.616943,-0.376465,-1.646789,-1.060986,9.592722,0.190184,-0.021346,-0.301994,-0.049805,0.200195,-0.633301,-2.35787,10.360301,-1.439644,-0.21332,-0.275837,0.058818,-0.022949,-0.641357,-0.069092,-1.76078,10.207391,-0.891171,-0.257093,0.376724,-0.03394,-0.025146,-0.699707,0.017334,9.450957,3.235669,0.685028,0.388988,0.30017,0.383676,-0.630371,-0.102295,-0.121826
1.364959,-2.792504,8.7313,2.559309,-1.832372,-0.143977,-0.041748,0.58374,-0.388916,-2.364687,-0.809314,9.505056,0.490233,-0.024305,-0.079755,-0.05835,0.189209,-0.632812,-2.547992,9.438806,-1.101271,-0.546044,-0.074625,0.005972,-0.018066,-0.64209,-0.069336,-1.72872,9.782098,-1.026558,-0.405438,0.384436,-0.044418,-0.022461,-0.702881,0.014893,9.774131,2.460237,0.495535,0.082854,0.319727,0.35722,-0.631348,-0.095703,-0.123779
1.354647,-3.84172,8.318732,2.200576,-1.896543,-0.062298,-0.071777,0.554443,-0.4021,-2.108092,0.183267,9.548475,0.446601,-0.052163,-0.260961,-0.069092,0.181152,-0.640625,-2.781255,9.018989,-0.754519,-0.156652,-0.213029,0.021342,-0.010986,-0.643555,-0.077393,-1.948938,9.669744,-1.011347,-0.254489,0.389623,-0.008958,-0.013916,-0.702148,0.004883,9.882149,2.1465,0.1908,0.44332,0.398392,0.207391,-0.624023,-0.09375,-0.136963
2.50961,-3.337029,8.258734,2.48174,-1.87642,0.088011,-0.083984,0.528809,-0.408936,-2.177444,-0.21049,9.372403,0.306811,-0.169478,-0.212953,-0.061279,0.183105,-0.637207,-1.983087,10.246042,-0.394287,-0.116999,-0.146484,-0.020666,-0.013428,-0.652588,-0.081543,-1.412613,10.038982,-0.790974,-0.19194,0.216226,-0.00328,-0.016357,-0.71167,0.000244,9.562526,2.867684,0.64979,0.494915,0.388354,0.237518,-0.626953,-0.099609,-0.14502
2.717804,-2.596183,8.513424,2.456775,-1.866466,0.124001,-0.103271,0.499512,-0.417725,-1.215936,-0.208204,9.470267,0.200374,-0.125953,-0.269719,-0.05835,0.177734,-0.637939,-2.379347,9.75708,-0.813585,-0.689883,-0.013864,0.064662,-0.01416,-0.646973,-0.091797,-0.873167,10.072395,-0.416743,-0.422381,0.483836,-0.019684,-0.015869,-0.708252,-0.002686,10.090195,2.393636,0.720257,0.149491,0.343188,0.335785,-0.625977,-0.087402,-0.144775
3.256819,-1.217417,9.297172,2.455914,-1.788748,0.137512,-0.132324,0.468506,-0.420654,-2.089183,-0.682966,9.381693,0.437574,0.031584,-0.086484,-0.066895,0.174561,-0.643066,-2.703862,8.322279,-0.865959,-0.648156,-0.216716,0.117887,-0.010742,-0.651123,-0.097656,-1.868902,9.745142,-0.429865,-0.535834,0.621069,0.078643,-0.008545,-0.712402,-0.010498,9.947971,1.805323,0.630878,0.396568,0.584056,0.279943,-0.620117,-0.088623,-0.156006
3.152761,-0.466431,9.567243,1.921959,-1.81483,0.031066,-0.145996,0.436279,-0.410889,-1.937533,-0.289044,9.580266,0.436869,-0.071838,-0.137777,-0.057129,0.156982,-0.638672,-2.414592,9.303995,-0.221666,-0.04853,-0.17014,0.05098,-0.018799,-0.64209,-0.099854,-1.899005,9.756396,-0.44287,-0.422684,0.29902,0.066231,-0.020996,-0.707031,-0.019043,9.624128,2.460191,0.624443,0.592175,0.571672,0.156797,-0.626709,-0.078857,-0.169434
3.701741,-0.834487,8.770935,1.629595,-1.634712,0.006456,-0.175781,0.419678,-0.42041,-2.047921,-0.893776,8.78204,0.8,-0.024642,-0.048593,-0.071533,0.148682,-0.659668,-2.391672,10.585412,-0.02555,-0.542349,-0.179402,0.11935,-0.019043,-0.652832,-0.115234,-0.80548,10.009935,-0.408058,-0.478822,0.427731,0.100946,-0.01709,-0.716797,-0.034668,9.794569,2.501331,0.728732,0.31912,0.586561,0.277213,-0.619629,-0.082764,-0.186035
4.157128,-0.407181,9.358919,1.730922,-1.596854,0.12703,-0.188477,0.398926,-0.39917,-1.797683,1.592158,9.074221,1.339924,-0.21295,-0.221991,-0.06665,0.125244,-0.646729,-2.082132,9.771341,-0.12844,-0.710444,-0.267403,0.191483,-0.016846,-0.644531,-0.123535,-1.282134,9.959954,-0.270013,-0.60146,0.725452,0.043942,-0.012207,-0.71167,-0.040527,9.1997,1.598584,0.933029,0.326055,0.745772,0.253449,-0.612549,-0.078125,-0.19165
4.764878,-0.079184,9.820305,1.490248,-1.209309,0.151374,-0.206543,0.381348,-0.401611,-1.461183,2.505823,9.54976,0.060304,-0.317519,-0.178223,-0.074219,0.126465,-0.651611,-1.814429,9.544763,-0.187089,-0.549075,-0.137039,0.064709,-0.017822,-0.648682,-0.13208,-1.297878,9.677583,-0.325835,-0.616792,0.473944,-0.001735,-0.012939,-0.716553,-0.050537,9.273465,1.753651,1.069034,0.755817,0.484245,0.257352,-0.612305,-0.076172,-0.203613
4.781844,-0.368104,9.063026,1.532318,-1.022133,0.174432,-0.21167,0.359619,-0.402588,-1.366479,-0.693661,8.835801,-0.013816,-0.354103,-0.152323,-0.07666,0.122559,-0.65625,-1.944394,9.47088,0.606761,-0.511349,-0.190191,0.190902,-0.033936,-0.644287,-0.135986,-0.540956,9.522002,-0.264606,-0.462362,0.617656,0.014645,-0.02002,-0.71167,-0.055908,9.783302,2.358346,1.274887,0.661969,0.585654,0.350413,-0.619385,-0.06958,-0.211426
5.040347,0.342996,8.807924,1.519643,-0.925879,0.208288,-0.22876,0.342041,-0.396484,-1.439314,-0.494632,9.430103,1.154186,-0.328313,-0.406162,-0.090332,0.101807,-0.65625,-1.887373,9.194786,0.743345,-0.579301,-0.133056,0.144746,-0.02417,-0.64209,-0.145264,-1.374963,9.849303,0.060446,-0.383756,0.907689,0.028251,-0.007324,-0.714111,-0.060547,9.644511,1.844623,1.32817,0.481623,0.554312,0.387553,-0.605957,-0.065918,-0.220459
5.463552,0.928942,8.446266,1.592704,-1.050577,0.232771,-0.241211,0.331055,-0.390625,-0.748893,0.880599,10.230964,1.20982,-0.27105,-0.252084,-0.093506,0.086182,-0.657959,-1.77084,8.672857,0.322229,-0.600882,-0.064214,0.303225,-0.039551,-0.642578,-0.159668,-1.412889,9.867197,0.017392,-0.566206,0.624426,0.093517,-0.018555,-0.713135,-0.075684,9.983367,1.4982,1.575535,0.760189,0.525218,0.385604,-0.615723,-0.0625,-0.234619
5.543427,1.266393,8.368785,1.632151,-1.001535,-0.015594,-0.242432,0.307129,-0.376221,-0.917268,2.1499,10.145826,0.845261,-0.005394,-0.34888,-0.084473,0.067139,-0.651611,-1.801304,8.969018,0.124355,-0.195676,-0.171337,0.251555,-0.037842,-0.643555,-0.158691,-0.708222,9.520111,0.228713,-0.459005,0.747078,0.138523,-0.013916,-0.7146,-0.08252,9.684881,1.967222,1.854353,0.794951,0.635954,0.317971,-0.60376,-0.063477,-0.244385
4.854117,1.105326,7.738036,1.529899,-1.087329,-0.008339,-0.271973,0.285156,-0.374023,-1.411132,1.41476,9.227612,0.11706,-0.138221,-0.09991,-0.103027,0.062256,-0.658447,-1.705438,10.424926,0.481646,-0.233275,-0.084547,0.271939,-0.03833,-0.646484,-0.157715,-1.27817,9.876971,0.132659,-0.299742,0.860647,0.149461,-0.009766,-0.719971,-0.083008,9.2705,1.92933,1.841191,0.629358,0.588925,0.416442,-0.597412,-0.064209,-0.249512
5.534804,1.211317,7.820673,1.46815,-1.088974,-0.237509,-0.285645,0.271484,-0.358887,-0.906905,0.109373,9.186756,0.306368,-0.148873,-0.138636,-0.104248,0.065918,-0.654297,-1.639882,10.428291,0.303908,-0.610335,-0.219134,0.330685,-0.041992,-0.63623,-0.170654,-1.14878,10.133376,0.132244,-0.492422,0.671404,0.076389,-0.006592,-0.710205,-0.095459,9.157897,1.523727,1.855224,0.655594,0.530099,0.448207,-0.592773,-0.053467,-0.262451
5.527098,1.990668,8.267534,1.407037,-1.019874,-0.170757,-0.289551,0.246826,-0.353516,-1.342539,1.402901,9.35592,1.146885,-0.169739,0.063485,-0.099365,0.038574,-0.656982,-1.670528,9.03006,-0.023055,-0.580061,-0.134738,0.33282,-0.046387,-0.639648,-0.178467,-0.811807,9.497661,-0.067667,-0.571406,0.871965,0.05186,-0.008545,-0.716064,-0.105469,9.325392,1.221422,2.019795,0.726973,0.420491,0.419894,-0.594238,-0.05542,-0.26709
5.79732,2.637409,8.258758,1.056664,-0.8904,-0.312662,-0.308594,0.235596,-0.341797,-1.456271,2.965793,9.610584,0.543045,-0.222,0.116792,-0.113281,0.037109,-0.660156,-2.028284,9.92158,0.269837,0.128628,-0.182883,0.203031,-0.054443,-0.644043,-0.178467,-1.938046,9.588202,-0.033525,-0.153359,0.956665,0.062339,-0.006104,-0.721924,-0.109619,9.384913,1.601656,2.072452,0.969766,0.397926,0.298179,-0.592285,-0.061523,-0.277344
5.754168,2.363348,7.859239,0.840198,-0.804985,-0.191902,-0.312012,0.220947,-0.324951,-1.664164,1.813821,8.915239,0.383132,-0.4165,0.159425,-0.114014,0.024902,-0.651611,-1.482554,11.10951,1.118443,-0.36279,-0.193996,0.255703,-0.051514,-0.641846,-0.179932,-1.784796,10.237732,0.443837,-0.25866,0.539978,-0.000912,0.003174,-0.720947,-0.112305,9.334856,2.273931,2.508186,0.762599,0.397745,0.27886,-0.58374,-0.058594,-0.278809
6.505191,2.470514,7.381311,0.796702,-0.622067,-0.060359,-0.317627,0.218262,-0.322754,-0.774503,2.594189,9.132228,0.906717,-0.505622,-0.047606,-0.121338,0.016113,-0.65625,-1.232709,9.410975,1.107583,-0.867659,-0.082029,0.317852,-0.068359,-0.645996,-0.197754,-0.863577,9.860341,0.40821,-0.603061,0.594319,0.022503,-0.008057,-0.723633,-0.123291,9.536524,1.797556,2.56482,0.42461,0.402106,0.33231,-0.592529,-0.059082,-0.291016
6.393668,2.315852,7.12724,0.709601,-0.568019,0.001522,-0.327393,0.203369,-0.305176,-0.9653,2.883977,9.676279,0.283564,-0.467877,-0.090174,-0.135498,0.005127,-0.646484,-1.038079,8.572869,1.436527,-0.335532,0.089673,0.180132,-0.067871,-0.637695,-0.211426,-1.496821,9.255671,0.539283,-0.549789,0.712627,0.065561,-0.000732,-0.718018,-0.144531,9.475739,1.318296,2.533505,0.515676,0.528035,0.307769,-0.582275,-0.058838,-0.308838
6.209737,2.007639,7.440046,0.823565,-0.561697,0.064925,-0.326904,0.195801,-0.306885,-0.613545,1.468185,9.768666,0.121382,-0.492591,-0.174375,-0.137451,0.003174,-0.653564,-1.578159,9.163434,1.027297,-0.351193,0.216035,0.234558,-0.065186,-0.638428,-0.219238,-1.539448,9.150037,0.486508,-0.426854,0.408676,0.116569,0.003906,-0.71875,-0.152344,8.991417,1.692245,2.521668,0.628372,0.497445,0.291445,-0.576172,-0.056152,-0.318115
6.240419,2.571806,7.683316,0.631464,-0.732741,-0.260551,-0.331543,0.191162,-0.29834,-0.090887,-0.072795,9.015713,0.267841,-0.330719,0.129012,-0.136719,0.001709,-0.653809,-1.474173,9.150602,0.261273,-0.388628,-0.044189,0.278473,-0.070801,-0.634521,-0.218018,-0.77645,9.245195,0.86798,-0.290952,0.452424,0.1282,0.002441,-0.719238,-0.1521,9.025895,1.739766,2.445167,0.400301,0.371793,0.373407,-0.573975,-0.048828,-0.319824
6.423472,1.866636,6.502255,0.554817,-0.796079,-0.436788,-0.339844,0.181885,-0.27832,0.008388,2.160567,9.713134,1.219781,-0.072175,0.308982,-0.139648,-0.016602,-0.642822,-0.832108,8.869203,0.780473,-0.186442,0.058562,0.314844,-0.074707,-0.634766,-0.221436,-0.813198,9.358884,0.416377,-0.245993,0.679743,0.136497,0.001953,-0.720215,-0.156982,9.270177,0.942403,2.477022,0.360336,0.321787,0.473652,-0.572998,-0.049316,-0.324951
6.968795,2.991335,6.668831,0.8768,-0.926075,-0.500675,-0.35376,0.156006,-0.265869,-0.971084,3.895328,9.425324,0.45841,-0.042658,0.505392,-0.146973,-0.032959,-0.646973,-1.671814,9.682515,1.383049,-0.07639,0.096548,0.208229,-0.081299,-0.635498,-0.220459,-1.787786,9.791551,0.824402,-0.150757,0.630527,0.15947,0.001709,-0.718018,-0.156738,9.359641,1.054021,2.706751,0.703572,0.223794,0.349058,-0.572754,-0.047119,-0.326416
7.096519,3.317444,6.845382,1.060505,-0.677521,-0.332911,-0.354736,0.134277,-0.260254,-0.566879,3.317034,8.961383,0.345015,-0.16818,0.205593,-0.146973,-0.043213,-0.653076,-0.890754,9.810727,1.663919,-0.416717,-0.057215,0.42407,-0.089111,-0.63623,-0.229248,-1.352907,9.984257,1.084294,-0.392626,0.315485,0.17577,-0.00415,-0.724121,-0.166992,9.706511,1.768781,2.980755,0.521749,0.397196,0.339888,-0.571289,-0.049805,-0.337402
6.876889,3.817343,6.566644,1.029185,-0.523048,-0.151003,-0.364014,0.12915,-0.24585,-0.826158,3.28603,8.661804,0.439412,-0.168443,0.171285,-0.150391,-0.048096,-0.646973,-0.854617,9.262105,1.699867,-0.317417,0.23343,0.246297,-0.082031,-0.640381,-0.228027,-0.913442,9.290197,0.944021,-0.552575,0.456695,0.196914,0.003906,-0.72583,-0.171631,8.721915,1.321678,2.990958,0.14742,0.528009,0.363919,-0.55835,-0.050049,-0.338867
6.507362,3.301788,6.057295,0.780304,-0.322826,-0.004175,-0.36499,0.128418,-0.241943,-0.249333,2.981134,8.699027,0.703975,-0.370153,-0.009521,-0.157227,-0.049316,-0.644775,-1.131715,9.466379,1.302898,-0.225885,0.191834,0.287393,-0.092041,-0.633057,-0.234375,-1.135087,8.922998,1.025865,-0.310716,0.474911,0.171275,-0.003174,-0.718018,-0.180664,8.639296,0.49632,2.831913,0.310845,0.244203,0.368347,-0.563477,-0.038818,-0.346436
6.786335,4.365553,6.780957,0.551942,-0.434241,-0.037902,-0.363281,0.118408,-0.237061,-0.375137,3.559627,9.752316,0.3378,-0.18481,0.198578,-0.155029,-0.059326,-0.644287,-1.197933,9.255449,1.434001,-0.253965,0.117463,0.290525,-0.088135,-0.632568,-0.247559,-1.228175,9.160946,1.152224,-0.111605,0.472169,0.174817,0.00415,-0.719971,-0.189941,8.772992,0.923755,3.016932,0.645035,0.24036,0.283967,-0.554688,-0.043457,-0.363525
6.760063,3.314079,5.733791,0.210991,-0.411455,-0.272692,-0.367188,0.105469,-0.225098,-0.215987,1.893531,9.158912,0.025477,-0.287834,0.268451,-0.161377,-0.065918,-0.639404,-0.965759,9.123199,1.522891,-0.134938,0.102141,0.250194,-0.096924,-0.625488,-0.237793,-1.217866,9.500438,1.376851,-0.121109,0.447142,0.154797,-0.000488,-0.714111,-0.182129,8.95052,1.410058,3.202722,0.424365,0.145113,0.23669,-0.559326,-0.034912,-0.352539
7.05358,3.279403,5.278836,0.776814,-0.587966,-0.303471,-0.375,0.0979,-0.210693,0.184813,2.172102,8.71759,1.000184,-0.024303,0.342402,-0.166504,-0.078613,-0.634766,-0.83192,9.321261,1.584582,-0.102126,0.088141,0.310504,-0.104004,-0.628418,-0.243408,-1.028885,9.538217,1.377694,-0.24432,0.409431,0.178769,-0.003174,-0.718262,-0.184814,9.314944,0.894244,3.110046,0.254925,0.207542,0.298222,-0.558105,-0.037842,-0.357178
7.01854,3.877299,5.187805,0.82829,-0.550573,-0.300404,-0.373047,0.092529,-0.20166,-0.519787,4.811976,8.917996,1.126901,-0.095939,0.287361,-0.163574,-0.09375,-0.631104,-0.756626,9.548263,1.575399,-0.186446,0.123062,0.245,-0.099365,-0.627197,-0.24585,-1.105707,9.422019,1.320844,-0.269784,0.419804,0.183193,0.001953,-0.714355,-0.194336,8.917553,0.826879,3.12802,0.429327,0.323576,0.17529,-0.547119,-0.038818,-0.366455
6.801029,4.660749,5.389801,0.918372,-0.535858,-0.194731,-0.387695,0.087158,-0.197998,-0.116362,5.535159,8.968495,0.109724,-0.112452,0.270404,-0.176025,-0.091797,-0.637939,-0.899131,9.512828,1.756527,-0.155499,0.152295,0.314035,-0.107666,-0.626953,-0.252441,-1.210257,9.455351,1.167554,-0.196599,0.364745,0.188001,-0.001465,-0.712646,-0.198975,9.056926,1.176783,3.217372,0.361588,0.15848,0.228177,-0.551758,-0.039795,-0.372314
7.122966,4.591078,5.231903,0.592316,-0.561993,-0.189842,-0.378906,0.076172,-0.18457,-0.601777,3.100003,9.033642,-0.145391,-0.203355,0.251915,-0.168457,-0.092529,-0.634766,-0.742962,9.730346,1.794863,-0.103056,0.143916,0.214128,-0.109375,-0.620117,-0.248535,-1.073726,9.575568,1.198375,-0.169519,0.347407,0.176269,0.001709,-0.706787,-0.195557,9.175412,0.754045,2.994607,0.177257,0.249247,0.135136,-0.546143,-0.032471,-0.370361
6.796749,5.097939,5.083522,0.650454,-0.385371,-0.109783,-0.380859,0.065918,-0.172607,0.337449,2.960876,8.571324,0.826968,-0.181038,0.226911,-0.171143,-0.105957,-0.628418,-0.89679,9.669524,1.551302,-0.170994,0.18811,0.294657,-0.102539,-0.623779,-0.259033,-1.044908,9.630581,1.385578,-0.192674,0.407379,0.166488,0.005615,-0.712646,-0.207031,9.02202,0.713975,3.057702,0.461492,0.168032,0.105859,-0.539795,-0.038818,-0.382324
6.899879,5.236023,5.096926,0.03796,-0.488119,-0.189218,-0.383057,0.065918,-0.165039,-0.457282,5.094376,9.059199,0.533381,-0.139937,0.31727,-0.175049,-0.110596,-0.624268,-0.787565,9.85773,1.639669,-0.096437,0.092035,0.189876,-0.123779,-0.618408,-0.26001,-1.211597,9.616509,1.496272,-0.20914,0.347821,0.151149,-0.011963,-0.706299,-0.20874,8.972902,1.277136,3.333567,0.40052,0.194922,0.047478,-0.552246,-0.039307,-0.383057
7.01146,4.855987,4.836952,0.071217,-0.386605,-0.222466,-0.388672,0.074463,-0.162842,0.394822,4.455568,8.630974,-0.008332,-0.289425,0.347675,-0.188477,-0.096924,-0.62793,-0.363281,9.666465,2.129938,-0.289385,0.128176,0.296641,-0.120605,-0.621826,-0.263428,-0.833511,9.662783,1.469383,-0.164668,0.284339,0.125568,-0.005127,-0.709229,-0.213867,9.427817,1.052301,3.241437,0.180425,0.128246,0.097959,-0.545898,-0.042725,-0.383545
7.323781,4.866278,4.613242,-0.161571,-0.399187,-0.258184,-0.388672,0.056641,-0.151367,0.055469,3.294928,8.710261,-0.082818,-0.164887,0.328002,-0.188232,-0.111572,-0.624268,-0.56382,9.174335,1.982997,-0.277659,0.181105,0.238111,-0.117188,-0.608887,-0.27002,-0.854149,9.862332,1.687018,-0.21778,0.402782,0.187348,0.0,-0.702148,-0.216064,9.497636,0.614596,3.155048,0.276876,0.26275,0.060109,-0.536865,-0.038574,-0.389893
7.002695,3.903403,4.312405,0.175104,-0.371632,-0.265274,-0.391602,0.053955,-0.144775,0.461445,4.077344,8.162597,0.662735,-0.204149,0.289217,-0.193604,-0.118896,-0.621094,-0.661168,8.974859,1.715049,-0.092198,0.113254,0.332834,-0.121582,-0.618652,-0.268311,-1.006529,9.55835,1.611931,-0.346164,0.415701,0.169927,-0.000488,-0.712891,-0.22168,9.127058,0.912496,3.277877,0.452669,0.223582,-0.016492,-0.534912,-0.049805,-0.390625
7.228796,4.234293,4.359732,0.55923,-0.492232,-0.316295,-0.398193,0.039062,-0.136475,-0.085081,5.191759,9.147281,0.072081,-0.099639,0.331947,-0.202148,-0.125244,-0.625244,-0.676313,9.634939,1.953751,0.062443,0.064375,0.26563,-0.128662,-0.619385,-0.264893,-1.16373,9.358186,1.689889,-0.126034,0.455896,0.219508,-0.005371,-0.707275,-0.22168,9.147715,1.211963,3.621457,0.399421,0.131361,-0.023101,-0.53833,-0.057373,-0.391602
7.258737,5.176147,4.179209,1.023697,-0.419247,-0.257591,-0.407959,0.03418,-0.118652,0.53937,3.863884,8.392697,0.129519,-0.27155,0.296478,-0.212158,-0.117432,-0.61084,-0.31903,10.027212,2.137324,-0.199408,0.009326,0.360748,-0.137207,-0.60791,-0.266113,-1.194166,10.02736,1.978438,-0.047662,0.310844,0.206868,-0.010498,-0.697021,-0.221436,9.434772,1.14132,3.769658,0.228846,0.223,-0.138009,-0.538086,-0.050537,-0.394775
7.204802,6.127598,4.105776,0.431372,-0.478379,-0.286647,-0.390869,0.030029,-0.118896,0.480161,4.149448,8.548145,0.368041,-0.091579,0.264579,-0.19751,-0.123535,-0.619873,-0.128162,9.428907,2.073882,-0.420724,0.045285,0.373132,-0.138428,-0.608154,-0.274414,-0.708554,10.156562,1.933599,-0.437479,0.231621,0.225815,-0.006592,-0.699951,-0.231445,9.111401,0.911791,3.67375,0.209434,0.328242,-0.151034,-0.529541,-0.057373,-0.398926
6.929897,4.320866,3.448337,0.359028,-0.42296,-0.257387,-0.398926,0.023682,-0.106689,0.711864,4.309106,8.511722,0.498141,-0.283633,0.234656,-0.208984,-0.128662,-0.612305,0.044436,9.127038,1.990223,-0.112202,0.056188,0.358868,-0.144775,-0.615479,-0.277832,-0.46775,9.266142,1.793711,-0.546647,0.31547,0.226729,-0.008301,-0.707031,-0.242676,9.003822,0.962182,3.585639,0.226592,0.275342,-0.230775,-0.527832,-0.074707,-0.410156
7.090186,5.195002,3.744755,0.585396,-0.451385,-0.248893,-0.4021,0.008545,-0.090576,0.796218,4.830101,8.338448,0.20077,-0.118811,0.386181,-0.216064,-0.138916,-0.607666,-0.060132,9.966762,2.253096,-0.01866,0.058248,0.294475,-0.150146,-0.608398,-0.284668,-0.648789,9.027213,1.637232,-0.139364,0.380544,0.226668,-0.012207,-0.697754,-0.252197,8.749133,1.015643,3.380347,0.322316,0.232437,-0.195276,-0.526123,-0.075684,-0.416748
7.108427,4.551545,3.21587,0.464059,-0.509258,-0.374133,-0.399658,0.012207,-0.080078,0.504656,4.074648,8.779214,-0.027787,-0.364366,0.295572,-0.21875,-0.126953,-0.603027,0.186823,9.441531,2.301393,-0.371246,0.001876,0.42056,-0.160156,-0.608398,-0.283936,-0.650519,9.767779,2.031973,0.006572,0.325712,0.228372,-0.015869,-0.703613,-0.243652,9.029629,1.475121,3.714526,0.429594,0.084913,-0.221931,-0.526123,-0.085449,-0.411621
7.440619,3.800956,3.163641,1.033135,-0.531109,-0.303843,-0.394531,-0.003418,-0.057861,1.4571,2.757159,8.230422,0.185329,-0.201973,0.469482,-0.218262,-0.133545,-0.595947,0.352809,8.932396,2.211754,-0.125394,0.068283,0.353057,-0.157471,-0.602783,-0.286865,-0.6211,9.952012,2.241442,-0.373007,0.325764,0.244558,-0.015381,-0.696533,-0.253906,9.274145,1.918954,3.901043,0.273225,0.301656,-0.141236,-0.518799,-0.087158,-0.418457
7.098963,4.622131,3.302907,1.660341,-0.514762,-0.348483,-0.405518,-0.013184,-0.04541,0.636734,4.343117,8.053069,1.119527,-0.221277,0.287077,-0.23291,-0.150146,-0.594727,0.349193,9.518757,2.304594,-0.117685,0.128649,0.337487,-0.159912,-0.599854,-0.284912,-0.535818,9.191754,2.122783,-0.538949,0.234154,0.247818,-0.011475,-0.690674,-0.26001,8.571592,1.648743,3.718187,0.027965,0.378928,-0.092987,-0.513184,-0.086914,-0.419189
7.417173,5.258215,2.770927,1.733575,-0.549681,-0.445497,-0.40625,-0.022217,-0.022217,1.630202,6.038135,8.811934,-0.055528,-0.281673,0.53565,-0.243896,-0.14209,-0.587646,0.283781,9.36309,2.366382,-0.295333,0.025123,0.430733,-0.16626,-0.596436,-0.292969,-0.3337,8.921533,2.093606,-0.217564,0.286678,0.26251,-0.014893,-0.687744,-0.266113,8.727884,1.129975,3.610389,0.138453,0.220596,-0.022381,-0.510742,-0.08667,-0.425293
7.193107,5.561595,1.754553,2.116406,-0.562903,-0.459997,-0.402588,-0.035889,-0.004639,1.237556,3.455044,7.860446,-0.27585,-0.169857,0.515424,-0.245361,-0.133545,-0.589844,0.592531,8.864156,2.096607,-0.227745,0.02339,0.383801,-0.167725,-0.595947,-0.293213,-0.376188,9.591612,2.314014,-0.093335,0.318708,0.269713,-0.012939,-0.692383,-0.267334,8.82146,1.270476,3.705837,0.3253,0.306184,-0.095634,-0.50415,-0.095459,-0.431641
7.027846,6.443733,1.715864,1.915962,-0.675225,-0.447946,-0.398926,-0.046387,0.018066,1.755751,4.039818,7.804531,0.679943,-0.161288,0.572455,-0.248047,-0.143066,-0.585938,0.296461,9.116677,1.896776,0.019961,-0.044466,0.415679,-0.179443,-0.591309,-0.298096,-0.246998,9.597545,2.45013,-0.357211,0.374863,0.252593,-0.018799,-0.687744,-0.27832,8.594279,1.483873,3.81257,0.288242,0.251567,-0.049982,-0.505859,-0.096924,-0.436523
7.235641,5.87107,1.390716,2.008349,-0.708946,-0.373067,-0.38916,-0.051758,0.040527,1.207461,5.556245,8.470947,0.523281,-0.074051,0.464565,-0.241699,-0.145508,-0.585938,0.506823,9.60662,2.492026,-0.147676,-0.183248,0.416622,-0.186523,-0.587646,-0.287354,-0.620066,9.289914,2.417797,-0.280341,0.477571,0.260092,-0.019531,-0.688721,-0.27124,8.859778,1.684613,3.965999,0.377668,0.225873,-0.090591,-0.502441,-0.10498,-0.428223
7.12196,6.999813,1.696745,1.813934,-0.575055,-0.412563,-0.395752,-0.064697,0.061768,1.417034,4.5694,7.831766,-0.299565,-0.221737,0.675434,-0.255371,-0.144287,-0.586914,0.969849,9.488276,3.231941,-0.191048,-0.183897,0.521729,-0.195801,-0.591553,-0.296387,-0.714857,9.812655,2.602565,-0.147938,0.242722,0.270298,-0.023682,-0.692139,-0.281738,9.145841,1.883113,4.155326,0.185537,0.376697,-0.106813,-0.499268,-0.112305,-0.443115
6.620539,5.702104,0.923224,1.56291,-0.639847,-0.474764,-0.390381,-0.074463,0.085449,1.799822,3.593762,7.605628,0.538808,-0.29068,0.52572,-0.261963,-0.152832,-0.57666,1.334464,9.469166,2.570369,-0.309006,-0.048842,0.45004,-0.19043,-0.584961,-0.301514,0.261007,10.128612,2.502194,-0.428716,0.204891,0.262612,-0.013672,-0.684082,-0.289551,8.894278,1.296947,4.118909,0.053424,0.383683,-0.109303,-0.480957,-0.112793,-0.446533
7.737565,6.606364,0.280201,1.933004,-0.52636,-0.314614,-0.390869,-0.070312,0.106689,1.948428,5.506627,8.287669,0.547773,-0.177287,0.568736,-0.269775,-0.151855,-0.572266,0.721112,8.938534,2.515981,-0.320607,-0.0071,0.579281,-0.206055,-0.580566,-0.311523,-0.246395,9.453627,2.642923,-0.597947,0.624764,0.311799,-0.021729,-0.681396,-0.304443,9.121563,1.293048,4.24361,0.384113,0.348837,-0.187308,-0.488281,-0.118652,-0.462402
6.381941,7.117134,0.248617,1.706409,-0.243839,-0.326886,-0.381348,-0.078857,0.125488,1.569034,5.920798,8.04655,0.15372,-0.271504,0.481235,-0.270996,-0.156982,-0.567139,1.24009,9.116686,2.825331,-0.135473,-0.17555,0.513731,-0.212646,-0.580566,-0.305176,-1.018224,9.315893,2.690185,-0.387699,0.217594,0.356485,-0.025146,-0.680908,-0.304688,8.92985,2.278196,4.409586,0.324104,0.490425,-0.295897,-0.477539,-0.130371,-0.462646
6.928963,7.854212,-0.370096,1.34677,-0.375646,-0.176673,-0.384521,-0.076416,0.144287,1.752055,4.65878,8.049236,-0.155352,-0.347814,0.503059,-0.278809,-0.148438,-0.562744,1.012253,9.45304,2.72381,-0.152307,0.031847,0.581654,-0.22583,-0.562744,-0.308105,0.018439,9.490804,2.608299,-0.348579,0.155837,0.349462,-0.032471,-0.666748,-0.313721,8.307724,2.163072,4.379934,-0.037572,0.399449,-0.227297,-0.47583,-0.119629,-0.466797
6.445654,7.633821,-0.979954,0.58995,-0.362193,-0.239561,-0.383789,-0.080322,0.159912,2.286956,3.967036,7.633758,0.337954,-0.3993,0.433213,-0.291748,-0.151611,-0.552002,1.394386,9.797683,2.828319,-0.135898,-0.20673,0.515111,-0.236572,-0.553223,-0.309326,0.006635,9.659961,2.988495,-0.333994,0.433255,0.363736,-0.036865,-0.656494,-0.316895,8.707346,1.477405,4.393082,0.079256,0.329787,-0.304629,-0.471191,-0.118896,-0.471436
