# sampling frequency: 40
# units are seconds/meters/radians/a.u.
seg1_acc_x,seg1_acc_y,seg1_acc_z,seg1_gyr_x,seg1_gyr_y,seg1_gyr_z,seg1_mag_x,seg1_mag_y,seg1_mag_z,seg2_acc_x,seg2_acc_y,seg2_acc_z,seg2_gyr_x,seg2_gyr_y,seg2_gyr_z,seg2_mag_x,seg2_mag_y,seg2_mag_z,seg3_acc_x,seg3_acc_y,seg3_acc_z,seg3_gyr_x,seg3_gyr_y,seg3_gyr_z,seg3_mag_x,seg3_mag_y,seg3_mag_z,seg4_acc_x,seg4_acc_y,seg4_acc_z,seg4_gyr_x,seg4_gyr_y,seg4_gyr_z,seg4_mag_x,seg4_mag_y,seg4_mag_z,seg5_acc_x,seg5_acc_y,seg5_acc_z,seg5_gyr_x,seg5_gyr_y,seg5_gyr_z,seg5_mag_x,seg5_mag_y,seg5_mag_z
1.836648,-7.448267,6.14037,-0.039755,0.004739,-0.002886,-0.366455,0.292969,0.036133,-0.124754,8.336619,5.237996,-0.007475,0.007176,0.003842,0.179688,0.29834,0.597656,-1.213151,-7.133483,6.686425,-0.023575,0.009385,0.006673,0.584961,0.1604,-0.322998,1.538068,-7.317065,6.359504,-0.006323,-0.022036,0.00495,0.09375,0.32666,-0.576904,0.454476,-6.260195,7.568195,-0.042667,-0.0432,0.006402,-0.261475,0.384033,-0.40625
1.827161,-7.520404,6.107167,0.033662,0.001629,0.002463,-0.35083,0.282227,0.024902,-0.131205,8.279124,5.157634,-0.023706,0.00467,0.005729,0.178467,0.305176,0.591064,-1.229696,-7.1627,6.683953,0.017881,0.006953,-0.000882,0.598145,0.150635,-0.330566,1.690108,-7.361445,6.323318,-0.005931,0.00998,0.013942,0.085938,0.335205,-0.572998,0.444738,-6.304333,7.507241,0.029136,0.042336,-0.011839,-0.248291,0.376221,-0.415527
1.836959,-7.339213,6.178578,-0.003157,-0.000457,0.000338,-0.355957,0.291748,0.036621,-0.135621,8.269275,5.252556,0.001638,0.007013,0.003895,0.181396,0.29834,0.585938,-1.231491,-7.048453,6.696997,0.004291,0.004463,-0.004544,0.592773,0.158691,-0.322754,1.526581,-7.333693,6.430331,0.012349,0.015692,0.005602,0.097168,0.32251,-0.583984,0.294107,-6.154302,7.62698,0.020491,-0.023986,0.001167,-0.254883,0.381348,-0.402344
1.807895,-7.531836,6.116201,-0.008731,0.00519,-0.003589,-0.353271,0.284912,0.041748,-0.153012,8.35421,5.159132,0.01158,0.007955,0.003841,0.184326,0.289551,0.592773,-1.225979,-7.152194,6.691786,-0.023642,-0.000383,0.008221,0.599609,0.150879,-0.314941,1.646969,-7.318545,6.397174,-0.014959,-0.010514,0.011371,0.094482,0.331055,-0.572998,0.51833,-6.201159,7.555455,-0.011822,-0.004568,-0.009069,-0.251709,0.376953,-0.400635
1.803979,-7.367763,6.174042,0.01769,-0.003133,0.002429,-0.34668,0.29126,0.037842,-0.1086,8.332938,5.238797,-0.040842,0.004205,0.00582,0.179688,0.297607,0.600342,-1.236439,-7.089925,6.724791,0.019572,0.008757,-0.011624,0.602783,0.157715,-0.320557,1.544181,-7.409938,6.40937,-0.00617,0.021962,0.015476,0.100098,0.324707,-0.566895,0.298584,-6.226103,7.569389,-0.009552,0.027927,0.004133,-0.243164,0.383301,-0.403076
1.85912,-7.52305,6.106857,-0.036148,0.003136,-0.004962,-0.354736,0.28833,0.033203,-0.115673,8.202352,5.195034,-0.020418,0.005007,0.005925,0.186523,0.292969,0.588135,-1.222021,-7.129692,6.67803,-0.043166,-0.005685,0.008899,0.595215,0.154785,-0.322754,1.579635,-7.300639,6.429139,0.015419,-0.027235,-0.008645,0.10376,0.330566,-0.571289,0.435394,-6.266634,7.571095,-0.009289,-0.047418,-0.012722,-0.251221,0.376465,-0.406738
1.804397,-7.455484,6.124768,0.044214,0.003004,0.003624,-0.357666,0.288086,0.032715,-0.122882,8.31561,5.161454,0.023977,0.009835,0.001767,0.185791,0.293213,0.592285,-1.167808,-7.187582,6.641217,0.01178,0.004727,-0.008068,0.592285,0.1521,-0.325195,1.692549,-7.309462,6.355079,-0.044797,0.003371,0.025944,0.098145,0.328613,-0.574951,0.499538,-6.250482,7.56884,0.015084,0.034542,0.001759,-0.25708,0.377686,-0.40918
1.820524,-7.330606,6.205103,-0.021333,-0.001721,-0.001453,-0.350342,0.290039,0.034668,-0.136829,8.37384,5.269745,-0.021248,0.003905,0.006028,0.185791,0.298584,0.589111,-1.243627,-7.056655,6.679308,0.016827,0.010642,0.002218,0.598877,0.158447,-0.325195,1.529777,-7.465051,6.300442,0.001303,0.016233,0.007744,0.09082,0.325928,-0.578613,0.261253,-6.166635,7.570491,0.022607,0.001408,-0.006825,-0.248779,0.379883,-0.406982
1.831504,-7.585828,6.108652,-0.012766,0.002119,-0.002922,-0.357178,0.287109,0.032715,-0.10281,8.238551,5.175105,-0.030747,0.002304,0.004818,0.180908,0.291016,0.586426,-1.201332,-7.110561,6.696543,-0.027602,0.001836,0.000877,0.593994,0.153076,-0.325195,1.560172,-7.228647,6.374593,0.043663,-0.006664,-0.006481,0.098389,0.331299,-0.574707,0.482929,-6.18527,7.581899,-0.021323,-0.036687,-0.007217,-0.25293,0.377197,-0.408691
1.850105,-7.398948,6.160379,0.035201,0.001187,0.003177,-0.350342,0.286865,0.037354,-0.124719,8.265204,5.186347,0.015362,0.01271,0.004112,0.184326,0.299805,0.582275,-1.212516,-7.210906,6.693772,-0.005326,0.011027,0.004268,0.599121,0.151367,-0.324707,1.627587,-7.284504,6.383916,-0.05862,-0.006907,0.02808,0.094238,0.326416,-0.575684,0.446916,-6.326482,7.588027,-0.028537,0.035843,0.007826,-0.248291,0.375488,-0.406494
1.783663,-7.411365,6.176994,-0.022736,0.003047,-0.00178,-0.356445,0.300049,0.025146,-0.141973,8.37476,5.200772,0.003049,0.001525,0.004174,0.187744,0.293945,0.590088,-1.23818,-7.114808,6.708452,0.027449,0.005045,-0.003006,0.594482,0.166504,-0.332764,1.6285,-7.503738,6.32246,0.008753,0.014771,0.007526,0.098145,0.326172,-0.57373,0.283326,-6.263995,7.523779,0.055439,-0.004469,-0.009331,-0.252197,0.390137,-0.41626
1.830547,-7.477575,6.115512,0.006235,-0.002039,0.000817,-0.349609,0.284424,0.031494,-0.130206,8.291641,5.22342,-0.049267,0.008339,0.006543,0.179443,0.292969,0.592041,-1.223476,-7.022107,6.7145,-0.009761,0.00455,-0.001809,0.598389,0.151611,-0.326904,1.547321,-7.260357,6.444517,0.039202,0.016532,-0.0033,0.093506,0.338379,-0.584229,0.448666,-6.068823,7.57459,0.010968,-0.029964,-0.011198,-0.248535,0.375732,-0.408691
1.825425,-7.430648,6.159333,0.003278,0.001557,-0.000497,-0.347656,0.292969,0.032959,-0.116044,8.219053,5.162405,0.005428,0.002173,0.004961,0.191162,0.29126,0.593018,-1.210394,-7.187018,6.681169,-0.042426,-0.003736,0.005796,0.601807,0.159912,-0.324707,1.581547,-7.305682,6.426774,-0.050009,-0.015006,0.022667,0.098877,0.327148,-0.577881,0.439598,-6.252985,7.582381,-0.067118,0.022415,0.009424,-0.245605,0.381592,-0.408447
1.818,-7.40663,6.144167,-0.001196,0.002159,0.00218,-0.349854,0.288818,0.030029,-0.116611,8.388648,5.211062,0.014416,0.011011,0.000836,0.179443,0.30249,0.598877,-1.192912,-7.162227,6.694342,0.020848,0.006133,-0.009868,0.599609,0.156006,-0.327393,1.610339,-7.445615,6.357178,-0.006422,-0.004565,0.009115,0.099854,0.330078,-0.575684,0.335467,-6.358086,7.551263,0.014716,-0.001693,-0.007649,-0.248779,0.378662,-0.409912
1.806951,-7.499962,6.122473,-0.017015,0.001692,-0.001112,-0.352051,0.29541,0.037842,-0.160949,8.285957,5.242538,-0.053662,0.002652,0.011221,0.185059,0.306641,0.59375,-1.259336,-7.06142,6.703758,-0.00169,0.005003,0.002225,0.596436,0.1604,-0.320068,1.61975,-7.297709,6.366949,0.017202,-0.002252,-0.001547,0.099609,0.327148,-0.578857,0.435637,-6.173649,7.534643,0.050944,-0.016291,-0.007796,-0.250488,0.385254,-0.404053
1.823765,-7.452289,6.132498,0.038069,0.001297,0.001827,-0.356201,0.283691,0.028809,-0.092028,8.210652,5.134655,0.009619,0.003902,0.002256,0.180908,0.297119,0.592529,-1.17055,-7.145964,6.670968,-0.016221,-0.004925,0.001972,0.593262,0.153076,-0.32959,1.55917,-7.277398,6.352446,-0.019761,0.015772,0.018531,0.095947,0.334717,-0.571533,0.390907,-6.113521,7.620773,-0.015727,0.010766,-0.002263,-0.252197,0.373291,-0.414062
1.83783,-7.360651,6.174997,-0.028372,0.000694,0.000215,-0.347656,0.294922,0.038574,-0.129353,8.370494,5.257236,0.015698,0.011094,0.001629,0.178955,0.295166,0.598389,-1.206454,-7.135821,6.663946,0.003099,0.020026,0.001584,0.604248,0.160889,-0.316162,1.563002,-7.377027,6.339944,-0.013247,-0.008421,0.011661,0.093262,0.327393,-0.579346,0.417468,-6.301318,7.57519,-0.053235,-0.008694,0.004238,-0.244629,0.386963,-0.401367
1.80895,-7.598342,6.08654,-0.003355,0.003766,-0.001895,-0.354492,0.290283,0.036621,-0.141289,8.305293,5.207223,-0.044033,0.002121,0.007206,0.183838,0.294434,0.598633,-1.255318,-7.151067,6.713517,0.002118,0.00207,0.0032,0.595459,0.157227,-0.319824,1.648556,-7.345671,6.347533,0.015772,0.009074,0.001771,0.102783,0.33374,-0.56958,0.417018,-6.323663,7.512981,0.04061,0.010534,-0.005384,-0.252197,0.381836,-0.402588
1.814369,-7.327951,6.186308,0.049162,-0.001484,0.004193,-0.362305,0.293945,0.028076,-0.127724,8.221143,5.158384,0.000126,0.009826,0.004734,0.178955,0.296387,0.592773,-1.197962,-7.08035,6.721754,0.012659,0.003703,-0.005683,0.5896,0.159912,-0.32959,1.551345,-7.30168,6.418994,-0.004387,0.011391,0.014374,0.095215,0.331055,-0.571289,0.329055,-6.115545,7.619313,0.045786,-0.007688,-0.01168,-0.258789,0.384277,-0.411377
1.844586,-7.417925,6.144922,-0.059891,0.000898,-0.002882,-0.356445,0.286621,0.032959,-0.128311,8.342229,5.216765,0.013345,0.003568,0.001227,0.18335,0.297363,0.589111,-1.234447,-7.084741,6.698746,-0.024826,0.001825,0.001599,0.593994,0.156006,-0.325439,1.628727,-7.377178,6.401075,-0.013347,-0.011402,0.009662,0.086426,0.334229,-0.579102,0.454906,-6.147431,7.57959,-0.046546,-0.014343,0.003376,-0.252441,0.376709,-0.406494
1.824833,-7.584281,6.088737,0.023347,0.00245,0.000988,-0.346436,0.283447,0.028564,-0.118453,8.333374,5.21318,-0.039855,0.010373,0.006247,0.180664,0.294189,0.586182,-1.199991,-7.180654,6.673011,-0.018037,-8e-05,-0.001263,0.602051,0.148926,-0.330078,1.586013,-7.334733,6.408428,0.002647,0.016949,0.0083,0.095947,0.327881,-0.575195,0.415412,-6.358248,7.561826,-0.043391,0.019332,0.000559,-0.244873,0.371826,-0.410889
1.811351,-7.316906,6.173852,0.021729,0.001549,0.002036,-0.351318,0.294678,0.035645,-0.154769,8.199924,5.17185,-0.01824,0.003422,0.006308,0.182617,0.297363,0.583252,-1.229678,-7.159742,6.674584,0.012019,0.006329,-0.002305,0.59668,0.162109,-0.322754,1.565404,-7.345706,6.383945,-0.022235,-0.019574,0.011771,0.101562,0.322266,-0.580566,0.358993,-6.311801,7.529122,0.058112,-0.008583,-0.005745,-0.249756,0.384766,-0.406494
1.82058,-7.471688,6.146633,-0.031528,-0.001411,-0.003371,-0.35376,0.290527,0.03125,-0.113546,8.315621,5.180737,0.029947,0.004735,0.003106,0.181885,0.297119,0.595459,-1.193962,-7.058744,6.707122,0.012069,-0.000157,-0.004726,0.595947,0.155029,-0.324707,1.641239,-7.372536,6.297707,-0.001236,0.003142,0.007949,0.095703,0.334961,-0.574707,0.423736,-6.058202,7.601873,0.045949,-0.010592,-0.014921,-0.250977,0.379639,-0.410156
1.83981,-7.50356,6.113754,0.015141,0.001906,0.001973,-0.349609,0.292725,0.030029,-0.13004,8.374978,5.268443,-0.034871,0.007408,0.006408,0.183838,0.305908,0.587158,-1.211679,-7.103665,6.687231,-0.031759,0.009312,0.007501,0.599854,0.156738,-0.325928,1.534647,-7.29532,6.372276,0.007563,0.011737,0.004873,0.095947,0.327148,-0.576172,0.436053,-6.182144,7.589829,-0.092202,0.002641,0.011597,-0.248047,0.381348,-0.409424
1.815293,-7.404983,6.146951,0.0096,0.004083,-0.000899,-0.352539,0.289551,0.037842,-0.124972,8.200292,5.142902,-0.023267,0.002669,0.004617,0.182373,0.289307,0.581055,-1.230523,-7.226392,6.682245,0.002116,0.005208,0.003197,0.594971,0.150146,-0.320312,1.627364,-7.305556,6.354806,-0.015699,-0.007258,0.013533,0.099365,0.33252,-0.579102,0.376887,-6.454643,7.50034,0.005514,0.012932,-0.001253,-0.249512,0.377441,-0.405029
1.803342,-7.421819,6.126228,-0.008593,0.001242,0.00068,-0.358398,0.291748,0.028809,-0.141038,8.320207,5.208208,0.032378,0.010826,0.003068,0.1875,0.292236,0.592773,-1.220834,-7.077796,6.707097,0.036218,0.0108,-0.009025,0.590332,0.161621,-0.328613,1.604714,-7.400553,6.368521,-0.00331,0.016777,0.013062,0.098389,0.328369,-0.571777,0.344982,-6.143886,7.600386,0.093625,-0.013521,-0.018676,-0.255859,0.381348,-0.412598
1.84018,-7.501923,6.146435,-0.000685,-0.000174,-0.001594,-0.35376,0.2854,0.033936,-0.116199,8.374715,5.245511,-0.030953,-0.001634,0.006731,0.186035,0.28418,0.588867,-1.242649,-7.065063,6.727426,-0.037904,-0.003964,0.006997,0.595947,0.155518,-0.322998,1.573148,-7.348549,6.415618,0.012112,-0.003583,0.00265,0.091797,0.332031,-0.581055,0.449926,-6.059437,7.570269,-0.037407,-0.010733,0.004478,-0.251953,0.37915,-0.407227
1.815985,-7.403812,6.178933,0.018651,0.004045,0.000881,-0.355469,0.296387,0.033203,-0.093619,8.223608,5.150828,-0.026463,0.01016,0.005271,0.185059,0.299561,0.595459,-1.172415,-7.208,6.679397,-0.011621,0.000177,-0.002592,0.594971,0.162354,-0.324951,1.623855,-7.307729,6.419152,-0.010459,0.002452,0.011665,0.095947,0.329834,-0.572998,0.397827,-6.32436,7.589331,-0.060744,0.01726,-0.000923,-0.25293,0.387451,-0.410156
1.806315,-7.42293,6.147778,-0.029394,0.002065,-8.5e-05,-0.35083,0.292725,0.0354,-0.145918,8.307905,5.215155,0.014564,0.006427,0.002292,0.186523,0.296875,0.593506,-1.254781,-7.103882,6.691436,0.016486,0.010747,-0.003806,0.601074,0.158203,-0.322266,1.597433,-7.375977,6.399528,-0.020083,-0.004889,0.011506,0.0979,0.338623,-0.574463,0.378757,-6.352084,7.536983,0.034886,-0.010631,-0.004133,-0.24585,0.381348,-0.408936
1.831781,-7.553905,6.100701,0.015436,0.002215,-0.000659,-0.343994,0.295166,0.034912,-0.12043,8.337694,5.206451,-0.018434,0.002546,0.005718,0.191895,0.297607,0.589111,-1.218854,-7.085966,6.694389,-0.015977,-0.005939,-0.000788,0.603516,0.162109,-0.320557,1.614533,-7.325445,6.341962,0.011146,0.001371,0.003275,0.100098,0.333984,-0.576172,0.404777,-6.115767,7.565154,0.059908,-0.001671,-0.013637,-0.244873,0.384766,-0.407471
1.841231,-7.338773,6.218304,0.017999,0.000402,0.000348,-0.351562,0.29541,0.032959,-0.127301,8.256366,5.182137,-0.02384,0.007544,0.006578,0.179443,0.288086,0.587402,-1.174601,-7.16183,6.664138,-0.00929,0.008266,0.001198,0.598145,0.161377,-0.324219,1.556309,-7.30556,6.359108,-0.019274,0.003117,0.015136,0.104004,0.334717,-0.57373,0.424837,-6.131807,7.642704,-0.055962,-0.007258,0.00157,-0.252197,0.383057,-0.405518
1.821667,-7.483937,6.120431,-0.036026,0.004274,-0.001487,-0.345215,0.290771,0.025879,-0.110115,8.279621,5.183162,0.015455,0.004742,0.001938,0.192871,0.295654,0.5896,-1.229357,-7.139457,6.692668,0.014572,0.007886,0.002093,0.604248,0.157959,-0.332031,1.635856,-7.388397,6.328396,-0.006071,-0.005204,0.009569,0.0979,0.332764,-0.575684,0.420342,-6.381802,7.529536,-0.031696,0.011939,0.00513,-0.24292,0.383057,-0.416992
1.815861,-7.503716,6.111091,0.029065,0.001094,0.001662,-0.350586,0.289795,0.036865,-0.147393,8.354034,5.221553,-0.01728,0.008562,0.004879,0.187012,0.289062,0.587891,-1.22262,-7.067566,6.71814,0.001578,0.006116,-0.002536,0.598877,0.155762,-0.319824,1.580861,-7.28969,6.38695,0.026314,0.018657,0.002418,0.104492,0.331055,-0.583252,0.318634,-6.23461,7.555265,0.0706,-0.000332,-0.014871,-0.249512,0.376953,-0.404541
1.817077,-7.372537,6.176836,-0.003354,0.003765,-0.001897,-0.353027,0.286133,0.034668,-0.125093,8.239526,5.190564,-0.026614,0.003413,0.006975,0.184814,0.291748,0.591309,-1.250186,-7.142334,6.765878,-0.029046,0.004513,0.005504,0.596924,0.152588,-0.324463,1.5834,-7.317798,6.418998,-0.027765,-0.010013,0.016277,0.098389,0.32959,-0.570801,0.463045,-6.105704,7.583054,0.002214,-0.024455,-0.001516,-0.251465,0.374023,-0.406738
1.840383,-7.438138,6.120605,-0.002176,2.7e-05,-0.000702,-0.359863,0.295654,0.028809,-0.101767,8.331695,5.108355,0.025191,0.005139,-0.000776,0.187256,0.297363,0.590576,-1.342459,-7.130966,6.999009,0.004871,-0.030438,-0.016689,0.590576,0.158691,-0.330811,1.700082,-7.441727,6.534424,-0.018356,0.002491,0.015929,0.096924,0.326416,-0.573486,0.406055,-6.213468,7.601167,-0.03916,0.022312,0.000439,-0.254395,0.384277,-0.416992
1.717633,-7.331582,6.193145,-0.024465,0.005961,0.007534,-0.349365,0.294434,0.032715,-0.208065,8.464003,5.275564,-0.065526,0.016588,0.010017,0.178223,0.295654,0.5896,-1.3347,-6.927127,6.794981,-0.0818,-0.08107,-0.039848,0.598633,0.162842,-0.32666,1.827476,-7.33687,6.945036,-0.00552,0.00509,0.006896,0.091553,0.334961,-0.580322,0.257418,-6.245904,7.487215,-0.002801,0.000654,-0.003982,-0.246338,0.385498,-0.409668
1.880445,-7.582441,6.079411,-0.05789,-0.00999,-0.011002,-0.347168,0.291016,0.029053,-0.073323,8.152418,5.209296,-0.119245,-0.008688,0.010721,0.18457,0.282471,0.586182,-1.007665,-7.137695,6.463879,-0.135021,-0.09219,-0.015256,0.600586,0.158936,-0.329834,1.595389,-7.259186,6.538724,-0.132417,0.035837,0.045535,0.102051,0.334473,-0.574463,0.424588,-6.115271,7.598251,-0.010719,-0.050587,-0.01953,-0.245117,0.380127,-0.412842
1.965766,-7.458596,6.152994,0.041082,-0.000851,0.012346,-0.35376,0.29126,0.028809,0.01561,8.095709,5.188816,0.033933,0.01378,-0.00062,0.184082,0.294678,0.588623,-0.953754,-7.382238,6.448943,-0.069296,-0.008523,0.005632,0.592773,0.159668,-0.328857,1.313618,-7.240662,5.813305,-0.062833,-0.02501,0.023069,0.10498,0.334229,-0.575195,0.688884,-6.372731,7.763875,-0.120102,-0.013793,0.010968,-0.252197,0.379883,-0.409668
1.757368,-7.490009,6.062345,-0.05196,0.01409,0.008211,-0.354492,0.292236,0.030029,-0.252233,8.408823,5.395194,0.034485,0.010376,-0.011162,0.183105,0.290527,0.591064,-1.329583,-7.423505,6.731555,0.063378,0.001398,0.015707,0.593262,0.161621,-0.326416,1.954687,-7.287426,5.610059,-0.109895,-0.005414,0.045608,0.097168,0.333984,-0.573486,0.378606,-6.634993,7.34509,0.031014,0.098075,0.021608,-0.250732,0.38623,-0.411377
1.66824,-7.598151,6.088626,0.078874,0.000176,-0.006648,-0.357178,0.291748,0.029297,-0.22349,8.306092,5.135387,-0.048316,-0.00297,0.015104,0.191406,0.296631,0.601562,-1.428198,-7.015089,6.987714,0.039956,-0.052617,-0.017023,0.588867,0.15918,-0.331787,1.769668,-7.638456,6.098066,0.087392,0.284893,0.060539,0.101562,0.336914,-0.57373,-0.03102,-5.943828,7.46989,0.245772,-0.01959,-0.041683,-0.254883,0.377441,-0.416016
1.798001,-7.036448,6.26195,-0.01301,-0.008351,0.001277,-0.352539,0.293701,0.036865,-0.176525,8.295726,5.202696,0.021265,-0.00575,0.004753,0.190186,0.289062,0.586426,-1.232749,-7.271395,6.605644,-0.12563,-0.127963,-0.064748,0.594238,0.164795,-0.327881,1.282703,-7.450127,7.229159,-0.119904,0.209162,0.056735,0.102051,0.334961,-0.575439,0.536058,-5.634481,7.712313,-0.115041,-0.103363,-0.010801,-0.248535,0.38208,-0.405518
1.95938,-7.794068,6.001319,-0.113522,-0.000693,-0.021685,-0.351562,0.286865,0.026123,0.084194,8.371234,5.180556,-0.076508,-0.006861,0.011223,0.179688,0.293945,0.587402,-0.648752,-7.085604,6.384139,0.072566,-0.03248,-0.074638,0.59082,0.159668,-0.334717,1.220933,-8.723959,6.739982,-0.119333,0.096141,0.077759,0.109863,0.342529,-0.567627,0.629889,-6.635315,7.548739,-0.26445,0.059676,0.031475,-0.252197,0.381348,-0.412354
1.72949,-7.302664,6.260881,0.126175,0.022183,0.029339,-0.356445,0.289307,0.030029,-0.21615,8.297305,4.975835,0.028343,0.063129,0.005302,0.187744,0.284424,0.594971,-1.292458,-6.644521,7.090198,-0.145748,0.068163,-0.052417,0.587891,0.164062,-0.329102,0.715913,-6.808492,7.097602,0.41624,-0.112161,-0.238959,0.104248,0.328125,-0.578125,0.178313,-6.724876,7.526814,0.130946,0.017015,-0.025196,-0.251953,0.379883,-0.410645
1.786649,-7.271881,6.092586,-0.175653,-0.03787,-0.025261,-0.349609,0.293701,0.033447,-0.279241,8.576948,5.846196,-0.287956,-0.019875,0.023971,0.186035,0.285156,0.59082,-1.384826,-7.39384,6.210392,-0.294537,-0.021057,-0.046838,0.595215,0.166016,-0.326416,1.52386,-6.203852,6.687874,-0.548094,-0.463326,0.09307,0.093262,0.337402,-0.569336,0.250361,-5.656814,7.449625,0.250248,-0.035333,-0.040629,-0.24707,0.379883,-0.411377
1.879286,-7.898107,6.077536,0.028026,0.052342,7.5e-05,-0.351318,0.290527,0.035889,0.128817,7.451059,4.777773,0.146318,0.022888,-0.007404,0.19458,0.293213,0.597412,-1.094904,-7.851877,7.502811,-0.155447,-0.203244,-0.063522,0.589111,0.167969,-0.325195,1.993403,-8.749579,6.095961,-0.450454,-0.354087,0.018104,0.095703,0.346191,-0.564941,0.850019,-5.898634,7.844436,-0.413525,-0.116728,-0.001169,-0.250977,0.383057,-0.402832
1.78648,-6.830296,6.625943,0.09394,-0.119938,0.023394,-0.352295,0.296387,0.033203,-0.48355,9.557284,4.700128,0.277745,-0.048912,-0.004315,0.177734,0.295166,0.595947,-1.327953,-6.879239,7.067251,0.216744,-0.115197,-0.098259,0.584717,0.173828,-0.32959,2.788284,-7.564709,5.838985,0.299822,0.008376,-0.106357,0.095215,0.340088,-0.5625,0.25569,-7.059176,7.35559,-0.05109,0.14493,0.066064,-0.248779,0.388916,-0.40625
1.87989,-7.209961,5.79096,-0.462177,0.093877,0.015909,-0.35376,0.297119,0.038574,0.567221,8.695029,5.944343,-0.95479,0.080998,0.009305,0.192139,0.274414,0.590332,-0.685701,-5.573651,6.660445,-0.363759,-0.193623,-0.148752,0.583008,0.179443,-0.323242,2.132784,-5.537918,6.155582,-0.084875,0.226747,0.081637,0.098389,0.346191,-0.563477,0.151154,-5.72682,7.636299,0.169422,-0.065231,-0.127351,-0.250244,0.384033,-0.402588
1.842902,-8.812881,5.592854,0.047839,-0.153621,-0.020748,-0.353271,0.294434,0.032715,-1.049195,5.423421,5.554261,-0.115718,-0.017557,0.007873,0.183105,0.27832,0.587402,-2.122518,-9.216618,6.636451,-1.142078,-0.375716,0.0622,0.579834,0.185547,-0.327393,2.075972,-7.429757,6.525056,-0.919641,0.383872,0.316319,0.105957,0.359131,-0.548584,0.735784,-6.1185,7.308609,-0.304076,-0.051579,0.107895,-0.25,0.388916,-0.404785
1.837697,-7.132491,6.106415,0.18129,0.203846,0.009757,-0.354492,0.296143,0.032227,0.715608,9.148414,5.46261,0.935736,-0.031384,-0.019602,0.184082,0.289795,0.583984,0.004186,-9.69939,5.823913,0.46302,-0.514407,-0.372954,0.568115,0.186523,-0.333252,1.468273,-10.947297,6.352671,-0.534307,0.454335,0.313736,0.114258,0.366699,-0.548584,0.242262,-7.139463,7.28331,-0.224564,0.04161,-0.079989,-0.252197,0.389893,-0.400391
2.38387,-6.918888,6.554534,0.016533,-0.181397,-0.029733,-0.348145,0.294189,0.039307,-0.375463,9.966693,5.049522,-0.573005,0.021326,-0.007976,0.182861,0.284912,0.589355,-0.764559,-5.234281,6.949613,0.309963,-0.238635,-0.280472,0.567871,0.186279,-0.336182,0.765017,-8.199334,6.778325,0.630739,0.333589,-0.305663,0.113525,0.358398,-0.547607,0.685267,-6.366016,7.89157,0.579062,-0.123986,-0.000909,-0.249512,0.383301,-0.404053
1.163344,-7.529201,6.17907,-0.324397,0.1993,0.071304,-0.357422,0.296631,0.032715,0.266215,6.941577,4.671607,-0.423887,-0.053525,0.034602,0.187012,0.271973,0.585449,-0.676557,-5.163343,7.193506,-0.8717,-0.460051,-0.218594,0.553467,0.200439,-0.343018,1.72998,-6.345505,6.34207,-0.985744,0.066237,0.183925,0.121338,0.370361,-0.537109,1.040845,-5.515352,7.815798,-0.344473,0.070099,-0.025452,-0.256592,0.387939,-0.407227
2.382637,-8.029308,5.7858,0.077867,-0.148989,-0.020386,-0.354248,0.292725,0.036621,-0.253288,8.358802,5.433454,0.395236,0.233346,-0.114976,0.180176,0.287354,0.588623,-0.731413,-8.854568,6.368121,-1.104918,-0.357811,-0.116908,0.552002,0.209717,-0.330322,1.996562,-7.892291,5.400626,-0.348941,0.285485,-0.112854,0.115234,0.379395,-0.537354,-0.504911,-6.369746,7.138413,-0.140554,0.184839,0.098201,-0.249512,0.38623,-0.398682
0.989125,-6.558965,6.270873,-0.133882,0.03416,0.04563,-0.353516,0.290771,0.037842,-0.652454,9.15264,5.581319,-0.456968,-0.086231,0.037282,0.186523,0.277344,0.585205,-1.007285,-9.392917,6.199841,0.083795,-0.635731,-0.419104,0.543945,0.209229,-0.3396,1.51746,-7.559556,5.964255,-0.641387,0.598418,0.112544,0.127686,0.385254,-0.516602,0.379295,-6.485273,7.784302,-0.221887,-0.293381,-0.123099,-0.253174,0.385498,-0.395752
3.170889,-8.435468,5.612757,-0.330701,-0.027483,-0.023199,-0.351318,0.294434,0.035645,1.085156,6.999126,5.233166,-0.540821,0.098718,-0.045766,0.181396,0.272461,0.593018,0.457715,-6.187334,6.269871,0.122301,-0.538445,-0.48545,0.533691,0.220947,-0.349121,1.287055,-9.412926,5.983715,-0.630159,0.695597,0.027027,0.135742,0.388916,-0.508057,1.541768,-6.756,7.055352,-0.044769,0.090313,0.129359,-0.246826,0.386963,-0.405273
0.654148,-7.680752,6.037958,0.148009,-0.01944,0.046909,-0.357178,0.294922,0.037842,-1.195516,7.921486,5.600178,0.398258,0.213592,-0.099479,0.179932,0.284668,0.591797,-1.416818,-7.54665,7.096756,-1.064383,-0.716311,-0.31578,0.514893,0.232178,-0.349609,1.453266,-8.979026,7.023327,-0.276436,0.726809,-0.07945,0.14624,0.398438,-0.509033,-0.492534,-6.05499,7.515544,0.04202,0.2243,-0.111524,-0.253418,0.388916,-0.403076
2.781073,-7.152064,5.964345,-0.126246,0.011921,-0.053301,-0.35791,0.29248,0.040283,0.570073,9.481616,5.766675,-0.446987,0.009562,-0.07023,0.176758,0.283203,0.593506,1.013533,-10.505198,5.439645,-0.494018,-0.929293,-0.717294,0.500977,0.244629,-0.352783,-0.002963,-10.156749,7.408746,-0.772587,0.716488,-0.121768,0.145264,0.408691,-0.49292,0.623462,-6.154271,7.267786,-0.154137,-0.374783,0.038417,-0.255615,0.387451,-0.39624
0.902001,-7.82654,6.051319,-0.139344,-0.027073,0.025888,-0.354492,0.29248,0.038574,-1.212337,6.670097,5.44412,-0.387528,0.2386,0.045168,0.182617,0.273926,0.589844,-0.296007,-9.408376,6.031649,0.544431,-0.505839,-0.57612,0.48999,0.246582,-0.364014,0.043357,-11.331924,7.16147,-0.255994,0.066947,-0.431292,0.140625,0.410889,-0.484619,1.002963,-6.679793,7.614128,-0.233108,0.253695,-0.043046,-0.251221,0.390869,-0.400146
2.188997,-8.1873,5.765832,-0.003115,-0.060719,-0.021486,-0.352295,0.289062,0.037109,-0.579242,8.272162,6.350367,0.672519,-0.253433,-0.13088,0.179688,0.282959,0.595215,0.262709,-7.365705,6.185384,0.189313,-1.001264,-0.682873,0.469727,0.252197,-0.377441,0.561946,-9.223638,6.767089,0.573909,0.044768,-0.697822,0.131348,0.403564,-0.491943,-0.683945,-7.163521,7.091572,0.023537,0.075869,0.087163,-0.249023,0.388916,-0.402588
1.08883,-7.177695,5.993671,0.2422,-0.060944,-0.031433,-0.35376,0.301025,0.038574,-0.357505,9.208186,5.709113,-0.145414,0.03729,0.112066,0.181396,0.275146,0.578857,1.225851,-8.37592,5.997786,-0.180886,-0.618116,-0.300333,0.45459,0.26001,-0.380859,-0.520573,-6.666755,7.34123,0.141559,-0.356937,-0.529938,0.120361,0.40332,-0.496338,0.600929,-6.130537,7.310871,0.406767,-0.277522,-0.14097,-0.25293,0.39502,-0.402832
2.484368,-7.595767,5.979756,-0.199651,-0.059918,-0.03682,-0.349854,0.298828,0.044922,-0.239139,7.061246,4.883343,-0.178123,-0.272655,0.013905,0.18042,0.269287,0.588623,0.215859,-8.010521,6.388458,0.516631,-0.796586,-0.634366,0.437988,0.263916,-0.384766,0.966427,-8.21479,6.262181,-0.45997,-0.99769,-0.355907,0.101318,0.420166,-0.486572,0.743362,-5.620333,7.588128,-0.070145,0.179953,0.057318,-0.247559,0.397217,-0.398193
1.778002,-7.841031,6.233907,0.169257,-0.117675,-0.037533,-0.358398,0.300781,0.049561,0.674094,8.674329,5.26145,0.766505,0.136795,-0.020007,0.180664,0.279297,0.580566,1.892968,-5.940566,7.146411,0.182655,-0.960445,-0.615514,0.409424,0.268311,-0.385986,1.998829,-9.24877,5.653992,0.061765,-0.630886,-0.547229,0.088135,0.41748,-0.480713,0.3092,-6.787126,7.633856,-0.29567,-0.115594,0.000494,-0.256592,0.401123,-0.38916
2.108258,-7.085225,5.943685,-0.197751,0.012322,-0.060574,-0.349365,0.293457,0.042725,-0.999872,10.523542,6.263098,-0.116106,0.013862,0.095776,0.186035,0.269043,0.5625,2.04582,-8.096029,6.654714,-0.801589,-0.736195,-0.4017,0.403076,0.271729,-0.39209,1.888533,-7.970001,5.912346,0.213062,-0.577248,-0.646943,0.061768,0.414551,-0.476074,0.80545,-6.622414,6.998765,0.183564,0.042997,-0.054806,-0.250977,0.392822,-0.402588
1.440421,-7.884449,5.810325,-0.008036,-0.186016,-0.060244,-0.352783,0.298584,0.039307,-0.03425,7.964618,5.193652,-0.593767,-0.150835,0.305128,0.177002,0.255371,0.55957,2.436851,-9.838468,6.037345,0.016873,-0.67402,-0.445811,0.379883,0.279785,-0.405518,2.382452,-6.956467,5.398023,-0.015853,-0.439894,-0.525442,0.054932,0.407715,-0.482178,-0.157995,-5.375776,7.491405,0.164036,0.048677,-0.067302,-0.255859,0.39209,-0.408936
2.022776,-6.572519,6.523694,-0.199629,0.005698,-0.007617,-0.346436,0.298828,0.037842,-0.818322,8.720259,5.501782,0.319829,-0.136377,0.405492,0.184082,0.256592,0.550049,2.586574,-7.078021,6.297962,0.214958,-0.254371,-0.362346,0.368652,0.279053,-0.407227,1.450109,-6.789936,5.607477,-0.201193,-0.528278,-0.371007,0.040771,0.412354,-0.482666,0.156872,-5.599257,7.742623,-0.603816,-0.220195,-0.077216,-0.251709,0.394287,-0.399658
1.915399,-8.264556,6.08307,-0.576056,-0.243696,-0.092555,-0.358887,0.296631,0.050781,0.458834,10.5418,5.760116,-0.336423,-0.33716,0.345268,0.18457,0.239258,0.526123,1.971191,-7.501558,6.094494,-0.748051,-0.352022,-0.203114,0.343262,0.287354,-0.39209,1.948557,-7.432493,5.78671,-0.73203,-0.96959,-0.265869,0.030029,0.416992,-0.47168,1.440909,-7.421359,7.247068,-0.601029,-0.029901,0.009863,-0.262939,0.402832,-0.387695
1.603667,-7.357295,6.401428,-0.122044,-0.186545,-0.028834,-0.339844,0.299561,0.051758,-0.481483,9.097624,5.466463,-0.852114,-0.11357,0.447568,0.182861,0.216064,0.501709,2.573935,-8.30189,6.115137,-0.391556,-0.069271,-0.303447,0.349121,0.29541,-0.390137,2.145766,-9.817626,4.347929,-0.581232,-1.047664,-0.252315,0.002441,0.421631,-0.456299,-0.002368,-6.570732,7.493628,0.007022,0.141015,-0.137495,-0.244629,0.399414,-0.389648
2.378448,-7.731652,5.732597,-0.822868,-0.463945,-0.139827,-0.355469,0.300049,0.056396,0.410384,8.24427,5.561377,-0.473481,-0.405226,0.254084,0.190918,0.196045,0.484131,2.002167,-7.589912,5.948617,-0.394956,-0.159138,-0.254019,0.314209,0.299805,-0.390869,2.413094,-7.16658,5.283335,0.161831,-1.075022,-0.660834,-0.001709,0.41626,-0.457275,0.73635,-6.233343,7.35514,-0.639599,-0.268465,0.0044,-0.265869,0.406738,-0.387451
2.277756,-7.806564,5.353594,-0.190943,-0.332387,0.017198,-0.351318,0.307373,0.067383,0.184772,8.516463,5.919707,-0.658136,-0.306219,0.421846,0.180664,0.171387,0.449219,3.09911,-8.636687,5.516631,-1.197503,-0.118669,-0.153001,0.300781,0.317627,-0.373779,3.25327,-6.21426,5.109598,-0.955746,-1.189607,-0.116688,-0.037354,0.425049,-0.443848,1.408893,-6.990163,7.009262,-0.51328,0.134685,-0.076079,-0.261719,0.415527,-0.375977
2.530968,-6.995787,5.6699,-0.648654,-0.481366,0.008837,-0.34668,0.320557,0.076904,0.264612,7.723056,6.313377,-0.599815,-0.761147,0.408676,0.185303,0.154785,0.422852,2.54995,-11.178677,5.095102,-0.771025,0.020193,-0.072213,0.293945,0.334961,-0.368652,3.206718,-10.108707,4.157009,-1.437343,-1.076992,-0.09872,-0.051025,0.445068,-0.41626,0.424713,-7.186867,7.130566,-0.529706,0.090046,0.050246,-0.25708,0.428223,-0.373291
2.525662,-9.446861,4.634194,-0.556525,-0.414951,-0.003449,-0.348389,0.311523,0.093262,0.771864,8.196045,7.160669,-0.262463,-0.72832,0.583258,0.182373,0.137695,0.398682,3.106768,-10.1976,4.992245,-0.02935,0.079504,-0.102902,0.275635,0.327148,-0.361572,3.100999,-10.460189,3.505754,-0.044541,-1.198381,-0.325285,-0.061279,0.451416,-0.415283,1.008083,-7.424724,6.544005,-0.352747,-0.147105,-0.008587,-0.262939,0.42041,-0.361328
2.74711,-7.719812,5.125209,0.301913,-0.519355,0.040257,-0.34668,0.317139,0.097656,0.299695,8.124737,6.325886,-0.525718,-1.107322,0.614861,0.181396,0.105225,0.362061,2.289786,-9.127104,4.816607,-0.205819,0.329631,0.28166,0.261475,0.334961,-0.359131,3.457556,-6.7722,4.110563,0.008699,-1.196003,-0.32129,-0.084717,0.437256,-0.403809,1.555563,-7.565526,6.824021,-0.300819,0.126982,0.055635,-0.259766,0.427002,-0.357666
2.87551,-6.215784,5.893394,-0.340047,-0.52415,0.135678,-0.349854,0.324219,0.100586,1.316545,7.390551,5.20379,-0.354411,-1.365997,0.671876,0.179688,0.093262,0.328125,1.948031,-8.765407,5.205745,-0.136498,0.241301,0.382174,0.251221,0.33374,-0.371338,2.655172,-7.145002,3.498379,-0.591067,-1.373646,0.268027,-0.099609,0.447754,-0.388428,0.342756,-7.652511,6.86272,-0.123949,0.134686,0.224247,-0.258057,0.432617,-0.368408
2.569562,-8.135877,5.033555,-0.713962,-0.51613,0.229977,-0.346924,0.331299,0.121094,1.292935,8.561235,5.895266,-0.292555,-1.385668,0.611161,0.185547,0.068115,0.295898,1.208362,-7.531268,5.673215,-0.440983,0.389703,0.27875,0.24585,0.34082,-0.359131,3.420856,-8.315145,3.179813,-0.386494,-1.597113,0.096391,-0.116699,0.452637,-0.387451,0.786698,-6.375301,6.196527,-0.19802,-0.27562,0.079252,-0.259277,0.435303,-0.355225
2.153267,-8.909495,4.979131,-0.418894,-0.772708,0.165531,-0.340332,0.330322,0.136963,1.305013,8.225929,6.680043,-0.867208,-1.531657,0.511625,0.190186,0.053223,0.261963,0.334424,-8.906587,4.955377,-1.014856,0.05639,0.411397,0.238037,0.345215,-0.353027,4.454777,-8.485411,3.191599,-0.612793,-1.140686,0.444482,-0.125244,0.461914,-0.368164,1.155105,-6.751878,7.035807,-0.909322,0.072019,0.330802,-0.251221,0.443359,-0.344238
2.770288,-9.012675,4.262206,-0.500567,-0.743096,0.140759,-0.334229,0.332275,0.153076,2.56152,6.660085,7.209386,-0.683062,-1.572531,0.413454,0.17041,0.027344,0.230225,1.854146,-10.344311,4.426544,-0.464684,0.058294,0.22393,0.232666,0.347168,-0.348145,2.717521,-10.124038,2.809305,-0.63596,-0.704436,0.338246,-0.124512,0.462891,-0.353516,0.589522,-8.711558,7.158727,-0.784807,-0.073289,0.163649,-0.245605,0.448242,-0.333984
2.100811,-10.936635,3.295906,-0.343223,-0.791149,-0.026311,-0.337646,0.329102,0.158447,2.883459,6.334749,7.157852,-0.070619,-1.302056,0.44184,0.158691,0.007812,0.195557,1.125934,-9.347342,5.192852,0.22307,0.247683,0.363506,0.212891,0.343994,-0.357422,3.186749,-9.367738,2.718759,0.070857,-1.054397,0.20043,-0.128418,0.458984,-0.351074,1.542643,-9.214013,6.196146,-0.072905,0.204424,0.129447,-0.253662,0.446533,-0.338379
1.567869,-10.06012,3.438225,0.587555,-0.841382,-0.123987,-0.329346,0.328125,0.170654,2.844429,7.275978,6.658375,0.371868,-1.056897,0.477771,0.147217,-0.00708,0.177246,1.615683,-7.507111,5.672496,0.38603,0.154208,0.084256,0.198486,0.336182,-0.355469,4.472875,-8.88683,2.507921,-0.24876,-0.57949,0.28351,-0.13916,0.45874,-0.350586,-0.231188,-8.366727,5.891361,0.43742,0.573855,0.120302,-0.24585,0.438721,-0.339844
1.827447,-8.171829,4.141975,0.145948,-0.98658,-0.217256,-0.319824,0.332031,0.175781,3.109324,7.754389,6.898192,0.198982,-0.746399,0.629644,0.132568,-0.026611,0.146484,1.801693,-7.088205,5.796636,0.00418,0.451902,0.157755,0.196777,0.344238,-0.355957,2.814739,-10.557554,2.556494,-0.034613,-0.369115,0.17163,-0.144043,0.455322,-0.342285,-0.068417,-7.247595,7.399871,0.401952,0.271558,-0.011267,-0.238037,0.437256,-0.346436
2.606111,-11.010479,3.072719,-0.165085,-0.958192,-0.458071,-0.311523,0.326904,0.181152,4.297077,6.686949,7.486636,0.082811,-0.544578,0.755557,0.114258,-0.040283,0.12085,1.955456,-8.719577,4.702629,-0.346383,0.539021,0.006588,0.196045,0.348389,-0.350342,3.506762,-9.654147,2.389609,0.441159,-0.614202,-0.276521,-0.153809,0.450439,-0.345703,1.619823,-7.864797,7.820784,0.01417,0.691675,0.043859,-0.226074,0.431885,-0.345459
4.912417,-7.424294,7.564404,1.908874,-1.34629,-0.37437,-0.305664,0.325684,0.177734,2.871608,7.282751,3.191455,0.715501,-0.05484,0.594876,0.098633,-0.062256,0.103516,0.381294,-10.176381,2.775611,0.033855,0.825748,0.093055,0.185303,0.350586,-0.35498,3.656215,-7.787285,2.735827,0.161117,-0.370345,-0.237633,-0.155762,0.446289,-0.34082,0.766528,-8.409425,7.284219,0.627668,1.267058,-0.075155,-0.221436,0.420654,-0.36499
8.091763,-0.881256,10.051705,0.265528,-0.628086,-0.047827,-0.291748,0.333252,0.181641,0.050083,6.731627,4.4413,0.238974,-1.831374,-0.0661,0.080322,-0.072021,0.084473,-2.67311,-11.851145,3.216718,0.33172,-0.216307,0.210484,0.176025,0.347412,-0.36377,3.850424,-9.533278,2.462559,-0.523289,-0.588918,-0.056164,-0.171387,0.449463,-0.335938,-3.486129,-6.039522,9.625109,1.325361,0.568722,0.610183,-0.202637,0.408936,-0.382812
0.888564,-14.437599,2.8786,-1.410764,-0.650184,-0.136072,-0.288086,0.32959,0.188232,8.267168,7.843354,6.424185,1.352001,-1.647978,-0.252756,0.076416,-0.075928,0.067627,4.338569,-9.135945,5.186379,1.928592,-0.653118,-0.276472,0.152832,0.326416,-0.390869,5.198329,-12.532729,1.067066,0.361118,0.079248,-0.157614,-0.170654,0.443115,-0.343018,0.572674,-5.923418,7.860618,-0.095318,-0.901533,0.276325,-0.209717,0.402588,-0.376465
5.972107,-10.706715,4.798304,2.215875,-0.945732,-0.012043,-0.265869,0.345703,0.18042,3.565013,10.913895,7.57914,0.033798,-0.755668,0.126164,0.05835,-0.108887,0.051025,2.363466,-4.176032,6.760701,0.482879,0.678471,0.129307,0.151367,0.329346,-0.393311,3.760211,-8.576594,2.380687,2.133785,0.708702,-0.648831,-0.182617,0.412842,-0.369629,0.649885,-8.396491,7.018064,-0.506678,1.270276,0.18265,-0.191406,0.406494,-0.377197
3.583301,-5.232677,7.691315,-0.088044,-0.389103,-0.398346,-0.256104,0.34082,0.172363,6.599452,5.649549,5.209376,-0.794444,-1.268429,-0.103756,0.041016,-0.133545,0.025635,0.811591,-10.262951,4.557528,-1.377685,-0.215077,0.188384,0.140381,0.336426,-0.38501,4.185259,-3.967768,3.733964,-0.066711,-0.113326,-0.047762,-0.183594,0.417969,-0.364258,-5.376831,-8.890019,7.790791,1.070282,-0.096533,0.371078,-0.185059,0.38501,-0.387939
4.999781,-11.925706,4.611674,0.006064,-0.46884,-0.2605,-0.246094,0.345459,0.160889,2.547098,6.274651,5.071423,1.56873,-0.49066,-0.17398,0.022461,-0.142822,0.019043,0.730409,-13.349033,3.680789,1.230947,0.225278,0.10228,0.126953,0.32251,-0.407227,6.46172,-12.284157,0.754149,-1.285396,0.388332,0.397654,-0.178467,0.424805,-0.354248,0.431812,-5.303089,8.002204,1.300163,-1.22176,-0.408128,-0.202881,0.36377,-0.399414
3.296261,-7.447229,6.072093,1.350141,-0.322224,-0.219406,-0.22583,0.35376,0.145264,5.315329,10.497815,6.077918,0.349669,-1.625921,-0.570831,0.01123,-0.163574,0.004639,0.569279,-6.014969,5.379118,2.291877,-0.419825,-0.517274,0.112061,0.304199,-0.424805,2.435915,-12.104734,1.835765,2.042514,1.417645,-0.525642,-0.181396,0.395996,-0.389648,-0.21501,-5.870207,7.662122,-0.481705,0.5158,0.467175,-0.184326,0.366211,-0.389893
3.862868,-8.255581,5.62675,-0.128771,-0.426397,-0.563576,-0.216309,0.362549,0.133301,5.268669,6.292187,4.425106,-0.444776,-0.22828,-0.39398,-0.000244,-0.184814,-0.010986,2.891329,-4.288405,5.678218,0.367027,-0.286708,0.113793,0.097656,0.30249,-0.43335,4.746279,-5.129239,3.632782,1.004428,0.338971,-0.360948,-0.183838,0.380859,-0.396973,-3.345071,-9.475287,7.386689,0.31922,-0.649203,-0.004751,-0.188232,0.359619,-0.391846
4.294704,-10.15148,4.935782,1.082798,-0.427994,-0.431674,-0.196533,0.361572,0.106445,3.575902,6.959089,4.135216,1.41814,-0.916187,-0.954289,-0.006836,-0.20166,-0.010742,1.209885,-8.127224,5.036886,0.206553,-0.25256,-0.110734,0.094238,0.297119,-0.443848,6.27662,-8.801151,1.204413,0.112405,1.835286,0.038365,-0.166992,0.383057,-0.407715,0.933858,-7.084203,7.504417,1.998791,-0.884951,-0.116752,-0.186035,0.329834,-0.414062
4.467173,-6.416805,6.073044,0.724545,-0.330575,-0.558476,-0.192871,0.376221,0.08252,6.341374,10.551398,5.040804,0.307967,-0.130427,-0.826814,-0.012695,-0.224365,-0.02002,2.719343,-7.727208,5.657586,1.080063,-0.362505,-0.269946,0.07666,0.29126,-0.460693,1.923618,-6.464693,3.029591,1.876365,1.931691,-0.545643,-0.151367,0.354492,-0.439209,-1.029085,-4.15358,8.801782,0.675746,-0.014575,-0.030598,-0.18457,0.322021,-0.424072
4.722678,-8.850459,5.26689,-0.003142,-0.404768,-0.460817,-0.182617,0.384521,0.061768,2.482971,7.430555,3.556259,-0.543658,-0.306803,-0.926075,-0.02124,-0.248047,-0.0271,1.569202,-5.699712,5.948919,0.924318,-0.209342,-0.322064,0.065186,0.282471,-0.476318,5.143865,-4.759344,5.396473,-0.295414,1.198158,0.127339,-0.140625,0.358398,-0.445068,-0.648047,-7.459509,8.202814,-0.508303,-0.930517,0.049311,-0.187012,0.322998,-0.419678
5.075717,-7.550736,5.433823,0.702492,-0.215439,-0.300578,-0.175293,0.390625,0.039551,5.608879,7.904556,3.575564,0.409432,-0.261315,-1.095169,-0.019531,-0.255127,-0.035156,2.799834,-5.722947,6.152635,0.114527,-0.430118,-0.307214,0.050537,0.280029,-0.480225,2.814108,-10.926875,3.51439,0.049552,2.207925,0.155649,-0.115234,0.35498,-0.456055,0.204547,-8.187355,7.606392,0.925653,-0.386743,-0.277422,-0.187256,0.30835,-0.42749
4.53334,-7.116612,5.122894,0.046163,-0.288717,-0.501434,-0.171143,0.389648,0.025146,3.559899,8.681428,4.770494,-0.24267,0.181114,-0.99785,-0.023193,-0.289062,-0.049561,3.007396,-7.75321,5.509979,0.201354,0.032792,-0.287613,0.040771,0.275635,-0.47583,1.516662,-6.909139,5.529153,1.654034,1.103563,-0.616222,-0.114014,0.331299,-0.4729,-0.134334,-5.363383,8.457186,0.970801,-0.800032,-0.13487,-0.188721,0.283691,-0.424316
5.036614,-8.627533,5.069766,0.629583,-0.197318,-0.384562,-0.162598,0.401611,-0.001221,4.086488,6.621091,3.372951,0.086846,-0.014035,-1.063501,-0.016113,-0.304688,-0.058838,1.52451,-7.468099,6.495678,1.068753,-0.194481,-0.45159,0.034912,0.269043,-0.490234,5.051092,-5.002741,5.538598,-0.182779,0.958745,-0.105077,-0.105225,0.326416,-0.466309,0.636638,-5.8033,8.591212,0.214917,-0.514461,-0.002756,-0.184326,0.283936,-0.430176
5.241892,-6.707393,5.876147,0.662844,-0.07229,-0.495115,-0.164795,0.400391,-0.030518,3.64983,8.270295,4.775898,0.88679,0.340777,-1.098246,-0.01416,-0.322266,-0.05835,2.863061,-5.725428,6.679992,0.820997,-0.231583,-0.409143,0.019531,0.259766,-0.504883,2.403553,-9.970758,4.614116,0.197743,1.511464,-0.07637,-0.085938,0.328369,-0.477051,-0.354102,-7.280802,8.132586,0.456305,-0.484043,-0.073082,-0.189209,0.269775,-0.441406
5.152458,-8.043731,5.348207,0.590039,0.016605,-0.514518,-0.15625,0.408203,-0.054688,3.487524,9.005718,3.7815,0.327528,0.230768,-1.026758,-0.001953,-0.344238,-0.056885,2.588387,-6.885001,6.071947,0.659398,-0.171907,-0.202968,0.018066,0.256836,-0.51123,3.404981,-6.483207,5.477391,1.835508,0.899281,-0.72152,-0.091064,0.295166,-0.50415,-0.267461,-6.495434,8.322038,1.497446,-0.849198,-0.025988,-0.186523,0.251709,-0.452148
5.507682,-5.891845,5.764319,0.752425,0.168479,-0.289374,-0.154541,0.408691,-0.079346,2.337229,8.202254,3.410654,0.066849,0.426362,-1.060581,-0.01001,-0.351807,-0.065674,1.707873,-5.867906,6.435985,0.979468,0.001139,-0.426102,0.007324,0.24292,-0.523438,3.606404,-3.50327,6.476469,0.660897,1.632823,-0.05905,-0.064209,0.289795,-0.509766,0.843396,-3.681212,9.205513,0.896743,-0.919342,-0.350083,-0.193359,0.234619,-0.455322
4.861455,-6.43024,5.65816,-0.211662,0.190487,-0.354156,-0.155029,0.412109,-0.098877,2.935325,8.57633,4.025806,0.122353,0.227007,-1.119329,0.001221,-0.376709,-0.061035,2.631392,-4.591433,7.077681,0.306809,-0.451188,-0.352317,-0.00708,0.239258,-0.523438,0.518844,-8.06116,6.819801,-0.351624,0.935881,0.060515,-0.057861,0.292236,-0.510498,1.196437,-5.034449,8.588745,-0.414671,-0.628225,0.057552,-0.197021,0.235352,-0.450439
4.862191,-8.254905,4.945451,0.385978,0.324101,-0.260177,-0.146484,0.416992,-0.120117,2.528007,8.258663,4.288715,-0.05434,0.542935,-0.967609,0.01709,-0.382568,-0.075439,3.3527,-6.927244,6.622787,-0.128691,0.064447,-0.112444,-0.009033,0.243896,-0.523926,3.467121,-7.221225,6.239397,1.249145,0.457313,-0.476629,-0.060059,0.272461,-0.522461,0.156665,-7.543363,7.946877,0.129456,-0.656037,-0.242878,-0.192627,0.233643,-0.451416
5.82462,-6.40057,5.918138,0.511946,0.315029,-0.277558,-0.145752,0.421143,-0.147461,2.380267,7.981821,4.019583,0.320979,0.364601,-0.991552,0.019775,-0.408447,-0.075928,1.60851,-8.034389,6.595861,0.679615,-0.103936,-0.309707,-0.017334,0.235107,-0.537109,2.27155,-4.201728,7.701527,0.594927,1.050458,-0.124867,-0.045654,0.262207,-0.523682,1.45807,-6.40385,8.186031,1.059057,-1.108037,-0.181932,-0.202637,0.218018,-0.466797
5.029947,-7.137154,5.910987,0.140563,0.515253,-0.248954,-0.134521,0.415283,-0.167969,1.869618,9.185497,3.965703,0.394512,0.665152,-1.062971,0.039795,-0.407715,-0.076172,2.654406,-5.424159,6.815292,1.142702,-0.296585,-0.368798,-0.019043,0.213379,-0.54248,1.38259,-7.489447,7.486887,-0.34204,-0.053266,0.080251,-0.046631,0.269775,-0.525879,1.725243,-4.493788,8.652203,0.626614,-0.761288,-0.236667,-0.201416,0.19873,-0.466797
5.331349,-6.800098,5.689008,0.472127,0.506824,-0.1743,-0.136963,0.416992,-0.20166,1.380014,9.172508,4.244823,-0.051181,0.44671,-1.056882,0.04834,-0.419434,-0.074463,2.903554,-4.377638,7.318933,0.183271,-0.173781,-0.284883,-0.033203,0.211914,-0.552246,3.679403,-8.997591,6.175591,0.863935,0.366583,-0.304544,-0.039551,0.250977,-0.533936,1.178313,-5.221827,8.320083,-0.034657,-1.018463,-0.071167,-0.214844,0.196045,-0.472656
4.715916,-5.819175,5.893476,0.128717,0.622426,-0.170454,-0.138184,0.420166,-0.213867,1.482808,8.467217,3.934855,-0.035202,0.692918,-0.945598,0.062744,-0.431152,-0.07251,2.747313,-6.851026,6.69423,-0.332223,-0.101195,-0.073062,-0.047119,0.214355,-0.546875,0.940644,-4.749376,8.203518,1.192136,0.487897,-0.485242,-0.047363,0.22998,-0.550537,2.074258,-6.011144,7.852636,0.290582,-1.135644,-0.267841,-0.232422,0.189209,-0.469727
5.126729,-6.223948,5.62794,-0.076431,0.619232,-0.05914,-0.124268,0.427002,-0.242432,0.295289,8.611429,4.12417,-0.123905,0.336212,-0.916068,0.074219,-0.4375,-0.090088,2.489602,-7.527474,7.538865,0.386312,0.050541,-0.238731,-0.039062,0.215332,-0.557861,1.700626,-4.415066,7.281115,-0.381495,-0.708154,-0.077459,-0.065918,0.235352,-0.539551,2.235036,-4.710653,8.398981,0.33849,-1.087428,-0.250611,-0.232178,0.185791,-0.479736
4.758155,-5.235108,5.992729,0.010568,0.987321,0.057934,-0.109131,0.43457,-0.260498,1.785467,8.608581,3.329834,-0.344333,0.599061,-0.818934,0.080078,-0.446289,-0.091797,2.38286,-4.118943,6.974651,0.526055,-0.380144,-0.215974,-0.044678,0.208008,-0.558105,3.662747,-8.396276,7.891684,-0.228381,-0.290798,-0.067448,-0.064209,0.239014,-0.549072,2.339035,-4.127561,8.400579,-0.152335,-1.132244,-0.16603,-0.241211,0.182373,-0.471191
3.86886,-5.814631,5.741176,-0.837127,0.780052,0.025801,-0.102051,0.44043,-0.271484,-1.421827,8.563226,4.325627,-0.299952,0.539391,-0.755274,0.10376,-0.448975,-0.099854,2.731313,-4.252705,8.115472,-0.900101,-0.055197,-0.041877,-0.048096,0.217041,-0.550293,1.991396,-4.862619,7.291932,0.551466,-0.136418,-0.42091,-0.070068,0.232666,-0.544922,3.134625,-5.115921,7.412771,-0.839932,-1.207948,-0.185655,-0.25,0.186768,-0.463867
3.861979,-7.687399,5.045151,-0.235688,0.817028,0.116439,-0.090576,0.442627,-0.29126,1.13223,8.629048,4.765643,-0.463591,0.253505,-0.726856,0.108154,-0.451172,-0.103516,2.051016,-8.474718,6.825281,-0.93313,-0.470414,0.086822,-0.058594,0.222656,-0.551025,1.889626,-4.858307,8.534983,-0.793635,-0.633857,0.051582,-0.077637,0.237549,-0.537109,2.797879,-6.296574,7.049338,-0.373321,-0.897725,-0.058836,-0.255859,0.18457,-0.465332
4.323606,-5.457217,6.087088,-0.046573,0.92797,-0.000792,-0.080078,0.447021,-0.310791,-0.254382,7.30588,4.453954,-0.484349,0.694928,-0.494356,0.115479,-0.453125,-0.098633,3.964841,-8.487137,6.171525,0.44117,-0.152467,-0.15819,-0.062744,0.217529,-0.559326,2.747715,-7.99047,7.132919,-0.584969,-0.763101,-0.076882,-0.091553,0.240234,-0.536865,2.547051,-5.034664,7.556723,0.153998,-1.18684,-0.319961,-0.27002,0.179443,-0.464355
3.849526,-6.596642,5.777677,-0.430875,0.997708,0.104384,-0.078857,0.456055,-0.324951,-0.24964,7.421161,3.350243,0.184605,0.304306,-0.584928,0.133545,-0.468262,-0.09082,0.807537,-4.677717,7.963246,0.963794,-0.16498,-0.016978,-0.077637,0.209473,-0.562012,2.667688,-7.736146,6.943302,0.147448,-0.761723,-0.203512,-0.107178,0.235107,-0.534912,3.914945,-4.660188,7.1591,-0.307899,-1.338747,-0.014004,-0.293213,0.185303,-0.458496
3.54301,-5.603009,5.574978,0.124289,1.004408,0.142554,-0.054932,0.458008,-0.334717,-0.532949,8.972068,3.224912,0.05975,0.706014,-0.560257,0.134766,-0.464111,-0.093506,2.721444,-3.026493,7.957787,0.135448,-1.046827,-0.144519,-0.088135,0.205566,-0.556641,2.901041,-5.237153,8.387638,0.546132,-0.888073,-0.329517,-0.133789,0.230469,-0.533691,3.94112,-5.476732,6.976118,-0.469249,-1.026595,-0.123937,-0.294678,0.186279,-0.444336
3.164172,-4.14624,5.81488,-0.592097,0.891436,0.13934,-0.052002,0.465088,-0.34668,-0.853936,9.021854,2.807795,-0.556986,0.563758,-0.555492,0.14917,-0.471924,-0.097168,3.321533,-3.054541,7.668545,-0.313459,-0.562876,-0.068335,-0.105957,0.210449,-0.554688,3.846198,-4.561839,7.739096,0.014774,-0.810145,0.123455,-0.137207,0.228516,-0.525635,4.056212,-4.941151,6.630497,-0.18444,-1.137802,0.02306,-0.312256,0.1875,-0.441895
3.302026,-6.045008,5.224136,-0.999423,0.764896,0.197007,-0.032227,0.48877,-0.355469,-0.414727,7.862382,3.731734,-0.82043,0.840547,-0.514302,0.155029,-0.473389,-0.112061,2.188073,-3.636487,7.122668,-0.939927,-1.01881,-0.174218,-0.113037,0.229004,-0.551514,3.812991,-4.644708,7.569585,-0.32561,-0.3525,-0.245391,-0.154053,0.229248,-0.526123,4.662989,-4.166045,6.749547,-0.812517,-0.813736,0.030632,-0.313477,0.202881,-0.442627
2.970955,-5.863851,5.570683,-0.716905,0.847169,0.140021,-0.017822,0.496582,-0.367676,-0.972955,7.523755,4.229608,-0.611264,0.869527,-0.474124,0.159424,-0.467285,-0.113281,4.032256,-5.584997,5.413842,-1.469018,-0.933914,-0.209491,-0.128418,0.243896,-0.546631,2.883051,-4.525777,7.440414,-0.774855,-0.443526,0.070283,-0.155762,0.249023,-0.523193,3.453843,-4.76407,6.704478,-1.09788,-0.637271,0.214974,-0.309326,0.216064,-0.437744
2.986323,-5.902547,5.300483,-1.35899,0.852562,0.119126,-0.01416,0.51001,-0.365723,-0.701941,8.148759,5.143241,-0.793363,0.95429,-0.435055,0.17041,-0.485596,-0.114258,3.033031,-6.204834,5.816858,-1.229097,-0.834964,-0.258684,-0.152344,0.256592,-0.534912,2.468669,-6.427524,6.8639,-1.532276,-0.602833,-0.119958,-0.163086,0.263428,-0.514404,4.070224,-5.179337,6.629231,-1.145482,-1.0035,0.025869,-0.330811,0.223633,-0.428223
3.436934,-7.212107,4.60744,-1.137319,1.048444,0.118916,-0.000488,0.529053,-0.363281,0.034346,7.343405,3.731958,-1.002172,0.962561,-0.074763,0.174316,-0.476807,-0.125977,8.097029,-6.680482,5.916823,-1.123495,-1.2017,-0.357826,-0.171631,0.276123,-0.516357,1.534413,-7.502516,7.137253,-1.277571,-1.319053,-0.267189,-0.198242,0.27832,-0.494385,4.918227,-5.833659,6.343308,-1.512489,-0.541561,0.24278,-0.333496,0.249512,-0.412109
2.104015,-6.235253,4.950824,-0.661182,1.243751,0.230029,0.019043,0.533936,-0.368652,-1.994346,6.71771,3.55996,-0.391323,1.388195,0.343686,0.18457,-0.47168,-0.127441,4.97511,-7.01017,5.759868,-0.690207,0.542124,-0.18948,-0.161621,0.276611,-0.512451,5.661359,-7.089868,5.901116,-1.014248,-2.59422,-0.614236,-0.234863,0.289307,-0.470215,3.446005,-6.954238,5.866899,-0.936121,-0.589985,0.224007,-0.333252,0.255615,-0.404785
2.261293,-6.189869,4.423986,-0.872163,1.018651,0.239592,0.035156,0.55835,-0.375488,-2.217089,7.890242,4.394822,0.043301,0.840693,0.306302,0.183105,-0.479004,-0.124756,1.49967,-6.534225,6.492031,-0.561141,-0.831993,-0.381845,-0.179932,0.296631,-0.511719,4.917333,-6.759636,4.55357,-0.759453,-1.529385,-0.38842,-0.253174,0.292969,-0.451904,4.74178,-5.66813,5.070276,-0.101491,-0.706042,0.096515,-0.3396,0.271973,-0.408203
1.768388,-7.577404,4.11631,-0.488696,0.810501,0.143232,0.056641,0.551514,-0.375488,-2.065594,9.03571,5.557984,-0.356332,1.109793,0.434638,0.18042,-0.480957,-0.121582,5.977641,-7.274195,5.051034,-0.798432,-0.341688,-0.117216,-0.174316,0.292725,-0.50293,2.223307,-6.095651,4.496169,-0.521977,-2.425322,-0.650568,-0.295166,0.305908,-0.435303,4.729105,-4.615729,5.111762,-0.498331,-0.016141,0.229713,-0.325928,0.26709,-0.408936
2.471983,-6.213194,4.778778,-0.329006,0.619987,0.15676,0.060059,0.566162,-0.374268,-2.720379,8.065425,5.563834,-0.740794,0.526779,0.303431,0.177002,-0.487793,-0.12915,1.396008,-9.181321,5.365543,-0.855304,-0.40207,0.165075,-0.190186,0.311035,-0.493896,6.925454,-5.186837,2.807431,-0.461549,-2.1864,-0.262828,-0.311523,0.296143,-0.413818,4.38559,-5.850068,5.74639,-0.878353,0.04701,0.166985,-0.330811,0.285645,-0.402344
1.405803,-6.580633,4.637004,-0.515778,0.469502,0.08484,0.069092,0.567627,-0.370605,-1.700414,8.002754,4.964215,-0.283565,0.560472,0.455597,0.178467,-0.487061,-0.131592,6.119693,-8.914512,4.659515,-0.08815,-1.090736,-0.022077,-0.201416,0.309814,-0.482666,4.775786,-5.958598,3.157072,-0.844445,-0.973091,0.07642,-0.332031,0.311279,-0.394043,4.673695,-6.781362,5.659328,-0.380096,0.422102,0.199994,-0.32373,0.287109,-0.404541
1.465442,-5.955383,4.401929,-0.751427,0.25183,0.0725,0.071777,0.57959,-0.375732,-3.298803,9.409896,5.434989,-0.688528,0.256816,0.313005,0.178711,-0.498779,-0.136963,2.580821,-6.560852,4.763882,-0.01169,0.036933,0.480457,-0.199219,0.317627,-0.494629,5.408061,-7.060186,3.122561,-0.384757,-1.711595,0.232119,-0.346191,0.316895,-0.372559,3.974638,-5.436903,5.644026,-0.389231,0.767254,0.208435,-0.309814,0.300293,-0.422119
1.275722,-7.063646,4.63721,-1.035172,-0.105249,0.030028,0.068115,0.586914,-0.359131,-1.367938,7.345052,4.92526,-1.602406,-0.012404,0.347183,0.177002,-0.48877,-0.150146,3.031605,-6.078001,5.24678,-0.993363,-1.450448,0.254613,-0.217529,0.324219,-0.469482,5.474909,-5.891768,3.188148,-0.160911,-0.5495,0.326496,-0.351562,0.325195,-0.375732,3.90116,-5.528994,5.806011,-1.095872,1.052826,0.375605,-0.29834,0.306885,-0.420654
1.914617,-6.759079,4.860463,-0.795667,0.183201,0.111513,0.078857,0.599365,-0.356201,-2.11413,6.413714,4.264713,-0.654985,0.116436,0.525573,0.165039,-0.492432,-0.16626,7.626313,-8.652508,4.302019,-1.105314,-0.479731,0.661242,-0.213135,0.343994,-0.461914,2.205126,-5.894748,4.81517,-0.864431,-1.408909,0.59623,-0.362793,0.334473,-0.343262,3.359418,-6.664845,5.705121,-1.046481,1.126654,0.368151,-0.275146,0.327393,-0.424805
1.250311,-7.91568,4.602364,-1.137246,-0.073811,0.147844,0.077637,0.608887,-0.338867,-1.625541,8.280111,4.98276,-0.879035,-0.143242,0.603555,0.155273,-0.487061,-0.179443,1.842117,-7.727564,3.886594,0.18302,-0.246684,0.329329,-0.216064,0.341309,-0.457275,7.574141,-8.870068,2.510509,-0.98032,-2.056847,0.55209,-0.371094,0.352539,-0.319824,3.400213,-7.495813,5.623072,-0.961753,1.076426,0.411782,-0.259277,0.340332,-0.424805
4.188555,-7.850104,5.495835,0.144558,0.497123,0.618071,0.091553,0.608887,-0.35083,0.676592,1.372275,4.308743,-2.398736,-0.381114,0.920211,0.146973,-0.486572,-0.20752,3.056734,-4.23922,3.47497,0.063759,-1.03412,0.349425,-0.224121,0.342773,-0.456543,3.266587,-7.02678,2.842796,0.524931,-0.598538,0.236222,-0.378906,0.346436,-0.313721,3.103814,-9.476488,6.03341,-0.711948,0.942096,0.588384,-0.242432,0.356689,-0.433105
-1.682761,-6.915075,4.122742,-1.595787,0.495014,0.204205,0.095459,0.622803,-0.330566,-4.662361,10.757547,6.578406,3.470486,0.370297,0.377429,0.144287,-0.50708,-0.161621,7.698136,-10.38228,6.015049,-1.847117,-0.778903,1.162027,-0.2229,0.366943,-0.43335,2.090766,-4.919091,3.504419,-0.741727,-2.617845,0.464639,-0.393555,0.360107,-0.281982,4.105477,-5.566029,4.008984,0.841607,0.78254,0.315472,-0.228027,0.347656,-0.446289
3.074875,-9.723658,4.084954,0.222501,-0.344144,0.587772,0.094482,0.624512,-0.332275,0.027665,15.098594,5.619566,-3.010621,-0.824582,1.011259,0.124756,-0.497559,-0.205322,0.75216,-8.11921,4.334763,1.155397,0.052957,0.033654,-0.227051,0.357422,-0.441406,9.013497,-10.110773,0.26838,0.068488,-2.425099,0.366823,-0.409668,0.359619,-0.255859,1.626378,-4.58694,6.047802,-0.931919,1.4414,0.450561,-0.20874,0.361572,-0.449219
-1.317898,-4.999681,5.195282,-1.428253,0.030732,-0.031275,0.088379,0.639893,-0.321777,-1.68234,1.700189,3.494442,-3.10596,0.426249,0.56894,0.124756,-0.480469,-0.240234,4.534371,-1.381347,5.262214,0.230271,-1.372691,0.525527,-0.243896,0.359863,-0.439453,4.592483,-3.874083,2.576124,0.390814,-0.345339,0.517765,-0.412354,0.362549,-0.253662,3.097824,-6.956217,3.417528,-1.476495,0.68464,0.608329,-0.199951,0.387939,-0.443359
4.014172,-11.607985,3.372547,-1.016449,-0.713245,0.192273,0.08667,0.649902,-0.314941,-0.276179,4.50309,5.944718,1.612657,-0.182617,0.350354,0.115967,-0.503662,-0.219238,3.628496,-5.161586,3.240778,-2.662812,0.291978,0.336495,-0.231201,0.386963,-0.420654,2.743122,-7.391217,1.507361,-1.548712,-2.12713,0.805024,-0.423584,0.387207,-0.216797,2.89807,-6.902925,4.701345,0.001813,1.642692,0.03912,-0.174072,0.390137,-0.459961
1.517146,-8.174969,5.63746,0.131243,0.177749,0.057858,0.085449,0.643555,-0.315674,0.947999,11.658792,7.708872,-0.657377,0.755652,0.41101,0.110107,-0.491211,-0.238037,3.080443,-12.847635,3.078141,-1.55114,-1.435725,0.260427,-0.246094,0.400635,-0.394287,5.594599,-10.882198,-0.169351,-0.766135,-1.212831,0.291609,-0.421875,0.395752,-0.199707,0.774339,-6.009389,5.576482,-1.044075,0.498891,0.348756,-0.166504,0.399902,-0.453369
2.433875,-7.220165,4.542312,-1.205649,0.092065,0.079595,0.100586,0.665283,-0.300781,-2.373057,5.575031,6.526848,-2.428407,0.332817,0.720199,0.102539,-0.474121,-0.254395,5.7771,-8.025779,2.83223,1.166219,0.104396,-0.454673,-0.239258,0.397217,-0.404541,5.70145,-8.582738,0.104279,-0.088352,-1.550471,0.025478,-0.432617,0.388916,-0.183105,3.053485,-8.118045,4.219077,-0.87513,0.322206,0.046412,-0.152832,0.420166,-0.444336
1.024173,-9.59942,3.549919,-0.968759,0.020948,0.008106,0.09375,0.664062,-0.29248,0.409553,4.653103,6.868342,-0.057285,0.423047,0.196491,0.107666,-0.48584,-0.255371,-0.467264,-3.337901,3.48034,-1.379096,-1.033407,0.059854,-0.253906,0.396973,-0.386719,7.214012,-6.335107,-0.504729,-0.52047,-0.518149,0.191451,-0.422852,0.406494,-0.168701,1.595848,-6.068566,4.717294,-0.353602,0.48441,0.07372,-0.150146,0.4104,-0.44751
2.359416,-7.906636,3.757523,-1.007949,0.035243,-0.182587,0.092285,0.679932,-0.277832,-2.070269,10.035734,8.419784,-0.497865,0.470439,0.226248,0.106201,-0.484619,-0.26709,7.347721,-10.176737,1.447168,-3.209211,-1.302675,0.297338,-0.261963,0.432861,-0.337646,3.153157,-6.562792,-0.938891,-1.133804,0.028935,0.660501,-0.417969,0.406494,-0.157715,2.6478,-6.032814,4.388355,-1.735617,0.051113,-0.05278,-0.151367,0.439453,-0.424805
1.107624,-9.221608,3.25059,-1.396416,-0.124186,-0.062893,0.097412,0.684082,-0.262451,0.057954,7.236853,6.660328,-2.352463,0.124167,0.304654,0.108154,-0.469238,-0.291992,3.419476,-13.320553,2.127926,-0.378842,-0.379676,0.032144,-0.258545,0.431641,-0.334717,5.440661,-7.542726,-1.835912,-1.266799,-0.806911,0.697143,-0.412354,0.427979,-0.128662,2.474001,-9.30497,3.641445,-1.759361,0.579486,0.198557,-0.136963,0.450928,-0.4104
1.159037,-10.212311,2.780913,-0.741399,-0.3278,-0.285254,0.080078,0.689209,-0.252441,-2.0987,4.127758,6.537556,-0.419823,0.474052,0.205847,0.097412,-0.477783,-0.303711,4.98461,-6.760686,1.897853,0.9909,-1.11464,-0.04079,-0.280029,0.421387,-0.337158,8.883189,-8.994767,-3.487867,-1.016571,0.787861,0.941824,-0.391357,0.436035,-0.126709,1.294487,-9.451717,3.745568,-0.426866,0.227763,-0.223256,-0.148682,0.456299,-0.404541
2.595424,-9.639046,3.277651,-0.322225,-0.583108,-0.240869,0.085938,0.685547,-0.243896,0.066111,8.156638,8.069564,0.3459,0.003589,0.01963,0.098633,-0.474609,-0.296387,5.114272,-5.890257,2.439061,-1.122737,-0.555897,0.336398,-0.264893,0.427734,-0.314209,2.589303,-8.991904,-2.916248,0.132279,1.832083,0.549363,-0.386963,0.44043,-0.147461,3.118928,-7.648002,3.853804,-0.01746,0.200811,-0.151549,-0.132812,0.451172,-0.398926
2.119134,-7.856811,3.776551,-0.594606,-0.158364,-0.291727,0.064697,0.694824,-0.239746,-0.656112,8.561746,8.019651,-1.342882,0.730015,0.298388,0.094727,-0.459961,-0.313721,5.801566,-10.139977,1.101647,-1.135079,-0.704028,0.313515,-0.285156,0.44165,-0.300781,5.008629,-7.028329,-2.219362,-0.155789,0.662425,0.617719,-0.361328,0.446045,-0.144287,1.224479,-6.197297,4.715627,-0.636712,0.444851,-0.270744,-0.148438,0.458252,-0.399414
2.216634,-8.746087,3.390952,-1.491914,-0.387258,-0.425075,0.060059,0.701904,-0.218506,-1.645941,5.721382,7.013384,-1.56385,0.17065,0.295141,0.096191,-0.456787,-0.325439,5.066691,-7.471585,1.628373,-0.181923,-0.085099,-0.013212,-0.279297,0.440186,-0.295654,7.145086,-8.079227,-3.20388,-0.548405,2.33676,0.865853,-0.354736,0.459473,-0.164551,1.89513,-7.55339,4.243977,-1.909791,-0.327073,-0.20672,-0.149658,0.476318,-0.371094
2.502813,-10.591008,2.593927,-1.085439,-0.165661,-0.257057,0.053955,0.719482,-0.202148,0.222149,5.941966,7.672201,-0.925827,0.510197,0.307032,0.109131,-0.44458,-0.33252,5.21438,-6.781918,1.510563,-1.620128,-0.507076,0.433143,-0.278564,0.463623,-0.266846,1.692835,-6.155482,-0.565001,-0.622392,2.350828,0.787308,-0.32666,0.468506,-0.172119,2.679411,-10.690416,2.897074,-1.591477,0.054969,-0.145401,-0.151367,0.500244,-0.348633
3.733738,-10.489143,2.926517,-0.518339,-0.090639,-0.352561,0.048828,0.717285,-0.201416,-1.033406,4.150593,8.11757,-1.289168,0.445798,0.513247,0.099121,-0.434326,-0.366455,4.647101,-11.482135,-0.19266,-0.873646,0.182794,0.438718,-0.27002,0.468262,-0.261963,5.724443,-9.138804,-2.47414,-1.88387,1.32893,1.170935,-0.307373,0.498047,-0.155273,1.05018,-10.502739,3.290803,-0.097473,-0.435901,-0.359717,-0.162109,0.494873,-0.349854
3.017137,-10.03344,2.887059,-0.140371,0.320106,-0.187366,0.050537,0.716309,-0.197998,0.366645,3.830309,7.55082,0.122776,0.537896,0.358837,0.100098,-0.440186,-0.344238,3.90615,-9.464575,1.66552,1.079885,-0.566018,0.201771,-0.272217,0.463623,-0.269531,4.261025,-11.384565,-2.689193,0.662511,3.362857,0.702262,-0.277832,0.493896,-0.195801,2.927846,-8.448944,3.280121,0.085134,-1.184834,-0.37962,-0.177246,0.490234,-0.342285
2.754146,-9.36278,2.811362,-0.068835,0.44003,-0.22892,0.049805,0.722168,-0.20166,-1.401613,6.481362,7.53559,0.09672,0.860205,0.655045,0.093262,-0.44458,-0.338135,5.904046,-6.16169,0.797318,0.568308,0.153153,0.260243,-0.267578,0.465088,-0.278809,2.096946,-4.75255,1.909723,0.934433,2.361976,0.514608,-0.255371,0.493408,-0.223877,2.632175,-8.455942,3.121911,-0.355044,-0.803886,-0.234276,-0.1875,0.493652,-0.334473
1.797871,-8.70787,2.874584,-0.038184,0.313341,-0.202431,0.052979,0.718018,-0.203369,-1.070555,6.820572,7.531061,-0.401943,0.528962,0.346384,0.096191,-0.437988,-0.344971,2.625231,-7.272206,0.762387,-0.377338,0.107221,0.464415,-0.256104,0.463867,-0.270264,4.197221,-9.047036,0.662597,-1.192337,2.779729,1.43208,-0.215088,0.51123,-0.2229,2.146726,-9.206226,2.994639,-0.378129,-1.475284,-0.309119,-0.204346,0.487061,-0.320312
3.528558,-8.964469,2.736802,-0.488937,0.157806,-0.180149,0.047119,0.727051,-0.198486,-0.303185,4.944634,8.003952,-0.821127,0.686664,0.416993,0.104492,-0.443604,-0.366943,4.810349,-9.867623,-0.024266,-0.444058,0.05517,0.35045,-0.256104,0.474121,-0.27124,-1.106622,-11.695051,2.432792,0.959162,2.192151,0.417377,-0.192139,0.502441,-0.249512,4.698287,-9.411898,2.070332,-0.193111,-1.502056,-0.226901,-0.226807,0.495361,-0.310059
3.464273,-10.574386,2.166182,0.126052,0.274608,-0.124515,0.04248,0.714111,-0.19751,-0.53748,3.578495,7.624878,0.078728,0.479929,0.119487,0.101074,-0.43457,-0.360107,3.555611,-10.950276,1.111444,0.336259,-0.149531,0.222868,-0.262207,0.462891,-0.265137,3.333297,-6.348072,2.593202,0.272878,0.505117,0.369499,-0.184326,0.508057,-0.256348,3.57648,-9.098639,1.77315,0.012107,-1.321338,-0.201896,-0.246094,0.481445,-0.294678
2.749428,-7.383092,3.496652,0.573252,0.437881,0.029453,0.053467,0.725098,-0.215576,-0.625785,6.549272,7.767642,0.907666,0.609115,0.33129,0.102051,-0.449951,-0.335938,5.311011,-8.533729,1.516695,1.257494,0.034951,0.143614,-0.254395,0.470459,-0.291992,5.06944,-11.660924,-0.451559,-0.886488,1.611121,1.092583,-0.164551,0.505615,-0.245117,3.556808,-8.638008,2.048469,0.368047,-2.027155,-0.212356,-0.25708,0.489746,-0.293457
1.812444,-9.013297,2.266995,-0.654926,-0.03955,-0.221561,0.047852,0.72168,-0.196777,-1.916264,7.905399,8.224435,-0.382212,0.409232,-0.186127,0.10498,-0.442871,-0.34082,-0.490268,-6.219148,2.961216,0.128396,-0.405604,0.325501,-0.254883,0.462646,-0.277588,3.190633,-9.124399,-0.703401,2.318429,2.64944,0.250393,-0.133789,0.50415,-0.299561,4.785314,-7.381612,2.129885,0.057421,-1.885555,-0.184469,-0.278076,0.478027,-0.26709
2.758632,-8.934714,2.428636,0.369402,-0.111468,-0.132819,0.047363,0.722168,-0.209473,-0.367403,5.399951,7.035855,-0.506752,0.38131,-0.124266,0.116699,-0.443115,-0.352539,7.142194,-8.786124,-0.948226,-0.674604,-1.451231,-0.063321,-0.263184,0.466553,-0.266846,0.042414,-4.244931,4.49687,-0.743608,3.655885,1.102963,-0.088867,0.504883,-0.286133,4.111699,-7.775758,2.36693,-0.563583,-1.569121,-0.057612,-0.288574,0.481934,-0.252686
2.519332,-7.25419,2.896002,-0.797521,-0.434072,-0.307069,0.046875,0.728027,-0.190674,-1.501237,5.542551,7.503812,0.059387,0.562302,-0.485052,0.134766,-0.443359,-0.359863,3.945111,-9.544911,1.119323,-0.205621,0.658248,0.301808,-0.250244,0.473389,-0.262451,-0.767424,-15.368801,1.685917,-1.59807,1.769465,1.189243,-0.054199,0.521484,-0.272217,4.744332,-8.801791,2.267892,-0.610857,-1.838283,-0.059672,-0.296387,0.483643,-0.222656
2.789771,-12.55343,1.423045,-0.091512,-0.403019,-0.184442,0.038574,0.727539,-0.19043,-1.444699,5.004365,7.309821,0.185814,0.313603,-0.280704,0.129883,-0.450684,-0.345459,3.01964,-10.982055,0.940529,0.235342,-1.206579,-0.279646,-0.262207,0.4646,-0.259521,4.189333,-11.753133,1.637903,1.591737,1.91794,-0.411719,-0.040039,0.509766,-0.295166,4.868787,-9.949171,2.449002,-0.098488,-1.294997,-0.163401,-0.310547,0.478271,-0.209473
3.277979,-7.93932,3.344696,1.309808,-0.388886,-0.003576,0.032959,0.716797,-0.2146,-1.542191,5.164482,7.346368,0.748222,0.390395,-0.327726,0.137695,-0.445068,-0.333496,8.987464,-8.253183,0.274532,1.445902,0.073891,-0.062233,-0.267822,0.454346,-0.283447,0.179506,-6.355239,2.359772,0.916491,2.598726,0.79449,-0.008545,0.500244,-0.309082,4.129402,-9.250637,3.085293,0.746274,-1.691483,-0.254093,-0.329102,0.467773,-0.209961
1.882537,-7.216897,3.493352,-0.280225,-0.062217,-0.041809,0.033936,0.729736,-0.211426,-2.813389,6.692702,7.782222,0.640159,0.311217,-0.137713,0.145752,-0.44873,-0.329834,0.578629,-6.879138,2.758027,0.265097,0.457643,0.305593,-0.260498,0.466309,-0.290527,4.35321,-6.243718,1.201476,0.177356,1.099675,0.462693,0.003906,0.492676,-0.319336,5.189442,-7.337248,2.976606,0.644519,-1.649143,-0.250622,-0.337646,0.469727,-0.203369
3.016813,-9.256188,2.786825,-0.001783,-0.234172,-0.031777,0.034424,0.723877,-0.202637,-2.144742,7.006384,7.731163,-0.297333,0.009563,-0.195786,0.14917,-0.453857,-0.332031,6.298084,-8.867892,0.484264,-0.473238,-1.087686,0.01802,-0.264893,0.460449,-0.273682,1.877346,-9.620664,1.573929,-0.30483,3.885605,1.457886,0.0625,0.506836,-0.312744,4.26331,-7.296257,3.149223,-0.522923,-1.645251,0.146873,-0.342285,0.465576,-0.174316
2.613552,-9.025189,2.95514,-0.292722,0.082621,-0.007531,0.027344,0.729736,-0.202637,-1.75061,4.660186,7.279874,-0.5399,0.183608,-0.069462,0.155029,-0.439941,-0.344238,5.145053,-9.909877,0.658652,-0.00963,1.118468,0.376976,-0.257324,0.469238,-0.283691,-3.431872,-11.108647,3.437901,0.06432,1.755322,0.261366,0.084229,0.498535,-0.30542,5.707522,-10.036175,2.243835,-0.692062,-1.900467,0.031572,-0.357422,0.468506,-0.150146
3.028155,-11.377941,1.998854,0.036589,0.034413,0.114902,0.032959,0.737305,-0.203857,-2.106673,4.066226,6.640908,0.561885,0.148056,-0.070949,0.1521,-0.453613,-0.336182,2.31652,-10.246407,1.582245,0.141629,-0.346005,-0.287275,-0.261475,0.469727,-0.28125,5.371778,-9.945825,1.542971,-0.09307,1.615303,0.587488,0.0979,0.497803,-0.302246,5.233898,-10.514396,1.721731,0.465758,-1.345449,-0.092969,-0.362793,0.470459,-0.142578
2.206149,-10.626939,2.393141,1.124856,-0.010079,0.357214,0.04126,0.724365,-0.21582,-1.721683,6.065742,6.714909,1.156096,0.104008,-0.092948,0.155029,-0.457275,-0.32373,7.201112,-9.966011,0.61492,0.851435,0.701042,-0.259445,-0.255615,0.458008,-0.293213,-1.928673,-13.025185,2.512251,-0.169519,3.456008,0.736094,0.141357,0.50293,-0.2854,4.278797,-9.516183,1.799631,0.957072,-1.757012,-0.286054,-0.371582,0.455078,-0.13501
3.070194,-8.841084,2.750287,0.926109,-0.126519,0.358505,0.045654,0.722168,-0.233643,-2.074121,6.496822,7.23687,0.946199,0.33214,-0.148061,0.157227,-0.4646,-0.30957,0.496462,-7.264756,1.550974,1.592701,0.864793,-0.596963,-0.259033,0.443359,-0.32373,-1.953499,-11.602705,3.095105,1.67594,0.773422,0.364264,0.156006,0.477295,-0.308838,6.098926,-8.589195,1.156611,1.318559,-1.611385,-0.362705,-0.379639,0.449219,-0.135986
2.645604,-8.394267,2.745744,0.780097,-0.155878,0.226181,0.047852,0.714111,-0.234863,-2.272236,6.784993,7.831033,0.863921,0.395577,-0.336176,0.164551,-0.466309,-0.291016,6.491094,-4.403797,1.835564,0.209149,0.119034,-0.572536,-0.261719,0.436523,-0.315918,3.23574,-6.625892,2.431614,1.399807,1.833286,0.273878,0.17334,0.465332,-0.322754,5.012386,-6.467686,1.951115,1.025998,-1.255967,-0.302682,-0.38623,0.436768,-0.127197
3.258502,-7.831645,3.057713,0.136539,-0.089311,0.085151,0.048096,0.718018,-0.236572,-2.264246,7.201954,8.102904,0.405396,0.498647,-0.221528,0.169434,-0.474609,-0.291992,4.192171,-9.012058,1.508723,-1.465972,1.658397,0.065853,-0.248535,0.452393,-0.310791,-1.801957,-8.645802,4.24884,-0.240197,1.789492,0.524305,0.200928,0.462891,-0.302246,5.672276,-7.087381,1.490936,-0.306812,-1.6022,-0.025237,-0.393311,0.440674,-0.106689
2.637216,-9.715173,2.765726,-0.069749,-0.130492,0.000401,0.037598,0.732666,-0.239502,-2.627057,6.45103,7.531101,0.08541,0.469183,-0.365197,0.172363,-0.467773,-0.285889,2.975246,-11.867624,1.103097,0.067788,0.40113,-0.572215,-0.264648,0.45874,-0.318115,-0.515843,-12.18597,3.577478,0.161852,0.605385,-0.189375,0.203125,0.462402,-0.303711,5.944718,-9.335418,1.04868,-0.148279,-1.092455,-0.040125,-0.40918,0.450195,-0.095947
2.547189,-9.452487,2.643609,0.258162,-0.029491,-0.021718,0.04248,0.720947,-0.244629,-3.259423,6.000985,7.969613,0.276045,0.613305,-0.276521,0.184326,-0.475098,-0.282471,6.495759,-7.399581,2.018248,0.565675,1.393859,-0.441663,-0.252441,0.440674,-0.334717,-0.04508,-10.106504,3.58161,0.994067,1.15389,-0.424724,0.195068,0.467529,-0.317871,4.386307,-8.227199,0.865545,0.562988,-1.226732,-0.221185,-0.406738,0.435547,-0.090088
2.296084,-9.322809,2.4866,0.024685,0.035627,-0.122728,0.037842,0.720215,-0.241943,-3.952074,6.317602,8.230819,0.242532,0.484717,-0.187929,0.197998,-0.467529,-0.28418,2.737862,-8.221415,2.115619,-1.138974,1.270174,-0.049038,-0.247314,0.451172,-0.32251,-1.401894,-7.938104,4.50572,0.345864,0.47713,-0.452802,0.197998,0.452393,-0.321777,5.277476,-7.174885,0.98947,-0.104767,-1.623308,-0.169125,-0.417236,0.434082,-0.066162
2.611107,-8.806419,2.499102,0.098655,0.122941,-0.176839,0.032715,0.723389,-0.249756,-3.410067,6.655462,8.237865,-0.016582,0.411063,-0.096227,0.196289,-0.47583,-0.268066,5.83947,-11.720652,0.732133,-0.602557,1.119888,0.041385,-0.240967,0.455322,-0.328613,0.890501,-9.076795,3.435862,-0.10329,0.059043,-0.264425,0.193359,0.453613,-0.31543,5.332686,-8.458493,0.363203,-0.537326,-1.288354,-0.067532,-0.42334,0.432373,-0.050781
2.473525,-8.63806,2.564778,-0.264859,0.215258,-0.298143,0.035889,0.728516,-0.238037,-3.435296,6.167474,7.343808,-0.257691,0.399643,0.000611,0.201416,-0.470703,-0.275391,4.265608,-9.801465,1.896109,0.526265,1.771383,0.054098,-0.221191,0.454834,-0.334473,-0.065723,-8.654748,3.943673,0.361064,0.501348,-0.436974,0.188232,0.454834,-0.324951,4.562995,-8.552066,0.137523,-0.156607,-1.514968,-0.129779,-0.423096,0.430908,-0.019043
1.737267,-9.914439,2.31771,-0.11252,0.172322,-0.246558,0.041016,0.723633,-0.243896,-3.855618,6.210535,6.875185,0.122052,0.33568,0.140021,0.196533,-0.466309,-0.275146,4.683429,-8.155004,2.975664,-0.02537,1.462148,0.210454,-0.201904,0.450928,-0.351807,-0.569076,-7.403452,4.958862,-0.138301,-0.376404,-0.169162,0.188721,0.45752,-0.313232,5.014079,-7.878158,0.139672,-0.190117,-1.53423,-0.204689,-0.420166,0.423828,-0.00708
2.725443,-9.20643,2.249676,0.256603,0.097845,-0.263091,0.037842,0.7229,-0.251953,-3.507752,7.374239,7.380804,-0.017308,0.211168,0.261051,0.200928,-0.47583,-0.274414,4.189257,-8.894384,2.777502,-0.110811,1.987036,0.430389,-0.181641,0.455811,-0.356934,0.359769,-9.45492,3.74458,-0.280479,-0.418517,0.103246,0.191406,0.454346,-0.31958,4.788652,-8.333422,-0.394078,-0.447054,-1.556881,-0.199304,-0.42334,0.423096,0.017334
2.307108,-7.847069,2.777345,0.053333,0.186719,-0.310172,0.034912,0.71875,-0.256836,-2.9446,6.887346,6.810281,-0.617708,0.333603,0.385954,0.205811,-0.469238,-0.285645,3.319752,-8.569418,2.839797,0.046619,1.860376,0.435149,-0.158691,0.456543,-0.373535,-1.40753,-7.987056,4.239455,0.511548,-0.469014,-0.248578,0.181641,0.451416,-0.328125,5.068244,-8.726353,-0.742002,-0.250017,-1.608351,-0.220257,-0.426025,0.414062,0.035889
2.551264,-8.165324,2.761424,-0.275717,-0.035072,-0.393275,0.029541,0.726318,-0.240967,-3.6643,6.050469,6.884221,-0.432068,0.234965,0.394776,0.202393,-0.471436,-0.287842,3.207091,-8.33042,2.630175,-0.198736,2.080882,0.531228,-0.132812,0.46582,-0.367432,-0.593205,-6.727073,4.440523,-0.547693,-1.052924,0.066048,0.172363,0.453613,-0.328613,5.014231,-7.810162,-0.395558,-0.230036,-1.548897,-0.071314,-0.424805,0.416016,0.065918
2.952899,-8.374139,2.704139,-0.231048,0.023892,-0.403397,0.020508,0.726074,-0.239746,-2.78077,6.56238,7.406406,-0.542296,0.10026,0.300224,0.193115,-0.480957,-0.298096,2.376868,-8.843556,2.15007,-0.44126,1.906511,0.627584,-0.113037,0.474854,-0.368652,-1.535401,-10.34429,3.341755,-0.792155,-0.950547,0.106415,0.169434,0.464111,-0.312988,5.641983,-8.221753,-0.740205,-0.83151,-1.566788,0.069581,-0.422363,0.416504,0.09668
2.552691,-8.079527,2.742652,-0.481528,-0.071122,-0.43009,0.017334,0.726562,-0.244385,-3.804718,5.817061,7.151186,-0.857822,0.130316,0.303333,0.195801,-0.478027,-0.308594,2.012674,-9.166962,2.392184,-0.319801,1.99548,0.699046,-0.08252,0.472656,-0.379395,-1.107425,-8.808846,3.337621,0.290112,-1.454753,-0.358008,0.148193,0.463135,-0.322754,5.197807,-9.406682,-1.188797,-0.71346,-1.212174,0.241574,-0.415283,0.411133,0.108398
2.542214,-8.540786,2.297268,-0.609807,-0.123238,-0.523555,0.005371,0.733398,-0.229248,-3.549172,6.312077,7.171174,-0.600032,-0.10719,0.091967,0.193604,-0.469727,-0.318115,0.807462,-8.030128,3.601612,-0.541407,1.723404,0.700232,-0.062988,0.481689,-0.37085,-0.913463,-6.373654,4.013347,-0.561816,-1.109101,0.068772,0.141846,0.465088,-0.330566,4.101704,-8.780431,-1.292326,-0.431146,-1.394135,0.254601,-0.412354,0.416992,0.131348
3.186194,-8.379578,2.06081,-0.724894,-0.221612,-0.548954,-0.002197,0.733154,-0.215332,-2.85921,6.328387,7.477927,-1.189857,-0.065543,0.301502,0.187256,-0.471436,-0.34082,3.028417,-9.968006,2.495477,-1.210508,1.659586,0.851676,-0.036133,0.486816,-0.352051,-3.104342,-9.33298,4.043709,-1.617444,-1.503708,0.137384,0.125977,0.481689,-0.307129,5.262574,-8.134515,-1.133172,-0.668149,-1.499474,0.475463,-0.402588,0.416504,0.161621
3.02151,-9.384733,1.728762,-0.654719,-0.173989,-0.491387,-0.003662,0.744385,-0.2146,-3.207864,4.645192,6.917322,-1.133245,-0.148936,0.222845,0.193115,-0.453369,-0.356689,0.513643,-10.007084,2.337536,-0.005704,2.208971,0.766148,-0.000488,0.496826,-0.361816,-0.18542,-11.511336,1.940594,-0.470314,-2.270467,-0.00566,0.107422,0.47998,-0.302979,4.973086,-8.598059,-1.232971,-0.844844,-1.010753,0.355006,-0.387207,0.424561,0.172363
3.584241,-7.921568,1.842495,-0.389745,-0.241537,-0.496113,-0.025635,0.743652,-0.196533,-2.526424,5.136862,7.328989,-0.79317,-0.131985,0.253572,0.177734,-0.451172,-0.36499,0.243435,-6.369112,3.527953,-0.483792,1.637216,0.656793,0.011475,0.49707,-0.347412,-0.248798,-6.963768,2.902352,0.134439,-1.179199,-0.198505,0.101562,0.487061,-0.314209,4.281867,-8.904197,-1.759487,-0.559866,-1.070706,0.462801,-0.384766,0.425537,0.200684
3.883342,-8.207061,1.398493,-0.899651,-0.255191,-0.578234,-0.029297,0.744141,-0.18335,-2.416198,5.460337,7.669261,-1.127876,-0.052257,0.246028,0.170898,-0.446045,-0.381348,0.763231,-8.247658,2.375793,-1.528368,1.866627,0.931631,0.043701,0.50708,-0.320068,-3.318126,-6.918246,4.035361,-1.649828,-1.858117,0.449001,0.084717,0.49585,-0.283691,4.730516,-7.8894,-1.75651,-0.426603,-0.956343,0.418582,-0.374512,0.421143,0.219238
4.368892,-8.038902,1.837981,-0.657952,-0.160036,-0.634139,-0.040527,0.745117,-0.171143,-2.104483,4.594244,7.377357,-1.401252,0.162065,0.229823,0.179199,-0.428711,-0.405762,-0.77003,-9.502989,1.843191,-0.763311,1.80446,0.651189,0.067871,0.513916,-0.306396,-0.151641,-11.229203,1.475068,-1.233118,-2.493553,0.188538,0.07373,0.500977,-0.268555,4.93243,-7.40062,-1.890384,-0.85662,-0.619586,0.636911,-0.364014,0.429932,0.230469
3.982827,-8.249219,1.755471,-1.195299,-0.345236,-0.777898,-0.055664,0.748779,-0.1604,-2.5897,4.751371,7.504249,-1.061441,0.180913,-0.005469,0.182861,-0.421143,-0.403564,-0.090179,-6.656865,2.336661,-0.765594,1.464873,0.504361,0.083496,0.519531,-0.301025,-0.425429,-8.389129,2.602695,-0.016197,-1.237586,0.028762,0.0625,0.504395,-0.271973,4.309523,-8.308294,-2.361812,-1.267775,-0.383903,0.7512,-0.351562,0.428711,0.243408
4.657101,-9.582247,0.764499,-0.822248,-0.331058,-0.67634,-0.058594,0.756348,-0.149414,-1.306035,5.255202,7.303054,-1.201876,0.311045,-0.089508,0.19043,-0.408447,-0.419922,0.565017,-7.771093,2.089313,-1.808842,1.678442,0.72535,0.111328,0.533936,-0.275146,-2.938809,-6.445519,4.059285,-1.473823,-2.30411,0.329631,0.051025,0.513428,-0.258545,3.885172,-9.480785,-3.249873,-0.972513,-0.19157,0.636758,-0.337402,0.435791,0.252197
4.156285,-7.69803,0.826092,-0.634682,-0.524506,-0.591725,-0.069824,0.742676,-0.131104,-2.275239,4.641109,7.100171,-1.574107,0.490406,0.005055,0.190918,-0.391357,-0.43457,-0.925648,-8.870644,1.915356,-1.143955,1.797231,0.534239,0.132568,0.522949,-0.248291,0.823464,-10.189467,1.355535,-1.541838,-2.595047,0.474806,0.050293,0.529541,-0.23999,3.276334,-8.914617,-3.443757,-0.508392,-0.141207,0.643991,-0.326904,0.430664,0.264404
4.912552,-7.961185,0.265477,-1.045699,-0.527764,-0.522878,-0.086914,0.751465,-0.115479,-1.622769,2.508113,7.902808,-1.828417,0.477266,-0.021508,0.19873,-0.362305,-0.460938,-0.1288,-7.187314,1.314934,-1.281364,1.424889,0.486559,0.14209,0.534668,-0.225586,-2.605148,-7.69508,2.915893,-0.251383,-1.879517,0.109834,0.039307,0.512939,-0.232666,3.566936,-8.334953,-3.630757,-0.619086,-0.175696,0.64216,-0.323242,0.436523,0.269775
5.452054,-7.981682,0.367675,-0.820762,-0.557057,-0.545416,-0.100586,0.748047,-0.099609,-3.122363,1.38071,8.436367,-1.191241,0.733126,-0.222681,0.213379,-0.351562,-0.46167,-0.390137,-8.260711,1.016389,-2.08349,1.247712,0.628319,0.154785,0.537109,-0.187744,0.572128,-5.902106,1.873834,-1.59582,-3.828201,0.620262,0.023926,0.52832,-0.211426,4.043641,-7.95629,-3.545601,-0.574626,-0.013794,0.797771,-0.317139,0.435547,0.276855
4.416338,-7.478115,0.396683,-1.326648,-0.385034,-0.650688,-0.108398,0.754639,-0.065674,-3.152068,3.453211,8.179209,-1.101948,0.561556,-0.469835,0.215576,-0.344238,-0.476074,-1.633264,-9.619509,-0.196437,-1.766694,0.715486,0.507557,0.166748,0.543213,-0.150635,5.971415,-9.034688,-0.044938,-1.540396,-1.959776,0.982701,0.027344,0.533203,-0.187988,3.234585,-7.458283,-3.644018,-0.961034,0.339123,0.844836,-0.306396,0.443115,0.294678
4.609818,-9.315565,-0.607943,-1.25184,-0.670166,-0.688456,-0.120605,0.751709,-0.051025,-2.768246,2.150729,7.025713,-1.802334,0.85927,-0.615039,0.239014,-0.318359,-0.490234,-1.505668,-7.648265,0.310607,-1.122499,0.361222,0.301968,0.170898,0.541992,-0.137451,-1.878789,-8.415014,1.870467,-0.904062,-1.235436,1.186045,0.043213,0.540283,-0.164062,2.241165,-8.568831,-4.319501,-1.249757,0.221542,0.964348,-0.296631,0.444824,0.302246
4.194195,-7.561532,-0.61296,-0.776492,-0.668913,-0.5588,-0.132324,0.742676,-0.02417,-3.125604,1.04698,6.443355,-0.829136,0.934696,-0.787534,0.25293,-0.299316,-0.485596,-1.856791,-6.879141,0.616894,-1.712717,0.124576,0.338872,0.175293,0.536865,-0.098633,1.347022,-8.319523,0.04127,-1.425163,-3.111433,0.984988,0.046143,0.541748,-0.148926,2.456051,-9.03671,-4.353988,-0.74928,0.109883,0.759325,-0.290039,0.440186,0.319824
5.377115,-7.341786,-1.241647,-1.313023,-0.766845,-0.483164,-0.129883,0.749512,-0.001953,-2.261593,3.322179,7.765738,-1.099855,1.039303,-0.604333,0.275391,-0.280029,-0.488037,-0.828054,-8.232208,-0.140632,-1.946312,-0.072924,0.163536,0.188477,0.540527,-0.072998,2.790727,-9.80436,-0.871965,-0.898295,-0.501279,1.250746,0.065918,0.53833,-0.125244,2.792486,-8.349944,-4.275899,-0.627159,0.082043,0.868565,-0.269775,0.450439,0.322998
5.451733,-8.311188,-1.549456,-0.96255,-0.555275,-0.276096,-0.144043,0.749512,0.024658,-3.121807,0.443819,7.615173,-2.408952,1.299333,-0.477223,0.293945,-0.249756,-0.490234,0.325397,-9.334527,-1.36595,-1.775473,0.009771,0.108411,0.181152,0.539795,-0.040283,-4.971083,-7.862715,0.451891,-0.732434,-1.501622,0.863417,0.08667,0.545654,-0.119873,2.991281,-8.387132,-4.436201,-0.62959,0.187002,0.809283,-0.270752,0.456787,0.335938
5.012064,-7.226994,-1.385922,-0.919259,-0.60143,-0.242852,-0.143555,0.740723,0.030762,-4.312389,-0.659899,6.768032,-0.887523,1.249719,-0.563059,0.304443,-0.228271,-0.492188,-1.836208,-8.417101,-1.753046,-1.370004,0.086805,-0.035046,0.187988,0.527588,-0.028809,5.220813,-8.111776,-2.802698,-1.513203,-2.451818,1.215552,0.092529,0.541748,-0.092529,2.626921,-8.139611,-4.225289,-0.464814,0.324894,0.842639,-0.255371,0.453125,0.325195
5.240343,-7.455756,-1.640878,-1.140455,-0.541079,-0.23046,-0.161133,0.737305,0.05835,-3.456006,3.394647,7.646807,-1.155627,1.306558,-0.495826,0.324707,-0.20874,-0.484375,-1.243109,-7.488745,-1.979353,-1.90541,-0.226268,-0.230441,0.170898,0.523193,0.005371,-2.424018,-9.875368,-0.968646,-1.164927,1.206882,1.431617,0.130371,0.533691,-0.081787,2.463568,-7.843967,-4.336391,-0.588502,0.26123,0.861107,-0.259277,0.458008,0.337646
5.375313,-7.559381,-2.128578,-1.009986,-0.644829,-0.106547,-0.15625,0.740967,0.07666,-3.657996,0.670246,7.165367,-3.095046,1.695892,-0.419603,0.34668,-0.170166,-0.481201,-0.017567,-9.214343,-2.77122,-2.048691,0.099093,-0.443716,0.171875,0.522217,0.032471,-8.316346,-10.159157,-0.55403,-1.623412,-2.452932,0.998539,0.130371,0.532715,-0.0625,2.721102,-8.379676,-4.615544,-0.682224,0.450897,0.941756,-0.244141,0.462158,0.341797
5.373662,-7.745266,-2.572958,-1.049984,-0.559193,-0.045731,-0.159668,0.733398,0.094238,-4.789315,-3.280424,6.18043,-1.683565,1.595949,-0.315114,0.369629,-0.138672,-0.476562,-1.193366,-9.575597,-2.53006,-1.349303,-0.015032,-0.47165,0.161621,0.505127,0.050781,5.491574,-10.99695,-4.617616,-1.435513,-1.847317,0.8106,0.147705,0.530762,-0.049561,2.149202,-8.488969,-4.418639,-0.324974,0.572296,0.871504,-0.241455,0.459961,0.339844
5.084527,-8.79366,-2.999056,-0.777996,-0.595414,0.170617,-0.150635,0.730469,0.112061,-4.411718,0.53366,7.100632,-0.718713,1.746425,-0.260584,0.387207,-0.121826,-0.453613,0.106117,-8.674016,-3.448585,-1.255532,0.072564,-0.72998,0.156982,0.49585,0.072266,-4.79708,-9.22065,-1.628051,-0.773254,1.242259,0.85974,0.165039,0.519775,-0.033203,2.482892,-8.465665,-4.15021,-0.27917,0.578062,0.72678,-0.234863,0.463623,0.340088
4.769066,-8.096763,-2.603273,-0.304143,-0.530371,0.408745,-0.145996,0.735596,0.123047,-5.854958,-0.405154,7.10292,-2.618734,1.770311,-0.044712,0.399414,-0.0979,-0.451416,0.192106,-8.904997,-4.228963,-1.24157,0.110728,-0.598641,0.148926,0.489258,0.086182,-5.805956,-9.168273,-1.872872,-1.851997,-2.325471,0.558417,0.176758,0.510498,-0.013916,2.323804,-9.675276,-4.56216,-0.160264,0.856275,0.73523,-0.232178,0.470703,0.333252
4.819256,-6.96336,-2.645041,-0.480701,-0.653941,0.378144,-0.138184,0.73291,0.139404,-6.521164,-4.478377,5.729408,-1.539826,1.69686,-0.320399,0.418945,-0.077881,-0.433594,-0.559887,-9.146313,-4.469786,-0.967347,0.007788,-0.711658,0.14209,0.477295,0.106689,2.777493,-11.214026,-5.10532,-1.281417,-0.908233,0.476887,0.184814,0.509277,-0.003174,1.882546,-8.900174,-4.466962,0.630288,0.794887,0.676255,-0.228271,0.479004,0.330566
4.428816,-7.406607,-3.00379,-0.833953,-0.595272,0.409937,-0.137695,0.73291,0.148682,-6.648625,-1.345663,6.433154,-0.282833,1.743124,-0.350339,0.430176,-0.065186,-0.40625,-0.034239,-9.218968,-4.735686,-0.953011,-0.294312,-0.766961,0.130127,0.467041,0.107422,-4.153851,-8.396571,-2.668999,-0.412137,0.519305,0.206309,0.19458,0.501221,0.008301,2.577647,-6.916485,-3.867265,0.17915,0.887393,0.819568,-0.228027,0.487549,0.3125
4.537958,-8.3984,-3.515741,-0.607429,-0.605022,0.416181,-0.135498,0.72998,0.164795,-7.570377,-1.029495,6.596455,-1.816017,1.74657,-0.355631,0.44873,-0.039551,-0.384277,0.335078,-9.56012,-4.970365,-0.797263,-0.221046,-0.770283,0.11792,0.449463,0.116211,-3.584204,-8.517642,-2.868187,-1.854188,-1.32876,0.431378,0.196533,0.493408,0.016846,2.172289,-8.329278,-4.160633,-0.526879,1.175919,0.939246,-0.226807,0.487305,0.31543
3.829927,-7.033653,-3.101214,-0.535237,-0.478266,0.427749,-0.122559,0.727783,0.178955,-8.1986,-4.404317,5.738432,-1.5956,1.564057,-0.405504,0.456299,-0.018799,-0.366943,0.821429,-10.04139,-4.67948,-0.974244,-0.625629,-0.870024,0.118896,0.434814,0.127441,-0.102612,-12.312145,-5.100069,-1.298345,-0.25085,0.210366,0.200439,0.481934,0.033203,1.442588,-8.662821,-4.476588,0.247484,1.056929,0.800622,-0.219238,0.491699,0.307861
4.188373,-8.277871,-3.786137,-0.909649,-0.456178,0.423052,-0.109131,0.727295,0.193115,-8.268013,-3.735938,5.717105,-0.553371,1.326526,-0.436479,0.46875,-0.008545,-0.347656,2.032442,-10.759012,-5.282313,-0.71101,-0.509318,-0.740568,0.118896,0.425049,0.131348,-2.980935,-9.13884,-3.990811,-0.146174,0.001677,-0.012916,0.208984,0.474121,0.032959,2.027418,-7.395242,-4.096176,0.011128,0.891577,0.787559,-0.206299,0.499268,0.297852
3.893245,-8.282765,-3.844799,-0.356525,-0.25247,0.501101,-0.109619,0.725098,0.199707,-7.960534,-2.496969,5.759104,-0.746823,1.125032,-0.41899,0.471191,0.004395,-0.333984,0.795914,-9.858841,-4.909099,-0.20205,-0.558891,-0.866322,0.105225,0.415771,0.127197,-1.120977,-8.034808,-4.433905,-1.556234,-0.48537,0.288103,0.226074,0.470947,0.052734,1.866514,-8.51851,-4.402237,-0.475435,1.060944,0.898354,-0.208496,0.50293,0.301025
4.030831,-7.491701,-3.957457,-0.554613,-0.246345,0.56071,-0.09375,0.726074,0.208252,-8.040753,-3.560857,5.346591,-1.020671,1.039147,-0.330692,0.479492,0.026611,-0.31665,2.01305,-9.215263,-4.562439,-0.428868,-0.693002,-0.757047,0.109863,0.411865,0.126465,-2.824511,-12.49409,-5.446503,-1.31093,0.410837,0.291526,0.223633,0.4646,0.067139,1.235698,-9.441475,-4.699097,0.110693,0.902064,0.764253,-0.197021,0.513672,0.292969
3.8473,-8.293546,-4.191274,-0.46386,-0.060385,0.602704,-0.088135,0.725586,0.218994,-8.481932,-4.623352,5.137657,-0.431286,0.859308,-0.280915,0.472412,0.025635,-0.316162,1.709156,-10.325262,-4.707899,-0.284121,-0.580027,-0.709331,0.10376,0.398193,0.128174,-3.137331,-10.31843,-4.699552,0.067058,-0.460551,-0.487522,0.228027,0.465332,0.060303,1.787135,-7.821931,-4.503191,0.581015,0.736953,0.681488,-0.194092,0.51709,0.287109
4.068799,-7.76126,-4.477537,-0.211255,0.003918,0.577118,-0.076172,0.733154,0.224121,-9.143292,-2.889688,5.372749,0.083337,0.746733,-0.29655,0.481934,0.030029,-0.302246,0.930564,-9.652429,-4.497639,0.098594,-0.720536,-0.750942,0.106201,0.399414,0.124023,0.425163,-7.592954,-5.184493,-0.57494,-0.02245,-0.211959,0.223877,0.459473,0.069092,1.659467,-6.896696,-4.643261,0.037189,0.904749,0.678602,-0.186768,0.528809,0.286377
3.689328,-7.181984,-4.104387,-0.622587,0.125308,0.490849,-0.074219,0.734131,0.224121,-8.616055,-2.157963,5.491672,-0.802987,0.440065,-0.205454,0.476318,0.041992,-0.287842,1.562226,-8.792255,-4.316037,-0.182197,-0.953194,-0.688069,0.103271,0.393311,0.114014,-1.88473,-9.496396,-5.026701,-0.943479,0.684496,0.015755,0.234619,0.460449,0.085449,1.053371,-7.908925,-4.782444,-0.503537,0.776798,0.746234,-0.184326,0.532715,0.282227
3.754089,-9.032832,-4.554665,-0.532859,0.127025,0.50875,-0.07373,0.723389,0.231689,-8.147209,-4.366351,4.705428,-0.791544,0.481155,-0.149751,0.482422,0.037842,-0.287109,1.990637,-9.489294,-4.847144,-0.289324,-0.860409,-0.570882,0.0979,0.375244,0.11499,-1.949413,-9.555046,-5.067,-0.210334,0.255758,-0.153982,0.230225,0.463379,0.081299,1.436315,-9.581433,-5.366537,-0.208286,0.630337,0.688661,-0.186768,0.522949,0.286133
3.755119,-7.840113,-4.476075,-0.112507,0.192551,0.573428,-0.063232,0.732178,0.233154,-9.044622,-4.19424,4.909861,-0.072535,0.392087,-0.229266,0.47998,0.040527,-0.270508,1.392873,-9.203522,-5.14795,0.065745,-0.980708,-0.648284,0.098877,0.375488,0.109863,-0.492416,-8.008885,-4.778544,-0.396954,0.663313,-0.141276,0.228516,0.449707,0.092773,1.184564,-8.66764,-4.750199,0.388082,0.615098,0.549215,-0.176758,0.541992,0.2771
3.831202,-7.824221,-4.575699,-0.626982,0.288464,0.523456,-0.056396,0.720215,0.233643,-8.922334,-3.442228,5.098921,-0.282516,0.162795,-0.208209,0.476807,0.050049,-0.264648,1.966646,-8.474805,-5.274487,-0.140026,-1.123252,-0.506477,0.104736,0.360596,0.097656,-2.357147,-8.68107,-4.945422,-0.49185,0.794877,0.053899,0.233154,0.45752,0.099365,1.620784,-8.183717,-4.343092,-0.225012,0.46454,0.685045,-0.170166,0.531982,0.275879
3.752437,-8.470787,-5.058246,-0.384812,0.31963,0.550748,-0.057617,0.731201,0.237305,-8.560802,-3.757048,5.119663,-0.482834,0.108389,-0.275301,0.466797,0.048828,-0.266357,1.781192,-9.01833,-5.186978,-0.457091,-1.155001,-0.483513,0.098633,0.368896,0.09375,-1.536691,-8.3931,-5.146908,-0.232379,0.449575,-0.117323,0.235352,0.447266,0.100342,1.51673,-9.27172,-4.834091,-0.290363,0.720003,0.72082,-0.169922,0.546875,0.277588
3.539861,-7.981895,-4.670426,-0.549178,0.382679,0.564457,-0.037842,0.726318,0.249512,-8.940897,-4.082494,4.822541,-0.337133,0.005504,-0.19878,0.462646,0.051758,-0.258545,2.168579,-9.724034,-5.291976,-0.378161,-1.178791,-0.452012,0.111816,0.354736,0.096191,-0.980087,-8.055102,-5.076288,-0.515205,0.75533,0.162277,0.22876,0.455566,0.112549,0.833767,-9.058996,-4.871801,0.110632,0.610782,0.640973,-0.15332,0.54834,0.2771
3.394519,-8.908791,-5.153731,-0.319175,0.406045,0.57338,-0.035645,0.726074,0.239502,-8.778537,-4.052431,4.732431,-0.171686,-0.183379,-0.192374,0.450195,0.060791,-0.263672,1.18092,-9.444305,-5.405319,0.073001,-1.030097,-0.407507,0.116211,0.354004,0.083496,-2.553222,-9.296363,-5.19124,-0.594495,0.734002,0.150902,0.248779,0.454346,0.12915,1.200646,-8.362467,-4.831696,0.123241,0.557863,0.581781,-0.148926,0.555664,0.268066
3.282671,-7.63803,-4.685853,-0.216032,0.426993,0.591464,-0.035889,0.724121,0.250488,-8.50929,-4.681153,4.618455,0.059804,-0.262967,-0.1538,0.456299,0.054932,-0.265137,1.084934,-8.577891,-5.424059,0.129988,-1.315647,-0.377593,0.112549,0.346191,0.084473,-1.899955,-9.253188,-5.554382,-0.097138,0.300839,-0.010983,0.250488,0.457031,0.123047,0.900048,-8.574497,-4.587109,-0.209996,0.641126,0.631361,-0.147217,0.555908,0.275146
3.301991,-8.343336,-5.177288,-0.519854,0.324135,0.563147,-0.029053,0.719727,0.255371,-8.251741,-3.488418,4.929652,0.780328,-0.318769,-0.300469,0.44751,0.05249,-0.263428,1.314695,-8.509763,-5.355997,-0.085248,-1.202853,-0.310173,0.115967,0.338623,0.07959,-0.744632,-8.273488,-5.642544,0.052211,0.75175,-0.084891,0.24707,0.454346,0.138916,1.081168,-9.797193,-4.833024,-0.196397,0.634047,0.659957,-0.145996,0.552979,0.279541
3.507696,-8.40365,-5.34464,-0.252355,0.258394,0.584944,-0.019287,0.728027,0.253906,-8.139731,-2.167576,5.415106,-0.007992,-0.305849,-0.203482,0.443604,0.052734,-0.269531,0.493109,-8.859692,-5.617696,-0.118856,-1.257222,-0.324855,0.123779,0.346436,0.074219,-2.316219,-7.899275,-4.971841,-0.12049,0.915644,0.091568,0.244629,0.450439,0.147217,1.191436,-9.153586,-4.828318,0.402198,0.817783,0.601382,-0.13501,0.56958,0.268555
3.295109,-7.973408,-5.082736,-0.315105,0.301629,0.585141,-0.018066,0.725098,0.252686,-8.495103,-4.686665,4.61771,-0.43499,-0.30274,-0.183225,0.440186,0.055908,-0.272217,0.674426,-8.903722,-5.866548,-0.019895,-1.133099,-0.3509,0.12085,0.3396,0.063965,-2.807644,-8.912281,-5.2763,-0.385898,0.567056,0.094555,0.253174,0.458496,0.15625,1.031334,-7.998177,-4.813948,0.128634,0.896486,0.578968,-0.138184,0.567383,0.259277
2.800147,-8.40449,-5.185745,-0.347576,0.265253,0.534938,-0.010498,0.724365,0.25,-8.205672,-4.866318,4.480444,0.654537,-0.357475,-0.239438,0.431885,0.053467,-0.275146,-0.485091,-8.691873,-5.614353,0.036626,-1.181567,-0.34144,0.125488,0.339844,0.051758,-2.330039,-9.307117,-5.516074,-0.005894,0.538592,-0.040097,0.249023,0.456299,0.156738,0.662434,-8.591861,-4.845858,-0.189852,0.953628,0.651592,-0.130371,0.571289,0.255615
2.777466,-8.493446,-5.060955,-0.208211,0.204305,0.527452,-0.005859,0.72168,0.255371,-8.211947,-2.797441,5.308807,0.810681,-0.303488,-0.234733,0.433594,0.038086,-0.286133,0.934172,-9.054237,-5.654171,-0.008307,-1.334585,-0.382469,0.123291,0.335693,0.046875,-2.753065,-8.48034,-4.859061,-0.055328,0.578523,-0.072532,0.25,0.457275,0.161377,0.618198,-9.125797,-4.507614,0.054759,0.870375,0.507173,-0.129639,0.572266,0.253662
2.884989,-8.636619,-5.187534,-0.034409,0.238719,0.556825,0.005615,0.72168,0.255127,-8.25878,-3.723963,5.083721,0.173998,-0.433291,-0.124831,0.427734,0.045898,-0.282715,0.635615,-9.16556,-5.685933,0.385579,-0.927512,-0.25936,0.131104,0.331543,0.039795,-2.583188,-9.465528,-5.308712,-0.116559,0.195251,-0.100072,0.247314,0.455078,0.165771,1.17339,-8.985335,-4.040031,0.328131,0.942562,0.474907,-0.122314,0.569824,0.246582
2.818965,-7.884767,-4.990006,0.117572,0.295838,0.556288,0.005127,0.724609,0.251221,-8.102276,-4.828298,5.083264,0.759575,-0.47042,-0.130785,0.427246,0.037598,-0.289551,-0.279396,-8.367402,-5.454772,0.368782,-1.154755,-0.276212,0.122803,0.334717,0.026611,-1.756607,-8.078228,-5.07581,0.705223,0.159466,-0.335817,0.250488,0.456055,0.158203,1.028537,-8.434787,-3.9252,0.367012,1.083384,0.402983,-0.130371,0.578125,0.236084
2.672182,-7.989319,-5.107298,-0.208128,0.293341,0.495241,0.015381,0.726807,0.249756,-8.3023,-3.202485,5.906717,1.064025,-0.47079,-0.201615,0.419189,0.036865,-0.291748,0.050115,-8.859377,-5.689285,0.008675,-1.208698,-0.201996,0.128662,0.33374,0.020996,-1.953473,-7.184224,-4.422923,-0.119475,0.001462,-0.039081,0.243652,0.459961,0.163818,1.085264,-8.414219,-4.468021,0.097102,1.161745,0.466178,-0.121582,0.582275,0.230469
2.522385,-9.026815,-5.682371,-0.065035,0.205961,0.436851,0.019775,0.720215,0.255371,-8.465552,-3.318665,6.180283,0.449405,-0.582408,-0.234163,0.420166,0.023682,-0.29834,-0.425503,-9.982785,-5.453978,0.087404,-1.403571,-0.204653,0.131592,0.32959,0.020264,-1.412137,-10.064859,-5.439824,-0.143478,-0.095905,-0.009413,0.255371,0.461182,0.165527,0.745738,-8.886375,-4.71493,0.089676,1.310843,0.40678,-0.12207,0.580322,0.229004
2.831283,-8.703958,-5.141029,0.104568,0.202244,0.423949,0.022461,0.723145,0.251465,-7.939958,-4.357967,5.749863,0.919916,-0.680324,-0.210258,0.408691,0.015137,-0.299805,0.337108,-9.9079,-5.355205,0.527048,-1.459741,-0.234863,0.125732,0.328125,0.009521,-1.043994,-9.09913,-4.958048,0.62717,0.195387,-0.201248,0.251221,0.461426,0.163574,1.158027,-9.147818,-4.650703,0.186895,1.190334,0.309312,-0.125,0.580811,0.221191
2.692186,-9.458497,-5.175862,0.255614,0.235155,0.448037,0.032227,0.727539,0.241699,-7.665052,-3.103981,6.007865,1.342062,-0.655734,-0.082122,0.409668,0.010498,-0.310547,-0.064182,-9.042073,-5.165514,0.715031,-1.232719,-0.104091,0.126709,0.336426,-0.008301,-2.167973,-8.2529,-4.772563,0.282428,0.228986,0.044236,0.252441,0.455566,0.163574,1.32902,-9.870612,-4.555803,0.276732,1.346647,0.290299,-0.122559,0.585693,0.208008
3.066401,-8.309595,-4.769108,0.667308,0.397499,0.553773,0.042725,0.741211,0.229248,-7.427246,-2.966288,6.470943,0.851284,-0.786927,0.077444,0.402344,-0.009277,-0.317139,0.126176,-9.352094,-5.19443,0.537766,-1.280977,-0.087302,0.132568,0.348145,-0.01709,-2.663646,-9.262738,-4.755733,0.40113,-0.274819,-0.019841,0.255615,0.460938,0.154297,1.087727,-10.080413,-4.050706,0.668728,1.107311,0.247477,-0.120117,0.598877,0.191895
2.386306,-8.08254,-4.640869,0.246715,0.470419,0.515769,0.052246,0.742188,0.222168,-7.557082,-3.176141,6.659483,0.974526,-0.727702,0.079844,0.395508,-0.013916,-0.327637,-1.229808,-9.768443,-4.718775,0.62757,-1.099167,-0.069309,0.132568,0.349609,-0.024658,-1.205181,-9.716435,-4.948414,0.647688,-0.568807,-0.067862,0.262695,0.472656,0.143799,1.948999,-8.795485,-3.970647,1.000584,1.148251,0.201043,-0.117676,0.602539,0.174805
2.216385,-9.109081,-5.047653,0.313699,0.336534,0.428151,0.046875,0.731445,0.212891,-7.447064,-1.882379,6.924254,1.121621,-0.853521,-0.003873,0.390381,-0.018066,-0.345703,-1.451812,-9.518897,-4.355838,0.711433,-1.57232,-0.174987,0.118896,0.340576,-0.037109,-1.6588,-9.243968,-4.496347,0.642365,-0.142982,-0.090968,0.26416,0.470703,0.135742,1.257685,-7.958519,-3.895893,0.317905,1.482077,0.238639,-0.128662,0.594727,0.162598
2.214959,-8.553769,-4.826423,0.471943,0.255002,0.408031,0.053711,0.747803,0.200684,-6.988646,-1.715034,6.852387,0.556338,-0.720127,0.053557,0.386475,-0.030273,-0.343994,-0.708129,-9.074805,-4.140502,0.647631,-1.334087,-0.114415,0.118652,0.358887,-0.048096,-2.453992,-9.476747,-4.399772,0.543116,-0.329827,0.042151,0.257812,0.459473,0.129883,1.176526,-10.050466,-4.057498,-0.068867,1.3061,0.317692,-0.121338,0.607666,0.150635
2.140876,-8.609589,-4.938541,0.220467,0.248144,0.373797,0.057373,0.739746,0.216553,-6.983317,-2.514931,6.621508,0.559993,-0.767745,0.115594,0.381104,-0.044922,-0.351562,-1.932169,-9.295829,-3.479146,0.499478,-1.344917,-0.146805,0.111816,0.354248,-0.039307,-1.908848,-9.294284,-4.533199,0.648459,-0.160749,-0.073141,0.258789,0.472412,0.118896,1.928385,-10.437171,-3.637544,0.729494,1.456289,0.190816,-0.127197,0.604248,0.153564
2.18212,-9.8618,-5.344392,0.38548,0.032258,0.339943,0.068115,0.754883,0.192627,-6.199074,-2.042054,6.945514,1.018455,-0.559796,0.14287,0.373047,-0.051025,-0.35498,-0.782504,-9.643899,-3.502236,0.718777,-1.458252,-0.264774,0.111328,0.367432,-0.064209,-2.960878,-9.336773,-3.572578,0.373415,-0.16469,0.078505,0.25708,0.465332,0.133545,2.09755,-9.129705,-3.681843,0.773859,1.698715,0.204305,-0.12085,0.618896,0.114258
2.501371,-8.235085,-4.243122,0.804471,0.058599,0.330514,0.073975,0.75708,0.182373,-7.055764,-0.392844,7.822307,0.642489,-0.448519,0.310931,0.371094,-0.058594,-0.353516,-0.478997,-8.980663,-3.270588,0.575253,-1.043658,-0.314537,0.10376,0.368164,-0.063477,-2.261814,-10.877239,-4.728246,0.51309,-0.549646,-0.087499,0.261475,0.476318,0.114014,2.139552,-9.151063,-3.596138,0.469873,1.854865,0.20089,-0.120361,0.615479,0.10498
2.444826,-9.082863,-3.984545,0.036806,0.105229,0.225333,0.086426,0.755615,0.186768,-6.349515,-1.619889,7.475682,-0.239881,-0.47636,0.398073,0.376953,-0.057129,-0.363281,-1.839503,-9.446982,-2.950904,0.3175,-1.112509,-0.266514,0.104492,0.36792,-0.061768,-1.229479,-9.439879,-4.2588,0.798967,-0.209605,-0.276319,0.257324,0.478027,0.102051,2.089124,-9.708876,-3.132606,0.339054,1.76099,0.215546,-0.112305,0.615479,0.095459
1.927306,-10.328204,-4.466093,0.587334,0.181525,0.277435,0.083008,0.755127,0.166992,-7.062977,-2.850012,7.16486,0.397729,-0.231207,0.448625,0.374756,-0.070068,-0.358643,-1.618998,-10.174434,-2.957349,0.38814,-1.201366,-0.383554,0.094482,0.371826,-0.076172,-2.193835,-9.015385,-4.04102,0.2851,-0.165413,-0.085496,0.260986,0.473145,0.105469,2.231657,-10.213807,-2.862764,0.488679,1.786797,0.19437,-0.115234,0.614502,0.069824
1.444742,-9.145596,-3.797587,0.830376,0.090356,0.183646,0.086182,0.765625,0.158203,-6.999294,-1.329962,7.288467,0.920799,-0.351627,0.438691,0.363037,-0.080078,-0.369873,-1.340446,-10.482776,-3.156916,0.737875,-1.15797,-0.374136,0.084473,0.37793,-0.07959,-1.928586,-10.591397,-4.270479,0.296727,0.001104,-0.1018,0.250732,0.474365,0.095215,1.646041,-10.02787,-3.101997,0.88888,1.942298,0.1181,-0.113037,0.619873,0.050049
1.966149,-9.266444,-3.46569,0.677071,0.10639,0.1468,0.089111,0.766113,0.143555,-6.455014,-0.457789,7.553157,0.574492,-0.191773,0.537625,0.366455,-0.094727,-0.373291,-1.248472,-9.292578,-2.678339,1.062251,-0.987164,-0.447954,0.073486,0.38208,-0.0896,-2.303511,-10.074579,-4.025294,1.009823,0.132712,-0.188793,0.245361,0.480225,0.089844,1.705655,-9.310376,-2.345239,0.926308,1.635388,0.082404,-0.112793,0.62085,0.025146
1.686429,-9.389542,-3.259206,0.802183,0.140159,0.114305,0.092041,0.770264,0.13208,-6.589777,-0.876271,7.305279,0.294067,-0.127474,0.55129,0.367188,-0.104004,-0.368652,-1.256831,-8.37706,-2.588162,0.626046,-0.949317,-0.425657,0.066406,0.386719,-0.095215,-2.184435,-8.713058,-3.068545,0.737548,-0.045315,-0.144623,0.237305,0.481934,0.081543,2.580565,-9.576461,-1.807062,0.582743,1.786246,0.104753,-0.107666,0.623047,0.012939
2.320923,-9.065493,-2.689676,0.689979,0.197896,0.10036,0.094238,0.769287,0.123535,-6.326344,-0.971661,7.56734,0.34119,-0.028922,0.585258,0.363281,-0.114502,-0.377197,-1.010682,-9.222142,-2.638347,0.075962,-0.773244,-0.403197,0.058105,0.384521,-0.087402,-2.175538,-10.085131,-3.604463,0.318321,-0.227342,-0.111012,0.235107,0.483398,0.07959,1.851294,-10.488414,-1.431706,0.59581,1.804687,0.16748,-0.101562,0.617188,-0.005615
2.200267,-10.218478,-2.676057,0.609173,0.337594,0.124339,0.087402,0.765381,0.105713,-6.63114,-1.352888,7.527565,0.241453,-0.018244,0.64607,0.36377,-0.113037,-0.367676,-1.708043,-10.788649,-2.594881,0.255912,-0.791654,-0.480044,0.035889,0.385498,-0.097656,-1.787281,-10.071108,-3.33538,0.537523,-0.31459,-0.441682,0.225342,0.481689,0.075684,2.097125,-10.472885,-1.465543,0.928771,1.547486,0.086,-0.111816,0.613525,-0.03125
1.970068,-9.235977,-2.524522,1.098917,0.449573,0.140225,0.108154,0.776611,0.097168,-5.976187,-1.09899,7.490443,0.66579,-0.007932,0.573467,0.364746,-0.128418,-0.365234,-1.015122,-10.403439,-2.849523,0.827048,-0.901029,-0.636956,0.043213,0.395996,-0.093018,-2.070935,-9.966945,-2.991319,0.314992,-0.28724,-0.277028,0.204346,0.481445,0.064697,2.243303,-9.665256,-1.265594,1.037292,1.540868,0.122041,-0.083252,0.62207,-0.047852
1.746361,-8.86739,-2.357815,0.782953,0.345433,0.087436,0.104248,0.781738,0.075439,-6.454694,-0.226106,7.720485,0.796573,0.082238,0.625089,0.355225,-0.158936,-0.358398,-0.802185,-9.469083,-2.507085,0.716754,-0.827221,-0.64087,0.025391,0.404297,-0.108887,-1.769211,-11.176945,-3.622339,0.527813,-0.458652,-0.38039,0.215576,0.492676,0.069336,2.180269,-9.698807,-1.049326,0.862704,1.506914,0.155795,-0.083252,0.619873,-0.074219
1.866415,-9.820186,-2.341253,0.814744,0.433427,0.103715,0.108887,0.779053,0.060791,-6.442793,0.133442,7.635938,0.565414,-0.082358,0.551838,0.360107,-0.162354,-0.366943,-0.70086,-10.159931,-2.544592,0.455529,-0.856593,-0.595916,0.01709,0.406006,-0.107666,-0.975396,-10.22528,-3.085868,0.997978,-0.291938,-0.475124,0.195557,0.496826,0.046387,2.0342,-10.073484,-0.81457,0.745788,1.549611,0.172236,-0.070312,0.619629,-0.092529
1.431623,-9.327533,-2.279647,1.052322,0.337439,0.126499,0.112793,0.783203,0.044678,-6.117815,-0.369298,7.276904,0.60528,-0.059938,0.592906,0.349121,-0.163086,-0.369385,-0.871544,-10.465678,-2.572136,0.809752,-0.822063,-0.717284,0.004639,0.409912,-0.116943,-1.771486,-9.640601,-2.474294,0.637036,-0.297768,-0.391209,0.188232,0.5,0.041504,1.928594,-10.802308,-0.442138,0.764317,1.418761,0.269289,-0.057617,0.621338,-0.112549
1.434961,-9.001952,-1.839203,0.85536,0.302005,0.154647,0.113281,0.78418,0.034912,-6.279996,0.050607,7.331503,0.972945,-0.11483,0.487396,0.34668,-0.188477,-0.359619,-0.401918,-9.516495,-2.143448,0.808237,-0.86948,-0.742764,-0.015381,0.413086,-0.114502,-1.718157,-10.982259,-2.921846,0.568129,-0.675525,-0.400772,0.177979,0.501709,0.032715,2.487871,-10.688855,-0.340423,1.116926,1.606273,0.26156,-0.050293,0.616455,-0.124512
1.504105,-9.565482,-1.766337,0.936094,0.238745,0.164942,0.120117,0.777832,0.022705,-6.415983,0.858057,7.531645,0.901663,-0.164866,0.535517,0.355713,-0.205566,-0.357178,-0.618914,-10.103928,-1.753486,0.452844,-0.812984,-0.710226,-0.020996,0.412598,-0.112793,-0.871963,-10.572608,-2.575736,0.983782,-0.582255,-0.619275,0.15918,0.509033,0.02417,1.392406,-9.465286,-0.173731,1.265445,1.714071,0.341922,-0.030273,0.606445,-0.150391
1.125153,-8.768685,-1.206663,0.944349,0.270441,0.145923,0.12207,0.776611,0.007812,-6.62758,0.95676,7.603201,0.687408,-0.254776,0.466169,0.348877,-0.209473,-0.366699,-0.779286,-10.553831,-1.699909,0.643449,-0.940466,-0.791884,-0.039795,0.417969,-0.117188,-1.826878,-10.102023,-1.855028,0.727704,-0.578964,-0.493127,0.150391,0.506592,0.01709,1.526504,-8.743381,0.207838,0.839533,1.492938,0.289103,-0.02124,0.603271,-0.164795
1.476265,-9.494129,-1.342396,0.663414,0.179382,0.090294,0.12915,0.773438,-0.019043,-6.487863,0.519985,7.502672,0.711849,-0.369063,0.457573,0.341553,-0.225098,-0.348389,-0.522803,-10.328165,-1.693195,0.612063,-1.006029,-0.783712,-0.051025,0.416504,-0.134277,-1.485612,-10.511494,-2.172912,0.634654,-0.833407,-0.618143,0.129639,0.509277,0.009277,1.713633,-9.63933,0.349487,0.518733,1.615735,0.396171,0.000244,0.598633,-0.190918
1.278331,-9.561515,-0.903056,1.06304,0.221446,0.09643,0.130615,0.782471,-0.022217,-5.997342,0.845485,7.293866,1.042417,-0.414799,0.398039,0.335693,-0.237793,-0.349609,-0.11875,-10.405949,-1.689493,0.703996,-1.006406,-0.849454,-0.067139,0.432373,-0.123047,-1.152723,-10.708123,-2.060383,0.679717,-0.577149,-0.521954,0.116943,0.512695,-0.014404,1.199897,-10.183229,0.667102,0.927464,1.635812,0.337857,0.018555,0.60498,-0.190918
1.460139,-8.796015,-0.399246,0.875224,0.206687,0.048774,0.128418,0.770752,-0.041016,-6.042799,1.850357,7.40061,1.087739,-0.404055,0.396292,0.329346,-0.251465,-0.358887,-0.002367,-9.481244,-1.559112,0.883505,-0.918555,-0.887128,-0.087646,0.42627,-0.137695,-1.893345,-10.992076,-1.74172,0.800668,-0.801383,-0.638646,0.098145,0.52417,-0.013428,0.959731,-9.258016,0.856638,1.154828,1.494126,0.344869,0.027344,0.590576,-0.221924
1.355039,-9.358966,-0.384264,0.706765,0.165791,0.07647,0.131348,0.778076,-0.049316,-5.701376,2.375961,7.634397,0.747322,-0.463446,0.348032,0.318848,-0.265869,-0.349121,0.643487,-8.507664,-0.784847,0.383821,-0.90252,-0.892565,-0.102295,0.431885,-0.133301,-1.114227,-10.054706,-1.837666,0.925507,-1.14122,-0.764465,0.075439,0.519775,-0.034424,1.244739,-8.496484,1.273278,0.744062,1.42971,0.310707,0.044678,0.593262,-0.226318
1.584787,-9.191464,-0.023533,0.743177,0.187194,0.045725,0.138672,0.768555,-0.066895,-5.595149,2.060283,7.439796,0.56571,-0.475507,0.379562,0.32373,-0.263916,-0.353271,0.453799,-9.686373,-0.61355,-0.122079,-0.851771,-0.768776,-0.11377,0.431152,-0.135742,-0.560451,-9.46534,-1.228102,0.4884,-1.117082,-0.83334,0.054443,0.529053,-0.036621,0.945482,-9.350148,1.351492,0.320457,1.583431,0.377298,0.070312,0.584229,-0.236328
1.398321,-9.649391,0.151914,0.605382,0.115702,0.047767,0.14624,0.776855,-0.075928,-5.391328,1.873353,7.321109,0.776394,-0.453189,0.323879,0.325195,-0.285645,-0.35791,0.619953,-10.4198,-0.608336,0.317538,-0.992296,-0.966039,-0.126221,0.438965,-0.133057,-0.741353,-9.909399,-1.3398,0.247787,-1.121791,-0.818459,0.037842,0.526123,-0.044434,0.312903,-10.370885,1.400304,0.556843,1.304147,0.408977,0.0896,0.587891,-0.244385
1.930005,-9.866301,0.241332,0.920944,0.142752,0.036536,0.13623,0.777588,-0.084961,-5.197979,2.253135,7.430373,0.928369,-0.40083,0.333691,0.304199,-0.293945,-0.351318,1.18004,-9.316889,-0.584126,0.638236,-0.896023,-0.997723,-0.155029,0.445557,-0.131836,-0.172194,-10.256755,-1.593343,0.377177,-0.994224,-0.865886,0.020264,0.536133,-0.049072,0.742665,-9.902905,1.608037,0.998822,1.227256,0.351123,0.094238,0.587891,-0.253906
2.011295,-9.277602,0.774438,0.871052,0.187081,0.009493,0.140869,0.776855,-0.097656,-5.083964,2.634346,7.651058,0.93549,-0.298082,0.367199,0.306885,-0.310791,-0.357422,1.313536,-8.362144,-0.486452,0.329525,-0.900277,-1.056142,-0.171875,0.446533,-0.126221,-0.20367,-10.361408,-1.453102,0.511106,-0.788701,-0.842322,-0.011719,0.54541,-0.05127,0.106631,-9.12402,2.068542,0.891758,1.222253,0.480059,0.115967,0.578857,-0.263916
1.665089,-9.815865,0.753244,0.776858,0.271277,0.037933,0.147949,0.768311,-0.106445,-5.164732,3.11264,7.683958,0.857894,-0.264367,0.361683,0.310059,-0.305176,-0.341309,1.677378,-8.849775,-0.704565,-0.164083,-0.796036,-0.971361,-0.182861,0.440186,-0.120117,-0.010403,-9.683034,-1.064949,0.624635,-0.910642,-1.036402,-0.033203,0.545654,-0.05542,-0.110511,-9.240179,2.317566,0.679344,0.95591,0.393726,0.134033,0.56958,-0.271484
1.77758,-9.490094,0.932801,0.831513,0.232891,0.021989,0.147461,0.758301,-0.126709,-5.202255,3.052549,7.766855,0.650288,-0.21217,0.351521,0.288086,-0.324951,-0.341553,1.31432,-9.637755,-0.839398,-0.16203,-0.819378,-1.027172,-0.20459,0.437744,-0.115723,0.420373,-8.925686,-0.805013,0.238288,-0.829987,-1.017265,-0.054443,0.540039,-0.058594,-0.107687,-9.541019,2.252468,0.620477,0.939758,0.433884,0.151367,0.560059,-0.282959
1.334372,-9.951688,0.986444,0.685419,0.270662,0.026076,0.146973,0.753418,-0.136719,-5.568795,2.831438,7.569472,0.798338,-0.266906,0.335466,0.290039,-0.331787,-0.332031,2.220586,-9.527408,-1.11863,-0.161152,-0.789489,-1.029683,-0.220703,0.431396,-0.109863,-0.065908,-9.682001,-0.840098,-0.08502,-0.912384,-1.02529,-0.079834,0.535156,-0.058838,-0.47183,-9.791468,2.375881,0.665024,0.800748,0.423154,0.161621,0.549316,-0.290283
1.409264,-9.718452,1.134246,0.959,0.212361,0.049498,0.154297,0.753418,-0.145996,-4.629087,3.36892,7.248044,0.95125,-0.304659,0.253986,0.285889,-0.349609,-0.324951,1.69279,-9.567261,-1.18334,-0.02628,-0.613393,-1.010359,-0.234375,0.434082,-0.102295,0.603463,-9.982502,-0.891626,0.047095,-1.077168,-1.138693,-0.105957,0.532959,-0.055664,-0.232762,-9.765377,2.554738,0.694777,0.725238,0.425686,0.176758,0.548584,-0.293701
1.495841,-9.027377,1.67346,0.84719,0.142628,0.05751,0.152832,0.756836,-0.164307,-4.832534,3.380149,7.157596,0.923016,-0.172475,0.258818,0.287842,-0.359863,-0.321777,2.56382,-8.52323,-1.140904,0.083684,-0.750843,-1.166145,-0.253906,0.4375,-0.103027,0.209318,-9.641434,-0.664143,0.119371,-1.12,-1.141044,-0.131348,0.535156,-0.049316,-0.676716,-9.764545,2.487412,0.783669,0.78683,0.556968,0.194824,0.547852,-0.307617
1.347845,-9.756109,1.722295,0.829132,0.233676,0.093616,0.158447,0.74585,-0.173096,-4.680547,3.776502,6.931715,1.191817,-0.293729,0.210794,0.276855,-0.364746,-0.312988,3.063811,-8.158698,-0.986489,-0.461277,-0.452208,-1.055485,-0.267822,0.425293,-0.086182,0.684431,-9.503198,-1.050922,-0.014687,-1.589841,-1.27534,-0.161133,0.540039,-0.049072,-1.354773,-9.181498,2.902586,0.850477,0.573703,0.529848,0.208984,0.533936,-0.311768
1.095039,-9.140423,2.08087,0.978858,0.087365,0.185393,0.165771,0.739258,-0.186768,-4.379079,4.540048,6.822692,1.132852,-0.223839,0.2006,0.275879,-0.392578,-0.297363,2.358894,-9.105295,-0.841026,-0.541718,-0.583457,-1.145491,-0.278076,0.420898,-0.076172,1.824238,-9.29094,-1.106003,-0.159687,-1.514833,-1.321057,-0.187988,0.528076,-0.032959,-0.936461,-9.344448,2.943467,0.472443,0.439183,0.63131,0.226807,0.525391,-0.317871
1.034976,-9.30876,2.134473,0.687867,0.105992,0.215072,0.165283,0.744873,-0.205811,-5.144195,4.372902,7.059363,0.996753,-0.214682,0.143959,0.27002,-0.385986,-0.297119,2.962728,-8.913395,-1.367969,-0.645401,-0.599324,-1.252761,-0.302002,0.424316,-0.073242,1.266851,-9.424065,-0.964375,-0.38554,-1.350578,-1.400803,-0.21167,0.52002,-0.018799,-1.417069,-9.730313,2.817422,0.612039,0.538541,0.672167,0.239502,0.530273,-0.333984
0.674761,-9.830373,2.211884,0.923894,0.060906,0.220667,0.181641,0.724854,-0.215332,-5.098038,4.006321,7.016204,1.076325,-0.32448,0.083924,0.270752,-0.389404,-0.282471,3.481246,-12.750516,-2.53504,-0.303861,-0.631278,-1.028795,-0.305664,0.406494,-0.05835,1.397334,-9.664897,-1.529855,-0.566788,-1.353275,-1.484422,-0.246338,0.522949,-0.006592,-1.917662,-8.770342,3.360337,0.859145,0.353428,0.61614,0.264404,0.506836,-0.338379
0.751199,-8.727533,2.693935,1.211655,0.001601,0.182133,0.185791,0.720215,-0.22998,-5.256547,4.467062,6.432962,1.719562,-0.435472,0.087455,0.264648,-0.404297,-0.26709,4.049513,-10.496948,-2.084227,1.838136,-0.244386,-1.537359,-0.324951,0.396973,-0.075684,1.747706,-11.849677,-2.653341,0.232731,-1.560863,-1.326898,-0.257568,0.500488,0.003418,-1.833071,-8.763916,2.74726,0.663984,0.368167,0.816848,0.281738,0.496338,-0.342041
1.037794,-8.786652,2.825442,0.823676,0.018358,0.212702,0.177002,0.717773,-0.23999,-4.593409,5.955793,7.343644,1.558744,-0.577821,0.055796,0.259766,-0.422852,-0.249756,2.825537,-5.599189,-1.110987,0.986687,-0.481152,-1.110132,-0.35376,0.392822,-0.077148,2.60508,-8.644218,-2.164823,1.547912,-1.613224,-1.692687,-0.293457,0.487793,-0.006348,-2.344555,-8.436731,3.145053,0.904746,0.162043,0.725396,0.284424,0.488281,-0.354248
0.882606,-9.264639,3.097128,0.854695,-0.001252,0.266815,0.184082,0.715576,-0.251709,-4.809944,6.187139,6.780688,0.973175,-0.669592,0.103443,0.250488,-0.427979,-0.254883,5.140867,-7.401467,-1.263912,-0.96217,-0.647589,-1.003311,-0.358398,0.391113,-0.062256,2.595813,-6.300398,-1.603151,0.380419,-1.452744,-1.175268,-0.325928,0.482666,0.001465,-2.150263,-7.594189,3.553399,0.561578,0.099672,0.638913,0.30249,0.488037,-0.356689
1.079148,-8.381678,3.522623,0.716268,-0.016245,0.365363,0.185791,0.708984,-0.255859,-4.308159,5.302247,7.028286,0.735683,-0.866913,0.066123,0.251465,-0.421631,-0.248291,3.592698,-10.958725,-2.057768,-0.545299,-0.298086,-0.780741,-0.380127,0.383789,-0.050537,3.293115,-8.203671,-2.489234,-0.362264,-1.723249,-1.259806,-0.343018,0.4729,0.02417,-2.918938,-8.065359,3.448337,0.0994,-0.009948,0.706328,0.305664,0.481689,-0.358887
1.220164,-9.247048,3.26511,0.561728,0.064024,0.275009,0.194824,0.705322,-0.259033,-4.79085,4.847118,7.066741,1.009198,-0.841075,0.112303,0.239746,-0.444824,-0.237061,4.023327,-9.376457,-1.71221,0.586527,-0.664421,-1.101272,-0.387207,0.377686,-0.043945,4.192215,-7.820798,-2.3165,-0.050233,-1.046547,-1.126145,-0.368164,0.460938,0.037354,-2.422573,-8.748985,3.24295,0.45185,-0.413592,0.637134,0.316162,0.475098,-0.362061
0.517268,-9.45592,3.327105,0.899619,0.064492,0.264545,0.198486,0.691406,-0.282715,-4.435684,5.728648,6.687814,1.317788,-1.068443,-0.030192,0.234131,-0.448486,-0.229736,4.340544,-7.387819,-1.561152,0.130263,-0.321427,-0.717959,-0.39917,0.361084,-0.054443,2.356637,-7.943699,-2.099389,-0.274696,-1.095297,-0.965865,-0.379883,0.453857,0.057617,-2.146032,-7.74186,3.759999,0.815297,-0.382311,0.623791,0.321533,0.456299,-0.38916
0.672813,-8.501423,3.65421,0.730471,-0.087457,0.230709,0.19458,0.690674,-0.289795,-4.030283,6.842587,6.533689,1.190531,-0.955654,-0.075922,0.232178,-0.456055,-0.221191,4.516935,-7.824772,-1.914687,-0.156113,-0.424362,-0.723554,-0.412842,0.36084,-0.04541,3.05607,-8.524864,-2.850483,0.104051,-1.321338,-0.914989,-0.395996,0.433838,0.057861,-2.233169,-7.493284,3.85588,0.292658,-0.494086,0.578874,0.317627,0.455566,-0.392334
0.441794,-9.018448,3.347939,0.402843,-0.201789,0.276008,0.201904,0.691162,-0.296631,-3.854831,7.048325,6.414431,0.715765,-1.068733,-0.206906,0.220703,-0.456299,-0.22876,5.945164,-6.639529,-1.553953,-0.396127,-0.124325,-0.692788,-0.415771,0.360352,-0.039551,3.047419,-6.263533,-2.350855,0.283786,-1.344863,-1.091241,-0.415283,0.426758,0.070068,-1.768017,-8.189093,4.04638,0.073627,-0.563507,0.537029,0.324463,0.45752,-0.398193
0.59236,-8.976882,3.424967,0.589298,-0.394875,0.245576,0.198242,0.685547,-0.304443,-3.659717,6.304953,6.325866,0.724708,-0.966396,-0.168164,0.238525,-0.455566,-0.217529,5.110514,-7.569003,-1.380749,-1.106615,0.11358,-0.452352,-0.426025,0.354004,-0.036621,3.898363,-5.506071,-2.722095,-0.929684,-1.827276,-0.710152,-0.418213,0.421143,0.101562,-1.251659,-8.617471,3.395548,0.276504,-0.498148,0.486283,0.324951,0.447021,-0.406982
0.416225,-8.648199,4.123257,0.483928,-0.519202,0.192858,0.193359,0.679932,-0.314941,-4.16392,6.767403,6.560447,1.033526,-1.059234,-0.339953,0.220215,-0.462158,-0.219238,4.856595,-9.682246,-1.734544,-0.869744,-0.04343,-0.509424,-0.438232,0.344727,-0.031494,5.186655,-8.132384,-3.828486,-1.173204,-1.499112,-0.689115,-0.428711,0.405029,0.129639,-2.531453,-7.525155,4.530894,0.523407,-0.380131,0.539673,0.323242,0.439941,-0.42627
0.655829,-9.126495,3.970129,0.524851,-0.645196,0.163097,0.194336,0.668701,-0.317139,-3.67698,7.075811,6.464907,0.764215,-1.136442,-0.400911,0.226074,-0.473145,-0.216064,5.084833,-9.365716,-2.483475,0.061869,0.140491,-0.485269,-0.435547,0.33667,-0.027344,4.241264,-8.07065,-3.749332,-0.423484,-1.035701,-0.680704,-0.439453,0.393066,0.138428,-2.408321,-7.687994,4.653306,0.052267,-0.676655,0.514959,0.332031,0.429199,-0.42334
0.727677,-8.445506,4.012866,0.500513,-0.662467,0.233437,0.185791,0.672363,-0.318848,-3.82595,6.610605,6.40631,0.602362,-1.158184,-0.455741,0.228516,-0.46875,-0.220703,6.210525,-7.691232,-2.031918,0.330833,0.126554,-0.434284,-0.447021,0.340332,-0.027588,3.233327,-7.462517,-4.149104,-0.426832,-1.101254,-0.612759,-0.438477,0.380127,0.163086,-2.305682,-8.07799,4.371526,0.246592,-0.543115,0.523326,0.325684,0.429932,-0.426514
0.798666,-8.54838,4.273018,0.285264,-0.702496,0.190654,0.178223,0.665771,-0.325439,-3.420096,6.707518,6.003253,0.754073,-1.294933,-0.414636,0.218994,-0.476807,-0.219238,5.696429,-6.031737,-1.336479,-0.055039,0.585501,-0.224834,-0.45166,0.334717,-0.034424,4.49209,-7.538285,-4.386253,0.135924,-1.451924,-0.6035,-0.446777,0.380371,0.185059,-2.69468,-7.157154,4.61687,0.261226,-0.720444,0.348819,0.319092,0.42041,-0.437988
0.790697,-8.67423,4.389658,0.456718,-0.825104,0.182868,0.171143,0.670166,-0.333252,-3.161935,7.417263,5.952462,0.804128,-1.182201,-0.548312,0.227051,-0.475098,-0.205078,5.245936,-5.92741,-1.21352,-1.076732,0.35311,-0.203275,-0.457764,0.342041,-0.032471,5.13807,-4.160216,-3.713874,0.123647,-1.000794,-0.613066,-0.45166,0.368408,0.189941,-1.660842,-7.549625,4.499609,-0.078012,-0.915718,0.582608,0.313477,0.429688,-0.449707
0.788211,-8.619805,4.421613,0.395699,-0.984212,0.098618,0.161133,0.661865,-0.333008,-3.661335,7.546652,5.997079,0.654317,-1.183682,-0.700462,0.22168,-0.473389,-0.206787,6.186195,-8.261669,-2.142131,-1.127928,0.690197,0.001797,-0.459961,0.331787,-0.026367,3.602021,-4.947877,-3.65301,-1.559095,-1.018199,0.143086,-0.44873,0.369141,0.215088,-1.719118,-7.960455,4.575014,0.30125,-0.702951,0.425649,0.311279,0.412842,-0.455811
0.723808,-8.758572,3.908994,0.412232,-1.187171,0.051118,0.14917,0.655029,-0.33374,-3.386909,7.533432,5.858932,0.662439,-1.14537,-0.839059,0.227295,-0.476562,-0.208984,6.459587,-8.37837,-2.220705,-0.314503,0.845823,-0.149356,-0.459961,0.332764,-0.032227,3.422549,-8.790009,-5.458146,-1.037345,-1.234579,-0.154521,-0.445068,0.350098,0.242188,-1.689255,-7.045619,4.885774,0.345848,-0.936271,0.432295,0.304199,0.407715,-0.46167
0.871189,-8.444055,4.117565,0.344487,-1.398302,0.015857,0.139648,0.648438,-0.338867,-3.745607,7.883308,6.093852,0.598969,-1.068592,-0.861608,0.232666,-0.478027,-0.213135,7.430644,-7.100938,-1.75196,-0.044859,1.27062,0.000589,-0.459961,0.32959,-0.04834,3.43525,-6.780215,-5.057904,-0.07974,-1.236285,-0.319672,-0.442871,0.345459,0.262451,-0.918086,-7.127249,5.003309,-0.038693,-0.760859,0.394435,0.304199,0.398926,-0.466553
1.589072,-8.621235,4.119024,0.269785,-1.55843,-0.082608,0.111084,0.656006,-0.33667,-3.357047,7.711084,6.235504,0.337105,-1.096821,-0.913928,0.237061,-0.466064,-0.214111,5.731448,-6.967208,-1.540778,-0.380166,1.575774,0.120941,-0.46875,0.3396,-0.059814,3.528854,-6.385963,-5.251953,-0.573517,-1.639446,-0.252235,-0.431885,0.334473,0.280762,-1.646041,-7.567441,5.100031,0.065113,-0.649192,0.391014,0.288574,0.405762,-0.473145
2.02124,-8.473181,4.201685,0.382361,-1.656696,-0.0842,0.0896,0.656006,-0.332275,-3.079923,6.913999,6.187188,0.305161,-1.071571,-0.96361,0.239014,-0.468506,-0.216797,6.452815,-7.521053,-1.494608,-0.555759,1.386907,0.101824,-0.469971,0.347412,-0.06665,3.67261,-6.903673,-5.726647,-0.204207,-1.387912,-0.231443,-0.433105,0.336426,0.299072,-1.532789,-7.355026,5.266926,0.165119,-0.886153,0.297392,0.280273,0.402588,-0.475342
2.522512,-8.200152,4.530881,0.410343,-1.594584,-0.139618,0.072266,0.651611,-0.341797,-2.790725,6.753275,6.151793,0.530135,-1.046224,-0.89732,0.240234,-0.463623,-0.216309,6.174198,-7.684739,-1.495761,-0.568395,1.812313,0.190008,-0.465088,0.349121,-0.090088,2.999586,-5.665111,-5.1581,-0.350854,-1.595973,-0.154335,-0.427246,0.334229,0.322266,-1.862478,-7.305864,5.574578,0.189676,-0.787043,0.427121,0.273438,0.398682,-0.491211
2.317421,-8.5343,4.661248,0.3612,-1.533599,-0.1537,0.060791,0.649658,-0.334717,-3.030261,7.481946,6.32526,0.588569,-0.982604,-0.877826,0.248779,-0.462158,-0.222656,6.189432,-7.473883,-0.880531,-0.548358,1.473011,0.090943,-0.45752,0.354004,-0.093506,4.168244,-6.87302,-5.995453,-0.928421,-1.452811,0.218368,-0.411133,0.327393,0.34082,-2.847709,-7.047308,5.784419,0.345426,-1.062091,0.352659,0.268555,0.394775,-0.493164
3.164629,-8.499577,4.769113,0.351193,-1.48961,-0.143167,0.048096,0.639648,-0.324951,-2.581408,7.766737,6.535516,0.18697,-1.062368,-0.772703,0.252197,-0.460693,-0.226807,6.715403,-7.823315,-1.170019,-0.454411,1.819356,0.352658,-0.446533,0.354004,-0.106934,3.581017,-7.546953,-6.147858,-0.314595,-1.277462,0.012114,-0.398926,0.328613,0.359863,-1.990432,-6.583683,5.981136,0.197387,-1.362115,0.254575,0.254639,0.384521,-0.498535
3.157013,-8.401201,4.716215,0.257649,-1.282406,-0.154059,0.020996,0.646484,-0.321289,-1.986515,6.783419,6.165971,0.016708,-0.832436,-0.760384,0.251709,-0.458984,-0.238525,5.270708,-7.603978,-1.139796,-0.040941,1.636069,0.155819,-0.451904,0.364258,-0.122559,4.65963,-6.318792,-6.147316,-0.164605,-1.071858,0.095279,-0.384521,0.319092,0.379883,-1.995501,-7.012039,6.161146,-0.10436,-1.344481,0.274021,0.226807,0.389893,-0.500244
2.926693,-8.783851,4.394911,0.132145,-1.228797,-0.142696,0.012939,0.635742,-0.325928,-3.015093,6.667123,6.395501,0.258738,-0.752234,-0.7712,0.262939,-0.442139,-0.244629,6.609802,-6.623023,-0.763603,0.024301,1.707175,0.320258,-0.438965,0.360596,-0.15332,2.596208,-7.172902,-5.647283,-0.325277,-0.462754,0.12235,-0.387695,0.323975,0.386475,-1.768972,-7.851543,5.924136,-0.027116,-1.650983,0.193788,0.214111,0.383057,-0.515625
2.278223,-9.215058,4.00253,0.314722,-1.147933,-0.21195,0.000977,0.639648,-0.325684,-2.204212,6.899042,6.492286,0.203469,-0.602569,-0.710351,0.266357,-0.451172,-0.238037,6.27445,-6.659167,0.079395,-0.361229,1.922379,0.140359,-0.432617,0.370361,-0.16748,0.868295,-7.268638,-5.332657,0.121151,-1.037496,-0.126934,-0.375,0.315186,0.385742,-1.067468,-7.841572,6.136382,0.279226,-1.590175,0.160403,0.19165,0.37915,-0.526367
2.748925,-8.648107,4.38651,0.390639,-1.246941,-0.266876,-0.016357,0.632568,-0.3125,-3.51031,6.918187,6.23236,0.313276,-0.24618,-0.607965,0.276855,-0.449951,-0.245361,6.432223,-7.290581,0.426699,-0.252584,1.860867,0.236053,-0.424072,0.372314,-0.17749,4.41977,-6.039815,-5.918869,-0.097632,-1.396197,-0.083922,-0.366455,0.315674,0.394531,-1.001374,-7.281882,6.408163,0.423556,-1.543668,0.148271,0.16748,0.370361,-0.521729
