# sampling frequency: 40
# units are seconds/meters/radians/a.u.
seg1_acc_x,seg1_acc_y,seg1_acc_z,seg1_gyr_x,seg1_gyr_y,seg1_gyr_z,seg1_mag_x,seg1_mag_y,seg1_mag_z,seg2_acc_x,seg2_acc_y,seg2_acc_z,seg2_gyr_x,seg2_gyr_y,seg2_gyr_z,seg2_mag_x,seg2_mag_y,seg2_mag_z,seg3_acc_x,seg3_acc_y,seg3_acc_z,seg3_gyr_x,seg3_gyr_y,seg3_gyr_z,seg3_mag_x,seg3_mag_y,seg3_mag_z,seg4_acc_x,seg4_acc_y,seg4_acc_z,seg4_gyr_x,seg4_gyr_y,seg4_gyr_z,seg4_mag_x,seg4_mag_y,seg4_mag_z,seg5_acc_x,seg5_acc_y,seg5_acc_z,seg5_gyr_x,seg5_gyr_y,seg5_gyr_z,seg5_mag_x,seg5_mag_y,seg5_mag_z
0.411409,-1.018821,9.852896,0.003665,0.016039,0.00072,-0.071777,0.401367,-0.568848,-0.239165,3.191557,9.276629,-0.002382,0.005124,0.004562,-0.661377,0.032715,-0.435303,-0.496324,3.810076,9.061551,-0.037323,0.006932,0.010096,-0.316895,0.514648,0.808105,-0.112912,3.672537,9.148981,-0.069974,-0.005782,0.003497,0.662354,-0.047363,-0.042236,-0.250086,3.19287,9.216407,-0.044615,0.003762,0.007167,0.361572,-0.210938,-0.561523
0.335511,-0.943134,9.753091,0.031458,0.012411,0.003223,-0.080322,0.39209,-0.571289,-0.262495,3.198227,9.243835,-0.004298,0.012685,0.009867,-0.666992,0.02417,-0.440186,-0.551223,3.73131,9.030084,0.011954,0.011568,-0.006061,-0.323975,0.522461,0.805664,-0.241038,3.572142,9.094243,0.014058,0.0435,0.014883,0.654785,-0.041504,-0.041992,-0.261207,3.165497,9.224187,0.035996,0.001278,-0.011407,0.355225,-0.203369,-0.561035
0.330824,-0.879067,9.710918,0.023055,-0.006079,0.002463,-0.067139,0.393066,-0.561768,-0.281504,3.21924,9.229404,-0.009527,0.003761,0.007948,-0.65625,0.026611,-0.428223,-0.544341,3.867895,9.058656,0.033601,0.001643,0.00032,-0.312256,0.52124,0.799805,-0.324451,3.755872,9.149834,0.057213,-0.016603,0.008749,0.669922,-0.043213,-0.052979,-0.277499,3.356049,9.265545,0.04247,-0.002719,-0.008175,0.366699,-0.21167,-0.566895
0.396513,-0.907114,9.839991,0.013781,-0.01345,0.002113,-0.074707,0.400879,-0.571777,-0.236391,3.21187,9.26607,-0.01948,0.003697,0.006835,-0.659668,0.034668,-0.436279,-0.531022,3.902658,9.059065,-0.023928,0.006031,-4.7e-05,-0.316895,0.52002,0.810791,-0.141588,3.84569,9.147057,-0.021118,-0.028383,0.008793,0.663574,-0.044922,-0.041504,-0.242848,3.329397,9.253599,-0.036494,-0.00946,0.003437,0.360596,-0.20752,-0.556885
0.406968,-0.871743,9.899159,0.004965,0.00931,0.002403,-0.068848,0.397705,-0.566895,-0.243991,3.15625,9.248823,-0.01608,0.007878,0.008591,-0.65625,0.032471,-0.438965,-0.526496,3.778265,9.041762,-0.03867,-0.00327,0.011498,-0.321045,0.523682,0.796631,-0.174574,3.662126,9.112503,-0.069129,0.037107,0.009572,0.658691,-0.040771,-0.054199,-0.240368,3.179443,9.218435,-0.034391,0.005846,-0.001256,0.355469,-0.203857,-0.570312
0.367722,-0.859649,9.777762,0.000474,0.016654,-0.002325,-0.072754,0.401855,-0.574951,-0.245202,3.20029,9.227404,0.008845,0.007046,0.00425,-0.660889,0.032471,-0.440918,-0.515659,3.757221,9.045528,0.018241,0.005827,-0.003988,-0.319092,0.521484,0.803467,-0.298537,3.59291,9.09989,0.014287,0.00572,0.010496,0.661133,-0.039062,-0.04541,-0.266775,3.192341,9.189749,0.036161,0.00093,-0.006076,0.359863,-0.204346,-0.561768
0.310524,-0.868705,9.717155,-0.029334,0.003791,-0.002717,-0.077393,0.39917,-0.571045,-0.286956,3.246696,9.276289,-0.013912,0.010413,0.008227,-0.663574,0.031738,-0.434082,-0.566617,3.88835,9.086575,0.023453,0.020527,-0.004541,-0.308105,0.523438,0.803955,-0.212206,3.769023,9.149287,0.048451,-0.020718,0.011429,0.669678,-0.038086,-0.046875,-0.254143,3.337376,9.310122,0.024642,-0.000947,-0.011408,0.36792,-0.203613,-0.564209
0.394854,-0.951226,9.753755,-0.037162,-0.014058,-0.007453,-0.085693,0.394531,-0.576172,-0.243758,3.138973,9.238117,-0.033523,-0.00566,0.00824,-0.672363,0.028564,-0.439209,-0.556807,3.859359,9.05867,-0.024328,-0.016456,0.00974,-0.318604,0.527832,0.800537,-0.192419,3.806407,9.114402,-0.018658,0.00826,0.009949,0.65918,-0.03833,-0.049316,-0.265156,3.277201,9.197235,-0.025931,-0.006442,0.006762,0.36084,-0.200684,-0.563477
0.381225,-0.994681,9.882671,0.000971,0.002426,0.000993,-0.070557,0.392822,-0.567383,-0.216425,3.237849,9.259634,0.027395,0.016784,0.003061,-0.658691,0.025391,-0.43335,-0.47775,3.826031,9.040272,-0.010634,0.009846,-0.0018,-0.319336,0.522705,0.799805,-0.219665,3.710188,9.124468,-0.044842,0.005576,0.007685,0.662354,-0.041748,-0.048584,-0.227651,3.249635,9.242872,-0.009878,-0.004531,-0.00796,0.358643,-0.207275,-0.565186
0.382328,-0.951014,9.780124,0.017318,0.012812,0.002521,-0.075439,0.395264,-0.572021,-0.314626,3.176032,9.293958,-0.057991,0.003196,0.014115,-0.661133,0.027832,-0.435059,-0.589642,3.741312,9.092745,-0.029013,0.015942,0.001571,-0.319092,0.514404,0.804688,-0.227941,3.586648,9.117998,-0.027736,0.007819,0.008115,0.659668,-0.051758,-0.045654,-0.250425,3.172763,9.256768,-0.010806,0.009545,0.002535,0.358398,-0.216064,-0.560547
0.344491,-0.887438,9.705084,0.019079,0.003123,0.001145,-0.079834,0.398926,-0.56958,-0.184634,3.13258,9.194481,0.028717,0.00055,-0.001101,-0.665039,0.030029,-0.436035,-0.49547,3.834207,9.02867,0.055197,-0.019062,0.003404,-0.312012,0.5271,0.806641,-0.237681,3.698285,9.107198,0.072325,-0.010546,0.012473,0.667236,-0.037354,-0.045654,-0.288404,3.272805,9.194108,0.052961,-0.010779,-0.010658,0.365967,-0.203857,-0.560547
0.368392,-0.899215,9.824977,0.011818,-0.01125,0.001451,-0.072266,0.39502,-0.571045,-0.333225,3.314974,9.302346,-0.009194,0.022256,0.013766,-0.656494,0.029785,-0.438965,-0.527024,3.947217,9.087742,-0.023567,0.040975,-0.011961,-0.322754,0.521973,0.805664,-0.218614,3.850478,9.192478,-0.012391,0.009478,0.011946,0.657959,-0.041992,-0.047119,-0.197908,3.345823,9.294408,-0.023076,-0.00046,0.000938,0.353271,-0.208008,-0.563232
0.414138,-0.906912,9.839211,0.004982,0.002253,0.001089,-0.073486,0.393066,-0.571777,-0.21547,3.146743,9.219,-0.041365,-0.021699,0.003157,-0.661865,0.030029,-0.43457,-0.602379,3.776767,9.022152,-0.02702,-0.031088,0.024544,-0.31958,0.518311,0.802002,-0.246589,3.674122,9.087361,-0.056351,-0.00054,0.004594,0.659668,-0.045654,-0.049316,-0.308124,3.202994,9.191727,-0.014956,0.005236,-0.000501,0.359131,-0.208252,-0.564941
0.380505,-0.868591,9.832034,0.004046,0.008854,-0.00113,-0.069092,0.397217,-0.574707,-0.215337,3.168715,9.251294,0.009961,0.03508,0.010656,-0.657471,0.03125,-0.442139,-0.383646,3.830086,9.046344,0.004112,0.007394,-0.012036,-0.318604,0.515381,0.799316,-0.180425,3.644062,9.108775,-0.004378,-0.006937,0.011562,0.65918,-0.05249,-0.051758,-0.210069,3.256516,9.210651,0.008813,-0.021973,-0.006892,0.359619,-0.214111,-0.568848
0.332391,-0.879326,9.768646,-0.019969,0.008633,-0.001068,-0.073242,0.395996,-0.577637,-0.340577,3.207231,9.251567,-0.011753,-0.009339,0.004707,-0.660156,0.031982,-0.44165,-0.648131,3.780152,9.059345,-0.003988,0.038622,0.004797,-0.319092,0.511963,0.808105,-0.239993,3.684478,9.107062,0.026601,0.023541,0.008214,0.661133,-0.051025,-0.038818,-0.227066,3.232704,9.253816,-0.001052,0.026402,0.001322,0.359863,-0.216064,-0.557861
0.36763,-0.920412,9.751889,-0.018898,-0.004612,-0.005915,-0.079834,0.394531,-0.569336,-0.134185,3.218122,9.243645,-0.001621,0.007516,0.007541,-0.666504,0.026855,-0.437744,-0.520746,3.886249,9.027458,0.027678,-0.045031,-0.002553,-0.317871,0.513428,0.805664,-0.262014,3.789548,9.10012,0.022166,-0.014188,0.013608,0.662354,-0.048828,-0.043701,-0.353142,3.28031,9.23523,0.03429,-0.014404,-0.013102,0.360107,-0.215088,-0.560547
0.369364,-0.970947,9.838561,-0.016526,-0.002132,0.000705,-0.078857,0.393555,-0.567383,-0.332505,3.198343,9.280605,-0.029277,0.018885,0.010635,-0.664551,0.026611,-0.431885,-0.456706,3.881678,9.07105,-0.044482,0.044055,0.004271,-0.321533,0.516602,0.810791,-0.181213,3.763154,9.179269,-0.05714,-0.007679,0.005264,0.658203,-0.048828,-0.04248,-0.167071,3.308221,9.242935,-0.0373,-0.018859,0.007892,0.354004,-0.212402,-0.557617
0.39931,-0.974023,9.834741,0.011288,0.007141,-0.001523,-0.077148,0.393799,-0.567627,-0.19631,3.125993,9.234749,-0.010869,-0.014242,0.004975,-0.663818,0.02832,-0.433105,-0.658728,3.705843,9.0099,-0.014784,-0.013854,0.003822,-0.316162,0.519043,0.805664,-0.212307,3.594967,9.040657,-0.025849,0.027947,0.009481,0.662842,-0.042969,-0.045654,-0.284309,3.144187,9.217582,-0.016904,0.03421,-0.005698,0.36377,-0.211426,-0.561279
0.344335,-0.92232,9.75272,0.020107,0.007179,0.003776,-0.084961,0.391602,-0.572266,-0.25739,3.230649,9.277213,0.020011,0.03158,0.008681,-0.669434,0.025146,-0.438721,-0.409181,3.875082,9.072416,0.042971,-0.010147,-0.001826,-0.317139,0.520264,0.80542,-0.269125,3.702491,9.158961,0.05315,-0.01087,0.014422,0.660645,-0.043701,-0.044922,-0.299718,3.259865,9.248531,0.047217,-0.026944,-0.008095,0.36084,-0.20874,-0.559814
0.369348,-0.887553,9.761832,0.00685,-0.003841,-0.001189,-0.072021,0.396484,-0.572998,-0.303854,3.222372,9.25095,-0.03717,-0.011701,0.005899,-0.660645,0.029053,-0.438965,-0.598566,3.864952,9.051705,-0.024105,0.049621,-0.00414,-0.320312,0.520996,0.801025,-0.170361,3.797711,9.152645,-0.007027,-0.007544,0.005341,0.659424,-0.044434,-0.054199,-0.176298,3.304862,9.251792,-0.011791,-0.001126,0.000559,0.356445,-0.208008,-0.567139
0.390465,-0.908601,9.816487,0.006745,-0.001015,0.001362,-0.073486,0.392578,-0.574463,-0.179459,3.155535,9.234675,-0.003873,0.0125,0.007053,-0.663574,0.021973,-0.438965,-0.561418,3.8211,9.043815,-0.002231,-0.04488,0.013066,-0.322021,0.51709,0.806396,-0.217951,3.737081,9.115222,-0.030987,0.016025,0.012454,0.656738,-0.047852,-0.039062,-0.329605,3.241644,9.249072,-0.005252,0.020995,-0.004816,0.356201,-0.211426,-0.55835
0.390147,-0.890015,9.829265,3.5e-05,0.002262,0.00131,-0.07373,0.393555,-0.570557,-0.321497,3.207745,9.264051,-0.001411,0.009415,0.008111,-0.662842,0.028564,-0.434814,-0.430359,3.829361,9.06324,-0.016996,0.026842,-0.003629,-0.31665,0.524658,0.80249,-0.255729,3.670157,9.121259,-0.01664,0.001431,0.006938,0.66333,-0.039795,-0.045898,-0.249579,3.233176,9.220657,-0.011991,-0.035622,0.000415,0.361572,-0.204834,-0.56543
0.360387,-0.888666,9.772806,-0.009553,0.007286,-0.002944,-0.068604,0.39209,-0.566895,-0.193517,3.203342,9.243605,-0.017931,-0.003211,0.005239,-0.654541,0.024414,-0.429443,-0.642614,3.773718,9.055156,0.002416,0.014852,-0.000781,-0.31665,0.522217,0.802734,-0.201425,3.683775,9.103085,0.015639,-0.00547,0.00954,0.663574,-0.042725,-0.047607,-0.20834,3.220936,9.233155,0.011278,0.024026,-0.004465,0.362305,-0.208252,-0.562744
0.368848,-0.917722,9.764967,-0.010154,0.000855,-0.000935,-0.071045,0.388672,-0.576904,-0.279882,3.194387,9.252716,-0.005532,0.019791,0.010201,-0.658691,0.023682,-0.441406,-0.474539,3.878398,9.066457,0.019114,-0.027436,0.002944,-0.311279,0.518555,0.80249,-0.192807,3.755761,9.12322,0.019651,0.008612,0.012312,0.666504,-0.045898,-0.046875,-0.351285,3.284017,9.2484,0.021675,0.001256,-0.007293,0.365234,-0.212891,-0.5625
0.376116,-0.941561,9.809266,-0.012477,-0.003233,-0.002726,-0.073242,0.397217,-0.562256,-0.262481,3.203192,9.255773,-0.018575,-0.005732,0.005152,-0.663086,0.030762,-0.429199,-0.533514,3.845339,9.044642,-0.033013,0.036715,-0.000597,-0.324707,0.517822,0.808105,-0.233329,3.753382,9.153705,-0.035184,0.00455,0.006366,0.658447,-0.046387,-0.042725,-0.19818,3.288803,9.243874,-0.022562,-0.025008,0.003769,0.354736,-0.212158,-0.558594
0.394178,-0.954519,9.811334,0.005656,0.003255,-0.000598,-0.084717,0.391846,-0.574219,-0.216839,3.1832,9.266,-0.007112,0.012399,0.008615,-0.672607,0.026611,-0.44165,-0.603062,3.784955,9.032167,-0.005769,-0.017514,0.005857,-0.316162,0.521729,0.808594,-0.212449,3.65377,9.097908,-0.021941,-0.005052,0.010248,0.663574,-0.040771,-0.044678,-0.254206,3.22142,9.20974,-0.006428,0.024329,-0.005455,0.359863,-0.20752,-0.558594
0.373984,-0.929136,9.793545,0.009918,0.005773,0.001533,-0.070557,0.392822,-0.567139,-0.294646,3.192493,9.28472,-0.009502,0.004784,0.00681,-0.658447,0.026611,-0.43335,-0.445838,3.840127,9.075706,0.008198,0.003828,-0.002034,-0.307617,0.512939,0.806396,-0.209191,3.677993,9.124839,0.016386,0.009049,0.010122,0.669678,-0.052246,-0.04248,-0.292984,3.237669,9.253067,0.008657,-0.01359,-0.002986,0.36792,-0.216064,-0.561523
0.358295,-0.89654,9.780636,0.005241,0.00176,-0.001715,-0.069336,0.398926,-0.57251,-0.209416,3.183506,9.251006,-0.01355,0.004461,0.008151,-0.657959,0.031982,-0.438965,-0.598227,3.824848,9.062123,-0.000785,0.025687,-0.000837,-0.318359,0.527832,0.810059,-0.253067,3.735193,9.120904,0.013896,0.004291,0.0116,0.662842,-0.038086,-0.035889,-0.210627,3.274982,9.255828,0.015241,-0.002712,-0.003217,0.359131,-0.203613,-0.553223
0.389136,-0.903786,9.784898,0.001755,0.000261,0.00093,-0.074463,0.391357,-0.570312,-0.27087,3.201767,9.258574,-0.006816,0.01156,0.008446,-0.664551,0.023926,-0.435791,-0.533299,3.84724,9.068856,-0.006438,-0.019514,0.004351,-0.314697,0.52002,0.798584,-0.220015,3.752662,9.122359,-0.022708,-0.008753,0.009713,0.66333,-0.04248,-0.052734,-0.284421,3.298961,9.237206,-0.009029,0.00741,-0.004402,0.361572,-0.206543,-0.567139
0.374163,-0.926153,9.830307,-0.005786,0.000547,-0.001356,-0.068115,0.39917,-0.568359,-0.242539,3.183499,9.271218,-0.015176,0.001626,0.008523,-0.657471,0.030518,-0.433838,-0.487669,3.795206,9.044907,-0.018718,0.014546,0.003822,-0.313232,0.520508,0.802002,-0.194755,3.669138,9.126665,-0.026174,0.007002,0.007447,0.663086,-0.042969,-0.049805,-0.236085,3.210014,9.2317,-0.020253,-0.013883,0.004252,0.360352,-0.208984,-0.561523
0.371883,-0.910139,9.806438,-0.002427,0.005506,-0.001776,-0.078125,0.39209,-0.573242,-0.243537,3.18108,9.272022,-0.006132,0.012712,0.00817,-0.666748,0.026123,-0.441162,-0.565423,3.802829,9.053376,0.007725,0.006872,-0.004015,-0.319336,0.517822,0.798584,-0.247292,3.685832,9.108978,0.017619,0.006175,0.013153,0.659912,-0.046143,-0.049805,-0.256298,3.232323,9.243126,0.021652,0.008521,-0.008783,0.361572,-0.212646,-0.564941
0.35258,-0.910738,9.783617,-0.002897,0.002039,-0.000349,-0.07373,0.389404,-0.574951,-0.266911,3.198034,9.230756,-0.007461,0.002671,0.00516,-0.661865,0.024902,-0.441162,-0.510317,3.859599,9.07368,0.005967,-0.002316,0.004561,-0.320801,0.518799,0.812744,-0.23135,3.739748,9.141256,0.01023,-0.00747,0.010457,0.658447,-0.046631,-0.040283,-0.27494,3.303913,9.227789,0.009269,-0.005993,-0.002412,0.358154,-0.212158,-0.555908
0.387847,-0.930018,9.779946,-0.002713,0.000207,-0.000938,-0.068848,0.392334,-0.570801,-0.243792,3.198687,9.234279,-0.015042,0.005478,0.007436,-0.657471,0.027832,-0.437012,-0.545542,3.822104,9.065085,-0.017489,0.011919,6.7e-05,-0.314453,0.519043,0.798584,-0.190269,3.73904,9.112045,-0.022205,0.005385,0.009556,0.665771,-0.044922,-0.051758,-0.238836,3.260746,9.241101,-0.013837,-0.001016,-0.000226,0.364014,-0.209961,-0.567871
0.379787,-0.920345,9.811415,0.002888,0.001491,0.001008,-0.075684,0.398438,-0.568604,-0.258714,3.188594,9.259961,-0.00997,0.007926,0.006874,-0.66333,0.030518,-0.436523,-0.537852,3.827591,9.054012,-0.006154,-0.002509,0.004832,-0.314697,0.517334,0.801514,-0.22876,3.689281,9.142043,-0.017444,0.007002,0.010829,0.660889,-0.046631,-0.04834,-0.267537,3.243981,9.227252,-0.003906,0.001851,-0.002777,0.36084,-0.212646,-0.566895
0.370574,-0.933875,9.801716,0.005297,0.003389,-7.8e-05,-0.077637,0.390625,-0.563232,-0.247372,3.182402,9.266456,-0.011429,0.002792,0.007364,-0.662842,0.022461,-0.428223,-0.519524,3.802855,9.027679,-0.00156,0.005516,0.001094,-0.310059,0.522217,0.80542,-0.227187,3.671395,9.118337,0.001777,-0.003131,0.007963,0.669678,-0.039795,-0.043945,-0.245072,3.224497,9.229315,-0.000287,-0.00562,-0.002271,0.368408,-0.206299,-0.562988
0.368413,-0.903616,9.798694,0.004198,0.004421,0.001154,-0.073486,0.399902,-0.568848,-0.244585,3.204888,9.241276,-0.000812,0.010118,0.006996,-0.660889,0.030029,-0.435303,-0.54203,3.851272,9.052431,0.008395,0.008871,-0.002507,-0.316162,0.517578,0.80127,-0.205352,3.732441,9.110786,0.018209,-0.000855,0.011991,0.665039,-0.047363,-0.049072,-0.263326,3.274018,9.255083,0.021866,0.006161,-0.006333,0.362061,-0.211426,-0.565674
0.350066,-0.909459,9.783826,-0.005982,-0.000518,-0.001752,-0.077148,0.400635,-0.56665,-0.271804,3.198864,9.261152,-0.021473,0.005512,0.006987,-0.662109,0.035156,-0.433594,-0.54345,3.850512,9.05267,-0.0152,0.004275,0.003927,-0.317871,0.517822,0.804688,-0.232047,3.744679,9.152191,-0.019803,0.010131,0.010354,0.659424,-0.045654,-0.044678,-0.256252,3.276119,9.23218,-0.01635,-0.004867,9.4e-05,0.358643,-0.210693,-0.560547
0.395153,-0.925642,9.805837,-0.000402,0.0014,-0.000132,-0.077637,0.395264,-0.563232,-0.222743,3.155746,9.23194,-0.004707,0.001923,0.007642,-0.664307,0.028809,-0.430908,-0.521331,3.81378,9.045845,-0.005777,-0.004189,0.005144,-0.314453,0.516602,0.798584,-0.219548,3.680872,9.108009,-0.016198,-0.006535,0.007586,0.665771,-0.046387,-0.05249,-0.255158,3.220103,9.19576,-0.001651,-0.005543,-0.002795,0.363525,-0.211914,-0.568115
0.369386,-0.927218,9.830387,0.00095,0.003062,0.000666,-0.070312,0.39624,-0.571045,-0.257498,3.216694,9.277756,-0.005111,0.011654,0.007359,-0.659424,0.03125,-0.436035,-0.520146,3.845946,9.053904,-0.000162,0.01294,-0.005178,-0.318359,0.512207,0.800049,-0.208036,3.702599,9.128929,0.003248,0.001297,0.011601,0.662109,-0.049805,-0.048828,-0.254392,3.258664,9.215016,0.008289,0.00077,-0.006989,0.361816,-0.21582,-0.564453
0.393762,-0.925796,9.805878,-0.002721,0.003738,-0.00028,-0.073975,0.398926,-0.575928,-0.270423,3.170412,9.259283,-0.023367,-0.000239,0.00795,-0.660156,0.034912,-0.442871,-0.563625,3.814263,9.074398,-0.004996,0.000769,0.007114,-0.313477,0.520264,0.803467,-0.238626,3.719388,9.12049,0.001935,0.010565,0.009372,0.667969,-0.043701,-0.044434,-0.254827,3.257135,9.243882,-0.000141,-0.001991,-0.000592,0.366699,-0.207275,-0.563477
0.365963,-0.922809,9.785956,0.000295,0.001769,-0.001497,-0.074219,0.397705,-0.560303,-0.233596,3.178199,9.238161,-4.4e-05,0.011707,0.007591,-0.663086,0.031738,-0.431396,-0.501031,3.850888,9.048766,0.002578,-0.000191,-0.001316,-0.320312,0.520508,0.806885,-0.232299,3.73372,9.138589,-0.004194,-0.004979,0.01015,0.65918,-0.045898,-0.04248,-0.267647,3.262764,9.244,0.005008,-0.00049,-0.006066,0.357422,-0.211426,-0.559814
0.374866,-0.931717,9.791021,-0.000402,0.001401,-0.000132,-0.070557,0.399658,-0.570312,-0.277292,3.221518,9.274067,-0.01203,0.004475,0.007725,-0.659668,0.031494,-0.437256,-0.551758,3.830018,9.072143,-0.013511,0.013491,0.002033,-0.312988,0.523438,0.808105,-0.215576,3.711852,9.102393,-0.018229,0.001885,0.008461,0.668213,-0.039551,-0.038818,-0.245375,3.261956,9.23451,-0.008159,-0.005162,-0.000572,0.36499,-0.203369,-0.555664
0.369948,-0.921273,9.798826,-8.5e-05,0.002536,-0.001303,-0.074219,0.397949,-0.571045,-0.216259,3.174276,9.250644,-0.016974,0.003493,0.007991,-0.659424,0.033447,-0.435547,-0.541177,3.812416,9.062324,-0.004314,-0.008341,0.002376,-0.313965,0.51709,0.800293,-0.224273,3.676509,9.116892,-0.004158,0.007266,0.012024,0.668213,-0.047852,-0.051025,-0.245689,3.241609,9.203879,-0.000959,-0.002137,-0.004174,0.36377,-0.212402,-0.567871
0.37882,-0.929946,9.803915,0.001972,0.000692,0.001652,-0.071289,0.399658,-0.574463,-0.274878,3.182329,9.245103,-0.002982,0.013159,0.008184,-0.658447,0.03418,-0.439941,-0.508983,3.82208,9.036789,0.00345,0.012737,-0.000916,-0.323242,0.514404,0.803955,-0.232984,3.723592,9.124634,0.010493,-0.000663,0.009698,0.65625,-0.048584,-0.045654,-0.264999,3.249372,9.239848,0.009752,0.004696,-0.002991,0.354492,-0.213135,-0.561768
0.363959,-0.903901,9.798834,0.006093,0.004119,0.000845,-0.083496,0.391846,-0.566162,-0.267578,3.208976,9.246943,-0.009914,0.00041,0.007716,-0.668457,0.027344,-0.433105,-0.585487,3.84415,9.062028,-0.003854,0.005392,0.001056,-0.314209,0.517334,0.800781,-0.218973,3.737151,9.135991,-0.005239,0.002196,0.010302,0.663086,-0.044678,-0.050049,-0.273469,3.286669,9.238878,0.005086,-0.004845,-0.004205,0.36084,-0.210205,-0.566895
0.375961,-0.911875,9.780261,-0.005348,0.001409,8.3e-05,-0.077148,0.396973,-0.568115,-0.229155,3.184133,9.252018,-0.016875,0.008719,0.007287,-0.665283,0.030029,-0.431152,-0.513198,3.840769,9.049439,-0.012603,-0.006806,0.005281,-0.309326,0.526123,0.803467,-0.219228,3.715442,9.126154,-0.020399,0.000537,0.00809,0.67041,-0.03833,-0.048828,-0.235229,3.248578,9.236541,-0.014575,-0.005526,-0.001943,0.368408,-0.202393,-0.56543
0.382544,-0.934176,9.824742,-0.004629,0.001144,-0.000955,-0.075195,0.396484,-0.565674,-0.278259,3.198504,9.265295,-0.005687,0.004,0.007321,-0.660889,0.030029,-0.431641,-0.531901,3.809167,9.057156,-0.00626,0.015638,-0.000136,-0.320068,0.513916,0.806152,-0.224322,3.66951,9.132073,-0.00511,0.003647,0.009839,0.662598,-0.05249,-0.046143,-0.247211,3.217452,9.231236,0.001242,0.004821,-0.003352,0.360352,-0.215576,-0.561279
0.380051,-0.917294,9.800964,0.003535,0.006659,-0.00035,-0.075684,0.390381,-0.574951,-0.246078,3.205107,9.252026,-0.006782,0.007009,0.006504,-0.659424,0.026367,-0.439453,-0.539997,3.837293,9.063487,0.008341,0.001776,0.00048,-0.317627,0.520752,0.802734,-0.238327,3.72105,9.132788,0.012536,0.003631,0.012061,0.661133,-0.041016,-0.049072,-0.29074,3.260603,9.240093,0.016831,-0.003164,-0.006786,0.360352,-0.204834,-0.562988
0.351833,-0.913843,9.781088,-0.002079,0.002135,0.000898,-0.072998,0.394531,-0.574463,-0.277169,3.184257,9.253538,-0.014923,0.006956,0.007161,-0.662109,0.028564,-0.437988,-0.507694,3.843898,9.051367,-0.0081,0.000695,0.003062,-0.312988,0.51709,0.805664,-0.228473,3.757396,9.148339,-0.010332,-0.004694,0.007665,0.667725,-0.047852,-0.045166,-0.228753,3.284171,9.248548,-0.00466,-0.007905,-0.000127,0.365967,-0.211426,-0.562012
0.382836,-0.92239,9.785258,-0.001591,-0.001459,-0.001846,-0.073975,0.394043,-0.568604,-0.251507,3.174711,9.243988,-0.005259,0.004621,0.00685,-0.659668,0.029785,-0.435303,-0.54929,3.833462,9.04955,-0.011045,0.010345,0.000257,-0.322266,0.51709,0.794922,-0.197235,3.703063,9.122339,-0.017783,0.00472,0.009171,0.656494,-0.048828,-0.055664,-0.234971,3.251233,9.207271,-0.00976,0.009449,-0.001778,0.35791,-0.212891,-0.572754
0.370961,-0.925653,9.81974,0.001648,0.003431,-0.000698,-0.078857,0.400391,-0.572021,-0.263206,3.201619,9.270355,-0.01395,0.008059,0.009104,-0.665039,0.036865,-0.437744,-0.532303,3.801726,9.050279,-0.001884,-0.00093,0.001678,-0.316895,0.518066,0.795898,-0.244933,3.698586,9.130335,-0.00384,0.00674,0.010012,0.663086,-0.049316,-0.05249,-0.27379,3.247137,9.219987,0.003083,-0.00527,-0.002977,0.362061,-0.209473,-0.565186
0.389841,-0.919337,9.774552,0.00324,0.00489,0.001147,-0.075195,0.397705,-0.573975,-0.219604,3.167142,9.240546,-0.009275,0.002934,0.007817,-0.660889,0.028809,-0.439453,-0.514624,3.828035,9.056854,0.001808,0.002839,0.001815,-0.308105,0.518066,0.799561,-0.214385,3.711326,9.115597,0.006871,-0.007533,0.009163,0.673096,-0.04541,-0.053955,-0.243694,3.265859,9.204835,0.010355,-0.008405,-0.001992,0.369385,-0.208252,-0.568115
0.359219,-0.910143,9.80691,-0.000444,0.002669,-0.000784,-0.06958,0.39502,-0.573486,-0.27874,3.188005,9.261379,-0.008399,0.012929,0.009318,-0.657471,0.028564,-0.441406,-0.547545,3.83698,9.073162,-0.00995,0.011872,-0.000268,-0.323486,0.519775,0.80542,-0.186681,3.736661,9.139032,-0.01072,0.004743,0.008817,0.657227,-0.047119,-0.049561,-0.248422,3.270872,9.254144,-0.00903,0.010676,-0.002228,0.355713,-0.205811,-0.564209
0.38081,-0.927575,9.793337,-0.003432,0.000473,9.9e-05,-0.066406,0.400635,-0.569336,-0.263087,3.184625,9.259514,-0.009227,0.000776,0.005044,-0.654053,0.032715,-0.437012,-0.548946,3.825749,9.042836,-0.00124,-0.00326,0.004386,-0.312744,0.518555,0.804932,-0.241986,3.699169,9.117822,-0.008598,0.012035,0.008616,0.668213,-0.041992,-0.046875,-0.303171,3.246649,9.252097,-0.000145,-0.003629,-0.001678,0.364502,-0.20752,-0.562744
0.371185,-0.919401,9.788224,-0.002558,0.002541,-0.001196,-0.078369,0.396973,-0.56958,-0.244634,3.182624,9.271376,-0.014128,0.007971,0.00978,-0.66626,0.030762,-0.436768,-0.504097,3.842222,9.055234,-0.006745,0.006917,-0.000855,-0.312744,0.514893,0.803223,-0.248143,3.702375,9.154022,-0.005801,-0.011459,0.01179,0.666016,-0.046631,-0.046143,-0.240617,3.271684,9.231715,0.003709,-0.009848,-0.004174,0.365723,-0.212646,-0.561523
0.380574,-0.934329,9.801198,-0.000381,0.000767,0.000193,-0.076416,0.392334,-0.563965,-0.264271,3.179592,9.26121,-0.00688,0.00418,0.006433,-0.659668,0.023438,-0.429443,-0.562466,3.826117,9.03686,-0.003645,0.006988,0.003198,-0.317383,0.524414,0.802734,-0.187594,3.707491,9.114128,-0.000865,5.2e-05,0.008118,0.663818,-0.039795,-0.047607,-0.225664,3.253895,9.226994,-0.001754,0.009178,-0.000157,0.362061,-0.205566,-0.563721
0.37166,-0.918546,9.824774,0.004122,0.003427,-0.000805,-0.072266,0.396729,-0.569824,-0.251596,3.197498,9.263718,-0.009306,0.006698,0.007415,-0.659424,0.030273,-0.440186,-0.538545,3.834065,9.067858,-0.00046,-0.000403,0.000628,-0.320557,0.518555,0.809326,-0.231767,3.713791,9.123564,-0.002171,0.01608,0.011993,0.660156,-0.049316,-0.039062,-0.296017,3.246298,9.258402,0.001866,0.000242,-0.00455,0.357422,-0.211426,-0.556641
0.363834,-0.909022,9.759624,0.000176,0.001699,6.9e-05,-0.072754,0.387695,-0.575684,-0.259612,3.190494,9.259286,-0.01288,0.008027,0.007126,-0.661865,0.023193,-0.441895,-0.535259,3.832536,9.046625,-0.005162,0.007829,0.00258,-0.317871,0.515869,0.804199,-0.244101,3.71848,9.123507,-0.009635,-0.00836,0.009214,0.662842,-0.050049,-0.045898,-0.253918,3.277304,9.231824,0.001205,-0.010423,-0.001683,0.360107,-0.212646,-0.563477
0.360725,-0.915467,9.791229,0.00036,-0.000133,-0.000519,-0.075928,0.400879,-0.569336,-0.243815,3.186767,9.257553,-0.00761,0.004399,0.007089,-0.661133,0.034668,-0.43335,-0.544649,3.823013,9.059251,-0.007071,0.00047,-0.00028,-0.318848,0.518311,0.802734,-0.163744,3.717651,9.107517,-0.009813,-0.003876,0.009109,0.662354,-0.046143,-0.048584,-0.23466,3.249056,9.236387,-0.005449,0.005385,-0.002651,0.360107,-0.209717,-0.565918
0.392357,-0.934817,9.81135,0.000449,0.00376,0.002426,-0.081055,0.39209,-0.563232,-0.254771,3.190653,9.265991,-0.009969,0.010333,0.006135,-0.665771,0.025635,-0.43042,-0.521462,3.817351,9.073056,-0.0005,0.004274,0.00235,-0.313232,0.521484,0.802002,-0.226563,3.702648,9.145659,0.003885,0.015903,0.01055,0.666504,-0.042969,-0.047852,-0.288055,3.247521,9.235834,0.004822,-0.000468,-0.003777,0.364258,-0.210938,-0.564941
0.376543,-0.915992,9.777616,0.000995,0.002138,-0.002862,-0.076416,0.394043,-0.571289,-0.257599,3.175267,9.261996,-0.012735,0.003336,0.008021,-0.664551,0.031982,-0.434326,-0.54305,3.81417,9.065173,-0.005332,0.009005,-0.001327,-0.318115,0.518799,0.804199,-0.247887,3.719847,9.117771,-0.006269,-0.004406,0.010667,0.662109,-0.044678,-0.046143,-0.24264,3.266664,9.247346,0.000939,-0.007686,-0.002339,0.359131,-0.209229,-0.562256
0.381302,-0.920307,9.798399,-0.003038,0.002603,0.000888,-0.084229,0.404053,-0.567383,-0.242185,3.193724,9.24281,-0.002324,0.00634,0.007893,-0.671875,0.037598,-0.434814,-0.525906,3.842976,9.058618,-0.000984,-0.000458,0.004176,-0.322998,0.522217,0.80127,-0.185104,3.733164,9.123058,-0.006896,-0.00713,0.008299,0.660645,-0.04126,-0.050049,-0.257,3.268959,9.234175,0.00274,0.005099,-0.003323,0.355957,-0.205811,-0.566406
0.368049,-0.924904,9.796312,-0.001612,-0.000825,-0.002172,-0.075684,0.393066,-0.563232,-0.269263,3.198816,9.253836,-0.017119,0.004449,0.00752,-0.661377,0.02832,-0.433105,-0.52771,3.825208,9.055194,-0.011203,0.008075,-0.001039,-0.319092,0.516602,0.802002,-0.221251,3.704648,9.120293,-0.009215,0.018576,0.010692,0.660645,-0.049316,-0.047363,-0.268447,3.2583,9.259471,-0.005738,-0.002042,-0.002194,0.360352,-0.213867,-0.562988
0.380955,-0.938822,9.785645,-8e-06,0.003532,0.000658,-0.08252,0.396484,-0.572021,-0.219249,3.180518,9.256078,-0.011578,0.00374,0.006899,-0.66748,0.031006,-0.436523,-0.536976,3.818893,9.054382,-0.001076,0.00091,0.002508,-0.319824,0.521484,0.800781,-0.24674,3.715699,9.119493,0.000529,-0.004803,0.009588,0.658936,-0.04248,-0.047607,-0.246836,3.23885,9.218739,0.007948,-0.006275,-0.004739,0.358154,-0.210205,-0.565918
0.387613,-0.912565,9.779679,0.003164,0.003896,-0.000813,-0.070068,0.389404,-0.564209,-0.258622,3.189905,9.261242,-0.004144,0.009571,0.007742,-0.656738,0.022949,-0.431641,-0.528179,3.839666,9.059889,-0.004072,0.005361,-0.000499,-0.318604,0.517822,0.80249,-0.195106,3.722848,9.128538,-0.006431,-0.007281,0.0093,0.661865,-0.044189,-0.045654,-0.24953,3.268914,9.240379,0.001186,0.001918,-0.003727,0.361816,-0.210205,-0.563721
0.374341,-0.921975,9.785626,-0.000782,0.002168,6e-05,-0.07373,0.392822,-0.577881,-0.257798,3.200944,9.266691,-0.011405,0.003833,0.006231,-0.661865,0.026611,-0.445557,-0.550669,3.819635,9.048231,-0.005796,0.006709,0.002483,-0.315674,0.525391,0.79834,-0.215877,3.710268,9.123861,-0.00639,0.017796,0.010518,0.665039,-0.037598,-0.051025,-0.259254,3.263981,9.249786,-0.003228,0.001809,-0.002514,0.361816,-0.204102,-0.566895
0.383202,-0.913443,9.80337,-0.001875,-0.000331,0.000634,-0.080811,0.403076,-0.569092,-0.25101,3.190275,9.24636,-0.013061,0.007943,0.007809,-0.668701,0.036621,-0.434082,-0.518569,3.825458,9.036503,-0.000907,-0.002366,0.00068,-0.324219,0.52124,0.804688,-0.26305,3.723272,9.113096,-0.000996,-0.0039,0.010217,0.656494,-0.042725,-0.048096,-0.251251,3.247348,9.238487,0.007039,-0.005678,-0.004727,0.356689,-0.205811,-0.562744
0.379265,-0.926543,9.806379,0.000536,0.001567,-0.00045,-0.07959,0.396729,-0.570557,-0.263604,3.180859,9.250098,-0.009017,0.005862,0.007249,-0.666992,0.030762,-0.437988,-0.52732,3.826,9.079883,-0.010172,0.009951,0.001359,-0.312256,0.518799,0.808594,-0.197819,3.710871,9.127615,-0.009847,-0.007791,0.008922,0.666992,-0.045166,-0.042725,-0.233333,3.273028,9.23742,-0.005052,-0.000444,-0.000846,0.366699,-0.209717,-0.559082
0.382265,-0.925564,9.782753,0.000515,0.002201,-0.000776,-0.06958,0.399414,-0.567627,-0.236021,3.184592,9.245294,-0.00655,0.005149,0.007509,-0.65625,0.033936,-0.434326,-0.564481,3.819091,9.042612,0.001231,-0.000527,0.001976,-0.313477,0.519775,0.811523,-0.199844,3.703764,9.112396,-0.001631,0.014994,0.010264,0.667236,-0.043945,-0.03833,-0.254769,3.23833,9.241066,0.001419,0.004634,-0.001831,0.364014,-0.209717,-0.553467
0.367891,-0.905988,9.785517,0.00095,0.003064,0.000666,-0.080322,0.398438,-0.562744,-0.261768,3.202246,9.261261,-0.014923,0.009371,0.006414,-0.665527,0.026855,-0.429688,-0.495743,3.837884,9.041427,-0.0026,0.005205,-0.000713,-0.312256,0.519531,0.801514,-0.24914,3.717591,9.143983,-0.002125,0.00136,0.00947,0.666992,-0.043457,-0.047363,-0.257411,3.268224,9.262765,0.006169,-0.008896,-0.004869,0.364746,-0.208008,-0.564209
0.381213,-0.925623,9.782789,-0.00295,0.00041,-0.001988,-0.070068,0.392822,-0.57373,-0.261566,3.176126,9.244301,-0.011464,0.002812,0.007391,-0.656738,0.025391,-0.438721,-0.558272,3.819106,9.05798,-0.011078,0.007586,0.00204,-0.321777,0.515137,0.806396,-0.207547,3.716415,9.114958,-0.011948,-0.008646,0.007637,0.656982,-0.048828,-0.041992,-0.230069,3.244094,9.215399,-0.008828,-5.1e-05,-0.001387,0.355713,-0.212891,-0.561279
0.373631,-0.939665,9.80945,0.000733,0.002632,-5.5e-05,-0.076172,0.397705,-0.563965,-0.251556,3.193443,9.268617,-0.005333,0.009753,0.006858,-0.6604,0.029541,-0.431396,-0.53824,3.823702,9.053119,0.000752,-0.003365,0.000618,-0.321289,0.521729,0.807129,-0.194552,3.709011,9.116115,-0.000649,0.011251,0.011186,0.65918,-0.04126,-0.043701,-0.291089,3.259248,9.226141,0.005508,0.002941,-0.00516,0.361816,-0.205811,-0.561768
0.381064,-0.919425,9.811379,-0.000443,0.00267,-0.000785,-0.07666,0.39502,-0.570557,-0.266151,3.171335,9.267404,-0.015982,0.005646,0.008808,-0.665283,0.029053,-0.436035,-0.522176,3.832808,9.056109,-0.007546,0.009077,0.00088,-0.314697,0.518066,0.806641,-0.248892,3.726927,9.140846,-0.00584,0.003884,0.009451,0.665039,-0.046143,-0.040771,-0.252426,3.263009,9.213533,-0.001885,-0.010066,-0.001962,0.363281,-0.213379,-0.557861
0.379045,-0.920206,9.774895,0.000134,0.002968,-0.000583,-0.072754,0.393311,-0.564941,-0.238801,3.184874,9.254374,-0.008092,0.00515,0.007957,-0.659424,0.0271,-0.432617,-0.548284,3.816836,9.05248,-0.002956,0.001874,0.001007,-0.316162,0.515869,0.80542,-0.21233,3.701729,9.127412,-0.006025,-0.008389,0.009838,0.663574,-0.045654,-0.045898,-0.246766,3.256274,9.235967,0.000463,0.005771,-0.003834,0.361816,-0.212646,-0.5625
0.370884,-0.928274,9.793652,0.000218,0.000431,0.000721,-0.074951,0.395264,-0.567627,-0.244683,3.191879,9.254409,-0.003907,0.007704,0.008734,-0.662109,0.029541,-0.437012,-0.522795,3.847595,9.060674,-0.001149,0.004712,0.002828,-0.320068,0.520264,0.798828,-0.195977,3.7164,9.126053,-0.001713,0.007609,0.011279,0.659668,-0.044678,-0.051025,-0.276649,3.258045,9.23893,0.00377,-0.001859,-0.004359,0.36084,-0.210693,-0.56665
0.379901,-0.937083,9.798737,0.000536,0.001567,-0.00045,-0.072266,0.393066,-0.571533,-0.245224,3.189544,9.2552,-0.016717,0.002692,0.007836,-0.658936,0.027832,-0.441895,-0.554703,3.806168,9.043672,-0.009508,0.007958,0.000315,-0.31665,0.52832,0.816162,-0.247046,3.720877,9.112974,-0.006249,0.005,0.008899,0.663086,-0.037109,-0.035645,-0.232525,3.273614,9.237233,-0.001924,-0.008058,0.000921,0.359863,-0.199219,-0.551758
0.365564,-0.917274,9.801517,0.002825,0.003396,3.2e-05,-0.075439,0.396729,-0.575439,-0.241024,3.178275,9.256585,-0.008963,0.010067,0.007736,-0.662354,0.031494,-0.438965,-0.534116,3.827079,9.042814,-0.001471,0.000158,0.000215,-0.319336,0.519287,0.800781,-0.200669,3.718535,9.119995,-0.006426,-0.00538,0.012469,0.657471,-0.046875,-0.050537,-0.257264,3.249281,9.231658,0.003876,0.007391,-0.005255,0.358154,-0.210693,-0.565674
0.369357,-0.927357,9.793796,0.000515,0.002201,-0.000776,-0.074219,0.394531,-0.574463,-0.271039,3.192571,9.245373,-0.007704,0.003965,0.006241,-0.661621,0.030518,-0.439453,-0.53108,3.822281,9.035036,-0.004799,0.007709,0.003477,-0.320801,0.519531,0.806641,-0.198699,3.704295,9.125173,-0.005308,0.007193,0.009261,0.658447,-0.04541,-0.043457,-0.28523,3.253695,9.248166,-0.004334,-0.005935,-0.001824,0.358154,-0.210449,-0.560059
0.377537,-0.91304,9.803627,-0.002276,0.00107,0.000501,-0.084473,0.395508,-0.568115,-0.233905,3.191751,9.268057,-0.008567,0.0059,0.008815,-0.670654,0.026367,-0.436523,-0.535988,3.822397,9.056748,-0.002133,0.002155,0.001265,-0.316895,0.520752,0.801758,-0.236184,3.721745,9.123701,-0.000976,0.002996,0.010103,0.661865,-0.043457,-0.048584,-0.242873,3.266246,9.233059,0.007635,-0.003162,-0.0036,0.360596,-0.206543,-0.563965
0.376914,-0.925742,9.782944,-0.002753,0.001476,-0.001594,-0.072021,0.396484,-0.568848,-0.267358,3.179806,9.247254,-0.014313,0.007115,0.008088,-0.658203,0.028076,-0.436279,-0.528449,3.826181,9.058547,-0.008121,0.005715,0.001037,-0.312256,0.519775,0.800293,-0.213644,3.715626,9.104985,-0.009816,-0.003849,0.009079,0.667969,-0.043213,-0.051514,-0.264102,3.25092,9.224909,-0.003823,0.000932,-0.002557,0.364258,-0.210205,-0.568359
0.386814,-0.94615,9.803881,0.001352,0.001663,0.000799,-0.080322,0.385742,-0.56958,-0.244507,3.180355,9.250925,-0.006976,0.003747,0.00559,-0.666992,0.021973,-0.439209,-0.53024,3.811828,9.041584,-0.002652,0.003995,0.001636,-0.321289,0.520752,0.805664,-0.218123,3.718509,9.098635,-0.003938,0.005303,0.010452,0.659424,-0.042725,-0.044678,-0.26252,3.253958,9.238305,0.002676,-0.002882,-0.003141,0.356689,-0.207764,-0.558594
0.367514,-0.940165,9.773148,0.000875,0.002069,-0.001295,-0.075684,0.394775,-0.573242,-0.255595,3.195216,9.250741,-0.009318,0.009884,0.009084,-0.658936,0.02832,-0.439209,-0.533669,3.831701,9.053827,-0.003045,0.003245,-0.000658,-0.317139,0.522217,0.809814,-0.234439,3.718265,9.125165,-0.003604,0.003696,0.011912,0.661865,-0.041748,-0.038574,-0.24431,3.261381,9.248656,0.001674,-0.003012,-0.004432,0.359375,-0.208252,-0.557617
0.372505,-0.926576,9.806635,-0.001733,-0.000896,-0.000606,-0.072021,0.39502,-0.565674,-0.265691,3.186554,9.23268,-0.01108,0.004811,0.007312,-0.659668,0.024414,-0.432617,-0.532023,3.810273,9.042135,-0.005147,0.006274,0.002017,-0.320557,0.524658,0.79834,-0.217181,3.719644,9.128577,-0.006791,-0.002693,0.007537,0.661133,-0.038818,-0.048096,-0.240422,3.254084,9.228472,-0.001409,0.002252,-0.001454,0.358643,-0.201416,-0.568604
0.380522,-0.924022,9.795855,0.002608,0.002965,-0.000689,-0.078613,0.392578,-0.567139,-0.248733,3.207742,9.26256,-0.009619,0.007549,0.007638,-0.664795,0.026123,-0.429688,-0.527371,3.83504,9.055747,-0.000894,0.003524,6.4e-05,-0.319336,0.518066,0.809326,-0.216669,3.71868,9.128982,-0.002097,0.005757,0.011002,0.661377,-0.044434,-0.042969,-0.275707,3.259978,9.238276,0.005816,-0.000163,-0.006303,0.359131,-0.212158,-0.560791
0.371024,-0.920357,9.798789,0.00095,0.003064,0.000666,-0.073975,0.399902,-0.571777,-0.258218,3.177339,9.261654,-0.011496,0.006586,0.007014,-0.659668,0.033447,-0.437256,-0.524767,3.826498,9.06159,-0.009691,0.005346,0.002765,-0.321289,0.520752,0.808838,-0.225894,3.713453,9.12008,-0.007802,0.001989,0.009345,0.660889,-0.046631,-0.041016,-0.251716,3.263085,9.241869,-0.003241,-0.006718,-0.000313,0.356201,-0.207275,-0.557373
0.374687,-0.913168,9.803725,-0.001598,0.002073,-0.00119,-0.072754,0.394775,-0.56665,-0.240831,3.197369,9.256284,-0.007034,0.005898,0.008384,-0.659912,0.029785,-0.435547,-0.553821,3.817663,9.052648,-0.003099,0.002032,0.001687,-0.317383,0.510254,0.806152,-0.201325,3.712765,9.117254,-0.006062,-0.002444,0.009266,0.663086,-0.052734,-0.044678,-0.24568,3.239919,9.246744,-0.001043,0.005492,-0.003865,0.363525,-0.217773,-0.55957
0.369526,-0.933068,9.778137,-0.002916,0.002674,-0.00068,-0.077881,0.39502,-0.567383,-0.272312,3.187879,9.248775,-0.012008,0.008706,0.008254,-0.66333,0.028564,-0.433838,-0.536924,3.840051,9.073034,-0.002365,0.003682,0.00028,-0.318115,0.52124,0.806152,-0.222214,3.716993,9.136788,-0.000857,0.004914,0.011007,0.663086,-0.044189,-0.047119,-0.284907,3.255368,9.247587,0.003952,-0.002044,-0.002837,0.361328,-0.208252,-0.561279
0.373846,-0.932131,9.790947,-0.002515,0.001273,-0.000547,-0.078125,0.394531,-0.570557,-0.249163,3.177388,9.261093,-0.010751,0.002603,0.006749,-0.664307,0.026123,-0.437988,-0.535076,3.818755,9.061291,-0.004772,0.004592,0.002326,-0.321045,0.520508,0.811035,-0.232313,3.7249,9.123202,-0.007652,0.000475,0.009163,0.660645,-0.041992,-0.039795,-0.242014,3.251896,9.214776,-5.8e-05,-0.006176,-0.002544,0.35791,-0.206787,-0.553955
0.377718,-0.924964,9.795875,0.001691,0.002165,-4.5e-05,-0.080566,0.39624,-0.567139,-0.255415,3.194537,9.252831,-0.007348,0.010505,0.008187,-0.665039,0.029541,-0.433594,-0.522337,3.838298,9.04558,-0.003649,0.002999,0.000649,-0.314697,0.512695,0.811523,-0.194233,3.705193,9.125563,-0.005948,-0.000524,0.010171,0.664307,-0.050781,-0.040039,-0.262642,3.255378,9.237801,-0.000315,0.00672,-0.004316,0.361084,-0.215332,-0.555664
0.380315,-0.905664,9.785018,0.004001,0.003359,0.000764,-0.073975,0.400146,-0.568848,-0.261101,3.18985,9.261731,-0.012116,0.0027,0.006522,-0.662109,0.03418,-0.437988,-0.536341,3.820138,9.048573,-0.004816,0.005277,0.001495,-0.322266,0.521484,0.802734,-0.23516,3.713615,9.121986,-0.005428,0.00575,0.009711,0.658203,-0.044434,-0.046631,-0.27745,3.257295,9.224749,0.001082,-0.005692,-0.001747,0.356445,-0.209473,-0.562744
0.358882,-0.917304,9.801761,0.000176,0.0017,6.9e-05,-0.070801,0.398438,-0.575439,-0.235308,3.18004,9.252339,-0.009446,0.007645,0.00698,-0.657471,0.033691,-0.443115,-0.525002,3.820215,9.042195,-0.001846,0.001842,-9.2e-05,-0.321777,0.515869,0.801514,-0.22857,3.723968,9.111366,-0.003495,-0.001745,0.011546,0.656982,-0.045654,-0.047852,-0.244013,3.26532,9.218927,0.003355,-0.004555,-0.003965,0.356689,-0.212646,-0.563232
0.375803,-0.923793,9.796059,-0.000463,0.003305,-0.001112,-0.082031,0.401367,-0.567871,-0.272999,3.201796,9.262559,-0.011084,0.007991,0.008962,-0.669189,0.039795,-0.436035,-0.517184,3.833842,9.074851,-0.008495,0.007403,0.000734,-0.316406,0.51709,0.80249,-0.207055,3.733725,9.117212,-0.008059,0.001595,0.00861,0.661377,-0.051025,-0.046143,-0.262452,3.255849,9.23764,-0.003955,0.005657,-0.002621,0.361572,-0.214111,-0.563232
0.375356,-0.911898,9.816708,-0.001163,0.002936,0.000252,-0.068604,0.397461,-0.572266,-0.249428,3.190052,9.23967,-0.010794,0.003976,0.007138,-0.654541,0.032471,-0.439209,-0.542834,3.821059,9.057779,-0.002812,0.001719,0.000329,-0.31665,0.516113,0.806885,-0.205759,3.719315,9.122418,-0.005036,0.005103,0.011622,0.665039,-0.048828,-0.044922,-0.271666,3.25321,9.217909,0.000902,-0.003868,-0.002184,0.364258,-0.213379,-0.559326
0.365075,-0.915352,9.790996,-0.000925,0.002733,0.0013,-0.071289,0.396729,-0.575195,-0.265011,3.191128,9.25638,-0.009603,0.00995,0.006887,-0.658936,0.03125,-0.443115,-0.515178,3.827741,9.06757,-0.003563,0.005087,-0.000283,-0.31958,0.518066,0.802979,-0.230888,3.714972,9.139597,-0.002287,-0.001513,0.00809,0.664062,-0.044922,-0.046143,-0.246025,3.259671,9.234788,0.002944,-0.003809,-0.005214,0.36084,-0.209473,-0.563232
0.360263,-0.922949,9.786062,-0.001815,0.001642,-0.001912,-0.075684,0.397461,-0.574463,-0.272778,3.173374,9.260398,-0.012533,0.004478,0.006228,-0.664795,0.032959,-0.441406,-0.560095,3.828695,9.046415,-0.009417,0.006595,0.001989,-0.312012,0.517822,0.800049,-0.200239,3.693827,9.119223,-0.011492,0.001566,0.009592,0.666748,-0.048096,-0.050537,-0.256719,3.251569,9.230867,-0.00464,0.00225,-0.001239,0.365967,-0.211182,-0.565186
0.381663,-0.922077,9.785289,0.002289,0.001829,0.000483,-0.081055,0.392578,-0.565674,-0.24345,3.178783,9.269289,-0.003878,0.009315,0.005594,-0.666504,0.023926,-0.429199,-0.516717,3.828792,9.054987,0.002512,0.000153,0.001608,-0.314941,0.521729,0.806641,-0.229947,3.709321,9.111555,0.001214,0.004338,0.010466,0.664795,-0.04248,-0.039795,-0.271409,3.251346,9.246923,0.00786,-0.003714,-0.003877,0.362549,-0.206787,-0.557373
0.369057,-0.936948,9.799164,0.001793,0.00287,-0.001938,-0.066895,0.400391,-0.574463,-0.278581,3.201361,9.257765,-0.014843,0.006073,0.007712,-0.654053,0.034424,-0.442871,-0.541469,3.829674,9.055117,-0.009187,0.008528,0.000378,-0.319336,0.518066,0.811035,-0.234665,3.715969,9.134048,-0.008699,0.001239,0.010786,0.657471,-0.045898,-0.039795,-0.254989,3.274315,9.232333,-0.001966,-0.004074,-0.002737,0.357178,-0.210938,-0.552734
0.376008,-0.91099,9.793171,-0.001142,0.002302,0.000578,-0.072266,0.392334,-0.566162,-0.228533,3.172358,9.26851,-0.009693,0.003353,0.00717,-0.655029,0.02832,-0.435791,-0.550475,3.823122,9.054377,-0.005436,-0.000862,0.003408,-0.316895,0.527588,0.811768,-0.206244,3.720497,9.10457,-0.007424,-0.000539,0.008062,0.666748,-0.038818,-0.03833,-0.243422,3.247228,9.230307,-0.00064,0.00311,-0.003703,0.362061,-0.204346,-0.555908
0.367569,-0.919131,9.811921,0.000951,0.003065,0.000666,-0.082031,0.396484,-0.575439,-0.268376,3.203584,9.256534,-0.0068,0.010193,0.008223,-0.667725,0.030273,-0.444824,-0.514139,3.834487,9.065693,-0.003101,0.005493,-0.000907,-0.320068,0.519531,0.808838,-0.217994,3.696925,9.126985,-0.001391,0.004578,0.010907,0.661621,-0.042969,-0.043457,-0.27835,3.252863,9.240214,0.003128,-0.003995,-0.003691,0.359863,-0.208984,-0.558838
0.370448,-0.918478,9.788276,-0.002535,0.001908,-0.000874,-0.075439,0.395752,-0.566895,-0.249514,3.178527,9.250316,-0.014771,0.003337,0.006942,-0.662842,0.029541,-0.43335,-0.559177,3.832668,9.057739,-0.005708,0.005344,0.004163,-0.319092,0.516846,0.809082,-0.230087,3.702179,9.126763,-0.006557,0.001158,0.009337,0.661133,-0.046143,-0.044434,-0.245588,3.258211,9.263664,-0.001143,-0.002121,-0.001883,0.360352,-0.210205,-0.560059
0.374394,-0.91145,9.79319,0.000557,0.000933,-0.000124,-0.072266,0.401611,-0.562744,-0.231734,3.187367,9.253701,-0.00629,0.008076,0.006983,-0.659912,0.035156,-0.431152,-0.531844,3.826172,9.050162,-0.001428,-0.000527,0.001047,-0.31958,0.524658,0.805664,-0.212672,3.703345,9.130248,-0.004972,-0.001763,0.009436,0.661621,-0.039307,-0.045166,-0.276126,3.258745,9.224277,0.001857,0.000247,-0.004553,0.36084,-0.204834,-0.562988
0.385093,-0.95503,9.80939,8.2e-05,0.00134,-0.002219,-0.078369,0.394775,-0.569336,-0.27562,3.183894,9.27531,-0.007046,0.005898,0.008405,-0.665283,0.030273,-0.435547,-0.53667,3.829468,9.058464,-0.005651,0.01002,-0.000774,-0.31543,0.521729,0.80835,-0.218573,3.719576,9.119164,-0.005901,0.006381,0.010064,0.66626,-0.042236,-0.038086,-0.265761,3.264108,9.257503,-0.002603,-0.002772,-0.00371,0.363525,-0.207275,-0.557129
0.368888,-0.91273,9.780388,0.001671,0.0028,-0.000371,-0.077881,0.397949,-0.563477,-0.230724,3.18429,9.23327,-0.01246,0.00492,0.007105,-0.665527,0.031494,-0.429932,-0.54151,3.832681,9.066799,-0.00222,6.7e-05,0.002199,-0.314697,0.516357,0.806152,-0.238032,3.726376,9.1254,-0.0032,0.000695,0.00926,0.666016,-0.046631,-0.049561,-0.270536,3.252248,9.246631,0.004128,-0.002057,-0.00513,0.362793,-0.213135,-0.5625
0.374158,-0.922293,9.809154,-0.000278,0.001472,-0.0017,-0.078613,0.392822,-0.56958,-0.256108,3.190895,9.25786,-0.010873,0.009894,0.009571,-0.665771,0.02832,-0.437012,-0.513867,3.829464,9.045819,-0.004915,0.00475,0.003011,-0.314453,0.51709,0.810303,-0.213025,3.725917,9.122474,-0.007834,-0.004889,0.00942,0.662842,-0.044434,-0.04126,-0.257756,3.26598,9.234697,-0.001966,-0.004074,-0.002737,0.363525,-0.211914,-0.55835
0.373248,-0.916864,9.801212,-0.001834,0.002277,-0.002239,-0.07373,0.394043,-0.574707,-0.259108,3.186804,9.245085,-0.008889,0.003571,0.007391,-0.659668,0.030273,-0.440918,-0.536645,3.80597,9.047517,-0.007353,0.008247,0.001053,-0.31665,0.518799,0.808594,-0.217872,3.697113,9.109555,-0.006108,0.009911,0.009514,0.66333,-0.043945,-0.041748,-0.245944,3.238763,9.232723,-0.001868,0.00173,-0.00199,0.362793,-0.211182,-0.559082
0.372708,-0.934797,9.78852,0.000332,0.004036,-0.000189,-0.075439,0.4021,-0.568115,-0.252919,3.18908,9.251159,-0.009554,0.007993,0.008544,-0.665283,0.038574,-0.435547,-0.535231,3.838193,9.055783,0.002337,-0.000566,0.000876,-0.312988,0.522217,0.80249,-0.250007,3.713359,9.144214,-8.5e-05,0.001721,0.011638,0.667725,-0.042725,-0.052002,-0.274064,3.262357,9.237485,0.007447,-0.002964,-0.005127,0.365479,-0.208252,-0.563232
0.389916,-0.929355,9.803458,-0.002031,0.001211,-0.002634,-0.066406,0.39502,-0.571777,-0.265337,3.168741,9.263297,-0.01339,0.005644,0.006413,-0.655273,0.030029,-0.438721,-0.53726,3.821087,9.051991,-0.008837,0.009966,0.001849,-0.311523,0.516846,0.804443,-0.211824,3.722738,9.1238,-0.009051,-0.004504,0.008046,0.670166,-0.044678,-0.04834,-0.258876,3.26326,9.2212,-0.004553,-0.003744,-0.000461,0.365234,-0.209229,-0.563232
0.367386,-0.924806,9.796283,-0.000618,0.000971,-0.000855,-0.081543,0.395508,-0.567383,-0.24288,3.19113,9.250009,-0.006045,0.005613,0.009982,-0.667725,0.031006,-0.434082,-0.546742,3.814913,9.051051,-0.002451,0.001596,0.001216,-0.324951,0.511475,0.803223,-0.219637,3.70122,9.090504,-0.00454,0.007456,0.010976,0.655762,-0.05249,-0.04834,-0.25905,3.263073,9.221262,0.003085,0.003264,-0.005181,0.354492,-0.218994,-0.563477
0.371001,-0.929353,9.78061,0.002867,0.002128,0.000686,-0.072021,0.392578,-0.572998,-0.253225,3.184092,9.266968,-0.011986,0.007351,0.007904,-0.658203,0.025635,-0.4375,-0.521354,3.841955,9.073031,-0.004788,0.002162,0.00034,-0.312012,0.515869,0.808838,-0.240477,3.723885,9.12133,-0.005546,0.004311,0.010151,0.667725,-0.049072,-0.041504,-0.255101,3.25374,9.230147,0.000491,-0.006565,-0.001789,0.36792,-0.214111,-0.559326
0.362358,-0.931662,9.791424,-0.001793,0.001008,-0.001586,-0.073486,0.399658,-0.56543,-0.244357,3.175482,9.260103,-0.012029,0.005548,0.006645,-0.659668,0.03418,-0.429932,-0.531061,3.826004,9.041228,-0.006155,0.006843,0.001619,-0.317139,0.516113,0.803467,-0.209471,3.705615,9.130101,-0.00846,-0.00571,0.010226,0.663086,-0.046875,-0.048828,-0.234419,3.24803,9.236253,0.001583,-0.00046,-0.003567,0.364258,-0.213867,-0.563965
0.378965,-0.914827,9.790483,0.000557,0.000933,-0.000124,-0.075439,0.40332,-0.57666,-0.255552,3.190173,9.260066,-0.006252,0.009881,0.008261,-0.661133,0.034668,-0.443604,-0.541091,3.813624,9.06695,-0.001715,0.003247,-0.000187,-0.318115,0.513184,0.807373,-0.225154,3.702249,9.127557,-0.000637,0.007323,0.010995,0.663086,-0.048828,-0.045654,-0.277064,3.254672,9.239616,0.002039,0.003505,-0.004675,0.362305,-0.212891,-0.561279
0.374651,-0.927653,9.793523,0.000353,0.003402,0.000138,-0.081055,0.400391,-0.568604,-0.263257,3.18364,9.255408,-0.013126,0.002409,0.006992,-0.664307,0.034912,-0.434082,-0.547328,3.847155,9.047167,-0.006416,0.004037,0.001816,-0.313721,0.516602,0.799316,-0.246271,3.722098,9.129184,-0.008274,0.00561,0.009407,0.666504,-0.047852,-0.049072,-0.254914,3.254369,9.22993,-0.001738,-0.008076,-0.001367,0.362305,-0.210449,-0.566406
0.381732,-0.919616,9.774821,-0.001019,0.002373,-0.000989,-0.074463,0.398926,-0.567383,-0.242637,3.182173,9.245703,-0.008326,0.009426,0.00628,-0.663574,0.034668,-0.436279,-0.540739,3.834623,9.044935,-0.003143,0.00272,0.000859,-0.318115,0.516846,0.809082,-0.223615,3.715493,9.110642,-0.005994,-0.007404,0.010235,0.6604,-0.043701,-0.04541,-0.237956,3.258144,9.227103,0.001718,-0.000106,-0.004061,0.358154,-0.210205,-0.560547
0.378318,-0.926513,9.806385,-0.002153,0.00114,-0.001068,-0.065186,0.400635,-0.57666,-0.285304,3.20157,9.264032,-0.011733,0.007882,0.008114,-0.654541,0.034668,-0.441162,-0.530228,3.827552,9.06563,-0.008593,0.006881,0.002256,-0.311768,0.516113,0.805664,-0.207395,3.700638,9.132167,-0.007184,0.00925,0.009322,0.667236,-0.046387,-0.044678,-0.269275,3.253305,9.246296,-0.005419,0.001558,-0.002803,0.364014,-0.209961,-0.560547
0.390637,-0.934566,9.787839,0.002032,0.002668,-0.00089,-0.069336,0.39209,-0.567871,-0.235176,3.182655,9.230948,-0.008244,0.002921,0.005871,-0.654297,0.024902,-0.438232,-0.542259,3.832715,9.045652,0.0029,0.000896,0.003907,-0.320557,0.525146,0.798584,-0.230705,3.715222,9.117843,0.002258,0.004042,0.010191,0.66333,-0.037354,-0.051514,-0.265333,3.243895,9.255209,0.00831,-0.004821,-0.00443,0.361572,-0.201416,-0.568115
0.372264,-0.909989,9.806301,0.000971,0.002431,0.000993,-0.067383,0.386475,-0.568359,-0.270099,3.184594,9.271649,-0.011808,0.010621,0.0089,-0.654053,0.016602,-0.433594,-0.533949,3.850244,9.064681,-0.007236,0.007223,-0.001034,-0.320801,0.517578,0.80127,-0.220145,3.718874,9.127404,-0.006199,-0.006843,0.009958,0.658936,-0.04541,-0.045654,-0.251208,3.279886,9.244891,-0.001736,-0.002996,-0.001925,0.357666,-0.210449,-0.561279
0.376768,-0.926086,9.806485,-0.000401,0.001402,-0.000134,-0.077637,0.399658,-0.572021,-0.265274,3.172536,9.237668,-0.010742,0.001251,0.006377,-0.665771,0.033203,-0.437988,-0.553806,3.805882,9.054423,-0.008595,0.003419,0.004847,-0.317139,0.522461,0.808594,-0.212329,3.715357,9.121764,-0.010312,0.0087,0.008302,0.663574,-0.042725,-0.041992,-0.259003,3.242005,9.219257,-0.006234,0.002876,-0.001484,0.36084,-0.205566,-0.557129
0.374773,-0.926539,9.770031,0.002786,0.004668,-0.000619,-0.077637,0.393066,-0.570068,-0.233366,3.190457,9.251791,-0.006025,0.008009,0.009237,-0.666016,0.028076,-0.437988,-0.520942,3.824846,9.060345,0.002353,0.001337,-0.002297,-0.313232,0.521484,0.806396,-0.23232,3.722446,9.127893,0.003193,0.003723,0.012194,0.66748,-0.04248,-0.043945,-0.273873,3.239309,9.264537,0.009128,-0.004502,-0.004663,0.364502,-0.205566,-0.559082
0.374218,-0.914202,9.790724,-0.000782,0.00217,5.8e-05,-0.067871,0.39917,-0.57251,-0.279471,3.184253,9.260079,-0.015789,0.006818,0.007045,-0.656494,0.033691,-0.438477,-0.541279,3.838076,9.05642,-0.008661,0.010688,0.002591,-0.307373,0.517334,0.820557,-0.235289,3.713256,9.125798,-0.009696,-0.00485,0.010206,0.671143,-0.045654,-0.025879,-0.237138,3.258567,9.226975,-0.005235,-0.00371,-0.00072,0.368896,-0.210693,-0.544434
0.365176,-0.928998,9.780863,-0.001359,0.001871,-0.000144,-0.069824,0.393555,-0.562988,-0.252022,3.187049,9.25582,-0.006046,0.005434,0.005561,-0.656494,0.027832,-0.429443,-0.535745,3.809126,9.050137,-0.00133,-0.00346,0.002125,-0.317627,0.516846,0.805664,-0.209699,3.699429,9.127565,-0.003899,0.00532,0.010425,0.662842,-0.047119,-0.043213,-0.264408,3.246368,9.226012,0.001171,0.005365,-0.005374,0.361572,-0.21167,-0.562256
0.374274,-0.926089,9.80658,-0.000998,0.001738,-0.000663,-0.073975,0.405029,-0.561768,-0.25813,3.19341,9.256143,-0.011853,0.008822,0.007645,-0.658691,0.038086,-0.428711,-0.526486,3.833084,9.042458,-0.00445,0.008621,-0.000198,-0.315918,0.52124,0.815186,-0.234653,3.710821,9.126804,-0.004928,0.005613,0.010691,0.666748,-0.041504,-0.037354,-0.266869,3.257296,9.259381,0.002672,-0.007955,-0.002585,0.365479,-0.208252,-0.552002
0.377206,-0.925527,9.782929,-0.001399,0.00314,-0.000797,-0.074707,0.394775,-0.558594,-0.248844,3.173847,9.257769,-0.012584,0.002102,0.007011,-0.662842,0.02832,-0.424561,-0.535541,3.836683,9.07238,-0.006836,0.002948,0.003274,-0.316895,0.51416,0.807373,-0.23172,3.715193,9.143147,-0.007277,-0.005003,0.008127,0.66333,-0.048828,-0.042725,-0.229427,3.257482,9.233551,-0.003555,-0.001809,-0.001898,0.361084,-0.212402,-0.558838
0.385961,-0.922412,9.808681,0.000714,0.00327,-0.000381,-0.076416,0.398926,-0.57251,-0.259841,3.18847,9.257798,-0.006486,0.011753,0.007326,-0.662109,0.032227,-0.438965,-0.524587,3.82013,9.062124,-0.002251,-0.000806,0.000786,-0.321777,0.514893,0.814697,-0.206322,3.698708,9.115649,-0.003913,0.005788,0.011786,0.6604,-0.049561,-0.040039,-0.268472,3.251218,9.275408,0.000677,0.00685,-0.003027,0.359619,-0.213135,-0.555664
0.384354,-0.911007,9.79284,-0.000184,0.001834,0.000587,-0.082031,0.38916,-0.570801,-0.270765,3.192242,9.266266,-0.01207,0.003158,0.007418,-0.665039,0.024658,-0.440674,-0.544872,3.82998,9.071656,-0.004896,0.010649,0.002426,-0.318848,0.518555,0.802002,-0.232658,3.723178,9.110293,-0.004361,0.008451,0.00915,0.660645,-0.04541,-0.049072,-0.27148,3.24519,9.248603,0.00272,-0.010132,-0.001654,0.359863,-0.210449,-0.563721
0.37214,-0.926252,9.806646,0.001319,-0.000601,-0.000508,-0.071289,0.397217,-0.569824,-0.245166,3.193453,9.248436,-0.007922,0.007653,0.006592,-0.658691,0.03418,-0.436035,-0.541766,3.828625,9.050412,-0.000462,-0.000405,0.000625,-0.322754,0.522217,0.805908,-0.22659,3.717786,9.117654,-0.004006,-0.008939,0.009231,0.657959,-0.039795,-0.048096,-0.243343,3.260008,9.220312,0.0034,-0.001646,-0.003595,0.35376,-0.205811,-0.565186
0.37616,-0.936819,9.798882,-0.001924,0.004472,0.000635,-0.070068,0.401367,-0.573975,-0.267567,3.179283,9.268123,-0.012361,0.007172,0.009271,-0.656738,0.037842,-0.44043,-0.534306,3.829169,9.065655,-0.009054,0.00648,0.002886,-0.31958,0.509277,0.806641,-0.208935,3.718733,9.121219,-0.00846,0.006185,0.009122,0.65918,-0.056152,-0.043213,-0.252694,3.254836,9.229826,-0.00728,0.003113,-0.000976,0.358398,-0.218262,-0.55957
0.393183,-0.931422,9.813841,-6e-05,0.001905,-0.000979,-0.078857,0.392822,-0.571289,-0.242013,3.191358,9.241872,-0.008175,0.003357,0.006753,-0.664062,0.02832,-0.439453,-0.548155,3.814073,9.055222,-0.001829,0.004277,0.00191,-0.317139,0.519043,0.805176,-0.243551,3.694245,9.104497,-0.002255,0.006324,0.010704,0.661377,-0.044434,-0.045654,-0.261102,3.23396,9.221542,0.007038,-0.00402,-0.00365,0.359863,-0.211426,-0.563232
0.361086,-0.917585,9.8016,0.000734,0.002635,-5.5e-05,-0.070312,0.393066,-0.567139,-0.254974,3.193506,9.236756,-0.0091,0.011022,0.00736,-0.657715,0.025635,-0.434082,-0.527535,3.835793,9.054244,-0.001871,0.004965,0.00108,-0.3125,0.527344,0.810059,-0.225897,3.730389,9.14363,-0.004816,-0.006701,0.008134,0.66748,-0.035645,-0.040771,-0.241801,3.263931,9.233395,0.003721,-0.001478,-0.002566,0.365967,-0.202148,-0.558594
0.378753,-0.929686,9.803864,-0.000597,0.000336,-0.000529,-0.080811,0.395752,-0.567627,-0.260859,3.188505,9.245692,-0.012705,0.003044,0.006536,-0.666016,0.030029,-0.435059,-0.557008,3.827239,9.045035,-0.009082,0.005609,0.001473,-0.317139,0.514404,0.807861,-0.204369,3.70512,9.113832,-0.008661,0.003778,0.009116,0.661621,-0.047607,-0.042969,-0.272106,3.243067,9.234914,-0.006374,0.000883,-0.002075,0.361328,-0.213135,-0.558594
0.378279,-0.929457,9.803904,0.002466,0.003532,0.000553,-0.07666,0.395752,-0.574219,-0.245134,3.195732,9.235612,-0.006044,0.008606,0.007235,-0.662354,0.027832,-0.439209,-0.517317,3.83117,9.061865,0.000864,-0.000409,0.00109,-0.324219,0.515137,0.808838,-0.229283,3.716537,9.11309,-0.000413,0.006764,0.01126,0.656494,-0.04834,-0.042725,-0.259677,3.256785,9.222966,0.008217,-0.003903,-0.004652,0.354248,-0.213867,-0.559326
0.373719,-0.924407,9.819656,-0.000617,0.000971,-0.000856,-0.06958,0.398193,-0.570312,-0.272617,3.19001,9.254917,-0.013806,0.006846,0.008176,-0.660156,0.033691,-0.434082,-0.529795,3.832476,9.055517,-0.01143,0.007739,0.001182,-0.32251,0.518799,0.808594,-0.2329,3.709467,9.14043,-0.012828,-0.002413,0.008898,0.658203,-0.046875,-0.04126,-0.248438,3.26495,9.226871,-0.005918,-0.003676,-0.00098,0.357666,-0.209961,-0.55835
0.385582,-0.926765,9.793188,0.000734,0.002635,-5.5e-05,-0.074219,0.398926,-0.5625,-0.239847,3.173495,9.259481,-0.007482,0.004507,0.006495,-0.661377,0.032959,-0.429932,-0.547098,3.821434,9.05313,0.000286,0.000213,0.003809,-0.315674,0.522217,0.803711,-0.203409,3.701189,9.11545,-0.000645,0.002462,0.008076,0.663818,-0.040039,-0.048584,-0.268298,3.252199,9.232294,0.005035,0.004071,-0.00462,0.364014,-0.202393,-0.563965
0.362738,-0.921988,9.786018,-0.001359,0.001871,-0.000145,-0.077881,0.391357,-0.569336,-0.270494,3.199937,9.275066,-0.011086,0.010411,0.008278,-0.663086,0.026855,-0.43335,-0.534524,3.838169,9.050789,-0.004607,0.006349,-0.001509,-0.318604,0.516602,0.81543,-0.230898,3.726374,9.152413,-0.002408,0.005339,0.012514,0.664062,-0.046875,-0.038574,-0.259833,3.273943,9.24027,0.003034,-0.008156,-0.003354,0.36084,-0.208984,-0.553711
0.372147,-0.936931,9.799025,-0.001792,0.001008,-0.001588,-0.077148,0.395264,-0.5625,-0.245885,3.165246,9.233973,-0.012226,0.001701,0.007701,-0.663818,0.03125,-0.431396,-0.54863,3.823089,9.040321,-0.006069,0.005475,0.00329,-0.322021,0.518066,0.80957,-0.218041,3.715793,9.124451,-0.011237,-0.002834,0.007362,0.656982,-0.044434,-0.040771,-0.235895,3.2389,9.22451,-0.003781,-0.001253,-0.001622,0.354736,-0.208984,-0.55957
0.388686,-0.937715,9.785427,0.001765,0.003162,0.001917,-0.071045,0.389404,-0.572021,-0.250549,3.196107,9.266228,-0.006557,0.010722,0.008503,-0.6604,0.025146,-0.438965,-0.525634,3.817218,9.054284,-0.001975,0.000443,9e-06,-0.31665,0.516846,0.803955,-0.209942,3.712682,9.118647,-0.001567,0.002169,0.010881,0.662842,-0.045654,-0.049072,-0.262872,3.265053,9.242828,0.004255,0.003383,-0.006186,0.360107,-0.212158,-0.563721
0.374876,-0.923909,9.796069,-0.000978,0.001104,-0.000337,-0.075195,0.404785,-0.567627,-0.277058,3.17832,9.258806,-0.014809,0.003374,0.006971,-0.663818,0.037842,-0.433105,-0.542174,3.822854,9.055834,-0.006352,0.009253,0.002065,-0.319092,0.511963,0.805908,-0.231612,3.717063,9.138139,-0.005236,0.007233,0.009228,0.660645,-0.051025,-0.04541,-0.255515,3.264415,9.249238,-0.001826,-0.007164,-0.001585,0.360352,-0.216064,-0.559326
0.383847,-0.932784,9.801178,0.001135,0.001233,7.9e-05,-0.071045,0.395508,-0.571289,-0.222841,3.184725,9.23606,-0.005346,0.005985,0.007342,-0.659668,0.032959,-0.437256,-0.534548,3.826979,9.057562,-0.000739,-0.001653,0.0014,-0.309814,0.518066,0.804688,-0.228957,3.719214,9.125058,-0.001095,-0.004396,0.011056,0.669434,-0.047119,-0.049316,-0.262191,3.265704,9.242618,0.005399,0.000426,-0.003745,0.366943,-0.208984,-0.563965
0.374139,-0.923917,9.796097,-0.001378,0.002506,-0.000472,-0.071533,0.401855,-0.571289,-0.288875,3.190813,9.259586,-0.012746,0.01136,0.008253,-0.657715,0.036377,-0.438232,-0.515205,3.828041,9.066343,-0.011297,0.009146,0.00109,-0.324951,0.512939,0.80542,-0.191887,3.712372,9.122721,-0.009762,0.003589,0.010279,0.656494,-0.051025,-0.047363,-0.26578,3.256711,9.245198,-0.00674,-0.000553,-0.002391,0.356201,-0.214111,-0.562988
0.382838,-0.933051,9.801192,-0.000545,0.001967,0.001105,-0.073975,0.397705,-0.55957,-0.23487,3.174823,9.253858,-0.011715,0.002757,0.008113,-0.662109,0.030029,-0.429932,-0.555896,3.824898,9.03708,-0.00355,7.1e-05,0.001733,-0.326416,0.519531,0.804932,-0.236277,3.699536,9.121332,-0.004146,0.00493,0.009684,0.654541,-0.045166,-0.046875,-0.250343,3.238322,9.24071,0.002763,-0.003784,-0.002926,0.35083,-0.210449,-0.562744
0.369153,-0.937217,9.799111,-0.00046,0.003308,-0.001114,-0.071777,0.393799,-0.563965,-0.265387,3.190593,9.277784,-0.00461,0.012704,0.008004,-0.656006,0.026855,-0.43042,-0.50334,3.843083,9.0647,-0.000931,0.004217,-0.00075,-0.318848,0.515869,0.807373,-0.241346,3.719349,9.139242,-0.001377,-0.004329,0.011686,0.661377,-0.046631,-0.044189,-0.256887,3.277942,9.253364,0.004938,-0.00173,-0.005367,0.358154,-0.211182,-0.561279
0.381224,-0.927742,9.793266,-0.001555,0.000805,-0.00054,-0.077637,0.400635,-0.565674,-0.270409,3.174032,9.259814,-0.014486,0.001168,0.006384,-0.665771,0.036621,-0.433838,-0.558343,3.816547,9.064479,-0.009715,0.008482,0.003952,-0.318359,0.5271,0.804443,-0.218736,3.7132,9.120488,-0.008168,0.003166,0.008745,0.661621,-0.037109,-0.048584,-0.253889,3.248649,9.231483,-0.006914,-0.000538,-9.8e-05,0.360352,-0.199951,-0.565186
0.390034,-0.936642,9.798381,0.001436,0.003005,-0.001418,-0.084473,0.396973,-0.574463,-0.226096,3.175132,9.253373,-0.007371,0.010512,0.008302,-0.673828,0.030029,-0.442627,-0.545687,3.832891,9.062336,0.001844,-0.001847,8.5e-05,-0.31665,0.518799,0.803223,-0.227929,3.708209,9.111519,-0.001435,0.004088,0.011787,0.663574,-0.044678,-0.047607,-0.25943,3.252529,9.238405,0.005164,-0.002287,-0.005642,0.362061,-0.207764,-0.563965
0.358485,-0.928362,9.794061,0.000197,0.001067,0.000395,-0.085693,0.397217,-0.56958,-0.28035,3.177112,9.282617,-0.010546,0.006932,0.00664,-0.672607,0.031982,-0.438965,-0.522499,3.833918,9.049389,-0.007586,0.011352,0.00068,-0.315674,0.517822,0.803223,-0.220966,3.721178,9.130238,-0.009332,-0.001425,0.008364,0.663086,-0.043213,-0.047119,-0.238064,3.268747,9.246218,-0.001828,-0.002085,-0.002143,0.361572,-0.207764,-0.564453
0.385269,-0.93169,9.81413,-0.000853,0.001175,-0.001904,-0.083008,0.394043,-0.565918,-0.240251,3.185741,9.240683,-0.01121,0.004416,0.006503,-0.669189,0.027832,-0.432373,-0.55351,3.805817,9.049348,-0.002224,6.6e-05,0.002199,-0.318604,0.523193,0.79834,-0.210113,3.707799,9.115625,-0.004069,0.002455,0.009043,0.663574,-0.041748,-0.053955,-0.261241,3.249429,9.225025,-0.000194,0.00363,-0.003168,0.360352,-0.205811,-0.570312
0.367475,-0.9431,9.807107,1.3e-05,0.002901,0.000982,-0.077393,0.397461,-0.569824,-0.265908,3.192628,9.26508,-0.009107,0.01103,0.007397,-0.662109,0.03125,-0.435303,-0.523268,3.845296,9.067509,-0.002865,0.003973,9.1e-05,-0.321533,0.516602,0.813965,-0.217905,3.724597,9.146967,-0.002991,0.003585,0.010594,0.659424,-0.044922,-0.036865,-0.266703,3.253982,9.231712,0.004309,-0.007313,-0.003052,0.358643,-0.208496,-0.555908
0.379537,-0.933647,9.801264,-0.002152,0.001141,-0.00107,-0.072266,0.396484,-0.5625,-0.258904,3.182816,9.244504,-0.01066,0.000329,0.006866,-0.658936,0.032471,-0.429443,-0.542376,3.81774,9.060995,-0.009466,0.008862,0.001765,-0.323486,0.52124,0.803467,-0.223718,3.708971,9.129356,-0.010545,-0.001032,0.006992,0.654785,-0.040771,-0.051514,-0.235095,3.255976,9.241867,-0.004734,-0.001927,-0.000894,0.354492,-0.205811,-0.566162
0.391549,-0.936185,9.774782,0.000774,0.001366,0.000598,-0.072998,0.391357,-0.569092,-0.247513,3.176488,9.251014,-0.008408,0.008407,0.007491,-0.661377,0.027344,-0.43457,-0.525989,3.829891,9.050891,0.000441,-0.001504,0.002544,-0.314697,0.519043,0.811768,-0.22015,3.697345,9.121118,-0.002523,0.003424,0.011593,0.662598,-0.045898,-0.038574,-0.282331,3.250177,9.234597,0.005709,0.002403,-0.005447,0.364258,-0.209961,-0.557617
0.374171,-0.935156,9.788425,0.001259,0.001304,-0.001487,-0.073975,0.396973,-0.566895,-0.279775,3.190136,9.261536,-0.011578,0.004227,0.007848,-0.658203,0.031982,-0.433838,-0.530199,3.836661,9.045749,-0.006246,0.009789,0.000564,-0.315186,0.523193,0.803955,-0.225932,3.717063,9.139063,-0.003721,0.003349,0.008863,0.664551,-0.038086,-0.04541,-0.25129,3.252887,9.244484,0.000129,-0.007995,-0.002106,0.364746,-0.204346,-0.562744
0.391206,-0.923639,9.79549,0.000321,0.001138,-0.001171,-0.07373,0.391846,-0.567871,-0.233232,3.193032,9.268661,-0.008968,0.005556,0.005807,-0.660645,0.026123,-0.437012,-0.544958,3.814854,9.062056,-0.005035,0.001792,0.002533,-0.318604,0.518799,0.806641,-0.218169,3.711419,9.103974,-0.006558,-0.001306,0.010917,0.662598,-0.045166,-0.045654,-0.249142,3.258601,9.228595,0.000941,0.00248,-0.003457,0.361816,-0.210205,-0.561768
0.374123,-0.928657,9.817039,-0.001398,0.003142,-0.000799,-0.06958,0.396973,-0.566895,-0.271838,3.179905,9.255207,-0.008997,0.010093,0.007884,-0.655273,0.033203,-0.436523,-0.508393,3.829252,9.060313,-0.005157,0.003858,4.6e-05,-0.313232,0.518311,0.810059,-0.211332,3.69522,9.145221,-0.006602,0.003676,0.009928,0.666992,-0.047607,-0.04248,-0.262481,3.261082,9.258174,-0.001693,-0.001731,-0.002637,0.365723,-0.209229,-0.558594
0.368282,-0.924636,9.796251,0.000879,0.002072,-0.001295,-0.069824,0.406982,-0.563477,-0.253817,3.177857,9.267167,-0.009595,0.001068,0.007291,-0.656006,0.040283,-0.43042,-0.534521,3.813735,9.056211,-0.002096,0.006499,0.000111,-0.3125,0.512939,0.806152,-0.224547,3.713498,9.140546,-0.002626,0.004013,0.009052,0.669434,-0.050049,-0.046631,-0.239345,3.244876,9.23075,0.003404,-0.005084,-0.001953,0.365234,-0.215088,-0.55957
0.377341,-0.938928,9.80934,0.001292,0.00357,-0.000178,-0.071289,0.393311,-0.567871,-0.247719,3.190801,9.26502,-0.010362,0.010201,0.007659,-0.659912,0.0271,-0.43335,-0.534269,3.829513,9.060534,-0.003128,0.001166,0.000279,-0.327637,0.515381,0.799805,-0.212518,3.719669,9.136843,-0.002928,-0.00186,0.010216,0.654053,-0.050049,-0.050049,-0.258542,3.270877,9.255318,0.003619,0.00288,-0.004432,0.349365,-0.216064,-0.569336
0.380231,-0.938224,9.785711,-0.002533,0.001909,-0.000879,-0.071045,0.401123,-0.567383,-0.257603,3.182182,9.246889,-0.013464,0.003284,0.007213,-0.657959,0.035645,-0.436768,-0.535374,3.824637,9.074528,-0.010524,0.006649,0.003111,-0.319092,0.521484,0.807617,-0.223382,3.70847,9.112321,-0.011974,0.00383,0.007799,0.663574,-0.04248,-0.043701,-0.250561,3.253363,9.244337,-0.007782,-0.005396,-0.001321,0.36084,-0.208008,-0.55835
0.384062,-0.93124,9.790637,0.000177,0.001702,6.8e-05,-0.078369,0.396973,-0.570312,-0.23957,3.180102,9.258864,-0.005208,0.007448,0.007095,-0.662598,0.030029,-0.436279,-0.547319,3.832657,9.041365,-0.00024,0.003092,-0.000391,-0.318848,0.513672,0.80249,-0.222375,3.696733,9.146611,-0.001677,0.003224,0.009691,0.658691,-0.050293,-0.050781,-0.260717,3.245277,9.240439,0.006666,-0.000365,-0.004531,0.359131,-0.215332,-0.56958
0.370423,-0.917508,9.801254,-3.9e-05,0.00127,-0.000653,-0.072021,0.396973,-0.574219,-0.262303,3.188132,9.261522,-0.012728,0.006837,0.006211,-0.659668,0.030762,-0.441162,-0.532729,3.825477,9.040367,-0.00517,0.005418,0.000634,-0.315186,0.517822,0.799805,-0.233107,3.718249,9.128439,-0.00421,0.001009,0.009484,0.664551,-0.045654,-0.051025,-0.272536,3.272531,9.242391,-0.001828,-0.002086,-0.002143,0.362793,-0.210693,-0.56958
0.379108,-0.938422,9.785735,0.000538,0.001569,-0.00045,-0.073242,0.399658,-0.569824,-0.241492,3.175332,9.260451,-0.01122,0.004423,0.006515,-0.662109,0.035156,-0.439697,-0.545577,3.823539,9.047348,-0.004717,0.002353,0.00259,-0.313477,0.520264,0.80835,-0.208769,3.717775,9.125449,-0.004475,0.000611,0.008755,0.666748,-0.044678,-0.040527,-0.240911,3.25843,9.23486,0.001534,-0.001721,-0.002857,0.363525,-0.20874,-0.55835
0.379221,-0.931873,9.814348,0.000479,0.003475,-0.00143,-0.071289,0.400146,-0.569824,-0.26408,3.183288,9.263137,-0.00742,0.008715,0.007055,-0.657227,0.036133,-0.438721,-0.526256,3.825083,9.055958,-0.002877,0.005534,0.000682,-0.313965,0.51416,0.804199,-0.220854,3.72286,9.12538,-0.006465,0.005599,0.010834,0.666748,-0.050049,-0.048584,-0.263392,3.277343,9.23299,-0.000114,-0.000552,-0.005121,0.365479,-0.216309,-0.56543
0.383026,-0.924634,9.8193,-0.000833,0.00054,-0.001578,-0.076904,0.399658,-0.572754,-0.267043,3.168205,9.258751,-0.014056,0.004973,0.007608,-0.663086,0.033691,-0.443115,-0.542965,3.830575,9.057542,-0.006786,0.005735,0.001529,-0.324951,0.524414,0.807373,-0.231268,3.701647,9.134427,-0.006729,0.001766,0.009009,0.658203,-0.038574,-0.042969,-0.264365,3.255343,9.2313,-0.001962,-0.00244,-0.001649,0.355469,-0.205078,-0.558594
0.377911,-0.926095,9.806454,0.001908,0.002599,0.000678,-0.070801,0.398438,-0.560303,-0.251326,3.175228,9.248874,-0.006423,0.008415,0.008629,-0.656006,0.035889,-0.429199,-0.524447,3.819172,9.048598,-0.000199,0.002403,0.000439,-0.320068,0.523926,0.802002,-0.216065,3.69725,9.122038,-0.002115,-0.00113,0.011033,0.658691,-0.041504,-0.050781,-0.24007,3.240213,9.246308,0.005843,-0.002317,-0.005384,0.356934,-0.207031,-0.567139
0.3686,-0.922925,9.8093,-0.002296,0.001705,0.000169,-0.076172,0.398438,-0.562988,-0.276948,3.193279,9.26482,-0.012287,0.006858,0.007777,-0.662354,0.033447,-0.430908,-0.532858,3.82975,9.051571,-0.007702,0.008396,0.000199,-0.313232,0.518799,0.806885,-0.218627,3.706699,9.131196,-0.004807,0.006128,0.009759,0.66748,-0.045166,-0.043945,-0.253227,3.263963,9.235034,-0.003463,-0.002724,-0.001676,0.365234,-0.20874,-0.560059
0.385389,-0.941647,9.783002,0.000734,0.002636,-5.5e-05,-0.068848,0.387695,-0.563965,-0.234491,3.181743,9.253289,-0.008496,0.004209,0.006978,-0.657227,0.025146,-0.429199,-0.553639,3.826362,9.043646,-0.001509,-0.000192,0.003969,-0.327637,0.518066,0.816162,-0.225854,3.704594,9.10886,-0.004954,0.001241,0.009111,0.6521,-0.043213,-0.035645,-0.254057,3.242014,9.23333,0.001802,-0.001012,-0.003845,0.349854,-0.211426,-0.554932
0.367517,-0.922889,9.809344,0.001115,0.001869,-0.000247,-0.070801,0.400635,-0.567383,-0.261904,3.18705,9.264073,-0.011069,0.009058,0.007937,-0.657959,0.033203,-0.436279,-0.524901,3.845889,9.071259,-0.005196,0.004549,-0.000781,-0.321533,0.520508,0.809814,-0.218618,3.71738,9.127668,-0.006756,-0.000736,0.01063,0.656982,-0.043213,-0.042969,-0.263346,3.256114,9.231057,0.001035,-0.003508,-0.00268,0.356689,-0.208008,-0.555664
0.379425,-0.92538,9.782881,-0.002171,0.001776,-0.001398,-0.07251,0.40625,-0.56958,-0.248078,3.181135,9.249113,-0.011927,0.00328,0.006779,-0.660645,0.036621,-0.438965,-0.543406,3.821766,9.051269,-0.006759,0.006607,0.002948,-0.318604,0.521484,0.805664,-0.221448,3.694439,9.130316,-0.006511,0.00418,0.009013,0.662109,-0.044922,-0.044678,-0.25191,3.247773,9.217423,-0.00224,0.000293,-0.002306,0.360352,-0.209473,-0.560547
0.393299,-0.938352,9.808822,0.002125,0.003031,0.0014,-0.072021,0.397217,-0.567139,-0.242076,3.172528,9.263564,-0.004069,0.009217,0.006391,-0.660645,0.030273,-0.433105,-0.520206,3.819542,9.051748,0.001789,0.000399,-0.000157,-0.325928,0.524902,0.807373,-0.225021,3.717164,9.134875,0.001795,0.001677,0.010798,0.655273,-0.038574,-0.042725,-0.265138,3.250825,9.246808,0.006567,-0.001085,-0.005838,0.35498,-0.200684,-0.560791
0.373392,-0.908809,9.78279,0.00128,0.000669,-0.00116,-0.072266,0.395508,-0.56543,-0.271624,3.187262,9.252405,-0.015058,0.004675,0.008068,-0.662109,0.031982,-0.43335,-0.540682,3.829487,9.061186,-0.007859,0.010112,0.00147,-0.311035,0.520752,0.807129,-0.202824,3.714097,9.145124,-0.007819,0.001112,0.008811,0.670166,-0.043213,-0.043213,-0.247435,3.277042,9.245491,-0.001001,-0.005209,-0.000731,0.366943,-0.207275,-0.560547
0.374211,-0.937798,9.785984,-0.000439,0.002674,-0.000788,-0.081299,0.395508,-0.562012,-0.243694,3.167502,9.265242,-0.009974,0.00526,0.00628,-0.668701,0.031494,-0.429932,-0.544513,3.838732,9.043044,-0.005978,-0.001447,0.001776,-0.311523,0.517334,0.806152,-0.215912,3.69975,9.134078,-0.010365,0.002802,0.011056,0.672363,-0.043213,-0.04541,-0.249284,3.233196,9.242063,-0.002065,0.001913,-0.003512,0.369629,-0.211182,-0.55957
0.367936,-0.915974,9.777906,0.000334,0.00404,-0.00019,-0.070312,0.395508,-0.561523,-0.262365,3.200951,9.278301,-0.00698,0.008732,0.008633,-0.658203,0.031006,-0.433105,-0.533627,3.831991,9.063603,-0.00159,0.006218,0.000324,-0.320801,0.52124,0.807129,-0.235075,3.706625,9.140395,-0.000375,0.003325,0.010148,0.659912,-0.040283,-0.044678,-0.254062,3.261453,9.221472,0.002577,-0.001957,-0.003366,0.357666,-0.20874,-0.561035
0.376854,-0.930685,9.79097,-0.001613,0.002711,-0.001522,-0.066895,0.398438,-0.566162,-0.259195,3.165923,9.247269,-0.013186,0.002454,0.007028,-0.653564,0.03125,-0.430664,-0.539135,3.825657,9.040945,-0.005328,0.007135,0.001908,-0.3125,0.513916,0.810059,-0.231696,3.693054,9.102644,-0.005859,0.00049,0.010544,0.668701,-0.049561,-0.04126,-0.253195,3.243278,9.23291,0.000582,-0.002394,-0.00213,0.365479,-0.215088,-0.557129
0.372169,-0.938076,9.786035,0.000558,0.000934,-0.000123,-0.07251,0.398926,-0.561768,-0.241234,3.174517,9.251032,-0.007609,0.008621,0.007747,-0.656738,0.031982,-0.429688,-0.523321,3.83146,9.057534,-0.000239,-0.001939,0.0016,-0.318115,0.516357,0.804932,-0.212883,3.712903,9.117386,-0.00258,-0.000965,0.010024,0.662598,-0.049561,-0.048828,-0.250356,3.268852,9.247811,0.004894,-0.001353,-0.003573,0.361328,-0.213623,-0.561768
0.37713,-0.942198,9.806852,-0.000977,0.001104,-0.000338,-0.081299,0.403076,-0.57251,-0.273825,3.188265,9.261513,-0.012111,0.006962,0.007121,-0.67041,0.037598,-0.438965,-0.529088,3.817874,9.061892,-0.011159,0.010567,0.001017,-0.314941,0.51416,0.808838,-0.226001,3.701798,9.135301,-0.011344,0.005147,0.008334,0.66748,-0.04834,-0.04248,-0.258366,3.247641,9.239674,-0.007734,-0.0025,-0.000945,0.365234,-0.213379,-0.55835
0.376051,-0.936416,9.798949,0.00187,0.003871,2.5e-05,-0.072998,0.406006,-0.576904,-0.236505,3.174329,9.257994,-0.00673,0.006092,0.007159,-0.6604,0.041992,-0.443848,-0.542121,3.815779,9.068906,-6.7e-05,-0.001225,0.002337,-0.310303,0.521484,0.800781,-0.240142,3.70101,9.119551,-0.002512,-7e-06,0.010479,0.669922,-0.041992,-0.049561,-0.249266,3.252235,9.230346,0.006626,1e-05,-0.002735,0.366699,-0.20752,-0.566406
0.369894,-0.914358,9.790889,5.1e-05,0.001631,0.001635,-0.070801,0.394043,-0.56665,-0.257264,3.184138,9.274165,-0.010264,0.009271,0.008174,-0.65625,0.031006,-0.435059,-0.520727,3.840823,9.054781,-0.003895,0.007664,0.000868,-0.320557,0.52124,0.811523,-0.20406,3.710252,9.141677,-0.002977,0.000157,0.009478,0.658203,-0.042236,-0.037598,-0.260382,3.261283,9.24374,0.001071,-0.003876,-0.004479,0.358643,-0.204834,-0.556641
0.3759,-0.947604,9.814879,-0.000635,0.001607,-0.001183,-0.07373,0.395996,-0.564941,-0.250312,3.184989,9.245401,-0.013485,0.003301,0.007229,-0.661133,0.031982,-0.431885,-0.543595,3.817383,9.056156,-0.008336,0.006236,0.004675,-0.313232,0.519287,0.80835,-0.218289,3.709806,9.125789,-0.007939,0.006075,0.010084,0.666016,-0.044678,-0.043945,-0.252066,3.244103,9.232651,-0.002415,-0.001328,-0.001098,0.366211,-0.209229,-0.557861
0.382676,-0.945765,9.767633,0.001712,0.001533,0.000283,-0.075684,0.391113,-0.56543,-0.249041,3.173395,9.268023,-0.005695,0.008193,0.007996,-0.662354,0.024658,-0.430908,-0.534242,3.84085,9.048893,-0.002147,-0.000269,-0.000729,-0.313477,0.521973,0.813232,-0.232526,3.70893,9.110079,-0.006883,0.000793,0.0108,0.663574,-0.041016,-0.039062,-0.267252,3.262063,9.237298,0.003336,-0.001095,-0.005618,0.364014,-0.208008,-0.554688
0.382399,-0.933472,9.788312,-7.8e-05,0.002541,-0.001307,-0.073242,0.397949,-0.569092,-0.26381,3.185072,9.240993,-0.012156,0.005169,0.005842,-0.658447,0.033447,-0.435059,-0.536276,3.833028,9.076036,-0.007221,0.011237,0.001593,-0.321045,0.514648,0.80542,-0.204926,3.700427,9.127608,-0.005912,-0.000929,0.008721,0.657959,-0.04834,-0.044922,-0.254178,3.25713,9.23693,-0.002877,-0.003484,-0.002719,0.357666,-0.212891,-0.560791
0.377724,-0.92873,9.804029,-0.000674,0.002878,-0.001837,-0.077393,0.396729,-0.569824,-0.239142,3.175519,9.267042,-0.010676,0.007282,0.008238,-0.661621,0.031494,-0.4375,-0.541997,3.823043,9.066884,-0.002267,0.000755,0.00137,-0.321045,0.519043,0.816162,-0.223809,3.707457,9.133885,-0.003714,0.003826,0.010204,0.657227,-0.04541,-0.035645,-0.252752,3.26024,9.250296,0.002111,0.002599,-0.004462,0.355957,-0.210449,-0.551514
0.377087,-0.92883,9.804044,-0.000204,0.002471,0.00026,-0.075195,0.407227,-0.575195,-0.261698,3.172517,9.278023,-0.008024,0.006632,0.007818,-0.66333,0.039795,-0.442139,-0.5299,3.826611,9.047224,-0.003803,0.004726,0.001937,-0.312988,0.518555,0.803955,-0.240865,3.717534,9.126737,-0.004399,0.00158,0.009194,0.665771,-0.044922,-0.046387,-0.260135,3.261316,9.243735,-0.000143,-0.003624,-0.001677,0.363525,-0.210938,-0.561035
0.376367,-0.940923,9.783423,0.000177,0.001703,6.8e-05,-0.075439,0.400635,-0.573975,-0.243748,3.192366,9.273434,-0.010426,0.004645,0.006756,-0.661133,0.035889,-0.441406,-0.539273,3.820657,9.046114,-0.005817,0.005863,0.001118,-0.320801,0.521973,0.80127,-0.220606,3.7082,9.121426,-0.007019,-0.00112,0.009884,0.6604,-0.041016,-0.050049,-0.242828,3.249037,9.223205,0.000165,-0.001649,-0.003379,0.358643,-0.205078,-0.565918
0.375708,-0.923215,9.796137,-0.000635,0.001607,-0.001184,-0.069092,0.393555,-0.570068,-0.267298,3.175635,9.24414,-0.012963,0.00813,0.007322,-0.656738,0.031494,-0.436279,-0.52746,3.829814,9.071025,-0.005527,0.00052,0.00174,-0.31543,0.519775,0.810059,-0.222129,3.70393,9.135357,-0.005751,0.003962,0.009369,0.662842,-0.045654,-0.042236,-0.257584,3.248141,9.23952,-0.002072,0.000277,-0.004598,0.361084,-0.209717,-0.557373
0.380422,-0.939495,9.79631,-0.000381,0.000768,0.000191,-0.06958,0.403809,-0.567627,-0.249656,3.173079,9.256289,-0.00847,0.006011,0.008284,-0.658691,0.037842,-0.435059,-0.532254,3.823348,9.048465,-0.002887,0.007098,0.001282,-0.321777,0.518311,0.807129,-0.209872,3.696548,9.13633,-0.003699,0.003362,0.008843,0.662354,-0.046631,-0.041748,-0.257477,3.248,9.239573,0.000998,-0.003137,-0.000882,0.35791,-0.20874,-0.558838
0.366743,-0.925508,9.806934,0.002631,0.002335,-0.000358,-0.075439,0.399414,-0.574463,-0.241746,3.199026,9.259411,-0.007949,0.007672,0.00668,-0.660156,0.033447,-0.441406,-0.544388,3.838151,9.059403,-0.003472,0.003728,0.001405,-0.313477,0.515625,0.804688,-0.209905,3.708759,9.132214,-0.004035,-0.002047,0.011353,0.666748,-0.047852,-0.048828,-0.246657,3.256482,9.243343,0.003659,-0.000926,-0.004589,0.364502,-0.213867,-0.561035
0.370814,-0.935722,9.799215,-0.0004,0.001403,-0.000135,-0.06958,0.396973,-0.568359,-0.258532,3.16463,9.252163,-0.013561,0.006045,0.008052,-0.657959,0.031494,-0.437988,-0.534382,3.818083,9.062536,-0.007051,0.002932,0.001717,-0.324951,0.514893,0.805908,-0.207253,3.710075,9.119513,-0.010025,0.004797,0.007429,0.656982,-0.049072,-0.042969,-0.253782,3.257404,9.236844,-0.003006,-0.002205,-0.001139,0.355713,-0.2146,-0.558838
0.387672,-0.924525,9.806285,-0.000654,0.002243,-0.00151,-0.081055,0.39209,-0.562256,-0.238722,3.174804,9.269556,-0.006553,0.006191,0.006504,-0.666992,0.025879,-0.431641,-0.535166,3.816938,9.062972,-0.003192,0.004979,0.000635,-0.322021,0.514893,0.810791,-0.2353,3.69983,9.120992,-0.003499,0.002802,0.009112,0.660889,-0.046631,-0.039551,-0.264263,3.249552,9.232862,0.004116,-0.000404,-0.004054,0.356689,-0.212646,-0.557373
0.378116,-0.933376,9.788488,0.000735,0.002638,-5.5e-05,-0.07373,0.404053,-0.572754,-0.256355,3.196586,9.255853,-0.011235,0.007605,0.00824,-0.6604,0.039551,-0.438232,-0.523129,3.833344,9.060901,-0.003881,0.006108,0.000284,-0.31665,0.52124,0.80835,-0.218881,3.716709,9.149125,-0.004897,-0.000759,0.009809,0.662109,-0.043945,-0.043457,-0.275527,3.255947,9.275552,0.001265,-0.002427,-0.00187,0.361328,-0.207764,-0.562256
0.378074,-0.939192,9.79643,-0.001935,0.001573,-0.000351,-0.080078,0.397217,-0.570312,-0.254188,3.172929,9.251704,-0.011689,0.00382,0.007006,-0.667725,0.029297,-0.437744,-0.543949,3.829947,9.052935,-0.005687,0.002234,0.003012,-0.322998,0.515869,0.803223,-0.222531,3.704281,9.118021,-0.00718,0.001953,0.007987,0.658203,-0.047852,-0.049561,-0.233241,3.254666,9.213522,-0.001332,-0.0003,-0.00232,0.35498,-0.212158,-0.563965
0.380858,-0.920773,9.785502,0.000374,0.00277,0.000463,-0.073486,0.399902,-0.563721,-0.256169,3.182318,9.279323,-0.007466,0.01009,0.007516,-0.660645,0.031494,-0.429688,-0.536491,3.833818,9.054823,-0.003416,0.006514,-0.000338,-0.324951,0.522461,0.814209,-0.231679,3.699113,9.109145,-0.00528,0.003801,0.010363,0.655273,-0.04248,-0.037598,-0.279286,3.268052,9.237324,0.002024,-0.001565,-0.004122,0.353027,-0.20752,-0.554199
0.371627,-0.917581,9.788335,-0.000616,0.000972,-0.000857,-0.07666,0.403564,-0.573242,-0.261125,3.177217,9.252817,-0.010252,0.004135,0.008117,-0.665039,0.038086,-0.440674,-0.534281,3.825566,9.060449,-0.003949,0.004882,0.002621,-0.318359,0.5271,0.80835,-0.219025,3.694084,9.139418,-0.006783,0.000831,0.008527,0.66333,-0.037598,-0.040283,-0.254156,3.236534,9.23478,-0.000826,-0.003589,-0.001938,0.363037,-0.204834,-0.557129
0.38117,-0.949905,9.788703,0.0005,0.002841,-0.001104,-0.074219,0.397217,-0.570312,-0.231511,3.192474,9.254213,-0.010422,0.008425,0.006443,-0.659912,0.029053,-0.438965,-0.534929,3.825104,9.060605,-0.000223,0.001535,-0.000974,-0.317383,0.517822,0.818848,-0.207614,3.712859,9.131457,-0.001971,0.000789,0.01192,0.659668,-0.045654,-0.034668,-0.273067,3.264641,9.230252,0.005841,-0.000674,-0.004303,0.359619,-0.210693,-0.549316
0.3711,-0.923332,9.796301,-0.001123,0.001669,0.000901,-0.074707,0.401367,-0.572021,-0.270214,3.168058,9.248919,-0.013156,0.008041,0.00801,-0.659668,0.035889,-0.436523,-0.535744,3.827324,9.047653,-0.010173,0.00914,2e-05,-0.313965,0.515869,0.798584,-0.220932,3.699456,9.120019,-0.009016,0.005434,0.009877,0.665771,-0.048584,-0.052246,-0.263509,3.251085,9.232344,-0.003782,-0.00126,-0.001618,0.365479,-0.212646,-0.571045
0.388784,-0.935538,9.798609,0.000323,0.001139,-0.001172,-0.071045,0.395508,-0.569336,-0.245542,3.180718,9.258352,-0.00741,0.004193,0.005003,-0.657227,0.030029,-0.433838,-0.54409,3.834099,9.064215,-0.001356,-0.001909,0.002695,-0.315674,0.517334,0.808105,-0.216472,3.706354,9.123133,-0.004732,0.000231,0.008,0.663574,-0.046143,-0.043213,-0.266601,3.242126,9.234935,0.0028,-0.00251,-0.003643,0.362305,-0.210693,-0.561768
0.369874,-0.917715,9.788388,3.1e-05,0.002267,0.001308,-0.077393,0.404053,-0.56958,-0.254432,3.197206,9.272076,-0.009943,0.010231,0.009301,-0.662109,0.036865,-0.437012,-0.525385,3.819267,9.068727,-0.005988,0.005151,0.000384,-0.321045,0.520996,0.80835,-0.206289,3.708852,9.133115,-0.006946,-0.000152,0.010326,0.659668,-0.042725,-0.041504,-0.265483,3.264082,9.236636,-0.000747,-0.001058,-0.003364,0.357422,-0.208496,-0.559814
0.379632,-0.938207,9.809374,-0.00215,0.001141,-0.001073,-0.074219,0.400879,-0.567383,-0.259194,3.180533,9.254035,-0.012587,0.00258,0.007935,-0.6604,0.034912,-0.433838,-0.553747,3.817628,9.032544,-0.005236,0.0042,0.002983,-0.316895,0.525391,0.80542,-0.229934,3.704571,9.10784,-0.005435,0.006873,0.008471,0.66333,-0.038086,-0.047852,-0.248836,3.249025,9.245429,-0.002828,0.001049,-0.00126,0.362549,-0.205566,-0.562256
0.38656,-0.924441,9.782764,0.001909,0.002601,0.000679,-0.07251,0.406006,-0.570312,-0.229489,3.184966,9.263663,-0.005812,0.009134,0.007559,-0.660645,0.038574,-0.437744,-0.530494,3.821495,9.077441,0.000172,0.000714,0.000739,-0.314941,0.518311,0.802979,-0.218104,3.713124,9.133434,-0.001646,-0.001293,0.012001,0.661133,-0.044922,-0.047852,-0.265607,3.264057,9.236641,0.00648,-0.003607,-0.004416,0.361572,-0.21167,-0.563965
0.382247,-0.93741,9.785773,-0.002169,0.001777,-0.0014,-0.077881,0.397217,-0.565186,-0.270794,3.182254,9.263176,-0.012469,0.005416,0.008087,-0.663086,0.029541,-0.431152,-0.550639,3.824901,9.042702,-0.009962,0.009166,0.001589,-0.313477,0.520508,0.803223,-0.219243,3.706157,9.118206,-0.011498,0.00076,0.009014,0.665771,-0.042969,-0.049805,-0.243254,3.263859,9.226893,-0.006366,-0.002576,-0.000421,0.364502,-0.209229,-0.561035
0.369328,-0.935097,9.812237,0.001674,0.002805,-0.000369,-0.073975,0.399414,-0.565918,-0.242942,3.184921,9.259309,-0.007891,0.00494,0.00588,-0.662109,0.032959,-0.432617,-0.531122,3.829424,9.038173,-0.000943,0.000747,0.001838,-0.320068,0.51709,0.803955,-0.216086,3.697078,9.139122,-0.002533,0.005446,0.010844,0.660645,-0.04541,-0.046387,-0.266234,3.242043,9.234975,0.004158,0.002498,-0.003683,0.357178,-0.210449,-0.563232
0.363088,-0.92522,9.783516,-0.000654,0.002243,-0.001511,-0.078613,0.396973,-0.577148,-0.257523,3.163285,9.257206,-0.01269,0.006687,0.009172,-0.667725,0.028076,-0.443604,-0.532355,3.825293,9.051805,-0.005535,0.007118,0.000357,-0.314453,0.52002,0.805176,-0.242306,3.703604,9.122498,-0.004626,-0.000356,0.010524,0.663818,-0.043945,-0.046143,-0.261131,3.254553,9.245611,-5.4e-05,-0.006169,-0.002544,0.362549,-0.208496,-0.562744
0.363873,-0.936704,9.799382,-0.000558,-0.000935,0.000123,-0.080078,0.393311,-0.56958,-0.239213,3.182523,9.252982,-0.010782,0.003091,0.007707,-0.663086,0.0271,-0.434082,-0.557519,3.825677,9.051919,-0.006159,0.004439,-0.000353,-0.321533,0.525635,0.801514,-0.200885,3.704692,9.122712,-0.006062,-0.002366,0.009144,0.658203,-0.035889,-0.049316,-0.253272,3.256269,9.222835,0.001894,-0.000284,-0.002543,0.356934,-0.202393,-0.564209
0.363725,-0.936706,9.799387,0.00052,0.002206,-0.000777,-0.074463,0.398682,-0.568115,-0.249863,3.186194,9.261483,-0.008543,0.009365,0.007111,-0.661377,0.037109,-0.43335,-0.526378,3.824509,9.067544,-0.002096,0.00147,0.00211,-0.318848,0.522461,0.802002,-0.215385,3.720122,9.131538,-0.004371,0.005026,0.010278,0.661377,-0.04248,-0.047852,-0.259229,3.26048,9.229632,-0.000575,0.000562,-0.004572,0.358154,-0.207031,-0.565186
0.363175,-0.936781,9.7994,-0.001142,0.002304,0.000573,-0.066162,0.396484,-0.570312,-0.26055,3.178506,9.278334,-0.013221,0.002479,0.007049,-0.652344,0.030029,-0.437988,-0.535224,3.821931,9.053056,-0.007987,0.00872,0.001583,-0.315186,0.517578,0.798096,-0.238601,3.70268,9.110752,-0.009553,0.005118,0.009771,0.666504,-0.046875,-0.052246,-0.255001,3.250358,9.238812,-0.003049,-0.005106,-0.00151,0.36377,-0.210449,-0.567627
0.38391,-0.93033,9.790802,0.000735,0.002638,-5.5e-05,-0.07666,0.388184,-0.569092,-0.251201,3.181513,9.263056,-0.006228,0.007144,0.007621,-0.665039,0.023682,-0.437256,-0.52773,3.826032,9.054866,0.001006,-0.00057,0.000409,-0.321533,0.520264,0.797363,-0.211824,3.7072,9.123776,-0.001664,-0.004729,0.010893,0.65918,-0.043213,-0.05249,-0.263607,3.248487,9.218836,0.007605,0.000325,-0.005268,0.354492,-0.211182,-0.570801
0.366611,-0.935241,9.812325,-0.000799,0.002808,-0.000271,-0.077637,0.397217,-0.57373,-0.261947,3.174286,9.279739,-0.01159,0.00605,0.009199,-0.662354,0.03418,-0.439941,-0.532287,3.829216,9.063207,-0.008477,0.007446,0.000786,-0.317383,0.517578,0.804932,-0.222544,3.699467,9.128122,-0.008372,0.006269,0.009064,0.661377,-0.047852,-0.046143,-0.245807,3.253483,9.258364,-0.005322,-0.002813,-0.00093,0.361084,-0.209961,-0.563721
0.395743,-0.926476,9.792966,-0.000761,0.001536,0.000382,-0.071045,0.393311,-0.567871,-0.249583,3.178248,9.242923,-0.009341,0.004018,0.0068,-0.65625,0.02832,-0.433838,-0.541755,3.813632,9.031164,-0.002428,0.002469,0.002646,-0.317383,0.514893,0.806152,-0.232867,3.7074,9.114795,-0.004243,0.003507,0.010089,0.661377,-0.05249,-0.048096,-0.270669,3.249308,9.212376,0.003069,-0.000165,-0.003547,0.361572,-0.215088,-0.563232
0.368807,-0.916686,9.801435,0.00189,0.003237,0.000352,-0.074707,0.404785,-0.567383,-0.268291,3.189466,9.272711,-0.008285,0.009891,0.007331,-0.663818,0.0354,-0.433105,-0.521187,3.841116,9.074998,-0.003547,0.005113,-0.000243,-0.317139,0.519775,0.811523,-0.229695,3.712178,9.13096,-0.002607,-0.003932,0.010251,0.661621,-0.044678,-0.043701,-0.256659,3.26434,9.242765,0.002336,-0.004664,-0.005265,0.361816,-0.208496,-0.557129
0.376801,-0.932043,9.778001,-0.002296,0.001706,0.000166,-0.079102,0.398926,-0.574219,-0.258376,3.158586,9.247062,-0.013673,0.001861,0.007513,-0.665771,0.03125,-0.442139,-0.550573,3.832686,9.065515,-0.007689,0.005803,0.004212,-0.319824,0.514893,0.802246,-0.209456,3.702679,9.125667,-0.009341,0.004098,0.00868,0.660889,-0.046631,-0.049805,-0.262867,3.248716,9.218776,-0.005052,-0.00047,-0.000832,0.359131,-0.213135,-0.56543
0.372315,-0.927324,9.793702,0.001478,0.001738,-0.000764,-0.076172,0.392334,-0.573975,-0.236533,3.181399,9.269866,-0.004297,0.010484,0.007553,-0.664795,0.025391,-0.438965,-0.519605,3.822247,9.050098,0.001434,0.000528,-0.00104,-0.319824,0.518311,0.805176,-0.231025,3.704385,9.116068,0.000197,0.003647,0.010227,0.659912,-0.047119,-0.044189,-0.261231,3.252323,9.231973,0.008475,-0.001529,-0.00457,0.35791,-0.209717,-0.561523
0.384756,-0.922975,9.795891,0.000951,0.00307,0.000666,-0.077881,0.392334,-0.568848,-0.267957,3.183931,9.253328,-0.014625,0.00397,0.007239,-0.66748,0.027344,-0.436523,-0.542862,3.8523,9.071855,-0.009495,0.009578,0.000974,-0.314941,0.523438,0.803955,-0.229153,3.722118,9.127835,-0.007871,0.000194,0.008314,0.665771,-0.041504,-0.046387,-0.26372,3.284274,9.224549,-0.003733,-0.005073,-0.00177,0.363037,-0.20459,-0.561523
0.371148,-0.927009,9.793776,-0.000868,0.001812,-0.002233,-0.077393,0.394775,-0.571533,-0.235055,3.166473,9.258171,-0.010157,0.003817,0.006585,-0.665039,0.027588,-0.439453,-0.534874,3.802618,9.053267,-0.004045,-0.0012,0.000931,-0.313477,0.522705,0.800293,-0.201198,3.69729,9.120768,-0.008356,0.00129,0.010029,0.665771,-0.040283,-0.050537,-0.254997,3.248216,9.225146,-0.000897,0.002029,-0.004516,0.361084,-0.208252,-0.567139
0.375343,-0.937734,9.78601,-0.001211,0.001308,-0.001388,-0.074951,0.395752,-0.572021,-0.25858,3.197441,9.279432,-0.005662,0.0106,0.007331,-0.663574,0.030762,-0.438721,-0.517747,3.82789,9.06089,-0.003241,0.007234,0.000413,-0.315918,0.524902,0.803223,-0.206063,3.703331,9.143505,-0.002716,0.006011,0.010566,0.659424,-0.036133,-0.047607,-0.281347,3.258213,9.225837,0.002384,-0.00013,-0.003807,0.359131,-0.200439,-0.5625
0.380179,-0.94188,9.806837,0.000539,0.001571,-0.00045,-0.073975,0.390625,-0.570557,-0.253429,3.186508,9.245184,-0.013199,0.00112,0.006642,-0.658691,0.026855,-0.435547,-0.550898,3.827256,9.045881,-0.004846,0.005992,0.000713,-0.308838,0.521729,0.800049,-0.23557,3.717498,9.106617,-0.004859,0.002226,0.009528,0.671387,-0.042725,-0.055176,-0.257835,3.25925,9.25847,0.000807,-0.002947,-0.002406,0.368652,-0.205811,-0.570801
0.383303,-0.928642,9.803903,0.001871,0.003873,2.6e-05,-0.078369,0.397949,-0.56958,-0.240552,3.181078,9.265449,-0.008767,0.010638,0.00822,-0.66626,0.034424,-0.4375,-0.535542,3.829493,9.075959,-0.000918,-0.002373,0.000649,-0.315186,0.516113,0.808594,-0.210131,3.706314,9.137273,-0.00328,-0.002737,0.010333,0.663574,-0.047852,-0.045654,-0.259813,3.27498,9.233429,0.003289,-0.002353,-0.004908,0.36084,-0.214355,-0.5625
0.36559,-0.927766,9.817489,-0.000977,0.001105,-0.00034,-0.071289,0.396729,-0.570068,-0.270362,3.173878,9.270753,-0.01137,0.005404,0.006103,-0.658936,0.029785,-0.438965,-0.540851,3.819153,9.066946,-0.011971,0.010314,0.000783,-0.316406,0.515869,0.794189,-0.221882,3.708408,9.108279,-0.012797,0.006146,0.008915,0.6604,-0.048096,-0.055664,-0.267838,3.253301,9.225471,-0.009911,-0.001131,-0.000139,0.360596,-0.2146,-0.574951
0.368802,-0.939188,9.773208,-0.000615,0.000972,-0.000858,-0.073486,0.398438,-0.568604,-0.242317,3.187887,9.258654,-0.006286,0.004734,0.008363,-0.65918,0.031006,-0.438477,-0.530061,3.806029,9.043268,0.002233,-0.002678,0.001788,-0.312988,0.514404,0.809082,-0.221945,3.707041,9.108834,0.000324,0.002125,0.010036,0.665771,-0.051514,-0.044434,-0.253466,3.251617,9.238412,0.010144,0.000381,-0.005754,0.365967,-0.217041,-0.55957
0.373795,-0.931411,9.814663,-0.001357,0.001873,-0.000149,-0.076172,0.398438,-0.567383,-0.267814,3.195013,9.282837,-0.011174,0.008664,0.007149,-0.661865,0.030273,-0.435547,-0.52802,3.84818,9.082699,-0.002235,0.006664,0.000824,-0.310547,0.517334,0.800781,-0.211494,3.713108,9.147587,-0.002526,-0.003437,0.009342,0.669922,-0.048584,-0.050781,-0.266711,3.273924,9.256003,0.000891,-0.007126,-0.004359,0.369385,-0.211182,-0.568359
0.390298,-0.932507,9.801105,-0.001395,0.003145,-0.000803,-0.078369,0.394775,-0.574707,-0.257827,3.163871,9.257244,-0.013424,0.002393,0.007732,-0.665527,0.027344,-0.437256,-0.554173,3.822598,9.047651,-0.011293,0.004143,0.003102,-0.315918,0.522705,0.80957,-0.199568,3.715734,9.115126,-0.010403,0.006894,0.009576,0.66333,-0.043457,-0.043457,-0.244871,3.235118,9.227092,-0.007287,0.003085,-0.000963,0.362549,-0.207275,-0.55957
0.363501,-0.940479,9.796858,0.002486,0.002901,0.000883,-0.078857,0.399658,-0.560303,-0.259542,3.1955,9.268449,-0.003851,0.011105,0.007115,-0.664062,0.034668,-0.42749,-0.515302,3.809665,9.060774,0.000577,-0.001669,0.001856,-0.310303,0.517578,0.805176,-0.225007,3.697933,9.136855,-0.004727,0.005074,0.013151,0.668945,-0.047119,-0.045654,-0.285756,3.246354,9.214995,0.004926,-7.7e-05,-0.004292,0.367188,-0.212402,-0.562744
0.375343,-0.925039,9.783144,-0.002093,-0.000766,-9.4e-05,-0.078613,0.391846,-0.574463,-0.262727,3.180922,9.263721,-0.014083,0.003659,0.007257,-0.665283,0.025879,-0.440918,-0.535548,3.81968,9.070146,-0.005913,0.010375,0.000673,-0.316162,0.51123,0.804443,-0.219991,3.705207,9.139849,-0.005514,-0.002026,0.009221,0.663086,-0.053711,-0.045898,-0.239845,3.247342,9.237822,-0.000907,-0.007753,-0.001596,0.362793,-0.216797,-0.565674
0.376584,-0.942171,9.806948,0.001116,0.001871,-0.000246,-0.079834,0.397949,-0.568604,-0.246713,3.176565,9.262429,-0.008415,0.007061,0.007197,-0.665527,0.03125,-0.436768,-0.551264,3.832401,9.044809,-0.000944,0.000746,0.001839,-0.3125,0.522217,0.815186,-0.20335,3.716988,9.109617,-0.000697,0.00243,0.010294,0.666504,-0.038818,-0.040527,-0.249411,3.261457,9.235533,0.004228,0.005033,-0.005113,0.364258,-0.205322,-0.553467
0.384104,-0.921801,9.808947,0.000159,0.002339,-0.000259,-0.074707,0.401123,-0.562744,-0.274228,3.181965,9.273093,-0.011522,0.007101,0.008084,-0.659912,0.035156,-0.430908,-0.524372,3.83159,9.081966,-0.008743,0.004641,0.000965,-0.316895,0.518555,0.808594,-0.228559,3.699677,9.131148,-0.010203,0.006338,0.009841,0.664307,-0.042969,-0.043701,-0.276439,3.249286,9.234618,-0.006241,-0.005495,-0.003084,0.362061,-0.208984,-0.558838
0.374645,-0.930675,9.791128,-0.000184,0.001836,0.000586,-0.073486,0.394775,-0.567383,-0.238553,3.166106,9.256193,-0.009062,0.003181,0.006612,-0.660889,0.028076,-0.435059,-0.558074,3.813976,9.06299,-0.005298,0.004028,0.000743,-0.31543,0.519287,0.799561,-0.228222,3.695399,9.102676,-0.005505,-0.002489,0.007862,0.66626,-0.046875,-0.04834,-0.244365,3.234883,9.227187,0.002113,-0.002471,-0.003905,0.364014,-0.209229,-0.566162
0.364859,-0.922001,9.785996,-0.00161,0.002713,-0.001525,-0.07251,0.39917,-0.571533,-0.256835,3.199475,9.269607,-0.008669,0.009697,0.008709,-0.660645,0.032227,-0.441406,-0.517878,3.824638,9.053448,-0.001852,0.003415,0.000521,-0.313477,0.523193,0.813477,-0.208514,3.701852,9.122005,-0.002908,0.002055,0.01261,0.665283,-0.040283,-0.040039,-0.254878,3.265566,9.242381,0.004929,0.001559,-0.003207,0.364258,-0.203857,-0.551758
0.387233,-0.932769,9.801202,-0.000596,0.000336,-0.000531,-0.071045,0.403564,-0.572021,-0.254785,3.176085,9.265201,-0.012095,0.001108,0.00464,-0.65918,0.034424,-0.439941,-0.546157,3.83293,9.04801,-0.006145,0.006872,0.001672,-0.325684,0.524414,0.807617,-0.220732,3.707587,9.121761,-0.004107,0.006983,0.008923,0.653076,-0.040527,-0.043701,-0.262936,3.244932,9.234055,-0.002491,-0.003863,0.000331,0.349365,-0.202637,-0.557373
0.38281,-0.94011,9.796251,6.9e-05,0.000996,0.001961,-0.074219,0.404785,-0.563232,-0.24144,3.193109,9.269001,-0.007201,0.008634,0.009409,-0.660889,0.037598,-0.430176,-0.53538,3.829366,9.055261,-0.002513,0.001427,-0.001021,-0.320312,0.521484,0.803955,-0.223162,3.716801,9.131079,-0.004574,-0.002822,0.009853,0.6604,-0.043457,-0.046631,-0.264805,3.257893,9.23836,0.003061,-0.001795,-0.004634,0.358643,-0.20752,-0.561768
0.380895,-0.922867,9.772484,0.001784,0.003513,-0.002262,-0.076416,0.405762,-0.574951,-0.272967,3.184866,9.26053,-0.010233,0.006561,0.007436,-0.664062,0.037354,-0.440918,-0.531752,3.83705,9.065308,-0.008082,0.00663,0.002508,-0.312256,0.51416,0.79541,-0.212094,3.705591,9.145705,-0.011686,0.001832,0.010064,0.668213,-0.046387,-0.057373,-0.257448,3.25699,9.244856,-0.003425,-0.001465,-0.002385,0.366943,-0.212891,-0.573242
0.36769,-0.932388,9.778315,-0.000184,0.001836,0.000585,-0.06665,0.393555,-0.572754,-0.257033,3.180629,9.259204,-0.011132,0.005316,0.008355,-0.658203,0.028564,-0.442139,-0.533198,3.823054,9.048107,-0.001987,0.002009,0.000606,-0.310791,0.52124,0.807861,-0.216912,3.706354,9.110167,-0.001287,0.004583,0.010836,0.668945,-0.042725,-0.041992,-0.263837,3.241742,9.220733,0.004037,-0.001293,-0.001546,0.367676,-0.20874,-0.560791
0.367808,-0.938296,9.786242,-0.001787,0.001009,-0.001593,-0.078613,0.39917,-0.575928,-0.265073,3.163185,9.262506,-0.009004,0.008753,0.00762,-0.66626,0.030762,-0.442871,-0.529942,3.827632,9.071376,-0.005481,0.004875,0.0006,-0.323486,0.522705,0.801025,-0.224207,3.723438,9.141483,-0.001746,-0.0007,0.009446,0.655273,-0.042236,-0.050293,-0.255446,3.263475,9.228679,0.003254,-0.001982,-0.003111,0.355957,-0.207275,-0.567139
0.376903,-0.935406,9.812002,-0.000761,0.001537,0.000382,-0.066895,0.404297,-0.575928,-0.265341,3.19442,9.238682,-0.009998,0.003307,0.007954,-0.654541,0.036865,-0.442627,-0.543193,3.816058,9.047341,-0.006095,0.004622,0.001903,-0.31958,0.520264,0.80127,-0.227142,3.698298,9.114645,-0.00909,0.001548,0.009639,0.662842,-0.03833,-0.049072,-0.249636,3.259365,9.22184,-0.003425,-0.001466,-0.002385,0.359131,-0.203369,-0.564941
0.376309,-0.935271,9.812038,0.00189,0.003238,0.000353,-0.070557,0.401611,-0.572998,-0.264432,3.182315,9.261264,-0.011039,0.009519,0.008945,-0.657227,0.034424,-0.441895,-0.526656,3.837648,9.068492,-0.002992,0.002581,0.000198,-0.31958,0.510742,0.798096,-0.208969,3.717005,9.129891,-0.006118,0.00605,0.011505,0.660645,-0.052246,-0.051758,-0.265825,3.253079,9.253976,0.003617,-0.000549,-0.002795,0.358398,-0.217285,-0.569824
0.383767,-0.927101,9.793383,-0.001535,0.000169,-0.000217,-0.067871,0.401855,-0.576904,-0.265537,3.168778,9.270235,-0.010175,0.003829,0.006604,-0.656494,0.034912,-0.442383,-0.53361,3.807823,9.068422,-0.007431,0.006192,0.002033,-0.315674,0.522461,0.810059,-0.241039,3.698913,9.128635,-0.005624,-0.000962,0.008041,0.664062,-0.041504,-0.041748,-0.260022,3.249008,9.247123,-0.00343,-0.003099,-0.003471,0.362793,-0.208984,-0.557373
0.374885,-0.929632,9.804135,0.000914,0.004343,1.3e-05,-0.069824,0.402344,-0.575439,-0.230889,3.186892,9.263871,-0.00645,0.009034,0.006734,-0.658203,0.037842,-0.443604,-0.532779,3.826883,9.059596,0.000808,0.001834,0.000862,-0.317871,0.512451,0.810303,-0.214828,3.716772,9.137132,-0.001204,9e-05,0.010898,0.662842,-0.051514,-0.041016,-0.249479,3.259787,9.221695,0.007238,0.000536,-0.004504,0.360107,-0.215088,-0.557861
0.382489,-0.92716,9.793428,-0.000867,0.001812,-0.002234,-0.078125,0.397217,-0.570557,-0.267422,3.186879,9.255261,-0.01371,0.007029,0.007652,-0.665283,0.030273,-0.437012,-0.513198,3.831805,9.054998,-0.008118,0.007325,0.001686,-0.312744,0.52417,0.793945,-0.223862,3.712025,9.128111,-0.008971,0.005484,0.009841,0.665039,-0.040527,-0.054932,-0.269518,3.263695,9.244633,-0.002425,-0.004599,-0.003267,0.36377,-0.204834,-0.571289
0.382644,-0.933138,9.801347,-0.001681,0.000734,0.001022,-0.084473,0.39502,-0.577148,-0.246726,3.173891,9.25423,-0.009656,0.004876,0.007035,-0.671143,0.027832,-0.446045,-0.547459,3.81098,9.049224,-0.004108,0.002613,0.001298,-0.321533,0.529297,0.797852,-0.213809,3.698261,9.113528,-0.007508,0.001107,0.008118,0.656738,-0.03418,-0.052979,-0.255439,3.242203,9.226778,-0.001241,-0.001212,-0.0021,0.354492,-0.200195,-0.568604
0.382277,-0.933141,9.801361,0.001694,0.00217,-4.2e-05,-0.07959,0.393799,-0.568115,-0.272226,3.18114,9.278329,-0.006538,0.007989,0.007877,-0.66626,0.024414,-0.435547,-0.532527,3.813269,9.079262,-0.000417,0.003944,-0.000514,-0.318359,0.517334,0.804199,-0.220329,3.699115,9.120312,-0.00112,0.000583,0.009998,0.661133,-0.049072,-0.046143,-0.256378,3.258704,9.244282,0.004469,0.001039,-0.003744,0.360596,-0.21167,-0.563477
0.367872,-0.925622,9.783373,0.000178,0.001704,6.8e-05,-0.07666,0.397949,-0.567627,-0.249225,3.1922,9.274457,-0.013359,0.003453,0.006608,-0.662354,0.030273,-0.435059,-0.539844,3.830811,9.055543,-0.007136,0.005887,0.000672,-0.316406,0.515625,0.805908,-0.216222,3.719978,9.118727,-0.004414,0.004086,0.009797,0.664795,-0.047363,-0.044189,-0.270593,3.260619,9.231266,-0.002137,-0.005698,-0.001524,0.362549,-0.211914,-0.559814
0.377182,-0.940209,9.79646,-0.000399,0.001405,-0.000136,-0.071777,0.398438,-0.567627,-0.242315,3.171088,9.262152,-0.010635,0.008356,0.007194,-0.659912,0.033447,-0.433838,-0.536004,3.838514,9.065605,-0.003238,0.000635,0.001789,-0.320801,0.517822,0.805176,-0.227402,3.712099,9.123108,-0.007599,0.001081,0.010367,0.656982,-0.045654,-0.046143,-0.254133,3.264292,9.228426,-2.6e-05,0.001808,-0.002733,0.355225,-0.208252,-0.563477
0.376451,-0.934657,9.788522,-0.000614,0.000973,-0.000858,-0.077637,0.405029,-0.573242,-0.269887,3.176809,9.272679,-0.006841,0.005678,0.00636,-0.665283,0.039795,-0.438721,-0.542345,3.81235,9.052079,-0.005529,0.00713,0.000377,-0.319824,0.516357,0.806396,-0.221386,3.692694,9.13507,-0.006796,0.002887,0.007774,0.660645,-0.045898,-0.044922,-0.266564,3.250684,9.240379,0.000127,-0.001278,-0.001581,0.360107,-0.212891,-0.561768
0.367325,-0.931537,9.791324,-0.000184,0.001837,0.000585,-0.073975,0.397461,-0.567383,-0.247073,3.188224,9.268697,-0.009864,0.006768,0.00611,-0.661621,0.030273,-0.436523,-0.548929,3.843013,9.045904,0.000158,0.002272,0.001341,-0.315186,0.520752,0.811035,-0.226913,3.709776,9.124065,-5.4e-05,0.003247,0.009485,0.665527,-0.043213,-0.043213,-0.25911,3.250386,9.246664,0.004653,-0.002415,-0.004392,0.362793,-0.20874,-0.55957
0.37918,-0.921631,9.785589,0.001638,0.004079,-0.001023,-0.078369,0.396973,-0.568359,-0.263827,3.176297,9.244611,-0.012572,0.008179,0.008986,-0.665527,0.031738,-0.433838,-0.526771,3.833554,9.073365,-0.007122,0.004329,7.5e-05,-0.31958,0.522705,0.804688,-0.234231,3.723924,9.126389,-0.006854,0.000844,0.010733,0.65918,-0.043457,-0.045166,-0.264537,3.25725,9.224173,-0.000658,-0.001968,-0.003145,0.359375,-0.208252,-0.562256
0.379996,-0.938535,9.809431,-0.000829,0.000541,-0.00158,-0.079346,0.394531,-0.569336,-0.257984,3.166769,9.259211,-0.008438,0.003912,0.005498,-0.667236,0.028564,-0.435791,-0.5332,3.807017,9.059984,-0.005067,0.004918,0.003738,-0.314941,0.521484,0.805664,-0.218782,3.705657,9.118645,-0.00763,0.003099,0.009655,0.664307,-0.044434,-0.045166,-0.261992,3.241693,9.249175,-0.0017,-0.001734,-0.002635,0.364014,-0.208496,-0.564697
