# sampling frequency: 40
# units are seconds/meters/radians/a.u.
seg1_acc_x,seg1_acc_y,seg1_acc_z,seg1_gyr_x,seg1_gyr_y,seg1_gyr_z,seg1_mag_x,seg1_mag_y,seg1_mag_z,seg2_acc_x,seg2_acc_y,seg2_acc_z,seg2_gyr_x,seg2_gyr_y,seg2_gyr_z,seg2_mag_x,seg2_mag_y,seg2_mag_z,seg3_acc_x,seg3_acc_y,seg3_acc_z,seg3_gyr_x,seg3_gyr_y,seg3_gyr_z,seg3_mag_x,seg3_mag_y,seg3_mag_z,seg4_acc_x,seg4_acc_y,seg4_acc_z,seg4_gyr_x,seg4_gyr_y,seg4_gyr_z,seg4_mag_x,seg4_mag_y,seg4_mag_z,seg5_acc_x,seg5_acc_y,seg5_acc_z,seg5_gyr_x,seg5_gyr_y,seg5_gyr_z,seg5_mag_x,seg5_mag_y,seg5_mag_z
0.797298,2.518852,11.04462,0.661265,-0.101926,0.431135,-0.059326,0.320312,-0.620117,2.557127,-1.170011,12.754469,-0.621255,-0.334932,0.545723,-0.777588,0.175049,-0.253174,-1.044635,3.675955,7.571184,-0.024187,-0.117911,-0.006677,0.012939,0.591309,0.639648,-1.114458,4.635406,8.641645,-0.966064,-0.166398,-0.265935,0.513672,-0.171875,-0.245361,0.359029,4.449441,10.017071,-1.311659,-0.040376,0.354057,0.30835,-0.353027,-0.506104
-3.104041,3.500052,11.327341,-0.42021,-0.508837,-0.08858,-0.068604,0.328613,-0.621338,-1.244382,4.179448,8.204521,4.363312,0.775276,-1.161925,-0.787842,0.11792,-0.278564,0.641252,3.792976,10.180066,0.05514,-0.220939,0.139234,0.025391,0.588135,0.641846,-0.362949,3.207378,7.59223,0.155853,-0.03613,0.294799,0.520264,-0.174316,-0.24707,-0.37088,1.397053,8.817905,-0.274009,0.240621,-0.48581,0.318115,-0.347412,-0.510742
2.148147,-1.82831,8.51887,-1.174201,0.248062,-0.148523,-0.066162,0.337402,-0.62207,-1.716945,10.204412,9.577395,-0.811926,-0.668899,0.763158,-0.787842,0.127441,-0.264648,0.100776,4.642034,10.194136,0.159023,0.608934,-0.074504,0.021729,0.582031,0.654297,-1.181155,4.61237,9.285286,0.389193,0.08201,-0.016086,0.530273,-0.183838,-0.231201,-0.610962,3.284585,9.14968,0.931219,-0.392971,-0.219541,0.32251,-0.359863,-0.493896
-3.001165,0.637846,10.584464,0.227095,-0.34538,-0.317281,-0.070312,0.328125,-0.627441,1.669137,0.509986,9.131293,-2.15182,-0.27314,-0.544107,-0.779297,0.121094,-0.269043,-0.981897,4.083511,7.300645,-0.149719,0.181819,0.072801,0.005127,0.572754,0.646973,-0.782673,4.892242,8.806241,-0.298836,-0.264526,0.166433,0.516357,-0.179932,-0.240967,0.895968,5.510617,8.905129,0.034196,-0.189603,-0.530082,0.310547,-0.356445,-0.503662
2.234725,0.489824,9.268984,-0.113247,0.050575,0.060035,-0.065674,0.34082,-0.617676,0.409328,1.339442,7.311601,2.230057,0.172512,0.427257,-0.780762,0.121582,-0.26001,0.357378,6.165229,8.064939,0.300937,-0.048807,-0.116612,0.008301,0.578369,0.647461,0.378676,4.895892,8.409483,0.066328,-0.218264,-0.064161,0.520508,-0.179688,-0.246094,0.649862,4.488064,9.215263,-0.492493,-0.009967,0.041266,0.314941,-0.348389,-0.506592
-2.001511,-0.522449,9.090284,0.25485,-0.257467,-0.358531,-0.069824,0.331543,-0.611328,0.278338,8.954134,8.855703,0.878557,0.107535,-0.566033,-0.779785,0.102295,-0.260254,0.040557,4.292867,7.369587,-0.851167,0.420627,0.135637,-0.000488,0.561035,0.655518,-0.11101,4.819091,8.488177,-0.191682,0.190719,0.074308,0.516846,-0.184814,-0.241455,0.214214,3.651352,8.476352,-0.134322,-0.136752,-0.356873,0.308594,-0.352051,-0.514404
0.743068,0.460417,9.169555,1.38836,0.101448,0.020577,-0.072021,0.311035,-0.628906,-0.189165,5.470592,8.321513,-1.680451,0.105107,0.582805,-0.783691,0.132812,-0.270996,-1.993079,3.764101,8.455121,0.211181,-0.262858,-0.07758,0.018555,0.57666,0.665039,-1.39275,4.824043,8.545902,-0.151844,-0.082614,0.042322,0.533203,-0.18042,-0.238037,0.254604,4.211342,8.057498,0.1175,-0.067127,-0.121828,0.327148,-0.350342,-0.50708
-0.810645,3.604738,10.180199,0.49886,-0.42089,-0.154889,-0.071045,0.302979,-0.616699,0.41576,0.827105,8.215034,-0.548606,0.079124,-0.304277,-0.777344,0.134277,-0.26123,1.735523,5.722698,9.630313,0.073335,-0.373541,-0.016688,0.02124,0.580566,0.667725,0.477296,4.62915,8.435513,-0.266589,-0.389634,-0.148156,0.526611,-0.179688,-0.245117,0.724304,4.907968,8.531118,-0.184001,-0.180774,-0.123247,0.319092,-0.349854,-0.511719
0.107705,1.614778,10.129779,-0.377971,0.039179,-0.304635,-0.078369,0.311279,-0.62207,-0.288468,4.027414,10.695952,0.969365,0.103803,0.174832,-0.784424,0.130615,-0.270264,-0.11754,4.365557,9.885705,-0.878599,0.518982,0.055706,0.008301,0.570557,0.680908,0.280383,4.214762,9.339735,-0.350352,0.338187,0.100297,0.524414,-0.177979,-0.244385,0.777521,3.572687,9.863681,-0.772809,0.216255,-0.007675,0.316895,-0.339355,-0.515137
-1.216524,-0.006008,9.753473,-0.224303,-0.369549,-0.158284,-0.07959,0.317871,-0.616699,-0.714678,5.160605,8.361098,-0.382542,0.113432,-0.104318,-0.7771,0.135498,-0.266357,-1.543397,1.832729,8.891155,-0.792346,0.057128,-0.007677,0.008301,0.567383,0.686768,-2.263347,3.833968,9.307829,-0.445127,0.306193,-0.081426,0.525391,-0.165283,-0.245117,-1.382924,3.00046,9.691285,-0.013292,0.13583,-0.130435,0.319092,-0.328857,-0.517822
0.151186,0.679195,10.092596,0.084015,0.043853,-0.158797,-0.084229,0.30542,-0.621094,-0.767579,2.80251,8.741753,-0.615934,-0.189204,-0.061655,-0.783203,0.125488,-0.261719,-0.874118,1.905491,7.227565,0.9019,-0.139225,0.175818,0.017822,0.577881,0.683105,-1.434186,3.107329,8.318845,0.138597,-0.618397,0.1903,0.528564,-0.172119,-0.251465,-0.241513,3.789953,8.448108,0.255004,-0.502981,-0.127188,0.320801,-0.3396,-0.518311
-0.629153,1.047623,10.38039,-0.207508,-0.196309,-0.169101,-0.084717,0.313965,-0.617432,1.537056,3.640181,9.602054,0.545615,0.222202,0.102676,-0.781982,0.125488,-0.270508,0.697379,8.05567,10.401167,1.120479,-0.145979,-0.447472,0.003174,0.599365,0.689697,1.342912,5.22511,8.147029,0.587558,-0.364657,-0.063338,0.518311,-0.178711,-0.243408,1.880476,4.547229,7.807008,-0.076911,-0.095534,-0.029988,0.307617,-0.339844,-0.508789
0.725827,-0.303656,8.488741,0.301543,-0.086377,-0.233123,-0.091553,0.310303,-0.616699,-1.39932,4.913714,9.256759,-0.24156,0.097892,-0.022624,-0.784668,0.133057,-0.266846,0.582741,6.657347,10.004534,-2.017306,0.409109,0.398899,0.008301,0.571533,0.702148,0.227837,6.254387,10.159413,-0.642448,0.547409,0.06251,0.526855,-0.168213,-0.240723,0.229026,3.957574,8.580569,-0.689997,0.499988,-0.104883,0.320557,-0.326172,-0.513428
-0.84467,2.54787,9.954879,0.811118,-0.13115,-0.172423,-0.096924,0.2854,-0.625,0.894693,3.309491,7.070815,-0.375503,-0.157088,0.095008,-0.789062,0.128418,-0.27002,-2.122212,-1.129224,5.732115,-1.856776,0.039341,0.080687,0.007568,0.537109,0.720215,-1.797159,3.275233,8.304469,-1.595917,0.129861,0.00249,0.526611,-0.158936,-0.247559,-0.728823,3.405056,11.077919,-0.567369,0.024444,-0.126638,0.322266,-0.320557,-0.522461
-0.081365,2.487184,10.766182,-1.077665,-0.093734,-0.333344,-0.092285,0.312256,-0.617188,0.052508,4.795178,9.127708,0.092664,0.562701,-0.117484,-0.786377,0.13623,-0.281006,-0.012897,2.38225,7.12669,2.363974,-0.473311,-0.136429,0.018799,0.593994,0.712158,-0.984273,1.401443,7.302482,0.077078,-0.409727,0.030085,0.532471,-0.157715,-0.256104,-0.222412,2.933799,10.5047,-0.285132,-0.236165,0.006194,0.326416,-0.314453,-0.526367
-0.309282,-0.619985,9.187041,-0.348479,-0.191485,-0.213408,-0.10083,0.320068,-0.615479,-1.420028,4.839236,10.656438,-0.72998,0.073094,0.42476,-0.784912,0.15332,-0.275879,0.511606,12.136403,12.861248,0.880918,0.478666,-0.568311,0.007568,0.627441,0.706299,-0.326661,6.465056,10.88093,1.65351,-0.427164,0.047279,0.541504,-0.167725,-0.257568,-0.251753,3.747762,8.988362,0.072502,-0.421833,-0.141104,0.326172,-0.311279,-0.532227
0.263323,0.835686,10.339105,-0.103543,-0.122323,-0.171231,-0.102051,0.313965,-0.606934,0.888119,1.617218,8.046868,-0.722844,0.030191,0.104568,-0.782471,0.151611,-0.269287,-2.16377,3.903331,8.189248,-3.833477,-0.205215,0.635695,0.011719,0.561523,0.738525,0.519612,6.297922,9.296484,-1.654018,-0.209059,-0.172725,0.52832,-0.152344,-0.263916,1.744237,2.794704,7.529527,-0.55152,-0.212774,-0.091555,0.312744,-0.301758,-0.531006
0.553196,0.589418,10.022005,-0.162674,-0.090366,-0.157745,-0.103027,0.318604,-0.610596,-0.012201,3.740764,9.614957,0.531929,0.49166,0.074751,-0.7854,0.154785,-0.2854,1.824542,-3.638065,7.60964,-0.056132,-0.76334,0.039438,0.015381,0.570557,0.741211,0.445214,1.785596,7.340451,-1.186032,0.247718,-0.065635,0.524902,-0.135742,-0.265137,0.104052,3.675594,9.293677,0.125476,0.279356,-0.173839,0.313232,-0.300293,-0.531738
-0.57369,0.762981,10.189648,-0.429736,0.036042,-0.272243,-0.104004,0.330078,-0.610352,-1.059761,4.444805,9.968901,-0.706502,-0.01774,0.404569,-0.781738,0.172607,-0.281982,0.12732,5.596595,10.922452,2.326869,1.232726,-0.753686,-0.014648,0.614014,0.724121,-1.550911,2.488256,10.775171,0.680017,0.076982,-0.010241,0.522217,-0.14624,-0.260254,-0.245743,3.235096,11.007066,-0.967372,-0.196271,-0.249306,0.312012,-0.29248,-0.539795
-0.070627,-0.931787,9.081898,-0.308037,-0.087784,-0.244631,-0.10498,0.324463,-0.608643,-0.242406,1.423535,8.849076,-0.546009,0.239777,0.224695,-0.778809,0.173096,-0.281494,-3.260626,6.965457,11.117343,-1.28514,-0.517917,0.502836,0.006592,0.596924,0.731201,-0.461776,4.707643,9.34383,-0.016519,-0.502616,-0.128962,0.524414,-0.136963,-0.268066,0.188853,0.412817,8.618356,-0.378959,-0.174706,-0.172189,0.314453,-0.279541,-0.542725
0.031273,1.130356,10.04291,0.483681,-0.063996,-0.127618,-0.108887,0.317627,-0.615479,-0.588698,3.086299,8.65808,1.092872,-0.105395,0.211818,-0.78125,0.172119,-0.289307,3.396676,-0.609292,5.731473,-1.718982,-0.466443,0.153415,0.02124,0.558594,0.751465,0.656032,2.553212,6.262186,-0.956073,-0.096613,0.194178,0.534912,-0.13916,-0.266113,-0.155527,2.311428,8.958211,0.734206,-0.159987,-0.941512,0.325195,-0.293213,-0.53833
0.180736,1.576865,9.887898,-0.104373,-0.055684,-0.023645,-0.112549,0.318359,-0.614014,0.601909,7.048243,9.055678,0.392141,0.205163,-0.288702,-0.787109,0.160889,-0.288818,-2.021893,3.429661,11.017169,1.75633,1.692675,-0.603465,-0.016846,0.608887,0.742676,-0.574857,5.199641,12.891148,1.076827,0.004862,0.09508,0.530029,-0.142334,-0.269775,0.30857,5.50956,10.870456,-0.553348,-0.68738,-0.779881,0.310791,-0.270508,-0.553223
-0.391339,2.60094,10.123015,-0.246495,-0.015101,0.141968,-0.103271,0.317383,-0.60791,-1.949484,3.87209,9.80189,-1.618197,-0.083738,0.363847,-0.772461,0.174316,-0.27832,-2.457182,7.200314,10.152459,-1.194138,-1.366012,0.268755,0.000977,0.577393,0.744873,-0.002968,5.383821,8.82749,-2.123804,-0.151429,-0.080008,0.519531,-0.124512,-0.273682,1.784627,-0.574122,7.761137,-2.671417,0.32909,-1.186075,0.316895,-0.225098,-0.564209
0.61589,1.283095,10.287697,-1.463913,-0.196107,0.013379,-0.111572,0.356445,-0.612305,1.581696,0.385154,7.704122,0.585359,-0.246844,-0.472233,-0.784668,0.171631,-0.290283,3.459253,-0.802957,8.264787,-1.080719,0.112538,0.555214,0.010742,0.559326,0.751953,0.563571,-2.447754,8.073397,-0.674066,0.181846,-0.113974,0.520508,-0.115967,-0.276123,-1.855285,-3.087855,8.013002,1.625011,0.025966,-1.020755,0.325928,-0.243408,-0.566895
-0.493723,-0.889337,9.737029,-0.937724,0.185601,0.056087,-0.114014,0.380859,-0.605957,-1.60814,5.71289,10.024744,0.794275,0.37686,0.123121,-0.788086,0.175537,-0.288818,-2.969338,1.762622,9.26917,1.375821,0.925975,-0.904797,-0.009033,0.588623,0.751221,-1.008077,3.600281,9.466719,2.578116,0.165444,0.267653,0.53418,-0.140625,-0.262939,0.232389,5.846234,11.377888,1.962935,-0.616202,-2.289565,0.333984,-0.253662,-0.561523
-0.0758,-1.61648,9.105814,-0.445155,-0.165688,0.038101,-0.111084,0.380859,-0.601074,-0.244967,4.056258,9.295795,-0.892083,-0.428115,-0.263153,-0.781738,0.165527,-0.280762,-0.71568,4.457702,9.853924,1.213522,-0.95712,0.726442,0.011719,0.602783,0.744629,-0.802765,5.459853,9.629582,0.496776,-0.284126,-0.151943,0.530273,-0.147705,-0.256104,0.599116,2.64116,8.447805,-1.244701,0.217644,-0.849169,0.338623,-0.239014,-0.55957
0.486962,0.009587,10.396414,0.238873,0.022046,0.055434,-0.111328,0.375488,-0.598389,0.578268,1.594647,8.741016,-0.16458,0.144772,0.164073,-0.783203,0.168945,-0.280762,1.628931,6.67864,8.03796,-0.016448,0.28149,-0.635816,-0.006836,0.602051,0.739014,1.1017,6.205457,8.866273,-0.075992,-0.086987,0.102541,0.523682,-0.145508,-0.263672,-2.424704,0.223239,9.117743,0.212209,-0.035477,-2.771097,0.346436,-0.220703,-0.569092
0.205362,0.513782,10.315273,-0.448371,0.075694,-0.13711,-0.115479,0.38208,-0.596191,-0.578703,3.250837,9.417703,0.590019,-0.006814,-0.196243,-0.78833,0.161377,-0.280273,-1.657595,3.056136,10.011616,-1.038344,0.305012,0.556018,0.005127,0.585449,0.742188,-0.336007,2.90626,8.74869,-0.942071,0.457765,-0.08185,0.532715,-0.138916,-0.270508,0.089173,2.844403,10.283619,0.950261,-0.54681,-2.087471,0.351807,-0.217773,-0.582275
-0.879461,-0.14113,9.31458,-0.34565,0.102291,-0.015601,-0.111328,0.391846,-0.596924,-0.650334,4.637319,9.407285,-0.119518,0.086847,0.206284,-0.785645,0.168213,-0.282471,-0.655441,0.984311,8.854822,-0.101381,-0.444825,-0.256421,-0.00415,0.581055,0.748535,-1.641249,2.13497,9.40687,0.034646,0.010545,0.043381,0.523193,-0.138916,-0.266113,-2.041241,3.339736,9.893569,-0.715708,-0.136196,-2.873874,0.352783,-0.186768,-0.588379
0.806833,-0.347148,9.9715,-0.617578,-0.099177,-0.190744,-0.109863,0.400391,-0.601807,0.107068,2.755494,8.913414,-0.318213,-0.132073,-0.027358,-0.781494,0.169678,-0.287598,0.749698,4.072319,8.238664,1.418323,0.245641,0.041403,0.0,0.608154,0.746338,0.303866,3.954198,8.242094,1.162323,-0.663646,0.052902,0.525391,-0.145752,-0.260742,-1.05195,0.842107,8.033309,0.170033,-0.424985,-2.757916,0.360352,-0.169189,-0.580811
-0.636132,-1.348201,9.456052,-0.031123,0.202381,-0.008072,-0.109619,0.400635,-0.600342,-0.325974,3.545432,9.089079,0.389606,0.274443,0.043943,-0.783203,0.165283,-0.289551,-1.376209,6.354922,10.878377,-0.628197,0.17795,-0.218972,-0.009766,0.59375,0.747803,0.840329,4.807593,12.247386,-1.180188,0.478505,-0.122557,0.523438,-0.142578,-0.262451,0.40171,8.688798,2.752956,4.570786,-1.018819,-2.260686,0.352051,-0.231689,-0.57959
0.359097,-1.605043,9.578618,0.44202,-0.280136,0.003484,-0.111328,0.391113,-0.594482,-0.827994,4.663245,9.070767,-0.104965,-0.238017,-0.093356,-0.782227,0.164062,-0.278809,-0.159892,0.54475,8.428891,-0.98971,-0.522347,0.320954,0.007812,0.576416,0.752197,-1.27978,1.920796,5.004289,0.782894,0.140215,-0.161057,0.534424,-0.144287,-0.258789,0.407572,21.283024,13.96141,2.960094,1.346239,1.799858,0.374756,-0.282715,-0.556152
-0.436639,1.289918,10.122863,0.723206,0.263097,0.117996,-0.106934,0.386963,-0.604004,0.682342,3.298846,9.192206,-0.176594,0.005529,0.059403,-0.781006,0.172607,-0.285156,0.014461,4.518005,7.996794,1.580955,0.381894,-0.322903,-0.012939,0.605713,0.736328,-0.645036,7.328788,10.073468,0.67657,-0.478269,0.456087,0.523682,-0.157715,-0.271484,-4.115113,7.824425,9.761849,-9.49847,-0.475635,-0.075855,0.349365,-0.141113,-0.603271
0.322642,0.242044,9.257037,-0.417375,-0.217416,-0.072041,-0.105225,0.392822,-0.596924,-1.300406,2.758406,9.39695,-0.137889,0.177973,-0.028059,-0.775635,0.17334,-0.284424,-0.801113,6.042715,11.272773,-0.96851,0.06388,-0.030631,-0.001953,0.59082,0.745361,1.205983,4.406987,10.794333,-1.757686,0.065073,-0.44718,0.53125,-0.132812,-0.267822,2.891954,-14.167577,3.72682,-3.433894,-0.119793,0.951041,0.355957,-0.0896,-0.604004
-0.022467,1.198501,10.925893,-0.250728,-0.017423,-0.017451,-0.111572,0.393066,-0.606201,0.808115,3.08289,8.647181,0.182464,-0.290482,-0.006306,-0.783936,0.165771,-0.290527,-0.1152,0.465301,7.567223,-0.839288,-0.418425,0.539108,0.011719,0.571289,0.753174,-0.45542,-0.531118,7.139199,-0.641374,0.429877,0.31111,0.531006,-0.134521,-0.260986,-3.306269,-1.496184,6.486464,7.299446,0.492735,-0.849138,0.367432,-0.198242,-0.581299
0.119192,-1.168863,9.716157,-1.102779,0.088521,-0.140692,-0.109131,0.415039,-0.596436,-1.012377,4.172558,9.45444,0.318339,0.463623,0.125059,-0.780518,0.170654,-0.28833,0.003712,2.695835,9.632066,1.193873,0.547498,-0.692541,-0.008545,0.600342,0.739502,-1.232333,3.406049,9.680179,2.11993,-0.250465,-0.133967,0.528076,-0.14502,-0.267822,0.354994,14.34024,11.666048,2.85569,-0.860076,-0.924497,0.356201,-0.23291,-0.585938
-0.121787,-1.701391,9.538639,0.162554,-0.074821,0.027236,-0.113525,0.406006,-0.593994,-0.412105,4.156488,9.043669,-0.318938,-0.482717,-0.149098,-0.784668,0.165283,-0.279541,-1.652574,5.770879,9.098669,0.508274,-0.333208,0.427074,0.007324,0.608154,0.731934,0.622285,7.504093,9.241951,0.474742,-0.213968,0.088596,0.534424,-0.153564,-0.271484,0.832597,9.269379,10.927175,-3.645751,0.519503,1.409877,0.361572,-0.185547,-0.598633
0.140313,-0.08945,9.331201,0.112982,0.109442,0.018398,-0.11084,0.40625,-0.591797,0.791425,3.344331,9.027703,-0.040671,0.363821,0.135899,-0.780518,0.169434,-0.28418,1.362473,4.85611,9.082408,-0.91291,-0.078257,-0.235264,0.000488,0.589844,0.74707,-0.182352,4.922743,9.111823,-1.678069,0.280814,0.019501,0.530029,-0.136719,-0.265381,-2.777006,-2.46107,7.243708,-3.460779,0.544209,-0.660872,0.368164,-0.132812,-0.59668
-0.734527,0.812593,9.902406,-0.08956,-0.177163,0.012598,-0.117432,0.404541,-0.594971,-2.096618,3.208702,9.340674,-0.135907,-0.134367,-0.120993,-0.785889,0.163574,-0.284424,-1.771299,1.564177,9.513611,-0.694917,0.524907,0.285776,-0.00293,0.571777,0.749756,-0.763953,0.798016,9.063843,-0.88635,0.091722,-0.109297,0.528564,-0.136719,-0.269531,-0.62934,-2.388083,7.676317,2.054409,-0.983991,0.727717,0.349854,-0.17334,-0.601074
0.927637,0.259901,10.702843,-0.971984,-0.040015,-0.11426,-0.115479,0.428955,-0.591064,1.587999,3.008881,9.005822,0.112027,-0.12111,0.071705,-0.784668,0.171387,-0.283691,-0.23172,1.677655,8.760762,0.818966,-0.706077,-0.178026,0.003906,0.589355,0.73877,-0.15182,1.3923,8.428775,1.294488,-0.31007,0.143514,0.527832,-0.143066,-0.272461,1.556099,5.709091,9.265228,2.126923,0.251645,-1.105423,0.359375,-0.194336,-0.594482
0.03311,-1.400596,9.754159,-0.824913,0.053835,-0.052761,-0.118652,0.439941,-0.592529,-1.272436,3.854746,9.163964,0.21246,0.28693,-0.007,-0.786865,0.165039,-0.293457,1.147749,5.740348,9.090533,0.775335,0.453469,-0.051229,-0.00708,0.606934,0.737793,0.699169,6.667005,9.334642,1.283709,0.023815,-0.081034,0.524658,-0.153076,-0.266602,-1.604453,7.723451,10.549235,-0.45342,0.487032,0.562831,0.357422,-0.189941,-0.590332
-0.445733,-1.57554,9.32367,-0.598396,0.099862,-0.103696,-0.111572,0.449219,-0.582275,-0.241428,4.152914,9.17678,-0.10632,-0.245234,-0.00947,-0.781006,0.166016,-0.281982,-2.551679,4.946655,9.738579,-0.859241,0.147604,-0.029346,-0.005127,0.587158,0.751709,-1.043714,6.2739,9.88971,-1.211926,0.394265,0.130327,0.528564,-0.150146,-0.254639,-1.506809,1.978156,9.56408,-2.097211,-0.387625,0.018698,0.359619,-0.161865,-0.593506
0.039867,-2.076671,9.34111,-0.060292,-0.154256,0.046631,-0.109131,0.456543,-0.574951,-0.090426,3.404604,9.062031,-0.222801,0.162414,0.030473,-0.773682,0.172363,-0.279785,0.724195,1.630905,8.53824,-0.513416,-0.603546,0.299207,0.014648,0.578613,0.746338,-0.764937,1.297012,8.391133,-1.222352,-0.317278,-0.191665,0.533447,-0.135498,-0.269043,0.442622,-0.247797,8.004467,0.566293,0.07665,0.004974,0.365723,-0.168213,-0.595215
0.382911,-1.469902,10.102952,0.17691,0.027897,0.005179,-0.115967,0.456787,-0.590332,-0.366437,3.031725,9.245378,0.023517,-0.147559,-0.056807,-0.782227,0.171143,-0.290527,0.177013,2.719616,9.357308,0.60477,0.547955,-0.297642,-0.019531,0.592285,0.745605,1.01393,1.549012,8.723903,0.94013,-0.156622,0.15388,0.513672,-0.144531,-0.269043,-1.109959,4.227493,9.272882,1.107012,-0.173765,-0.10091,0.343994,-0.184082,-0.593994
-0.151942,-1.091947,9.545921,0.329568,-0.011704,0.049816,-0.118408,0.439209,-0.580078,0.060943,3.380082,9.081129,0.11122,0.149283,0.040047,-0.787109,0.16333,-0.281738,-1.604959,4.692373,9.324169,0.36751,-0.091878,0.04666,-0.002197,0.587891,0.744629,-0.454985,5.497755,9.343162,1.092561,0.383561,-0.019329,0.532471,-0.160645,-0.259277,0.789488,4.630938,9.229922,-0.382169,0.142691,-0.104185,0.359375,-0.188477,-0.5896
-0.057962,-0.489554,9.869798,0.178057,-0.023002,-0.052283,-0.116943,0.440674,-0.583252,-0.878623,3.762605,9.269551,0.052224,-0.060106,-0.004383,-0.783936,0.168701,-0.2854,0.37481,4.331787,9.064993,-0.37161,-0.260365,0.096594,0.001953,0.593994,0.73877,-1.119092,5.969194,9.602981,-0.667953,-0.083479,0.006504,0.530273,-0.140625,-0.266602,-2.239367,2.731731,10.222567,-0.421495,0.379322,0.256,0.365234,-0.169434,-0.594238
0.394412,-1.295683,10.445397,0.002,-0.06664,-0.00014,-0.124023,0.449951,-0.582764,0.314179,3.71373,9.072389,-0.134503,0.014802,0.0681,-0.790527,0.177979,-0.281738,-0.394771,2.631722,9.058871,-0.359587,0.33182,-0.047774,-0.011719,0.580078,0.744629,0.261809,2.40955,8.747507,-1.003045,-0.268048,-0.016569,0.51709,-0.140137,-0.272461,-0.599751,2.724492,9.005144,0.181359,-0.654646,-0.262585,0.346924,-0.17627,-0.601562
0.357019,-0.52234,9.874661,0.42658,0.196664,0.027113,-0.109375,0.428955,-0.592285,-0.595654,3.337475,9.091434,-0.037203,0.061155,-0.037784,-0.781982,0.16333,-0.288086,-0.777661,3.080692,9.353954,0.322787,-0.21888,0.045466,-0.008057,0.595947,0.752441,0.422442,1.955224,8.656898,0.463853,0.206969,0.009923,0.519531,-0.133057,-0.258789,1.173941,3.246527,8.286552,-0.009852,0.111013,0.285535,0.345947,-0.170654,-0.587646
-0.816194,0.127572,9.019056,-0.146294,-0.045187,0.020014,-0.111084,0.436035,-0.58667,-0.071875,3.449281,9.006951,0.115431,-0.078257,0.026882,-0.777588,0.166504,-0.286865,0.356931,4.022473,9.16583,0.142556,0.080769,-0.085126,-0.001221,0.595215,0.742676,-0.839498,4.542272,9.397946,0.804542,0.083314,0.075432,0.529541,-0.144043,-0.263184,-1.339803,2.601731,9.320733,-0.151553,0.471893,-0.297356,0.364502,-0.16748,-0.592529
0.308163,-0.855432,10.046628,-0.22611,-0.087735,-0.003056,-0.109619,0.445557,-0.582764,-0.574336,3.886332,9.369379,0.02937,0.079575,-0.050162,-0.777832,0.170166,-0.285645,-1.255749,3.809405,9.074603,-0.101942,0.093009,0.062449,-0.000488,0.587891,0.741211,-0.396959,5.37514,9.336352,-0.219267,-0.106806,-0.075105,0.531738,-0.147949,-0.269043,-1.495337,3.282711,10.292959,0.47358,-0.251317,0.192735,0.362061,-0.182129,-0.596191
0.312767,-1.204428,10.361937,-0.261659,0.030703,-0.024344,-0.11377,0.450928,-0.577393,-0.137101,3.568795,9.076618,-0.183425,-0.079137,0.037105,-0.782471,0.173584,-0.276367,0.101207,3.47784,9.185046,-0.114273,-0.201659,-0.017786,-0.001953,0.584961,0.750244,-0.02286,3.458107,8.958399,-0.677192,-0.033151,0.082776,0.5271,-0.144043,-0.263428,0.034666,4.446381,9.212333,-0.006556,-0.22845,-0.17519,0.355469,-0.182129,-0.588867
-0.128908,-1.274692,9.21793,0.02509,0.090748,0.006185,-0.116455,0.456055,-0.584229,-0.084077,3.054188,9.112979,-0.065443,0.067024,-0.006202,-0.783936,0.181152,-0.286133,-0.219281,3.333641,9.229071,-0.061969,0.187863,0.03975,-0.000732,0.584961,0.745605,-0.000785,2.448196,8.886273,-0.029472,0.006202,-0.057246,0.526611,-0.145508,-0.266602,0.082985,2.716132,8.373761,-0.777424,0.119036,0.235781,0.357666,-0.174561,-0.59082
-0.128856,-1.106897,9.68005,-0.015097,-0.087131,-0.008196,-0.120361,0.450684,-0.582764,-0.530355,3.437178,9.160865,0.213166,-0.019655,0.005688,-0.789551,0.17041,-0.281006,-0.778155,3.178373,9.28294,0.054821,-0.063776,-0.058467,-0.008057,0.589844,0.739014,-0.206786,3.577335,9.177074,0.559012,0.101024,0.057237,0.522217,-0.143066,-0.268311,-0.894807,1.175452,9.168959,0.128864,0.193775,-0.111585,0.354492,-0.16748,-0.594238
0.283665,-1.269312,10.051971,0.242887,0.028735,0.026894,-0.112061,0.449463,-0.577393,-0.105194,4.001447,9.178422,-0.013795,0.023977,-0.007527,-0.779053,0.174072,-0.278076,-0.099844,3.830825,8.891184,0.263314,-0.036969,0.057258,-0.004639,0.59668,0.746582,-0.651928,4.957144,9.167043,0.23905,0.004037,0.001014,0.523438,-0.144531,-0.260498,-1.172071,4.047144,9.940248,1.042892,-0.038049,-0.125694,0.354004,-0.178955,-0.587158
-0.076049,-0.38857,9.737237,0.168067,0.019506,-0.017026,-0.109375,0.440674,-0.582031,-0.485505,3.42038,9.201169,-0.186501,0.001527,0.046694,-0.77832,0.17334,-0.280762,-0.489936,4.178142,9.472433,-0.184659,0.109363,-0.095949,-0.004883,0.591797,0.751221,-0.120818,4.304392,9.343357,-0.55891,-0.155857,0.007917,0.527588,-0.142334,-0.26416,-0.347633,5.298299,9.591084,-0.376958,-0.300378,0.093479,0.356934,-0.178223,-0.590332
-0.021449,-0.591367,9.704163,-0.0083,-0.019777,0.003677,-0.119629,0.438721,-0.581787,0.003631,3.212946,8.988833,0.047539,-0.004505,-0.009941,-0.785645,0.168945,-0.280518,-0.390609,3.028586,9.10923,-0.268488,-0.120199,0.161782,0.009277,0.585449,0.746582,0.253142,2.571935,8.754361,-0.326883,0.070858,-0.0063,0.536377,-0.140625,-0.265137,0.2828,1.879645,8.442709,-1.036026,0.200571,0.092613,0.366699,-0.163086,-0.59375
0.223816,-0.626187,10.247598,-0.111067,-0.015495,-0.004217,-0.114258,0.437744,-0.58252,-0.47594,3.751968,9.216364,0.11347,0.048486,-0.00244,-0.783203,0.165039,-0.283203,-0.125626,2.966551,9.134536,0.204409,0.08075,-0.125176,-0.000488,0.587158,0.744629,-0.501525,3.163149,9.083371,0.507328,0.150689,0.021616,0.527344,-0.145752,-0.263672,-1.393881,1.141494,9.079229,0.513068,0.155474,-0.028312,0.362793,-0.173584,-0.592285
-0.05242,-0.951771,9.608101,-0.118935,0.05204,-0.00158,-0.113281,0.444824,-0.582031,-0.24598,3.724111,9.166453,-0.087052,-0.053368,0.000986,-0.779541,0.17041,-0.280518,-0.713792,4.082255,9.135067,0.254244,0.028912,0.024995,0.0,0.597656,0.740479,-0.557934,4.790152,9.221193,0.33886,-0.152217,0.036373,0.529541,-0.144043,-0.268311,-0.58249,4.455991,9.714113,0.923002,-0.246536,-0.191976,0.359863,-0.180664,-0.594238
-0.132572,-0.944624,9.60094,-0.12676,-0.028066,-0.00444,-0.117188,0.438477,-0.585449,-0.22375,3.329622,9.115761,-0.071766,0.048846,0.003555,-0.783203,0.164307,-0.285889,-0.193261,4.1155,9.333921,-0.247431,-0.089367,0.000578,0.008057,0.594727,0.741943,0.241704,4.464239,9.262155,-0.455849,-0.049683,-0.029559,0.538818,-0.142578,-0.270752,-0.14194,4.976645,9.643789,-0.526296,0.046045,0.155891,0.367432,-0.175537,-0.593262
0.237438,-1.441422,9.902092,-0.00715,-0.019706,-0.007689,-0.117676,0.445801,-0.581543,-0.346544,3.456109,9.17487,0.053414,-0.025213,0.002801,-0.78833,0.166504,-0.282471,-0.329911,2.871624,9.010769,-0.219547,0.094327,0.05997,-0.006104,0.585938,0.746338,-0.238112,2.834822,8.877478,-0.352614,0.174868,0.029829,0.522461,-0.137451,-0.266357,-0.754587,1.74696,8.751972,-0.85345,0.090887,0.034657,0.352783,-0.165039,-0.594971
0.050251,-0.950379,9.903607,0.178858,0.032381,0.020263,-0.119629,0.440918,-0.580322,-0.140008,3.613589,9.169096,-0.015168,0.027534,-0.000876,-0.787109,0.168457,-0.279541,-0.548519,3.197172,9.208751,0.256319,-0.050645,-0.061848,0.000244,0.591797,0.744629,-0.552165,3.158018,9.060809,0.391592,-0.066712,-0.00404,0.530518,-0.143066,-0.265625,-0.625179,1.627977,8.97015,0.605954,-0.069853,-0.020299,0.359619,-0.172852,-0.594482
-0.098503,-0.699399,9.596556,0.091655,0.00896,-0.006069,-0.116455,0.437744,-0.585205,-0.451606,3.428906,9.147103,-0.029503,0.00571,0.026142,-0.786865,0.162842,-0.286621,-0.138975,4.080139,9.210931,0.103491,0.022821,0.009853,0.001953,0.597412,0.747559,0.031492,4.497145,9.20144,0.286653,-0.095557,0.033703,0.531738,-0.143799,-0.263672,-0.450657,4.431829,9.572984,0.614215,-0.002815,-0.149919,0.364014,-0.179443,-0.588135
0.044698,-0.625861,9.957887,0.018498,-0.032957,-0.003074,-0.115967,0.437744,-0.578369,-0.136974,3.570701,9.114232,0.050487,-0.003555,-0.009055,-0.781494,0.163818,-0.277832,-0.610093,3.729845,9.172217,-0.174234,0.027761,0.008932,-0.005615,0.591064,0.745117,-0.141352,4.352528,9.206899,-0.286469,0.117143,-0.008915,0.52417,-0.141357,-0.262695,-0.624624,4.322036,9.590969,-0.494949,0.030039,0.115261,0.353271,-0.175049,-0.592285
0.165316,-0.809344,9.954813,-0.058025,0.020902,-0.008279,-0.114014,0.439453,-0.583008,-0.381344,3.711281,9.14811,-0.033607,0.03385,0.023423,-0.782959,0.16748,-0.282715,-0.235597,3.174892,9.148038,-0.084034,-0.055816,0.023483,0.00415,0.587158,0.751465,-0.470954,3.2136,9.043559,-0.299307,0.005459,0.009609,0.529785,-0.141357,-0.259277,-0.602187,2.017628,8.999189,-0.50184,-0.021932,0.039753,0.361572,-0.164307,-0.587402
-0.017332,-0.767481,9.715141,-0.06092,0.015692,0.004413,-0.119629,0.440674,-0.587891,-0.211474,3.446006,9.12906,-0.070707,-0.035232,-0.016266,-0.789062,0.168457,-0.2854,-0.329215,3.382546,9.186288,0.105955,0.054007,-0.018063,-0.001221,0.593018,0.743896,-0.080732,3.174885,8.969671,0.205078,-0.094798,0.010705,0.530518,-0.141357,-0.264893,-0.466645,2.2691,8.915311,0.440458,-0.009614,-0.052466,0.360107,-0.173096,-0.593262
-0.008388,-1.032055,9.752809,-0.095921,-0.019727,0.002927,-0.108887,0.443848,-0.587158,-0.286136,3.411929,9.107958,0.040374,0.040092,0.006423,-0.7771,0.169434,-0.288086,-0.480033,3.772997,9.208771,0.057578,0.001192,-0.020634,0.002197,0.588867,0.747559,-0.047742,4.187927,9.16224,0.269779,0.066516,0.018221,0.533691,-0.149414,-0.263184,-0.540661,4.025261,9.455499,0.345107,0.00092,-0.059216,0.362305,-0.18335,-0.587646
0.100957,-1.092745,9.869067,0.013683,0.006569,-0.002138,-0.108398,0.439209,-0.577148,-0.307745,3.629628,9.221338,0.017962,-0.02086,-0.007803,-0.777344,0.163818,-0.276123,-0.349871,3.667427,9.136701,-0.06554,-0.021952,0.040604,-0.002197,0.596924,0.739746,-0.466105,4.323579,9.228896,-0.158901,0.042579,0.010479,0.526855,-0.139893,-0.270508,-0.6009,3.777533,9.613803,-0.324756,0.043938,0.038559,0.354736,-0.166748,-0.599854
0.006249,-0.989141,9.744065,0.045076,0.007985,-0.003159,-0.115723,0.452393,-0.581543,-0.189812,3.517117,9.142239,-0.074063,0.026876,0.020581,-0.7854,0.177979,-0.280029,-0.348025,3.392538,9.170075,-0.071222,0.032448,-0.024603,0.000732,0.589111,0.742188,-0.198634,3.453958,9.040257,-0.263627,-0.076212,-0.007766,0.530029,-0.143799,-0.269775,-0.705375,2.491552,9.078551,-0.257626,-0.048006,0.047132,0.359131,-0.171631,-0.596924
0.017505,-0.850272,9.790366,0.082116,-0.004927,-0.001726,-0.116455,0.437012,-0.584961,-0.355026,3.389563,9.103171,-8e-06,0.003395,0.00661,-0.784912,0.165039,-0.285889,-0.428001,3.42833,9.217247,0.036519,-0.012242,0.027522,-0.001465,0.589111,0.74292,-0.017936,3.272803,8.98406,0.104506,0.02173,0.024056,0.527588,-0.140869,-0.267822,-0.333328,2.633677,8.937816,0.221902,-0.037693,-0.048121,0.358398,-0.174072,-0.596191
0.101659,-0.750987,9.909246,0.034983,-0.004826,0.002711,-0.113281,0.438721,-0.575684,-0.175083,3.599491,9.148857,0.057265,0.004645,-0.00013,-0.78125,0.165039,-0.276123,-0.277476,3.580145,9.185442,0.047505,0.000964,-0.029425,-0.003174,0.587891,0.739258,-0.323336,3.96057,9.161487,0.220105,0.044772,0.007778,0.527588,-0.145508,-0.267578,-0.517696,3.538623,9.404307,0.196684,0.077264,-0.017159,0.356201,-0.179688,-0.598633
0.020006,-0.713573,9.846606,-0.013789,0.019039,0.000484,-0.111328,0.447998,-0.57666,-0.344943,3.686266,9.175687,-0.033938,0.017551,0.007082,-0.777588,0.172119,-0.27417,-0.439951,3.681015,9.148278,0.001354,0.02422,0.022708,0.003906,0.592041,0.740723,-0.276615,4.22745,9.150367,-0.057726,-0.036315,0.012243,0.532227,-0.14624,-0.269531,-0.763709,3.581659,9.533574,-0.116061,-0.007369,-0.006425,0.364258,-0.174316,-0.596436
-0.021573,-0.819069,9.732923,-0.081223,-0.000369,-0.007959,-0.125488,0.444336,-0.578857,-0.282798,3.477359,9.125131,-0.058702,-0.009613,0.00248,-0.790527,0.174561,-0.280273,-0.399145,3.560858,9.213578,-0.077127,-0.011011,-0.012557,-0.001709,0.593018,0.752197,-0.150647,3.667772,9.088699,-0.22214,0.007386,0.002933,0.528809,-0.136963,-0.262451,-0.499314,2.905672,9.138973,-0.188057,-0.063559,0.048596,0.358643,-0.169189,-0.59082
0.068147,-1.005397,9.80765,-0.04932,-0.015422,0.000442,-0.116455,0.446289,-0.583984,-0.239382,3.464643,9.140018,0.014956,0.009462,0.001213,-0.783203,0.171387,-0.284668,-0.319948,3.379655,9.142594,-0.014149,-0.002324,0.028886,0.001465,0.59375,0.738525,-0.226858,3.320109,8.994329,0.016205,0.011714,0.011744,0.52832,-0.138184,-0.269287,-0.436764,2.726265,9.037221,0.06897,0.026861,-0.030791,0.361816,-0.169434,-0.599365
0.108545,-1.053849,9.861894,-0.000808,0.010726,0.00179,-0.116211,0.442871,-0.585449,-0.2451,3.553117,9.189615,0.010242,0.002725,-0.00075,-0.783936,0.168457,-0.287842,-0.352935,3.490015,9.197852,0.058005,0.015572,-0.030164,0.000732,0.593506,0.750977,-0.192796,3.809939,9.119984,0.187969,-0.013405,0.012726,0.529053,-0.142822,-0.262207,-0.603687,3.278788,9.34492,0.1646,0.016527,-0.017487,0.361328,-0.174561,-0.587646
-0.009752,-0.935381,9.724228,0.058448,0.018333,0.000267,-0.11377,0.440918,-0.587646,-0.296129,3.51312,9.141429,-0.026328,0.014899,0.011931,-0.784424,0.166016,-0.284668,-0.426287,3.708209,9.169318,0.02281,0.012584,0.015494,-0.005371,0.59375,0.752441,-0.228016,4.164679,9.163597,0.001114,0.021393,0.010407,0.522461,-0.141602,-0.260254,-0.622042,3.486979,9.415081,-0.032224,-0.005536,-0.0046,0.355469,-0.175293,-0.588135
-0.031559,-0.833796,9.749566,0.032082,-0.014093,-0.005315,-0.111328,0.446289,-0.582275,-0.325892,3.513982,9.137022,-0.002767,0.003661,0.006643,-0.781982,0.171631,-0.281494,-0.404676,3.588292,9.225918,-0.080989,-0.008198,-0.003125,-0.003418,0.594727,0.734619,-0.316637,3.773625,9.137019,-0.191085,0.004131,0.008116,0.527344,-0.139648,-0.276123,-0.578076,3.060714,9.250356,-0.156102,-0.014482,0.023386,0.35498,-0.171387,-0.605957
0.136127,-0.843859,9.945673,0.021559,-0.008173,-0.000605,-0.114258,0.437744,-0.592773,-0.197773,3.574699,9.142982,0.000167,0.002938,0.005862,-0.782959,0.16333,-0.290771,-0.310266,3.356595,9.115783,-0.012334,-0.006255,0.022121,-0.003174,0.583984,0.742188,-0.142296,3.390542,9.006145,-0.013124,-0.034599,0.001836,0.528564,-0.147461,-0.268311,-0.482302,2.7932,9.086175,0.034281,-0.014687,-0.007605,0.356445,-0.17627,-0.597168
0.077075,-0.81532,9.888819,-0.00765,0.01581,0.0023,-0.125488,0.440918,-0.585205,-0.319911,3.529907,9.143936,-0.028312,0.020229,0.004291,-0.792725,0.168457,-0.2854,-0.393436,3.531347,9.198148,0.05208,0.028484,-0.025863,-0.005615,0.60083,0.747803,-0.157884,3.765228,9.12194,0.153047,0.031989,0.023311,0.523682,-0.13501,-0.260498,-0.51253,3.234786,9.309084,0.112545,0.019426,-0.025909,0.356201,-0.165771,-0.585938
-0.061148,-0.808466,9.688367,-0.036885,0.013795,-0.002053,-0.112305,0.44043,-0.580078,-0.304035,3.497456,9.121971,0.008444,-0.009952,-0.000495,-0.779785,0.164795,-0.279785,-0.43713,3.653503,9.165639,0.007908,-0.005986,0.014254,0.002197,0.591064,0.750244,-0.345714,4.080438,9.147869,0.010329,0.020595,0.006068,0.533447,-0.144287,-0.261475,-0.667129,3.315658,9.34983,-0.015079,0.018169,0.004558,0.363037,-0.174561,-0.587646
0.043187,-0.965436,9.804499,-0.06161,-0.019217,-0.004667,-0.11377,0.442139,-0.592529,-0.24492,3.597883,9.180292,-0.002923,0.018022,0.004046,-0.782959,0.169922,-0.294189,-0.335792,3.587404,9.191838,-0.04991,-0.006219,7.3e-05,-0.004883,0.587891,0.741699,-0.208533,3.828466,9.117772,-0.132807,-0.039979,0.007698,0.523438,-0.147949,-0.268555,-0.608855,3.169304,9.335396,-0.064063,-0.03175,0.000572,0.354492,-0.178711,-0.595215
0.113808,-1.061501,9.865423,0.011525,0.00373,0.002725,-0.119873,0.440186,-0.589844,-0.311261,3.496035,9.136083,-0.047039,-0.003744,0.005589,-0.788086,0.165039,-0.288818,-0.372651,3.395094,9.170411,-0.034156,0.018877,0.00838,0.00708,0.595459,0.742188,-0.14177,3.486858,9.051679,-0.0438,0.014929,0.009114,0.536377,-0.136475,-0.27002,-0.449009,2.94848,9.133453,-0.034284,-0.018436,0.01076,0.364258,-0.165527,-0.593262
0.022198,-0.897945,9.774319,0.054752,0.017116,0.000654,-0.112549,0.444824,-0.578369,-0.197879,3.43889,9.116399,0.010148,0.011564,0.004918,-0.780762,0.169434,-0.277832,-0.380707,3.51573,9.173773,0.059679,-0.009536,-0.006264,-0.010986,0.58252,0.744873,-0.236811,3.699287,9.105014,0.120884,0.018246,0.013363,0.516846,-0.151367,-0.263916,-0.538194,3.069028,9.197458,0.072273,0.034425,-0.022175,0.349854,-0.181641,-0.59375
-0.025067,-0.804541,9.748658,0.032969,-0.004105,0.000338,-0.120605,0.430908,-0.584229,-0.375535,3.60586,9.170858,0.024312,0.014441,0.004237,-0.789062,0.157471,-0.287354,-0.354278,3.664316,9.201253,-0.004872,0.018135,-0.003539,0.000732,0.589355,0.738525,-0.270624,4.002429,9.198483,0.019329,-0.004798,0.011175,0.529541,-0.14502,-0.270264,-0.641248,3.286485,9.434851,0.031272,-0.000544,-0.002324,0.363525,-0.178711,-0.600098
0.073604,-0.788893,9.86175,-0.008911,-0.009061,-0.001419,-0.110596,0.435547,-0.586426,-0.212311,3.601631,9.141125,-0.038153,-0.011363,0.004199,-0.780762,0.161621,-0.285645,-0.440276,3.520925,9.151102,-0.03843,-0.008086,0.016144,-0.001709,0.582031,0.741211,-0.218063,3.807766,9.078718,-0.096285,-0.0088,0.005183,0.52417,-0.148926,-0.268066,-0.577609,3.22761,9.26035,-0.038391,-0.025391,0.000746,0.356201,-0.182129,-0.598389
0.069505,-0.886578,9.861267,-0.016194,0.009669,-0.002766,-0.113037,0.435303,-0.586914,-0.270126,3.485223,9.112645,-0.025235,0.026003,0.00805,-0.781494,0.161377,-0.28833,-0.291764,3.50688,9.199122,-0.004805,0.001072,-0.00937,0.000977,0.58667,0.750732,-0.172177,3.602841,9.086316,-0.03704,-0.002286,0.012672,0.528809,-0.147217,-0.261475,-0.478546,3.066958,9.140674,-0.053668,-0.01144,0.007278,0.36084,-0.177734,-0.59082
0.033848,-0.861172,9.750577,-0.021173,0.004961,0.003071,-0.112793,0.442139,-0.584717,-0.301372,3.511758,9.146714,0.016863,-0.009342,-0.004292,-0.78418,0.16626,-0.286865,-0.418348,3.499023,9.192748,-0.001038,0.021967,0.008917,0.000732,0.592529,0.743408,-0.215506,3.670504,9.09719,0.049469,0.019205,0.004261,0.529541,-0.141846,-0.268311,-0.52807,2.938793,9.233912,0.01267,0.028847,-0.005129,0.358643,-0.172119,-0.591797
0.022412,-0.950338,9.775769,-0.027058,-0.003589,-0.00285,-0.114502,0.442871,-0.584473,-0.229512,3.578914,9.15031,-0.006528,0.015295,0.004173,-0.78125,0.165039,-0.282959,-0.373279,3.546907,9.149158,0.027043,-0.014527,-0.006506,-0.000977,0.589111,0.74292,-0.259379,3.887737,9.12392,0.058388,-0.000769,0.016267,0.531494,-0.146729,-0.267334,-0.678513,3.232214,9.342734,0.105969,0.004071,-0.019847,0.36084,-0.176758,-0.595215
0.053804,-0.970027,9.813865,0.010149,0.0045,-0.002621,-0.108398,0.445068,-0.575928,-0.340795,3.50948,9.131757,-0.033573,0.006089,0.008843,-0.779297,0.170898,-0.274902,-0.367643,3.630691,9.198277,-0.018096,0.02135,0.006187,0.002197,0.593018,0.744873,-0.208312,3.906122,9.160077,-0.064326,-0.011354,0.006191,0.532959,-0.141357,-0.263428,-0.537341,3.358005,9.321969,-0.045298,-0.041842,0.0091,0.363525,-0.17334,-0.59375
0.041442,-0.896039,9.773694,0.028902,-6.6e-05,0.002044,-0.112061,0.44458,-0.583496,-0.209246,3.488228,9.132629,0.000941,-0.000782,0.002513,-0.780518,0.170654,-0.282471,-0.397873,3.458683,9.179534,-0.046829,-0.009728,0.004008,0.009766,0.588379,0.749512,-0.191511,3.623554,9.063122,-0.08238,0.005978,0.009169,0.539551,-0.144531,-0.263672,-0.451933,2.955649,9.182039,-0.10863,0.018745,0.012829,0.368652,-0.175293,-0.589844
0.051032,-0.838078,9.857037,0.021726,0.002948,0.000264,-0.115723,0.438232,-0.580566,-0.291379,3.566809,9.137351,0.006101,0.022118,0.007565,-0.7854,0.164062,-0.280273,-0.299677,3.471257,9.14548,0.029992,0.004322,0.004302,0.002197,0.593506,0.743652,-0.213699,3.631606,9.068576,0.062521,0.011997,0.012217,0.531738,-0.138428,-0.267578,-0.644679,2.950228,9.21195,0.075464,0.015372,-0.017355,0.362305,-0.169434,-0.596436
0.013664,-0.823721,9.812798,-0.000548,0.005779,-0.001347,-0.116699,0.445068,-0.591309,-0.302482,3.532429,9.127907,-0.024186,-0.002787,0.004571,-0.785645,0.170166,-0.293213,-0.437532,3.606981,9.204368,0.015055,0.026213,-0.013726,0.000488,0.583008,0.754395,-0.268575,3.911669,9.150612,0.053309,0.000706,0.012722,0.52832,-0.150879,-0.258301,-0.561378,3.304218,9.349206,0.072746,-0.025849,-0.012298,0.360352,-0.181641,-0.588135
0.037261,-0.852369,9.786171,-0.027926,-0.001257,-0.003213,-0.121582,0.441895,-0.588623,-0.247727,3.511032,9.126889,-0.003957,0.006785,0.005235,-0.787842,0.16626,-0.289062,-0.378855,3.603655,9.164427,-0.024767,-0.026425,0.017742,0.000244,0.585449,0.741943,-0.205843,3.883389,9.115813,-0.059327,-0.014183,0.007029,0.529541,-0.14624,-0.270752,-0.537735,3.27924,9.294964,-0.055431,0.012595,0.006464,0.360107,-0.17749,-0.597412
0.052946,-0.943795,9.823362,-0.020751,-0.000837,-0.000926,-0.111084,0.438477,-0.589355,-0.290442,3.564115,9.171574,-0.004593,0.01024,0.003232,-0.778076,0.165039,-0.289795,-0.315502,3.497798,9.184856,-0.027816,0.023184,-0.007291,-0.005371,0.588379,0.746094,-0.165206,3.65237,9.083654,-0.063077,0.012478,0.007935,0.523926,-0.143066,-0.265625,-0.577133,3.002421,9.217681,-0.070536,-0.010695,0.006288,0.355469,-0.173828,-0.594482
0.047442,-0.930207,9.796865,0.005814,0.006659,0.001231,-0.11792,0.445557,-0.580078,-0.276599,3.50453,9.141123,-0.024968,0.001015,0.00395,-0.783936,0.171875,-0.282959,-0.447555,3.457479,9.185463,0.011907,0.005517,0.004196,-0.000244,0.587891,0.752197,-0.255074,3.647881,9.079497,0.036196,0.014361,0.011743,0.527832,-0.145264,-0.258545,-0.511456,2.971872,9.197372,0.050626,0.00258,-0.006362,0.360596,-0.176514,-0.585693
0.01952,-0.911899,9.771612,0.010205,0.004337,-0.001723,-0.116943,0.445557,-0.584961,-0.266016,3.491776,9.126677,0.003508,0.011558,0.005548,-0.787842,0.171143,-0.28418,-0.333114,3.604541,9.163586,0.02426,-0.011561,-0.002847,0.002441,0.595703,0.746582,-0.225204,3.855388,9.140317,0.057934,-0.016343,0.009982,0.529785,-0.138184,-0.26416,-0.608627,3.276354,9.3132,0.074492,0.010532,-0.01806,0.36377,-0.17041,-0.592041
0.052204,-0.897354,9.812552,0.014066,-0.003477,-0.000654,-0.118408,0.437988,-0.584961,-0.303505,3.591554,9.144326,0.00152,0.00635,0.004538,-0.7854,0.164062,-0.28418,-0.383785,3.576814,9.174596,-0.031958,0.025936,0.003596,0.006348,0.59375,0.750732,-0.193227,3.880962,9.139407,-0.052694,0.008199,0.010171,0.536621,-0.13916,-0.261475,-0.557817,3.260418,9.303046,-0.063481,-0.022752,0.010313,0.367188,-0.168945,-0.589844
0.050017,-0.84908,9.818063,0.008955,0.003413,-0.001979,-0.116211,0.441895,-0.578125,-0.238031,3.544202,9.13246,-0.023931,0.00524,0.004754,-0.782715,0.167969,-0.279053,-0.39651,3.482898,9.166355,-0.014557,-0.016022,0.0068,0.002197,0.587891,0.738525,-0.234708,3.67013,9.071813,-0.057312,0.010637,0.008146,0.530518,-0.145508,-0.272705,-0.532455,2.978264,9.198223,-0.045618,0.010992,0.001642,0.362061,-0.177246,-0.600586
0.044112,-0.84713,9.805255,-0.003255,0.005292,0.001667,-0.112061,0.438477,-0.578857,-0.277503,3.496069,9.122653,-0.009339,0.012223,0.004229,-0.776123,0.164551,-0.280518,-0.310506,3.529156,9.202694,0.011494,0.011948,-0.004033,-0.001953,0.584229,0.740967,-0.21596,3.676466,9.094069,0.031111,-0.008019,0.011578,0.523926,-0.147217,-0.267822,-0.590638,3.042276,9.245555,0.050929,-0.003706,-0.01193,0.354492,-0.179688,-0.597412
0.037269,-0.884862,9.796539,-0.019065,-0.000231,-0.000375,-0.115723,0.440674,-0.583984,-0.265191,3.531023,9.165105,0.002328,0.000851,0.000185,-0.785889,0.16333,-0.283447,-0.449796,3.562393,9.182344,0.003318,0.013623,0.000864,0.005615,0.588867,0.739746,-0.212559,3.85104,9.101768,0.041973,0.006125,0.010471,0.533936,-0.147949,-0.273438,-0.541727,3.229465,9.276728,0.038144,-0.004597,-0.007462,0.363037,-0.179199,-0.599365
0.035532,-0.931942,9.807307,-0.011577,0.00327,-0.002634,-0.12207,0.437988,-0.588379,-0.266349,3.545962,9.160858,-0.013916,0.011983,0.006791,-0.786621,0.166748,-0.287842,-0.345578,3.558645,9.170455,-0.009684,-0.013669,0.004579,-0.001953,0.5896,0.749512,-0.238093,3.853028,9.127438,-0.032897,0.00283,0.010477,0.528809,-0.144287,-0.258301,-0.595696,3.215582,9.304251,-0.032529,0.008078,-0.000795,0.360596,-0.178955,-0.59082
0.038635,-0.941735,9.797594,0.006684,0.000895,0.001088,-0.112061,0.44751,-0.57959,-0.288551,3.500564,9.118568,-0.016252,0.002533,0.002975,-0.778076,0.174072,-0.280762,-0.360976,3.513238,9.19496,-0.024495,0.019666,0.002747,-0.00415,0.582275,0.744385,-0.216164,3.693605,9.106475,-0.059654,-0.001969,0.007011,0.526611,-0.1521,-0.262939,-0.558143,3.03162,9.223605,-0.04375,-0.017052,0.007034,0.357178,-0.182861,-0.594727
0.058829,-0.88653,9.824785,0.015753,0.003977,0.000901,-0.114746,0.431885,-0.584961,-0.245301,3.519824,9.132234,-0.002098,0.008865,0.004987,-0.782959,0.156494,-0.284912,-0.397674,3.486803,9.169943,0.007877,-0.002863,0.00042,-0.009521,0.587891,0.758301,-0.208023,3.664218,9.076334,0.025025,0.005967,0.011348,0.518066,-0.144043,-0.255371,-0.52456,3.045872,9.219473,0.038093,0.011058,-0.011436,0.350342,-0.175781,-0.579346
0.022896,-0.870637,9.809857,0.010801,0.003176,-0.002287,-0.116455,0.440186,-0.590576,-0.293259,3.540458,9.145167,-0.004239,0.009241,0.0057,-0.78125,0.165283,-0.292725,-0.35717,3.575924,9.190385,0.013688,0.005499,-0.000687,0.003418,0.588379,0.751709,-0.244647,3.840493,9.130285,0.04523,0.005885,0.012839,0.530273,-0.14502,-0.265381,-0.607551,3.226546,9.302615,0.03441,0.000616,-0.007575,0.36084,-0.178467,-0.592773
0.034594,-0.87536,9.790036,-0.004458,0.000425,-0.001745,-0.121338,0.439209,-0.581787,-0.267703,3.541063,9.133158,-0.010051,0.001874,0.004898,-0.790039,0.166504,-0.281982,-0.418041,3.56523,9.187863,-0.020692,0.008688,0.002349,0.006592,0.592529,0.748047,-0.221964,3.844803,9.096257,-0.040215,-0.007421,0.006398,0.532959,-0.140381,-0.262695,-0.54799,3.17801,9.292554,-0.035094,-0.015086,0.003659,0.362549,-0.172119,-0.590576
0.057517,-0.891615,9.831702,-0.012278,-1.8e-05,-0.001052,-0.109863,0.443604,-0.579102,-0.261457,3.528313,9.140265,-0.01439,0.011537,0.004706,-0.778076,0.169434,-0.279541,-0.365855,3.505655,9.164156,-0.012179,-0.004758,0.005436,0.002441,0.581299,0.753662,-0.20443,3.692272,9.080896,-0.044419,0.002762,0.009475,0.528564,-0.151123,-0.259766,-0.550448,3.07096,9.228174,-0.019979,0.005716,0.001248,0.361572,-0.18042,-0.587158
0.055842,-0.894262,9.802284,-0.002225,0.003811,0.001402,-0.121338,0.441406,-0.585449,-0.302868,3.52388,9.155589,-0.009825,0.003086,0.002476,-0.787598,0.16748,-0.285156,-0.362692,3.51723,9.198526,0.002693,0.015803,-0.003232,0.005859,0.595215,0.750488,-0.218327,3.69056,9.101954,0.018958,0.01166,0.01084,0.535645,-0.133301,-0.262207,-0.557353,3.080754,9.234589,0.015679,-0.005517,-0.005484,0.366211,-0.167236,-0.587646
0.03218,-0.894738,9.773848,-0.002177,0.001583,-0.001505,-0.114258,0.440186,-0.586426,-0.249938,3.523828,9.140022,-0.001094,0.006274,0.003177,-0.784912,0.165039,-0.286133,-0.400251,3.554599,9.186333,0.005538,-0.002636,0.003671,-0.006592,0.596924,0.746094,-0.234862,3.809203,9.101049,0.033438,-0.005625,0.010639,0.523193,-0.137939,-0.265625,-0.560912,3.166702,9.31021,0.032074,0.006492,-0.006025,0.35376,-0.166748,-0.592529
0.041495,-0.911163,9.81308,0.004127,0.000919,-7.1e-05,-0.117188,0.452637,-0.581787,-0.298886,3.54716,9.143988,-0.00986,0.010114,0.003816,-0.785889,0.176514,-0.281494,-0.341126,3.563825,9.189379,-0.011441,0.005745,5.4e-05,-0.004395,0.588867,0.740723,-0.201044,3.848049,9.11991,-0.029972,-0.00178,0.009243,0.525879,-0.14502,-0.267578,-0.585449,3.195656,9.283983,-0.017708,-0.007799,-0.000337,0.357422,-0.175293,-0.596924
0.054335,-0.885183,9.795744,0.014663,0.003916,2.7e-05,-0.111328,0.444336,-0.583008,-0.259834,3.529744,9.135459,-0.015355,0.001859,0.004831,-0.780518,0.17041,-0.281738,-0.40307,3.520395,9.185158,-0.012933,0.008051,0.003274,-0.000977,0.590332,0.737305,-0.2294,3.719562,9.077921,-0.041289,0.010083,0.00851,0.524414,-0.14502,-0.272949,-0.526066,3.059905,9.211644,-0.032134,-0.006789,0.004243,0.355225,-0.173828,-0.600342
0.024899,-0.856454,9.80939,0.004345,-9.4e-05,-4.4e-05,-0.116211,0.442383,-0.583008,-0.253317,3.517551,9.142347,-0.004095,0.008896,0.00431,-0.781982,0.167969,-0.281006,-0.359296,3.523065,9.192598,0.001654,-0.003991,0.001487,0.00708,0.588867,0.744873,-0.229185,3.701514,9.094454,0.017648,-0.001344,0.010279,0.537842,-0.142578,-0.270996,-0.573355,3.082593,9.244599,0.023702,0.00959,-0.009398,0.368408,-0.173828,-0.593506
0.051451,-0.86629,9.828082,-0.009125,0.000505,-0.000213,-0.121094,0.447021,-0.586426,-0.269296,3.536188,9.130708,-0.008108,0.005512,0.003617,-0.787842,0.171631,-0.282471,-0.367518,3.557661,9.19185,-0.000334,0.012572,0.000209,0.002441,0.588379,0.736572,-0.21785,3.817349,9.116896,0.022325,-0.000409,0.010809,0.530273,-0.144531,-0.270752,-0.573045,3.182074,9.28655,0.023521,-0.010559,-0.005208,0.36084,-0.17627,-0.600098
0.039895,-0.902202,9.806532,-0.008538,0.004123,-0.003586,-0.109863,0.442871,-0.58667,-0.270272,3.53383,9.131592,-0.012897,0.00751,0.007925,-0.78125,0.166992,-0.289551,-0.397837,3.559186,9.18085,-0.003774,0.001174,-0.000154,-0.002197,0.592285,0.741943,-0.22149,3.821855,9.109285,-0.023716,0.006943,0.010943,0.528809,-0.143066,-0.267578,-0.535281,3.180587,9.252981,-0.019063,0.000419,-0.000695,0.359375,-0.172852,-0.594482
0.024628,-0.927912,9.794713,-0.000975,0.001316,0.001161,-0.108154,0.441895,-0.585449,-0.282936,3.525438,9.152517,-0.008725,0.00541,0.002926,-0.777832,0.168213,-0.284424,-0.346312,3.526748,9.18923,-0.013382,-0.000161,0.006983,0.005371,0.59082,0.749023,-0.225372,3.72698,9.085818,-0.035114,0.000853,0.006914,0.533691,-0.14209,-0.26123,-0.563222,3.080068,9.26078,-0.020993,0.000302,0.002137,0.361816,-0.172363,-0.589355
0.060725,-0.91067,9.81236,0.006683,0.000897,0.00109,-0.109619,0.443848,-0.583252,-0.263911,3.532239,9.143863,-0.010465,0.00645,0.004431,-0.778809,0.167725,-0.286865,-0.391572,3.521061,9.182872,-0.002078,0.012633,-0.002417,-0.005615,0.591064,0.750977,-0.215671,3.69861,9.103847,0.013944,0.000394,0.01034,0.525391,-0.143311,-0.261719,-0.557606,3.090615,9.248747,0.020297,-0.006179,-0.006534,0.351318,-0.174561,-0.590332
0.043056,-0.880617,9.79937,0.010261,0.005888,-0.000572,-0.111816,0.443604,-0.57959,-0.295677,3.50803,9.130022,-0.011436,0.008928,0.006884,-0.779297,0.171631,-0.280518,-0.384983,3.561822,9.177887,0.005566,-0.001492,-0.00019,0.003174,0.584961,0.750732,-0.227718,3.810479,9.11163,0.0192,0.002548,0.010858,0.532959,-0.146484,-0.258057,-0.55138,3.181353,9.263351,0.014758,0.001302,-0.005559,0.363037,-0.178711,-0.584473
0.030381,-0.852723,9.799165,-0.000709,-0.000216,-0.001471,-0.115723,0.442139,-0.580078,-0.274715,3.541508,9.130119,-0.002225,0.005737,0.003727,-0.784668,0.16748,-0.283936,-0.366832,3.576324,9.175765,-0.009695,0.005688,0.002673,-0.002197,0.588379,0.746826,-0.236069,3.820343,9.110343,-0.026052,0.002111,0.007972,0.52832,-0.141602,-0.262939,-0.568127,3.151901,9.278223,-0.018339,-0.002017,0.000887,0.356689,-0.17749,-0.59082
0.055702,-0.898738,9.822271,-0.003531,-0.000374,-0.000249,-0.114746,0.440918,-0.588867,-0.267389,3.55922,9.136593,-0.011624,0.007703,0.005981,-0.784912,0.166016,-0.289551,-0.384122,3.52886,9.167369,-0.010749,0.005556,0.00096,-0.001465,0.594727,0.748779,-0.208734,3.720437,9.116748,-0.023608,0.001459,0.010051,0.527832,-0.138184,-0.263916,-0.548672,3.090299,9.243595,-0.00825,-0.003389,-0.00137,0.360352,-0.169922,-0.592041
0.046856,-0.889095,9.818971,-0.003048,0.003927,-0.001859,-0.119141,0.439697,-0.58374,-0.28842,3.530766,9.151902,-0.016871,0.004118,0.003901,-0.785645,0.164795,-0.28418,-0.362699,3.515919,9.186209,-0.000875,0.000427,0.002781,0.001953,0.594238,0.744141,-0.223805,3.722121,9.10214,0.011112,0.003972,0.010386,0.532715,-0.138672,-0.26709,-0.556875,3.109657,9.264204,0.013648,-0.001914,-0.003916,0.358398,-0.172852,-0.595703
0.053606,-0.908183,9.79961,-0.002612,0.000188,-0.002056,-0.112305,0.445557,-0.592041,-0.272411,3.514671,9.125156,-0.003452,0.007209,0.003996,-0.782227,0.170654,-0.293213,-0.36741,3.55096,9.176463,0.000904,0.008819,-0.000668,-0.001953,0.584717,0.751709,-0.237564,3.803604,9.106368,0.009401,-0.000208,0.008304,0.5271,-0.146729,-0.260498,-0.558887,3.163555,9.252874,0.007676,0.001425,-0.006794,0.359863,-0.178955,-0.590332
0.036171,-0.915733,9.820064,0.00141,0.003502,-0.000113,-0.106934,0.436279,-0.580322,-0.290627,3.543901,9.148396,-0.004068,0.007107,0.003305,-0.774658,0.16333,-0.283936,-0.394995,3.55085,9.219013,-0.008286,0.0028,0.001744,-0.009766,0.591064,0.743896,-0.212462,3.787404,9.109923,-0.020292,0.006569,0.009691,0.52124,-0.143311,-0.269287,-0.559282,3.15068,9.273371,-0.010313,-0.002852,-0.00082,0.351562,-0.173584,-0.595215
0.03596,-0.886274,9.793247,0.008037,-0.000569,-0.000663,-0.110107,0.443359,-0.580322,-0.273449,3.540767,9.126193,-0.016771,0.003788,0.005824,-0.776367,0.166504,-0.28125,-0.375192,3.521823,9.162777,-0.007631,0.001765,0.001982,-0.001953,0.592529,0.749512,-0.227225,3.73912,9.08032,-0.017675,-0.000659,0.009655,0.52832,-0.141357,-0.26123,-0.561206,3.093936,9.240058,-0.003422,-0.004135,-0.001635,0.35791,-0.174561,-0.587158
0.045401,-0.880206,9.812409,0.004127,0.002632,0.00018,-0.113281,0.438477,-0.586182,-0.273532,3.51827,9.141097,-0.009579,0.009333,0.00499,-0.780518,0.162598,-0.283936,-0.368259,3.534039,9.188072,-0.000907,0.006889,-0.000109,-0.006104,0.59082,0.742432,-0.209796,3.749662,9.129397,0.006328,0.00024,0.01047,0.523682,-0.142578,-0.268799,-0.542946,3.12027,9.246849,0.006186,-9.3e-05,-0.003665,0.351807,-0.172607,-0.595215
0.044959,-0.873053,9.805686,-0.003475,0.001172,0.000894,-0.120605,0.438232,-0.584473,-0.273689,3.529921,9.146103,-0.00256,0.00485,0.004217,-0.787842,0.161377,-0.28833,-0.374335,3.537842,9.176037,-0.003302,0.004026,0.002672,-0.001953,0.587646,0.749512,-0.210898,3.782857,9.111848,0.001689,0.005151,0.009336,0.527344,-0.144287,-0.263184,-0.561841,3.13125,9.271097,0.002911,0.000942,-0.002733,0.356934,-0.176025,-0.591064
0.034687,-0.89309,9.800007,-0.007231,0.003173,-0.002685,-0.113525,0.455811,-0.583984,-0.273763,3.541528,9.151132,-0.009948,0.00856,0.004835,-0.78418,0.180664,-0.283936,-0.364975,3.55602,9.170837,-0.000909,0.003237,0.000997,0.007568,0.582764,0.742676,-0.229976,3.789698,9.089384,-0.009846,0.001166,0.010736,0.536377,-0.151123,-0.268555,-0.588504,3.155386,9.280059,0.005149,-0.002737,-0.003531,0.365479,-0.183105,-0.599365
0.029397,-0.906928,9.800505,-0.000435,0.000317,-0.000301,-0.105225,0.439209,-0.581299,-0.29807,3.523524,9.13866,-0.012765,0.005494,0.00487,-0.773682,0.162842,-0.284668,-0.383082,3.534701,9.194868,-0.012177,0.006201,0.002093,-0.000732,0.594482,0.744629,-0.219251,3.743449,9.109547,-0.020532,0.00103,0.007892,0.529541,-0.137939,-0.26709,-0.53592,3.128989,9.256024,-0.012464,-0.007192,-0.001059,0.360596,-0.169434,-0.593506
0.065623,-0.904143,9.831598,0.003531,0.000374,0.000249,-0.118896,0.442627,-0.587402,-0.255644,3.529269,9.148217,-0.008412,0.004518,0.004739,-0.78418,0.167236,-0.286865,-0.389656,3.50662,9.180804,-0.002014,-0.000292,0.003362,-0.003662,0.585693,0.746826,-0.208512,3.727942,9.084613,0.000637,0.003543,0.009961,0.52417,-0.148682,-0.264404,-0.553748,3.101627,9.249608,0.001464,0.004286,-0.003878,0.354736,-0.182373,-0.590576
0.028759,-0.89117,9.787192,0.006513,0.004819,-0.001093,-0.108643,0.438965,-0.58252,-0.288335,3.525544,9.120163,-0.005905,0.010153,0.004531,-0.776123,0.163574,-0.282471,-0.365803,3.548259,9.193109,0.003763,0.007535,-0.002946,-0.004395,0.588623,0.738525,-0.219083,3.78928,9.126307,0.007412,0.003752,0.011664,0.525391,-0.148193,-0.275146,-0.584349,3.156119,9.266909,0.014878,-0.00365,-0.005573,0.354492,-0.177979,-0.601074
0.037715,-0.871653,9.792829,-5.7e-05,0.001877,-0.000646,-0.121338,0.447021,-0.579834,-0.283466,3.536657,9.166485,-0.01016,0.003883,0.004591,-0.793457,0.171387,-0.279785,-0.393444,3.519178,9.170695,-0.012108,0.004233,0.004551,0.0,0.587158,0.74292,-0.215681,3.768693,9.101057,-0.017725,-8e-05,0.008753,0.52832,-0.145752,-0.269775,-0.540555,3.150214,9.263054,-0.007392,-0.004957,0.000485,0.358643,-0.179932,-0.597168
0.046768,-0.888413,9.832049,-0.000927,0.00251,-0.001248,-0.114502,0.445068,-0.58667,-0.252695,3.533404,9.142478,-0.00719,0.008284,0.004816,-0.782959,0.168701,-0.286621,-0.371906,3.541412,9.170985,-0.003394,9.5e-05,0.00153,0.000977,0.596191,0.749512,-0.210071,3.744253,9.111668,-0.009156,0.003236,0.011334,0.532227,-0.140625,-0.263672,-0.558552,3.122793,9.256655,-0.004046,0.003453,-0.005714,0.359863,-0.170898,-0.593506
0.023045,-0.89538,9.810376,0.001466,0.003338,0.000782,-0.110596,0.448242,-0.586426,-0.296989,3.539456,9.129962,-0.011635,0.006029,0.004319,-0.779053,0.174316,-0.284912,-0.384724,3.535304,9.166271,-0.003367,0.009649,-0.000896,-0.000977,0.588867,0.738281,-0.217655,3.752457,9.09682,-0.000884,0.003518,0.00999,0.53125,-0.146484,-0.274902,-0.561708,3.133747,9.249751,0.000503,-0.006656,-0.001497,0.357422,-0.17627,-0.601318
0.057702,-0.887239,9.805411,-0.005272,0.000892,-0.001455,-0.110352,0.442871,-0.588623,-0.254721,3.52857,9.144289,-0.012338,0.004372,0.004652,-0.776123,0.164551,-0.287842,-0.37741,3.539109,9.180634,-0.004843,-0.001511,0.002882,-0.001709,0.593994,0.746338,-0.230517,3.768644,9.101494,-0.003259,-0.000813,0.009121,0.525146,-0.143799,-0.267578,-0.536651,3.119867,9.254718,0.007581,0.002097,-0.004021,0.358643,-0.173096,-0.595947
0.053578,-0.907222,9.841907,-0.001959,0.002281,-0.001231,-0.114014,0.446289,-0.585449,-0.291517,3.524732,9.137753,-0.005229,0.008356,0.004857,-0.78418,0.168213,-0.284424,-0.361082,3.531068,9.187065,-0.001058,0.008273,-0.000275,-0.001465,0.595703,0.744385,-0.219087,3.770242,9.123281,-0.008212,0.002043,0.011321,0.52832,-0.135254,-0.267822,-0.567245,3.1427,9.277044,-0.00112,-0.000173,-0.002393,0.359863,-0.166016,-0.592773
0.033575,-0.887291,9.77699,0.008415,0.004418,-0.000506,-0.112305,0.452637,-0.576904,-0.286956,3.536074,9.121441,-0.007771,0.002833,0.004417,-0.780273,0.177979,-0.276367,-0.391426,3.540735,9.187084,-0.005957,0.003673,0.002142,-0.002686,0.587891,0.747314,-0.240155,3.762625,9.081584,-0.009306,0.004923,0.008621,0.526123,-0.147949,-0.264404,-0.561627,3.122007,9.269891,-0.005747,-0.005336,-0.001626,0.356934,-0.174316,-0.593506
0.03428,-0.885241,9.806358,0.001137,-0.000453,-0.00178,-0.114258,0.444092,-0.591309,-0.258506,3.526043,9.137307,-0.013292,0.008627,0.004794,-0.780762,0.169922,-0.29126,-0.355574,3.53837,9.18071,-0.007498,-0.001864,0.002354,0.005371,0.590332,0.744141,-0.225137,3.759324,9.11111,-0.004206,-0.001575,0.010347,0.535645,-0.143555,-0.26709,-0.551021,3.112599,9.25041,0.004422,-0.000303,-0.005116,0.364502,-0.17334,-0.593994
0.051942,-0.898311,9.835352,-0.002227,0.003812,0.001401,-0.114502,0.451172,-0.584473,-0.280836,3.517948,9.138406,-0.008114,0.005514,0.003602,-0.780518,0.178711,-0.280273,-0.373596,3.544639,9.174894,-0.002293,0.012028,0.000603,0.001465,0.590576,0.747803,-0.212077,3.758535,9.105341,-0.004817,0.004107,0.010967,0.528809,-0.143311,-0.264893,-0.556102,3.133047,9.25768,0.00095,-0.002233,-0.000925,0.359863,-0.175049,-0.591553
0.03304,-0.871328,9.792875,0.00141,0.003504,-0.000112,-0.108398,0.440186,-0.575195,-0.269061,3.535532,9.123551,-0.004768,0.00712,0.005288,-0.774902,0.167969,-0.275391,-0.383348,3.548203,9.171789,0.001154,-0.000688,0.000311,-0.000488,0.587646,0.748535,-0.228691,3.777701,9.088791,-0.00258,0.005685,0.00942,0.527588,-0.14624,-0.263672,-0.571156,3.144431,9.268869,0.002057,0.000985,-0.002569,0.360352,-0.177734,-0.593018
0.036012,-0.894888,9.79668,-0.003152,0.001187,-0.000595,-0.114502,0.439697,-0.580078,-0.286147,3.543835,9.161094,-0.014183,0.005747,0.00422,-0.780762,0.164795,-0.278809,-0.355487,3.553009,9.194501,-0.01483,0.005852,0.001554,0.001709,0.588135,0.748779,-0.211618,3.755979,9.106407,-0.013377,-0.003627,0.008684,0.531006,-0.146729,-0.263916,-0.567209,3.132581,9.276126,-0.00557,-0.008478,-0.001875,0.360107,-0.177002,-0.591797
0.05486,-0.914541,9.861634,-0.001089,0.001648,-0.000629,-0.111816,0.441895,-0.585693,-0.262803,3.51706,9.140646,-0.012221,0.005819,0.004262,-0.780518,0.16748,-0.285645,-0.383165,3.523135,9.172346,-0.000817,0.007168,0.002138,-0.001465,0.588379,0.743408,-0.216386,3.745246,9.079903,-0.004166,0.002299,0.010958,0.529297,-0.142578,-0.266602,-0.536299,3.11002,9.25372,0.002076,-0.000258,-0.003838,0.359863,-0.177734,-0.594238
0.048068,-0.885034,9.792641,0.007978,0.006448,-0.000556,-0.11792,0.440918,-0.589355,-0.286146,3.51315,9.132242,-0.00152,0.00906,0.00505,-0.78418,0.167236,-0.28833,-0.36547,3.538287,9.170032,0.002466,0.000894,-0.000316,-0.000732,0.593262,0.73877,-0.235743,3.768915,9.104297,0.001375,0.009477,0.011177,0.531494,-0.139648,-0.270508,-0.573665,3.143127,9.282317,0.004323,0.00189,-0.004358,0.359619,-0.169434,-0.60083
0.039216,-0.873711,9.789479,-0.000813,-0.002957,-0.000206,-0.11499,0.439697,-0.584961,-0.268265,3.544003,9.162939,-0.007192,0.003044,0.004461,-0.782959,0.16626,-0.286865,-0.371465,3.549986,9.16917,-0.01145,0.006853,0.003673,0.001465,0.593262,0.745117,-0.227932,3.774062,9.104611,-0.010674,-0.003625,0.007733,0.53125,-0.140137,-0.266602,-0.572777,3.137988,9.246097,-0.000839,-0.007028,-0.001384,0.359863,-0.170654,-0.595459
0.052359,-0.906751,9.825795,-0.000275,0.002892,-0.000672,-0.11084,0.449951,-0.581543,-0.273261,3.538246,9.131945,-0.01645,0.009919,0.005652,-0.779541,0.173096,-0.281982,-0.377331,3.517001,9.176277,-0.002889,0.004097,0.000493,-0.00415,0.596191,0.749268,-0.195956,3.749471,9.08877,-0.008592,-0.00187,0.009819,0.5271,-0.13623,-0.265381,-0.540806,3.130765,9.260923,-0.0004,-0.001083,-0.00283,0.355713,-0.166504,-0.592041
0.034526,-0.87115,9.805898,0.004883,0.005757,-0.000505,-0.110596,0.440186,-0.581543,-0.29652,3.516998,9.128508,-0.006643,0.003367,0.003868,-0.7771,0.165039,-0.284424,-0.372012,3.542972,9.191143,-0.001373,0.003732,0.001602,-0.000244,0.5896,0.743408,-0.205449,3.759967,9.101529,-0.004762,0.009946,0.010376,0.531982,-0.142334,-0.266846,-0.548805,3.112761,9.250487,-0.005811,-8.6e-05,0.000164,0.361084,-0.174561,-0.596436
0.037609,-0.880691,9.796228,-0.007657,-0.001297,-0.000185,-0.109131,0.435791,-0.592041,-0.259362,3.543688,9.145399,-0.003026,0.00608,0.003786,-0.776855,0.161133,-0.290039,-0.369116,3.542756,9.182369,-0.005957,0.003674,0.002138,0.00293,0.5979,0.745605,-0.241785,3.757559,9.106596,-0.001104,-0.000125,0.01,0.530029,-0.134033,-0.266602,-0.572435,3.112254,9.287154,0.007906,-0.001415,-0.005273,0.363281,-0.167725,-0.59375
0.063966,-0.911962,9.835145,0.000975,0.002109,-0.000662,-0.120117,0.4375,-0.593994,-0.284878,3.529565,9.123468,-0.015538,0.009344,0.00356,-0.786865,0.161621,-0.294434,-0.385557,3.535641,9.186849,-0.004384,0.00671,-0.00083,0.001953,0.594971,0.744629,-0.193125,3.760353,9.109536,-0.003442,-0.000578,0.009736,0.53125,-0.138916,-0.268066,-0.559029,3.15412,9.264865,0.004938,-0.002654,-0.004318,0.363281,-0.169189,-0.594727
0.045252,-0.88399,9.792748,0.006295,0.004125,-0.001364,-0.105957,0.447266,-0.579834,-0.259698,3.512566,9.116697,-0.010169,0.003884,0.004574,-0.773682,0.170898,-0.279297,-0.374438,3.531706,9.181181,-0.003048,0.001825,0.001431,-0.004639,0.586182,0.743408,-0.208143,3.761887,9.09505,-0.011708,0.005557,0.009581,0.525635,-0.146729,-0.263916,-0.551336,3.125039,9.243174,-0.011215,-0.004637,-0.000409,0.354736,-0.17749,-0.589355
0.036334,-0.886945,9.80304,-0.000217,-0.000698,-0.000275,-0.118652,0.438721,-0.582031,-0.283098,3.52819,9.157114,-0.003451,0.008873,0.00565,-0.788086,0.165527,-0.282471,-0.36319,3.536057,9.186532,-0.005595,0.003998,0.002933,-0.000977,0.591553,0.749023,-0.232567,3.74391,9.123689,-0.007841,0.0016,0.010117,0.529785,-0.141357,-0.260742,-0.57296,3.114897,9.265719,0.00311,0.002387,-0.003974,0.36084,-0.168701,-0.588135
0.044577,-0.897169,9.806307,0.002007,0.002339,-0.000678,-0.117432,0.443604,-0.589844,-0.300779,3.536981,9.131956,-0.011796,0.004698,0.00404,-0.784912,0.170898,-0.291016,-0.391523,3.52363,9.185996,-0.004777,0.008889,0.00113,-0.000732,0.595215,0.750732,-0.212458,3.764854,9.102386,-6e-05,0.00395,0.010295,0.529053,-0.139648,-0.261963,-0.568199,3.126618,9.25323,0.006491,-0.002361,-0.003652,0.359619,-0.168457,-0.588623
0.035454,-0.886439,9.803089,0.000322,0.00344,-0.000989,-0.10791,0.447021,-0.585205,-0.260561,3.516612,9.132511,-0.009433,0.005429,0.004883,-0.774658,0.17041,-0.287842,-0.363038,3.548365,9.167748,0.00058,-0.003032,0.003423,-0.001465,0.591064,0.741211,-0.219763,3.774173,9.08713,-0.000812,0.000487,0.009999,0.528809,-0.143311,-0.273926,-0.554592,3.155835,9.251393,0.004946,-0.004176,-0.0023,0.358887,-0.173828,-0.600342
0.047256,-0.899478,9.789921,-0.004127,-0.000922,6.6e-05,-0.114014,0.443359,-0.592529,-0.295489,3.538876,9.135044,-0.007688,0.00963,0.003738,-0.780518,0.169434,-0.290771,-0.359111,3.551141,9.191357,-0.01227,0.010682,0.002367,0.005371,0.595703,0.750244,-0.204516,3.770004,9.116984,-0.019314,0.001027,0.010006,0.531738,-0.13916,-0.261963,-0.560581,3.134539,9.262708,-0.014078,-0.002243,7.1e-05,0.359375,-0.170898,-0.59082
0.057707,-0.901404,9.844928,0.001465,0.003339,0.000784,-0.111328,0.446533,-0.588867,-0.268402,3.515989,9.146256,-0.011336,0.003463,0.004467,-0.781006,0.170654,-0.288818,-0.401856,3.506792,9.162296,-0.004992,0.003528,0.001602,-0.000244,0.582764,0.748779,-0.22829,3.734191,9.084956,-0.00498,0.006309,0.010385,0.530518,-0.151123,-0.262451,-0.565125,3.086412,9.243831,0.001826,0.002309,-0.002081,0.359131,-0.181885,-0.591553
0.034,-0.893864,9.809797,0.002112,0.003369,-0.002192,-0.110107,0.441162,-0.585938,-0.276772,3.523922,9.141034,-0.007839,0.009966,0.005127,-0.779785,0.16626,-0.287842,-0.341942,3.55595,9.178845,0.006824,0.000337,0.002172,-0.000732,0.588623,0.746338,-0.226938,3.764975,9.102788,0.009493,-0.001382,0.010129,0.529541,-0.143799,-0.264893,-0.564211,3.164767,9.271098,0.018019,-0.005541,-0.006797,0.357666,-0.175537,-0.59082
0.042438,-0.897116,9.806321,-0.001136,-0.002973,0.001281,-0.114746,0.440674,-0.584717,-0.292488,3.542475,9.129589,-0.006711,0.003592,0.002577,-0.782959,0.162354,-0.284668,-0.373909,3.543036,9.187306,-0.016092,0.012428,0.000629,-0.003418,0.589355,0.750488,-0.214596,3.781187,9.095291,-0.016354,-0.000275,0.007232,0.527344,-0.140625,-0.261719,-0.540253,3.140998,9.274991,-0.012996,-0.003609,-0.000583,0.35498,-0.17334,-0.59082
0.05573,-0.887346,9.802276,0.003088,0.003765,-0.003103,-0.110107,0.444336,-0.589355,-0.25214,3.538522,9.125587,-0.013326,0.006845,0.00708,-0.780273,0.169678,-0.291016,-0.381135,3.514947,9.173144,0.00153,-0.001773,0.002001,0.000977,0.587402,0.74292,-0.204566,3.750922,9.099659,-0.008557,0.00449,0.011352,0.532227,-0.145996,-0.268799,-0.579688,3.111056,9.23441,-0.001106,0.005931,-0.005401,0.359863,-0.178223,-0.59375
0.011184,-0.891952,9.810709,0.002117,0.003721,0.001361,-0.116211,0.445801,-0.592773,-0.288317,3.530943,9.12825,-0.009037,0.009658,0.004383,-0.783936,0.17041,-0.292236,-0.36421,3.554931,9.203908,-0.002917,0.006912,-0.001291,-0.002441,0.595215,0.749268,-0.230084,3.766288,9.110842,-0.002163,0.002708,0.010334,0.527832,-0.140625,-0.258057,-0.555449,3.132659,9.271006,0.004221,-0.009092,-0.002147,0.358887,-0.171143,-0.588379
0.055599,-0.872075,9.818096,-0.005377,-0.000139,5.5e-05,-0.112549,0.444092,-0.590088,-0.266556,3.528224,9.147021,-0.005946,0.003354,0.001879,-0.780273,0.169189,-0.292725,-0.387926,3.526127,9.172457,-0.009303,0.003206,0.005221,-0.001221,0.598145,0.746094,-0.203693,3.76458,9.085082,-0.004368,-0.001844,0.008846,0.528809,-0.13623,-0.264648,-0.546421,3.132659,9.265744,0.002396,0.001774,-0.001519,0.360596,-0.166504,-0.594238
0.058769,-0.895993,9.821878,0.000701,0.00329,-0.001582,-0.109375,0.439209,-0.5896,-0.274147,3.532948,9.150889,-0.012164,0.010835,0.005884,-0.777832,0.165283,-0.292969,-0.361455,3.544792,9.184754,0.000639,0.000371,-0.000651,-0.00415,0.590332,0.740967,-0.217994,3.782943,9.117442,-0.003866,0.00292,0.01097,0.5271,-0.144531,-0.268311,-0.581528,3.138719,9.264289,-0.000841,0.000319,-0.003123,0.357666,-0.173828,-0.596436
0.035166,-0.888132,9.78677,0.005537,0.002715,-0.000424,-0.118408,0.436768,-0.583252,-0.276458,3.517493,9.147184,-0.009841,0.003101,0.002424,-0.786377,0.164307,-0.28418,-0.37298,3.533809,9.201205,-0.007032,0.009704,0.002069,-0.005371,0.587402,0.741699,-0.223593,3.756989,9.10617,-0.011917,0.003898,0.008383,0.522461,-0.146973,-0.268066,-0.550954,3.133768,9.257743,-0.006568,-0.008067,-0.00071,0.354004,-0.178467,-0.593994
0.03945,-0.889,9.799694,-0.0025,0.001568,-2e-05,-0.107178,0.450195,-0.585449,-0.251958,3.537328,9.121947,-0.007873,0.010078,0.004483,-0.775391,0.174316,-0.284668,-0.37803,3.519882,9.167636,-0.005965,2e-05,0.003233,0.005615,0.588867,0.748291,-0.223077,3.754986,9.107009,-0.006145,-0.000561,0.010697,0.532471,-0.145508,-0.262939,-0.565554,3.12678,9.253338,0.006846,0.004535,-0.00561,0.366455,-0.175781,-0.588379
0.035248,-0.894007,9.822798,0.001951,0.002506,-0.001572,-0.116455,0.438232,-0.581787,-0.29998,3.523985,9.144309,-0.011584,0.005808,0.005573,-0.782471,0.161865,-0.284668,-0.379148,3.527566,9.178839,-0.000364,0.008082,0.000644,-0.002441,0.59375,0.739258,-0.218691,3.765238,9.099539,0.000653,0.003538,0.00999,0.52832,-0.140137,-0.272949,-0.567514,3.136104,9.267567,0.001147,-0.006617,-0.002449,0.358887,-0.17041,-0.599854
0.034669,-0.879358,9.809375,0.002168,0.003204,-0.001296,-0.113037,0.445312,-0.588135,-0.258613,3.533115,9.144928,-0.007141,0.004716,0.002784,-0.782959,0.17041,-0.289307,-0.394357,3.552225,9.185492,-0.001082,0.002372,0.001042,0.003418,0.590332,0.74585,-0.216788,3.793568,9.10415,-0.00619,0.004437,0.009502,0.53418,-0.143066,-0.265381,-0.541945,3.133869,9.252445,-0.000972,-0.00055,-0.003394,0.364746,-0.174316,-0.593994
0.039291,-0.888021,9.828969,-0.005051,-0.001837,-0.001683,-0.111084,0.434082,-0.589355,-0.293604,3.539373,9.151851,-0.007628,0.009403,0.005018,-0.779053,0.158691,-0.294189,-0.357494,3.536692,9.189386,-0.010591,0.004188,0.001088,-0.001709,0.595459,0.75415,-0.218162,3.746891,9.116065,-0.013986,0.000143,0.01053,0.528076,-0.137207,-0.256104,-0.565872,3.132572,9.289371,-0.003476,0.00139,-0.003133,0.358154,-0.168457,-0.585449
0.055815,-0.909605,9.835413,-0.000656,0.004758,0.000172,-0.114258,0.442139,-0.583008,-0.261753,3.532413,9.137301,-0.013492,0.002175,0.003498,-0.782227,0.16626,-0.284424,-0.378573,3.525078,9.170854,-0.003657,0.007361,0.000761,-0.004395,0.587158,0.75293,-0.214805,3.74146,9.075571,-0.000566,0.001657,0.009099,0.525879,-0.147217,-0.259277,-0.550116,3.116038,9.241946,0.003814,-0.004627,-0.001408,0.356445,-0.17749,-0.588623
0.045314,-0.892669,9.796196,0.003199,0.003435,-0.001312,-0.121094,0.448975,-0.580566,-0.276632,3.530752,9.139727,-0.006339,0.011271,0.004744,-0.787842,0.171143,-0.280518,-0.376684,3.542198,9.183799,0.001175,0.001559,0.000101,0.006348,0.583496,0.751465,-0.227575,3.790002,9.11179,0.003566,0.003242,0.011458,0.534668,-0.149902,-0.26123,-0.560371,3.144398,9.276887,0.006461,0.000407,-0.004406,0.363281,-0.181396,-0.586182
0.019417,-0.896428,9.820135,-0.000976,-0.000397,0.00091,-0.120117,0.446045,-0.584229,-0.289602,3.539418,9.155644,-0.007234,0.003155,0.003802,-0.787354,0.168701,-0.283936,-0.375867,3.527439,9.194569,-0.013603,0.006856,0.003189,0.003906,0.582764,0.734375,-0.210972,3.768447,9.129204,-0.016541,0.002458,0.008765,0.531738,-0.151123,-0.276367,-0.568355,3.12668,9.266362,-0.009969,-0.002079,0.000241,0.362305,-0.181396,-0.601318
0.054399,-0.901927,9.828742,0.001137,0.00126,-0.001529,-0.118164,0.446289,-0.585693,-0.26405,3.523126,9.148626,-0.012047,0.007045,0.005137,-0.785889,0.168457,-0.287109,-0.40143,3.520444,9.163761,0.001675,0.001905,0.000175,0.001709,0.594727,0.746338,-0.215327,3.756086,9.089131,-0.005305,-0.000635,0.00887,0.531494,-0.140625,-0.265381,-0.554835,3.105843,9.253926,0.008164,0.000326,-0.00474,0.362061,-0.170898,-0.590576
0.026771,-0.891982,9.80999,0.004769,0.007806,-0.00204,-0.109863,0.444824,-0.582764,-0.29679,3.519214,9.120569,-0.007412,0.010508,0.006565,-0.77832,0.168945,-0.285156,-0.365119,3.570655,9.213587,-0.000434,0.0064,-0.000712,0.008301,0.588379,0.75,-0.214634,3.787123,9.121156,0.001291,0.004196,0.010897,0.535156,-0.144531,-0.262939,-0.560262,3.144908,9.276721,0.002612,-0.003853,-0.004313,0.366211,-0.17627,-0.588379
0.039954,-0.875391,9.799195,-0.004882,-0.005762,0.0005,-0.107666,0.447998,-0.576416,-0.265362,3.532345,9.154652,-0.006409,0.001023,0.002734,-0.773926,0.172607,-0.278076,-0.38638,3.519762,9.181533,-0.015377,0.000703,0.006405,-0.005127,0.587891,0.744141,-0.231834,3.76003,9.1022,-0.015247,0.003273,0.008446,0.525391,-0.144531,-0.265625,-0.548168,3.113851,9.263314,-0.010148,0.001061,0.000493,0.357178,-0.17627,-0.594482
0.062684,-0.911869,9.86123,-0.004136,0.005578,-0.00249,-0.121826,0.438721,-0.58252,-0.26096,3.526626,9.143267,-0.01398,0.010434,0.004435,-0.791992,0.161865,-0.285645,-0.360234,3.526445,9.150794,0.005156,0.002083,0.000904,-0.003906,0.5896,0.745605,-0.20259,3.753727,9.098264,-0.000984,-0.001756,0.009704,0.523926,-0.143311,-0.266602,-0.581629,3.129903,9.262927,0.015677,0.000337,-0.005243,0.354492,-0.175049,-0.594482
0.024126,-0.893892,9.78064,0.004937,0.005596,0.000395,-0.109863,0.444336,-0.591553,-0.298205,3.52228,9.136761,-0.009872,0.006552,0.005078,-0.777344,0.171875,-0.290039,-0.378905,3.554093,9.198596,-0.004638,0.013982,-0.001595,0.004883,0.596191,0.743652,-0.22793,3.769348,9.10939,-0.008054,0.006852,0.009552,0.534668,-0.137207,-0.270996,-0.547929,3.145477,9.258305,-0.011014,-0.009031,-0.001926,0.365967,-0.17041,-0.596924
0.023704,-0.886356,9.773948,-0.001141,-0.001613,-0.002023,-0.106201,0.439697,-0.584717,-0.24844,3.535111,9.147785,-0.000763,0.00357,0.004003,-0.774902,0.16333,-0.284668,-0.377194,3.522631,9.187398,-0.007277,-0.006628,0.005842,-0.001709,0.599609,0.74707,-0.230063,3.754802,9.090135,-0.002973,0.002284,0.010056,0.527344,-0.130371,-0.260742,-0.561274,3.116504,9.260082,0.002517,0.009993,-0.002985,0.359131,-0.163574,-0.590332
0.074607,-0.901649,9.857246,0.002065,-0.001251,-0.000281,-0.119385,0.443115,-0.587158,-0.278787,3.541218,9.133362,-0.015269,0.010234,0.006358,-0.786377,0.170654,-0.28833,-0.35068,3.540896,9.199911,-0.004543,0.009509,-0.001893,-0.002441,0.598145,0.74707,-0.215382,3.768696,9.117813,-0.004679,-0.004408,0.01006,0.527832,-0.134766,-0.266113,-0.581611,3.148531,9.278469,0.007729,-0.011445,-0.00358,0.357422,-0.166016,-0.591309
0.042621,-0.876155,9.812138,0.005259,0.007325,-0.000843,-0.113281,0.443604,-0.586426,-0.277519,3.495461,9.108422,-0.015799,0.001225,0.003913,-0.783691,0.167969,-0.284912,-0.412697,3.526779,9.164748,-0.004107,0.006448,0.002252,0.006104,0.587158,0.748535,-0.201348,3.765878,9.098631,-0.010342,0.005851,0.010196,0.533203,-0.146729,-0.265381,-0.510234,3.131253,9.245164,-0.007694,-0.002697,0.000471,0.363281,-0.177979,-0.593262
0.040532,-0.870073,9.776136,-0.00603,0.001192,-0.000275,-0.112305,0.444824,-0.581055,-0.267195,3.519282,9.138119,0.002281,0.011304,0.004257,-0.779053,0.16748,-0.281494,-0.357577,3.543338,9.188394,-0.003955,-0.00334,0.000976,-0.002197,0.591064,0.744873,-0.229259,3.752024,9.105568,-0.004024,0.005122,0.010391,0.530029,-0.143311,-0.265869,-0.585508,3.11321,9.239146,-0.001452,0.010967,-0.00617,0.359619,-0.173828,-0.595947
0.063037,-0.899387,9.831455,-0.002282,0.000553,5e-06,-0.113037,0.443848,-0.583252,-0.273329,3.570803,9.137325,-0.009816,0.002992,0.003048,-0.779785,0.169922,-0.285645,-0.38187,3.531504,9.178745,-0.007006,0.011957,0.001849,0.007812,0.58374,0.739258,-0.2249,3.762179,9.098163,-0.002325,-0.002001,0.009122,0.537109,-0.151123,-0.271484,-0.569557,3.136113,9.280601,0.009181,-0.014785,-0.002438,0.366211,-0.181396,-0.600342
0.048971,-0.894681,9.822051,0.00309,0.005834,0.000703,-0.11499,0.44751,-0.585449,-0.256572,3.517504,9.129121,-0.023067,0.008068,0.005772,-0.782715,0.173096,-0.282959,-0.382983,3.530556,9.179063,-0.001418,-0.000767,0.002023,-0.002441,0.591064,0.737793,-0.19668,3.774726,9.106038,-0.006683,-0.002327,0.011619,0.526367,-0.142334,-0.272949,-0.54258,3.147617,9.244739,0.001549,-0.003734,-0.00493,0.358398,-0.173096,-0.599365
0.01791,-0.88974,9.826382,0.002332,0.000643,-0.002413,-0.114258,0.441406,-0.584961,-0.298181,3.513248,9.143926,-0.000514,0.008129,0.004907,-0.782715,0.168457,-0.283936,-0.34788,3.537127,9.183582,-0.0069,0.006075,0.002438,0.000977,0.589844,0.740479,-0.215517,3.749481,9.114791,-0.013594,0.008584,0.008753,0.529785,-0.14209,-0.270264,-0.559439,3.116977,9.260034,-0.014875,0.005428,0.000293,0.358398,-0.174561,-0.597168
0.061716,-0.884196,9.818088,-5.4e-05,-0.001548,-0.001144,-0.117188,0.441406,-0.58667,-0.262845,3.563704,9.138202,-0.000795,0.003682,0.003363,-0.786133,0.167236,-0.2854,-0.392927,3.531982,9.176759,-0.005039,0.004098,2.3e-05,-0.00415,0.586914,0.748779,-0.222805,3.74065,9.101729,-4.3e-05,0.003947,0.010323,0.524658,-0.145264,-0.262451,-0.571266,3.097977,9.262871,0.009825,-0.003091,-0.002819,0.35376,-0.175049,-0.592285
0.038302,-0.890931,9.796384,0.002707,0.005633,-0.002256,-0.116455,0.44165,-0.580811,-0.278894,3.548851,9.136013,-0.021409,0.010709,0.005654,-0.7854,0.166748,-0.278809,-0.359543,3.552526,9.170804,0.002188,0.000843,0.001141,-0.008789,0.591797,0.751709,-0.21102,3.774844,9.092226,0.003726,-0.005869,0.011429,0.521484,-0.14209,-0.260498,-0.546352,3.165325,9.27352,0.016244,-0.00602,-0.004973,0.351562,-0.173828,-0.588867
0.04252,-0.878047,9.795807,-0.002878,5e-06,0.000322,-0.112061,0.442383,-0.583252,-0.275265,3.493112,9.138298,-0.008437,0.002851,0.003043,-0.778564,0.167969,-0.281738,-0.372668,3.554451,9.177133,-0.012335,0.009011,0.000983,0.0,0.585449,0.740234,-0.207062,3.753869,9.129705,-0.020966,0.005258,0.00826,0.526367,-0.147949,-0.27124,-0.533668,3.134085,9.260215,-0.025503,-0.001279,0.002476,0.358154,-0.177734,-0.59668
0.043476,-0.89903,9.845218,-0.002554,2e-05,-0.001165,-0.116699,0.438477,-0.584229,-0.267356,3.544075,9.136009,0.001205,0.008871,0.004427,-0.78418,0.16626,-0.286621,-0.379579,3.526445,9.16288,-0.002023,-0.000298,0.00335,-0.006104,0.588867,0.739746,-0.223924,3.739546,9.082316,-0.007472,0.006121,0.010766,0.522705,-0.143066,-0.273438,-0.565383,3.07754,9.255643,0.004466,0.007346,-0.005081,0.353271,-0.174072,-0.599121
0.041675,-0.899997,9.815951,0.001947,0.005935,-0.00107,-0.11084,0.443604,-0.581299,-0.282428,3.542951,9.138194,-0.016566,0.006704,0.004959,-0.776611,0.167236,-0.282715,-0.361068,3.544438,9.19311,-0.000734,0.00917,-0.001042,0.002197,0.591797,0.753906,-0.23943,3.75972,9.128198,0.004396,-0.001289,0.009924,0.533447,-0.143066,-0.258789,-0.575811,3.150189,9.265103,0.016946,-0.011511,-0.004425,0.362549,-0.174316,-0.585205
0.036043,-0.891398,9.796351,0.000433,0.001397,0.000552,-0.110107,0.44751,-0.581543,-0.25049,3.518966,9.128418,-0.01071,0.003447,0.005764,-0.778564,0.171631,-0.280518,-0.382002,3.533837,9.174152,-0.005154,0.001257,0.002525,0.006348,0.59082,0.742676,-0.20496,3.764525,9.102212,-0.006416,-0.001659,0.00859,0.537598,-0.142822,-0.268066,-0.535009,3.156502,9.253875,-0.003678,-5.6e-05,-0.001893,0.368652,-0.175537,-0.594971
0.041523,-0.884363,9.831802,0.002061,0.002176,0.000219,-0.118896,0.438721,-0.583496,-0.270848,3.521287,9.142821,-0.004039,0.010557,0.002662,-0.787109,0.164551,-0.285156,-0.353689,3.530013,9.186097,-0.009576,0.003478,0.002108,-0.002686,0.587402,0.749756,-0.206174,3.779926,9.115474,-0.017369,0.00506,0.011539,0.528076,-0.146973,-0.259521,-0.570134,3.117381,9.278224,-0.012774,0.002402,-0.002802,0.358398,-0.173828,-0.586914
0.052721,-0.889225,9.812026,0.003144,0.005669,0.001599,-0.112793,0.438965,-0.586426,-0.272833,3.538962,9.130056,-0.014116,0.003753,0.004423,-0.779297,0.163574,-0.286377,-0.373274,3.505349,9.177623,-0.002547,0.010579,0.00294,-0.001709,0.594238,0.747314,-0.246577,3.73367,9.097029,-0.006173,0.004458,0.009528,0.5271,-0.139648,-0.264893,-0.559785,3.107084,9.259017,0.003474,-0.005414,-0.002465,0.357178,-0.170654,-0.589844
0.050722,-0.890369,9.782746,-0.005164,0.00192,-0.002976,-0.120361,0.440186,-0.58252,-0.284141,3.524269,9.106425,-0.007175,0.009825,0.007096,-0.786377,0.16333,-0.283447,-0.386793,3.552725,9.175882,0.004084,-0.000294,-0.000593,-0.012939,0.594727,0.748535,-0.22083,3.781229,9.101183,0.009872,-0.001953,0.011952,0.513916,-0.137451,-0.259766,-0.566529,3.150372,9.25979,0.018357,0.001093,-0.005485,0.347412,-0.16626,-0.587891
0.046915,-0.903048,9.812523,-0.000323,-0.001729,0.001237,-0.112793,0.442383,-0.588379,-0.286638,3.545564,9.146741,-0.00316,0.002957,0.002507,-0.783203,0.168945,-0.287354,-0.365349,3.539817,9.194721,-0.013764,0.004589,0.004099,-0.000244,0.589355,0.746094,-0.216987,3.77733,9.12271,-0.013665,0.002768,0.009344,0.5271,-0.145508,-0.268555,-0.563356,3.157398,9.282456,-0.014615,-0.004493,0.000271,0.356689,-0.177246,-0.594482
0.051357,-0.896988,9.818706,0.002166,0.004921,-0.001043,-0.121338,0.440918,-0.586426,-0.239994,3.534589,9.139875,-0.017951,0.006849,0.004948,-0.787598,0.159912,-0.285889,-0.389288,3.519134,9.174232,-0.001745,0.00482,-9e-05,-0.002441,0.589844,0.743164,-0.20265,3.756393,9.105623,-0.012665,0.002965,0.009027,0.525879,-0.145996,-0.272949,-0.560508,3.098551,9.257523,-0.001124,-0.000176,-0.002396,0.356934,-0.174561,-0.596436
0.01889,-0.892937,9.793756,0.003361,0.004303,-0.001927,-0.116211,0.444336,-0.590332,-0.300426,3.514913,9.119505,-0.009075,0.011438,0.005383,-0.780029,0.167969,-0.28833,-0.373982,3.555533,9.173012,-0.000569,0.006378,1.4e-05,-0.003174,0.580566,0.742676,-0.221413,3.747413,9.098772,-0.002101,0.002154,0.011269,0.526123,-0.154785,-0.268066,-0.575642,3.122629,9.248257,0.006476,-0.000833,-0.005685,0.357178,-0.183594,-0.595459
0.044238,-0.888694,9.769897,-0.001681,-0.002327,-0.000813,-0.111084,0.440918,-0.591064,-0.247909,3.550105,9.14928,-0.000952,0.000683,0.001441,-0.777344,0.163574,-0.292969,-0.396545,3.530583,9.173452,-0.008412,0.001379,0.003308,-0.000977,0.589111,0.746338,-0.209487,3.764156,9.091128,0.000373,0.002923,0.010019,0.531738,-0.14502,-0.265381,-0.556471,3.146846,9.276291,0.002703,-0.000495,-0.001503,0.361328,-0.175293,-0.593994
0.054614,-0.90463,9.838409,-0.000169,0.003926,-0.002183,-0.112549,0.437988,-0.588135,-0.26464,3.539381,9.137652,-0.015124,0.01157,0.006602,-0.78125,0.15918,-0.289551,-0.344535,3.529494,9.184365,-0.001454,0.00346,-0.000648,-0.002686,0.588623,0.747803,-0.211962,3.799886,9.115637,-0.004118,-0.002669,0.012189,0.527588,-0.14624,-0.267334,-0.569566,3.162689,9.252426,0.004493,-0.001247,-0.004622,0.358154,-0.175537,-0.594238
0.052839,-0.883939,9.788975,0.003254,0.003273,-0.000413,-0.111328,0.441162,-0.582031,-0.280731,3.507192,9.140164,-0.016181,0.002125,0.005371,-0.780029,0.165039,-0.281494,-0.382229,3.537499,9.202517,-0.009214,0.00887,0.000909,-0.001953,0.592285,0.743408,-0.207883,3.745489,9.107719,-0.020135,0.005724,0.008567,0.528809,-0.139648,-0.267578,-0.542037,3.107761,9.248242,-0.015235,-0.005779,-5.1e-05,0.359375,-0.171387,-0.595703
0.03904,-0.893623,9.793006,-0.004455,0.000422,-0.001755,-0.118652,0.4375,-0.591797,-0.267146,3.537604,9.130505,0.001448,0.006524,0.003316,-0.786621,0.161377,-0.293213,-0.395159,3.519275,9.154691,-0.002025,-0.000299,0.003347,0.001465,0.58667,0.745605,-0.222541,3.729957,9.094973,0.000327,0.003484,0.009116,0.532227,-0.148682,-0.267578,-0.570824,3.107826,9.277075,0.007015,0.007228,-0.005587,0.359863,-0.179443,-0.596436
0.056928,-0.907006,9.822029,0.000542,0.000714,-0.001211,-0.113037,0.442871,-0.586914,-0.285603,3.550147,9.158453,-0.009911,0.008331,0.006074,-0.780273,0.168457,-0.286377,-0.349296,3.548398,9.186117,-0.001034,0.006872,0.000617,0.000732,0.589355,0.743652,-0.213707,3.783904,9.111238,0.007825,-0.001793,0.011688,0.53125,-0.141357,-0.268066,-0.575046,3.170241,9.280202,0.014834,-0.006961,-0.003355,0.362305,-0.171631,-0.596191
0.029798,-0.897192,9.803224,0.004447,0.004369,-0.001046,-0.116211,0.438232,-0.587891,-0.263028,3.526658,9.128921,-0.01882,0.003863,0.004987,-0.782959,0.164551,-0.289062,-0.382591,3.540596,9.173138,-0.007585,0.006276,0.001509,0.003418,0.592529,0.744385,-0.206881,3.77587,9.091769,-0.015497,0.000203,0.010582,0.533691,-0.141357,-0.267334,-0.525538,3.144118,9.268994,-0.012339,-0.005111,0.000501,0.364258,-0.172119,-0.595947
0.037832,-0.893076,9.793061,-0.001086,-6.6e-05,-0.000879,-0.118164,0.437256,-0.586426,-0.279177,3.51189,9.126612,-0.003027,0.011304,0.004165,-0.782471,0.159912,-0.289551,-0.361603,3.527027,9.192213,-0.007633,0.001776,0.001931,0.006348,0.597656,0.741943,-0.225778,3.733586,9.116338,-0.01804,0.005,0.009746,0.533203,-0.131836,-0.269043,-0.568351,3.099672,9.262483,-0.008589,0.007452,-0.001841,0.367188,-0.167969,-0.59375
0.050822,-0.9119,9.815961,0.000378,0.001564,-0.000342,-0.124023,0.443115,-0.586182,-0.277029,3.549556,9.141249,-0.006819,0.002032,0.003565,-0.792969,0.167725,-0.285156,-0.381941,3.507921,9.162294,-3.3e-05,0.007565,0.000768,-0.000977,0.589355,0.745605,-0.241866,3.736853,9.115471,0.004645,0.002341,0.009948,0.528564,-0.142822,-0.265137,-0.572056,3.111738,9.255169,0.014753,-0.006011,-0.003866,0.357422,-0.175049,-0.593018
0.0453,-0.896323,9.789611,0.001295,0.005555,-0.001645,-0.113525,0.447021,-0.577881,-0.258089,3.523229,9.14192,-0.016206,0.009143,0.006752,-0.778564,0.170166,-0.276367,-0.369814,3.544126,9.170006,0.001687,0.000495,0.00107,-0.001709,0.583984,0.744385,-0.20307,3.800973,9.097898,0.007822,-0.004271,0.010765,0.529053,-0.148193,-0.265381,-0.552219,3.168557,9.277873,0.012316,-0.003502,-0.005114,0.356201,-0.179443,-0.594238
0.027547,-0.903577,9.810031,-5.5e-05,0.000166,-0.000894,-0.112305,0.44873,-0.58374,-0.294826,3.519212,9.135188,-0.006294,0.004135,0.003994,-0.782227,0.17334,-0.285156,-0.377996,3.549629,9.199652,-0.015242,0.005803,0.003647,0.007568,0.593994,0.744141,-0.209271,3.760859,9.115444,-0.022713,0.006614,0.010142,0.533936,-0.139404,-0.271484,-0.559735,3.131794,9.251996,-0.024469,0.001352,0.002354,0.365967,-0.172363,-0.596191
0.063684,-0.893835,9.834508,0.001628,0.00078,-0.000331,-0.113037,0.437744,-0.586426,-0.253475,3.528853,9.135904,-0.006255,0.005933,0.001698,-0.782471,0.162842,-0.289307,-0.373439,3.514987,9.147335,-0.001722,0.002001,0.001688,0.002441,0.588623,0.742188,-0.239345,3.731882,9.103326,-0.009499,0.003846,0.009596,0.530518,-0.141357,-0.269531,-0.562762,3.092667,9.234529,0.007518,0.000294,-0.003802,0.362549,-0.174072,-0.59668
0.035353,-0.88535,9.786392,-6.2e-05,0.005309,-0.000143,-0.111328,0.44873,-0.583008,-0.28876,3.534439,9.142972,-0.015157,0.010027,0.004294,-0.781494,0.174316,-0.286865,-0.374635,3.534839,9.201545,0.000563,0.008507,-0.001447,-0.005615,0.595947,0.743408,-0.216128,3.766702,9.101771,0.008001,-0.004508,0.010153,0.523193,-0.139404,-0.268799,-0.554817,3.148986,9.275665,0.018618,-0.008817,-0.005523,0.353271,-0.170654,-0.595703
0.034624,-0.90677,9.806587,-0.001683,-0.000614,-0.000563,-0.117676,0.446289,-0.573975,-0.278994,3.525535,9.119312,-0.004671,0.003312,0.00453,-0.783447,0.17041,-0.275391,-0.393566,3.538188,9.163326,-0.007843,0.003407,0.00473,-0.002686,0.588867,0.744385,-0.208454,3.774358,9.115318,-0.0048,0.004205,0.008001,0.526123,-0.144531,-0.266357,-0.537471,3.148213,9.265345,-0.012551,0.000794,7e-06,0.358643,-0.173828,-0.594727
0.043849,-0.91637,9.839121,0.001136,0.002977,-0.001277,-0.112793,0.441406,-0.591797,-0.268737,3.54971,9.149007,-0.003737,0.009644,0.004485,-0.780273,0.164551,-0.293213,-0.365206,3.534826,9.175136,-0.002478,0.000519,-0.000588,-0.003662,0.586182,0.749512,-0.230518,3.768847,9.087175,-0.011676,0.003696,0.010849,0.526123,-0.147705,-0.262695,-0.587451,3.115141,9.264719,0.001296,0.004662,-0.002886,0.354736,-0.17749,-0.590576
0.051593,-0.89092,9.808763,0.003251,0.004989,-0.000161,-0.114746,0.452148,-0.585449,-0.285714,3.5381,9.137676,-0.020665,0.005252,0.004536,-0.784424,0.177246,-0.286133,-0.365175,3.528747,9.196696,-0.006524,0.01006,0.002122,-0.000732,0.587891,0.751221,-0.22141,3.73997,9.104966,-0.010458,-0.001848,0.008972,0.527588,-0.145508,-0.261963,-0.550236,3.13208,9.246659,0.004852,-0.013632,-0.002122,0.360107,-0.177246,-0.590332
0.029075,-0.89028,9.809502,-0.005324,0.001055,-0.00236,-0.121338,0.437012,-0.580811,-0.255935,3.504579,9.11404,-0.006939,0.005819,0.004311,-0.788574,0.163086,-0.281494,-0.38442,3.540334,9.169523,-0.001757,0.001161,0.001009,-0.006104,0.596436,0.748047,-0.208797,3.756095,9.097623,0.003579,0.000741,0.010569,0.524658,-0.138184,-0.26709,-0.527927,3.129362,9.244646,8.4e-05,0.005156,-0.002498,0.355713,-0.168701,-0.591553
0.062636,-0.918128,9.809111,0.003256,0.00156,-0.000662,-0.11377,0.445557,-0.586914,-0.292984,3.554215,9.14691,0.0028,0.008151,0.004345,-0.779053,0.168213,-0.289795,-0.383918,3.534721,9.19092,-0.003174,0.005463,0.001038,0.000732,0.592285,0.743164,-0.22743,3.780383,9.121969,-0.001588,0.006973,0.010397,0.530029,-0.141113,-0.267578,-0.587032,3.134224,9.28013,-0.001058,0.000395,-0.003908,0.360596,-0.171875,-0.592773
0.033187,-0.876848,9.808978,0.003092,0.00241,0.000207,-0.115967,0.439697,-0.589111,-0.26644,3.551202,9.144554,-0.018429,0.002862,0.004107,-0.783691,0.165283,-0.289551,-0.389867,3.537876,9.179176,-0.007759,0.005413,0.001547,0.000244,0.5979,0.750244,-0.237778,3.776269,9.101359,-0.013727,-0.001064,0.008731,0.530518,-0.138916,-0.259521,-0.550894,3.123216,9.245281,0.00418,-0.010906,-0.001922,0.362061,-0.167725,-0.587646
0.053125,-0.907003,9.805904,-0.003806,0.002518,-0.000928,-0.114746,0.440674,-0.57959,-0.277091,3.515607,9.134724,-0.013721,0.009651,0.005573,-0.783936,0.162842,-0.28125,-0.370074,3.529911,9.176833,-0.002408,0.0022,0.000767,0.005859,0.595459,0.745117,-0.190969,3.747324,9.100776,-0.009368,-0.002774,0.010467,0.536621,-0.139404,-0.269043,-0.543741,3.131345,9.254647,-0.000519,0.002627,-0.004095,0.36377,-0.171631,-0.593262
0.05394,-0.885167,9.814933,0.001573,0.000946,-0.001225,-0.10791,0.448975,-0.584961,-0.277075,3.527372,9.139918,0.003501,0.002911,0.001993,-0.774902,0.174561,-0.288086,-0.374604,3.52831,9.186192,-0.005897,0.006772,0.002572,0.005859,0.589844,0.746826,-0.219375,3.750832,9.105967,-0.002147,0.010193,0.01013,0.538086,-0.144043,-0.264893,-0.575832,3.111949,9.281206,-0.010507,0.001502,0.000726,0.365723,-0.175781,-0.592285
0.039901,-0.887581,9.812236,-0.001094,0.005079,-0.000128,-0.107666,0.446533,-0.585693,-0.263887,3.558636,9.130083,-0.010801,0.009034,0.004192,-0.778076,0.169189,-0.285156,-0.38031,3.532036,9.17424,-0.000116,0.002225,0.000512,-0.003418,0.589844,0.749268,-0.232493,3.783473,9.095263,0.003328,-0.000433,0.011479,0.525879,-0.145508,-0.260986,-0.5741,3.116774,9.246002,0.017749,-0.001424,-0.007097,0.35791,-0.174316,-0.589355
0.046422,-0.913221,9.799714,-0.000273,0.001182,-0.00092,-0.112305,0.45166,-0.591797,-0.307922,3.52798,9.135319,-0.018364,0.007866,0.005762,-0.782715,0.17627,-0.290283,-0.374976,3.549159,9.178474,-0.007559,0.00853,0.001289,0.003906,0.592285,0.746582,-0.200785,3.775264,9.126115,-0.012682,-0.001426,0.00932,0.532715,-0.144531,-0.26416,-0.549169,3.152213,9.261744,-0.004084,-0.007251,-0.001719,0.364746,-0.172363,-0.591797
0.047416,-0.890766,9.808798,0.003095,0.000695,-4.3e-05,-0.115234,0.436035,-0.588623,-0.253914,3.52309,9.130222,-0.002552,0.003046,0.003199,-0.783691,0.162109,-0.289307,-0.378746,3.494448,9.184493,-0.006438,0.000515,0.003805,-0.005615,0.587402,0.74292,-0.217189,3.746039,9.093751,-0.012275,0.007495,0.009683,0.525146,-0.146973,-0.269287,-0.551466,3.113221,9.244291,-0.011503,0.002192,-0.001398,0.354736,-0.178711,-0.596191
0.046792,-0.8902,9.808852,0.001513,0.004542,-0.001618,-0.11377,0.441895,-0.59082,-0.265759,3.544953,9.150808,-0.007485,0.010729,0.005275,-0.781494,0.166016,-0.293701,-0.359367,3.539388,9.185591,8.5e-05,0.005341,0.000257,0.000244,0.592773,0.739014,-0.231376,3.763085,9.112505,0.00329,0.0026,0.011504,0.528809,-0.14209,-0.273682,-0.571937,3.113414,9.267783,0.010791,-0.000731,-0.004752,0.359375,-0.172852,-0.601074
0.046147,-0.890173,9.808858,-0.001305,0.00095,-0.000906,-0.109863,0.447021,-0.581543,-0.271488,3.526942,9.114889,-0.015429,0.001897,0.004637,-0.776367,0.171631,-0.283203,-0.384097,3.528138,9.175582,-0.006582,0.006972,0.00165,0.007324,0.590576,0.743896,-0.221218,3.766582,9.085102,-0.005006,8e-06,0.008896,0.535645,-0.143311,-0.268311,-0.545167,3.152855,9.248603,0.002495,-0.006243,-0.002575,0.36377,-0.173584,-0.595703
0.041874,-0.881237,9.818459,-0.000876,0.004063,-0.000102,-0.115479,0.447998,-0.581055,-0.270524,3.51772,9.133946,-0.005034,0.007775,0.004746,-0.782715,0.170654,-0.280029,-0.372738,3.532344,9.181093,-0.002739,-0.002353,0.002633,-0.005371,0.588623,0.742188,-0.210144,3.767484,9.10705,-0.008445,0.003497,0.010197,0.523926,-0.143311,-0.269043,-0.566881,3.143752,9.270833,-0.000833,0.004898,-0.004114,0.355957,-0.176025,-0.596436
0.039976,-0.903234,9.809421,0.00179,0.001645,-0.000948,-0.116211,0.443604,-0.591309,-0.292533,3.543282,9.125801,-0.009819,0.008238,0.00339,-0.78125,0.169678,-0.29126,-0.370568,3.548426,9.194534,-0.008208,0.00957,0.001044,0.005371,0.588623,0.752441,-0.223543,3.750814,9.080566,-0.012125,0.002834,0.009346,0.530762,-0.147217,-0.259277,-0.563442,3.131415,9.278229,-0.006979,-0.007924,-0.002269,0.361816,-0.175049,-0.590088
0.035529,-0.88689,9.812315,-0.001204,0.005412,-0.001917,-0.113281,0.441895,-0.591553,-0.250882,3.531592,9.1406,-0.015333,0.005123,0.005279,-0.779053,0.165527,-0.291504,-0.406465,3.523261,9.168513,-0.001363,0.002321,0.002484,-0.003174,0.5896,0.746338,-0.216442,3.740853,9.110141,-0.001487,0.000396,0.008232,0.524658,-0.142334,-0.265869,-0.537258,3.111191,9.247368,0.006679,-0.001184,-0.001619,0.357666,-0.173584,-0.592529
0.046978,-0.899535,9.799235,0.000542,0.000715,-0.00121,-0.118164,0.437988,-0.584717,-0.293172,3.531641,9.145737,-0.001346,0.008579,0.004338,-0.789795,0.163574,-0.284912,-0.355451,3.539523,9.201298,-0.001697,0.004252,0.001475,0.002441,0.588379,0.752197,-0.2023,3.770404,9.122557,-0.003062,0.003936,0.010414,0.53125,-0.146484,-0.262939,-0.567556,3.134172,9.2697,0.002345,0.000236,-0.004582,0.36084,-0.177246,-0.588379
0.051574,-0.900497,9.812166,0.001628,0.00078,-0.00033,-0.119629,0.44043,-0.590088,-0.261804,3.546015,9.117475,-0.006513,0.003037,0.002431,-0.787354,0.163574,-0.294434,-0.375976,3.528778,9.182332,-0.006422,0.004177,0.002702,-0.000488,0.580078,0.748047,-0.228895,3.771658,9.10026,-0.008083,0.003038,0.008976,0.525879,-0.151367,-0.263184,-0.568975,3.124462,9.268564,-0.003136,-0.003657,-0.002365,0.358398,-0.182617,-0.590088
0.042583,-0.889747,9.808913,0.000971,0.003828,-0.000407,-0.111572,0.445557,-0.582275,-0.289888,3.524694,9.134834,-0.018058,0.010533,0.006288,-0.778809,0.167725,-0.28125,-0.364944,3.532788,9.187912,-0.004524,0.003042,0.000972,-0.001465,0.588867,0.741455,-0.21037,3.747088,9.090228,-0.007616,-0.001076,0.011671,0.526855,-0.146484,-0.270752,-0.555477,3.13427,9.251414,0.002215,-0.000633,-0.004855,0.358398,-0.174805,-0.598633
0.032289,-0.887325,9.7831,-0.001254,0.002499,0.000239,-0.116699,0.443848,-0.590088,-0.272188,3.501684,9.126388,-0.00593,0.003245,0.002487,-0.786133,0.169434,-0.29126,-0.373988,3.527046,9.174159,-0.005756,0.0068,0.001844,0.001953,0.591553,0.73999,-0.215443,3.752771,9.110712,-0.006011,0.004823,0.008045,0.533447,-0.141846,-0.272217,-0.552013,3.122736,9.258539,-0.003155,-0.002412,-0.001092,0.36084,-0.173096,-0.596924
0.05464,-0.901833,9.825071,-0.001956,0.000568,-0.001484,-0.113281,0.443359,-0.591309,-0.26196,3.561779,9.13867,-0.003627,0.00751,0.005393,-0.782227,0.17041,-0.289551,-0.395245,3.533104,9.177158,-0.000966,0.000148,0.000525,-0.008789,0.593018,0.740479,-0.221309,3.743649,9.083577,-0.001252,0.002075,0.00946,0.521484,-0.138916,-0.269775,-0.570253,3.11505,9.267337,0.007581,0.000871,-0.005323,0.351074,-0.171143,-0.598145
0.045469,-0.905639,9.835255,0.001132,0.004694,-0.001024,-0.114502,0.44873,-0.586426,-0.293034,3.535081,9.132771,-0.016064,0.008822,0.005329,-0.780518,0.17041,-0.287842,-0.376245,3.542284,9.196672,-0.004648,0.006678,0.000595,0.005615,0.577881,0.743896,-0.215393,3.768304,9.109782,-0.0038,-8.2e-05,0.011006,0.5354,-0.155518,-0.264893,-0.558775,3.134674,9.264244,0.003097,-0.003713,-0.000979,0.366943,-0.186035,-0.594727
0.039917,-0.88985,9.808914,0.00233,0.002712,0.001394,-0.108887,0.442383,-0.580322,-0.27349,3.504877,9.142596,-0.009994,0.003328,0.004385,-0.779053,0.167725,-0.280762,-0.400828,3.530294,9.186924,-0.008539,0.005019,0.002905,0.006836,0.591309,0.739746,-0.205554,3.754564,9.098255,-0.011885,0.004528,0.010578,0.53418,-0.144531,-0.269775,-0.543085,3.123065,9.253151,-0.008325,-0.002474,-0.001864,0.367676,-0.171875,-0.600586
0.04789,-0.89284,9.8055,0.000704,0.00158,-0.001828,-0.118896,0.44165,-0.585449,-0.273946,3.5363,9.134568,-0.001774,0.0097,0.004555,-0.785645,0.16333,-0.285889,-0.365367,3.528073,9.180793,-0.003118,0.00015,5.3e-05,-0.000732,0.590088,0.739014,-0.218611,3.753884,9.118889,-0.004931,0.001417,0.008609,0.530029,-0.14624,-0.271973,-0.576034,3.107168,9.257972,0.002686,0.001028,-0.00353,0.360107,-0.173584,-0.602295
0.038849,-0.903406,9.822448,0.000974,0.002113,-0.000657,-0.109619,0.443359,-0.581787,-0.26762,3.540411,9.136999,-0.016079,0.003587,0.004936,-0.776611,0.166992,-0.281738,-0.37919,3.538572,9.197979,-0.004596,0.011181,0.000174,0.00293,0.601807,0.736328,-0.204983,3.751691,9.099453,-0.004336,0.002633,0.008609,0.533203,-0.132568,-0.277344,-0.567594,3.137861,9.247935,0.005261,-0.006439,-0.002302,0.362305,-0.161865,-0.602783
0.042012,-0.884332,9.785878,-0.000931,0.004231,-0.000996,-0.10791,0.44751,-0.584961,-0.275842,3.531405,9.136404,-0.009526,0.007323,0.005198,-0.777588,0.171631,-0.281494,-0.384786,3.533975,9.175006,-0.001714,0.000589,0.002572,0.001221,0.59375,0.741455,-0.216734,3.766608,9.090703,-0.002907,0.001743,0.011009,0.533936,-0.141357,-0.266846,-0.559079,3.125242,9.263083,5e-05,0.002093,-0.003535,0.361084,-0.170654,-0.598145
0.046351,-0.892839,9.805508,-0.000812,-0.001248,3.9e-05,-0.116699,0.437744,-0.588135,-0.281213,3.546124,9.154019,-0.003384,0.005171,0.004266,-0.782959,0.159912,-0.288818,-0.365077,3.534285,9.183739,-0.008758,0.004726,0.00138,0.002197,0.588623,0.739014,-0.225831,3.761161,9.118915,-0.013279,0.00239,0.008157,0.531006,-0.143311,-0.270264,-0.565945,3.134981,9.269525,-0.004348,-0.003165,-0.001976,0.363525,-0.173584,-0.60083
0.064256,-0.905602,9.834625,0.00179,0.001646,-0.000947,-0.118896,0.438721,-0.588135,-0.256976,3.553175,9.124639,-0.015367,0.005246,0.00462,-0.786133,0.163818,-0.289062,-0.387545,3.500808,9.173043,-0.002347,0.005292,0.001231,-0.001709,0.586182,0.748535,-0.203396,3.747122,9.101371,-0.004736,-0.00134,0.010104,0.5271,-0.148193,-0.263672,-0.561695,3.105689,9.260874,0.005716,-0.003258,-0.002999,0.358398,-0.179932,-0.592041
0.040561,-0.897975,9.799407,0.002976,0.006175,-0.001076,-0.106445,0.446289,-0.583984,-0.291848,3.522017,9.149381,-0.01118,0.009924,0.005674,-0.77417,0.16748,-0.286865,-0.372055,3.545278,9.183188,-0.001941,0.001707,0.000161,-0.006104,0.588379,0.741455,-0.208744,3.770267,9.120142,-0.003247,0.001698,0.010105,0.522217,-0.145508,-0.272217,-0.565449,3.166462,9.264553,0.001935,-0.001127,-0.004127,0.354248,-0.177246,-0.599121
0.041234,-0.882777,9.815209,-0.001733,-0.002164,-0.00171,-0.118408,0.445312,-0.585938,-0.278742,3.536091,9.144302,-0.003484,0.001946,0.003615,-0.784668,0.17041,-0.289795,-0.382914,3.525324,9.188682,-0.009471,0.006007,0.004104,-0.002686,0.591797,0.739502,-0.226704,3.76051,9.099421,-0.010297,0.00347,0.009333,0.527588,-0.14209,-0.270264,-0.568201,3.116275,9.267051,-0.006151,-0.000894,-0.000874,0.356934,-0.171875,-0.597168
0.05403,-0.915773,9.851617,0.00059,0.00398,0.000186,-0.115723,0.447266,-0.587646,-0.251098,3.545801,9.146943,-0.01296,0.00942,0.004859,-0.782715,0.170898,-0.289795,-0.376128,3.525834,9.17094,0.001826,0.000517,0.000352,0.0,0.594238,0.749512,-0.211716,3.756588,9.128934,-0.002055,-0.000872,0.011279,0.530029,-0.137207,-0.26123,-0.571277,3.128034,9.259872,0.009759,-0.003374,-0.004627,0.358887,-0.17041,-0.589111
0.039132,-0.890323,9.792727,0.004068,0.00281,-0.000697,-0.119629,0.440918,-0.588379,-0.295659,3.519007,9.142706,-0.013747,0.00442,0.005156,-0.787354,0.165283,-0.288574,-0.389434,3.536565,9.188053,-0.007546,0.007124,0.002165,-0.000244,0.594727,0.738525,-0.181651,3.76508,9.095833,-0.008223,0.005251,0.008403,0.529541,-0.140137,-0.276123,-0.554152,3.145059,9.265341,-0.006014,-0.005853,-0.00089,0.359131,-0.169434,-0.600586
0.056896,-0.889006,9.808367,-0.003583,-0.000214,-0.001156,-0.114746,0.436035,-0.586914,-0.256486,3.538547,9.116673,-0.002828,0.005496,0.003684,-0.783447,0.15918,-0.286865,-0.378238,3.531997,9.182721,-0.005666,0.002326,0.001535,-0.001953,0.584961,0.74585,-0.225666,3.756557,9.10108,-0.005331,0.00245,0.008936,0.527344,-0.148926,-0.262939,-0.554028,3.113747,9.270292,-0.000412,0.005015,-0.005847,0.359375,-0.179199,-0.588379
0.051535,-0.909475,9.815633,-0.000442,0.003748,0.0002,-0.112061,0.439209,-0.587891,-0.282554,3.544029,9.143224,-0.012377,0.009628,0.004914,-0.780518,0.16333,-0.29126,-0.367286,3.528229,9.177072,-0.000429,0.00782,-0.001594,-0.000732,0.597656,0.745605,-0.214511,3.77362,9.107612,-0.002948,0.002308,0.01011,0.529541,-0.134766,-0.267578,-0.575731,3.130061,9.25157,0.006242,-0.005607,-0.002201,0.357666,-0.166016,-0.594482
0.042307,-0.884669,9.798887,0.002437,0.003745,-0.000117,-0.11377,0.438721,-0.588867,-0.264623,3.5208,9.134848,-0.013505,0.002085,0.004024,-0.782471,0.162842,-0.28833,-0.38912,3.534416,9.179979,-0.005131,0.003511,0.00229,-0.000732,0.589355,0.746338,-0.220101,3.764249,9.080599,-0.007193,0.002407,0.008057,0.527588,-0.14502,-0.266846,-0.553726,3.14536,9.265264,-0.001943,-0.002907,-0.00148,0.358643,-0.174805,-0.594482
0.042929,-0.897772,9.841644,-0.001463,-0.001631,-0.00054,-0.121826,0.44873,-0.592773,-0.271561,3.541831,9.134595,-0.00531,0.010224,0.005233,-0.79126,0.174805,-0.291992,-0.365744,3.535399,9.17971,-0.005341,0.001806,0.001655,0.000244,0.58667,0.740479,-0.213173,3.754129,9.110175,-0.006807,0.001889,0.009871,0.5271,-0.146729,-0.272461,-0.570144,3.128323,9.259845,-0.001312,0.002961,-0.002143,0.361084,-0.175049,-0.5979
0.042828,-0.883471,9.828181,0.002818,0.003595,-0.000709,-0.108643,0.450195,-0.587402,-0.286585,3.540795,9.136657,-0.00987,0.00478,0.004004,-0.779053,0.175781,-0.288574,-0.374867,3.529709,9.165922,-0.004761,0.008906,0.001103,0.003174,0.590576,0.738525,-0.220722,3.74676,9.110741,-0.005955,0.004274,0.008967,0.532959,-0.14209,-0.272949,-0.555255,3.122617,9.284718,-0.000908,-0.006087,-0.001904,0.365967,-0.172852,-0.60083
0.0496,-0.887511,9.795495,-0.000927,0.002516,-0.001247,-0.114014,0.439209,-0.58374,-0.253747,3.530243,9.131538,-0.011868,0.006493,0.004956,-0.779541,0.162842,-0.285645,-0.391963,3.539853,9.192009,-6.5e-05,0.00024,0.002967,-0.006348,0.591553,0.744873,-0.231515,3.76059,9.088277,-0.001279,0.000111,0.010671,0.524902,-0.143799,-0.266846,-0.556333,3.126215,9.26292,0.007151,0.000756,-0.003596,0.354004,-0.175781,-0.59375
0.044274,-0.900786,9.796032,-0.002066,0.001252,0.000278,-0.115967,0.448486,-0.583496,-0.276095,3.522774,9.132004,-0.006235,0.007474,0.003987,-0.78418,0.173584,-0.28418,-0.356381,3.538096,9.185759,-0.007573,0.004874,0.00237,-0.008301,0.585938,0.746582,-0.208677,3.762853,9.1177,-0.008625,0.001285,0.009899,0.523438,-0.148926,-0.262695,-0.553164,3.145587,9.26522,-0.004838,-0.003582,-0.002027,0.355469,-0.179199,-0.590576
0.036271,-0.903588,9.835482,0.002005,0.002347,-0.00067,-0.108887,0.441406,-0.585693,-0.269107,3.54337,9.130248,-0.01056,0.003003,0.00495,-0.777832,0.164551,-0.289795,-0.380578,3.517652,9.16499,-0.007263,0.007179,0.000715,-0.000488,0.584717,0.737549,-0.20283,3.753652,9.098682,-0.009813,0.00386,0.008729,0.530273,-0.147461,-0.272217,-0.553729,3.116965,9.248706,-0.003793,-0.002454,-0.00014,0.358887,-0.176758,-0.599365
