# sampling frequency: 40
# units are seconds/meters/radians/a.u.
seg1_acc_x,seg1_acc_y,seg1_acc_z,seg1_gyr_x,seg1_gyr_y,seg1_gyr_z,seg1_mag_x,seg1_mag_y,seg1_mag_z,seg2_acc_x,seg2_acc_y,seg2_acc_z,seg2_gyr_x,seg2_gyr_y,seg2_gyr_z,seg2_mag_x,seg2_mag_y,seg2_mag_z,seg3_acc_x,seg3_acc_y,seg3_acc_z,seg3_gyr_x,seg3_gyr_y,seg3_gyr_z,seg3_mag_x,seg3_mag_y,seg3_mag_z,seg4_acc_x,seg4_acc_y,seg4_acc_z,seg4_gyr_x,seg4_gyr_y,seg4_gyr_z,seg4_mag_x,seg4_mag_y,seg4_mag_z,seg5_acc_x,seg5_acc_y,seg5_acc_z,seg5_gyr_x,seg5_gyr_y,seg5_gyr_z,seg5_mag_x,seg5_mag_y,seg5_mag_z
0.05777,-1.171368,9.789612,0.003361,0.007292,0.000398,-0.084229,0.486084,-0.534912,-0.252773,3.206618,9.298271,0.001413,0.009482,0.003895,-0.834717,0.098877,-0.156494,-0.634137,3.903952,9.02828,0.021787,0.003212,-0.002755,0.114502,0.459717,0.843018,-0.234136,3.747783,9.168276,-0.033417,-0.002689,0.008378,0.519287,-0.212158,-0.292725,-0.885729,3.096771,9.362283,0.029622,0.0103,-0.007117,0.357178,-0.138184,-0.626221
0.041931,-1.168035,9.7423,-0.001857,-0.001368,-0.001215,-0.091064,0.486084,-0.548584,-0.28344,3.189447,9.262841,-0.025675,0.006168,0.006223,-0.837646,0.10083,-0.168213,-0.652345,3.905671,9.037558,-0.021767,0.007504,0.003883,0.117432,0.468506,0.838379,-0.210879,3.605234,9.128101,-0.057418,-0.001513,0.007934,0.519775,-0.229736,-0.280762,-0.874052,3.080345,9.323594,-0.02803,-0.010797,1.9e-05,0.364014,-0.129395,-0.628418
0.069416,-1.198097,9.790076,0.00063,-0.002244,0.00051,-0.086914,0.49292,-0.541992,-0.254442,3.161574,9.249507,-0.002505,0.006384,0.004522,-0.833008,0.106201,-0.163574,-0.648596,3.829551,9.039944,-0.024401,1e-05,0.00427,0.117676,0.452393,0.849609,-0.204328,3.538574,9.147059,-0.001004,0.005312,0.009546,0.520752,-0.225342,-0.293213,-0.83282,2.968451,9.259537,-0.025066,-0.010985,0.000708,0.360596,-0.146973,-0.61792
0.067953,-1.183563,9.789429,0.005805,0.005185,-0.001115,-0.08667,0.490234,-0.534424,-0.263247,3.204281,9.278149,-0.005418,0.005373,0.003655,-0.833984,0.103027,-0.154541,-0.629583,3.816339,9.037385,-0.00782,0.004312,0.00257,0.11792,0.456299,0.839111,-0.21145,3.640198,9.129047,0.044868,0.002362,0.01102,0.520996,-0.225098,-0.289062,-0.792255,2.933832,9.221918,0.002766,-0.007047,-0.003422,0.363037,-0.139648,-0.625
0.073886,-1.169685,9.773979,-0.003666,0.005221,-0.000788,-0.08667,0.485596,-0.541992,-0.245962,3.171388,9.250022,-0.016449,0.006834,0.005704,-0.835205,0.10083,-0.162598,-0.65203,3.835257,9.035488,0.019842,0.006405,-0.001402,0.122559,0.453613,0.844727,-0.232592,3.74221,9.170591,0.009962,0.008094,0.011212,0.518066,-0.226074,-0.28833,-0.819441,2.985353,9.251477,0.029674,0.015299,-0.008862,0.362305,-0.142822,-0.624268
0.053562,-1.186365,9.763001,-0.00143,0.000349,0.000369,-0.084717,0.494629,-0.538574,-0.288765,3.158487,9.261748,-0.009163,0.010997,0.004229,-0.832764,0.110352,-0.157959,-0.65161,3.895374,9.027529,0.012035,0.007617,-0.002506,0.115723,0.454102,0.839844,-0.22773,3.683992,9.156567,-0.042258,-0.000197,0.007487,0.516602,-0.220459,-0.289551,-0.88772,3.100177,9.340544,0.019184,0.006481,-0.004783,0.36084,-0.144775,-0.621094
0.054973,-1.178165,9.783203,0.001756,0.000896,-0.002362,-0.081299,0.485596,-0.54834,-0.262902,3.18645,9.268285,-0.002353,0.001585,0.004666,-0.827881,0.10083,-0.168945,-0.656761,3.888785,9.021137,-0.020561,0.001241,0.004693,0.114502,0.459717,0.8396,-0.198157,3.580176,9.136338,-0.029434,-0.00616,0.010357,0.516113,-0.227295,-0.290771,-0.846526,3.064703,9.32376,-0.023297,-0.014263,0.000694,0.36084,-0.135742,-0.622803
0.064262,-1.184416,9.775731,0.00087,0.001444,0.000269,-0.097656,0.489502,-0.537842,-0.224181,3.196232,9.271799,-0.01505,0.009487,0.004869,-0.844238,0.104248,-0.157959,-0.629058,3.842437,9.04044,-0.024481,0.001425,0.002876,0.113525,0.454834,0.841064,-0.203197,3.572197,9.14858,0.007136,0.006746,0.009269,0.517334,-0.218262,-0.28833,-0.807959,2.986501,9.259422,-0.017721,-0.00738,0.000414,0.358398,-0.14624,-0.623535
0.064888,-1.197964,9.776505,0.000742,0.002655,-0.001218,-0.088379,0.491455,-0.543945,-0.274623,3.144685,9.252779,-0.014367,0.004801,0.006224,-0.835449,0.106445,-0.164062,-0.643017,3.791507,9.04734,-0.003669,0.010041,0.000952,0.117188,0.463379,0.843506,-0.236231,3.658995,9.153454,0.028541,0.007543,0.009306,0.519043,-0.227295,-0.28418,-0.805547,2.92524,9.216799,-0.004395,0.000556,-0.001964,0.358398,-0.13208,-0.624023
0.060697,-1.170734,9.761373,0.004146,0.002155,0.000305,-0.079102,0.486816,-0.543701,-0.256945,3.179337,9.250458,0.005297,0.005321,0.00289,-0.827637,0.101562,-0.166748,-0.654816,3.855186,9.015829,0.026218,0.00131,-0.000492,0.117432,0.454346,0.845947,-0.23325,3.714082,9.179005,-0.002456,-0.002094,0.008436,0.515869,-0.230469,-0.29541,-0.845564,2.999378,9.272425,0.037961,0.01523,-0.009485,0.360596,-0.145508,-0.618408
0.051682,-1.177651,9.769666,-0.00206,0.002593,-0.000142,-0.08667,0.484375,-0.546875,-0.263364,3.212596,9.280718,-0.014398,0.00915,0.006626,-0.832275,0.098633,-0.168457,-0.643387,3.908789,9.048933,0.000881,0.010112,-0.000777,0.114258,0.455078,0.836914,-0.210746,3.676881,9.150232,-0.033552,-0.000411,0.010663,0.506104,-0.223633,-0.291504,-0.884442,3.108177,9.358109,0.014753,-0.002746,-0.004629,0.357178,-0.146729,-0.631592
0.060966,-1.184421,9.762133,0.000443,-0.000274,-0.001315,-0.087891,0.484619,-0.546875,-0.273697,3.172736,9.264584,-0.015766,0.000659,0.003694,-0.836426,0.0979,-0.168457,-0.678596,3.88528,9.032378,-0.024607,0.001711,0.005157,0.108643,0.455078,0.84082,-0.205202,3.584407,9.155708,-0.022863,0.00086,0.009934,0.519287,-0.225586,-0.286865,-0.833855,3.04243,9.297567,-0.033537,-0.011819,0.00371,0.352295,-0.140381,-0.628174
0.07298,-1.189066,9.782079,0.001285,0.002854,0.001043,-0.081787,0.49292,-0.547363,-0.264035,3.184123,9.264628,-0.000132,0.010694,0.006543,-0.829834,0.106689,-0.167969,-0.625133,3.824675,9.019315,-0.016679,0.000211,0.003977,0.115723,0.453125,0.841309,-0.213123,3.58755,9.154655,0.00585,0.004572,0.009453,0.513916,-0.219482,-0.296631,-0.83287,2.930594,9.24103,-0.016185,-0.00241,-0.000553,0.362061,-0.147217,-0.619141
0.071187,-1.17524,9.781345,-0.000619,0.002553,0.000299,-0.082031,0.48999,-0.542236,-0.268068,3.191683,9.263666,-0.015037,0.005147,0.004451,-0.828613,0.102783,-0.162842,-0.647427,3.819467,9.022386,0.005154,0.009911,-0.000453,0.111572,0.459229,0.834229,-0.214681,3.662112,9.144368,0.028731,0.006438,0.011382,0.52124,-0.220215,-0.286621,-0.797859,2.948047,9.249302,0.014808,0.002396,-0.005517,0.357422,-0.137695,-0.633301
0.07418,-1.2018,9.79657,0.001196,0.002689,-0.001724,-0.090576,0.484131,-0.543213,-0.243222,3.175475,9.262216,-0.00786,0.006906,0.005383,-0.837158,0.097412,-0.164307,-0.661541,3.860735,9.011211,0.022102,0.002066,-0.000561,0.12085,0.459717,0.841309,-0.228239,3.72693,9.166466,-0.005602,0.002893,0.010184,0.516846,-0.219482,-0.281494,-0.863005,3.054482,9.288484,0.03446,0.012344,-0.007841,0.363525,-0.137207,-0.624756
0.048171,-1.15567,9.775523,0.005074,0.00284,0.000913,-0.078125,0.474365,-0.549072,-0.279905,3.217187,9.274094,-0.005374,0.008284,0.003633,-0.825928,0.089355,-0.167236,-0.652004,3.920914,9.03963,-0.006929,0.007938,0.000651,0.117188,0.465576,0.849609,-0.219165,3.651516,9.147252,-0.041381,-0.003479,0.008597,0.520752,-0.224121,-0.28418,-0.897418,3.098412,9.35339,-0.00997,-0.006331,-0.001683,0.357422,-0.133301,-0.61499
0.069594,-1.181662,9.774979,-0.004737,-0.001287,-0.002097,-0.082764,0.48999,-0.541748,-0.260851,3.18257,9.232317,-0.016496,0.001513,0.004297,-0.834717,0.106445,-0.164795,-0.659187,3.842769,9.02257,-0.02741,0.001277,0.005583,0.120361,0.456299,0.846924,-0.202324,3.572573,9.139572,-0.014345,0.001711,0.011038,0.512939,-0.224609,-0.293457,-0.82823,2.981607,9.285518,-0.029639,-0.011342,0.001123,0.363525,-0.141113,-0.617432
0.07206,-1.187961,9.79584,-0.001142,0.00297,-0.000344,-0.089355,0.48999,-0.54126,-0.267149,3.164056,9.269667,-0.004789,0.011301,0.004833,-0.837891,0.104736,-0.160889,-0.616677,3.825321,9.022848,-0.006964,0.00258,0.001499,0.113037,0.455078,0.841064,-0.215023,3.59886,9.162154,0.020152,0.007493,0.010045,0.518555,-0.229736,-0.291504,-0.815124,2.962071,9.247951,0.003823,-0.000304,-0.004654,0.355713,-0.140869,-0.627686
0.048004,-1.184567,9.763248,0.002183,0.002614,-0.000778,-0.084961,0.483887,-0.53833,-0.263119,3.194272,9.266626,-0.008727,0.002874,0.004065,-0.833496,0.099121,-0.159424,-0.650325,3.842487,9.042775,0.008768,0.011999,-0.001649,0.117188,0.451416,0.840088,-0.214354,3.697456,9.155681,0.019058,0.00117,0.008179,0.515137,-0.218506,-0.294922,-0.825816,2.995426,9.270175,0.012993,0.000531,-0.004618,0.36377,-0.145752,-0.626709
0.068136,-1.181827,9.77497,0.001275,0.002546,0.000234,-0.083008,0.493896,-0.549072,-0.252996,3.176045,9.277761,-0.013071,0.0089,0.005801,-0.833008,0.106201,-0.166748,-0.656051,3.872928,9.049194,0.013048,0.000796,0.000906,0.113037,0.462646,0.838867,-0.227417,3.694278,9.155805,-0.021766,0.002547,0.010443,0.512451,-0.220703,-0.281982,-0.851766,3.043965,9.321213,0.018682,0.012903,-0.006289,0.355225,-0.135254,-0.626221
0.059431,-1.18137,9.789749,0.001382,0.000719,0.000102,-0.07666,0.484375,-0.543213,-0.283016,3.180858,9.246349,-0.008231,0.007332,0.005684,-0.824463,0.095703,-0.163818,-0.656858,3.882461,9.027055,-0.011788,0.007883,0.001043,0.111084,0.45752,0.848877,-0.213472,3.626011,9.135036,-0.032558,0.000378,0.008712,0.511963,-0.217285,-0.290527,-0.885226,3.068775,9.340067,-0.008814,-0.008532,-0.000952,0.354248,-0.137939,-0.615723
0.066039,-1.181921,9.761353,0.002241,0.001855,-0.000439,-0.07959,0.479248,-0.552246,-0.248494,3.201878,9.262006,-0.006875,0.003662,0.002509,-0.830078,0.092285,-0.17041,-0.655644,3.837506,9.019417,-0.018742,0.001719,0.003086,0.110107,0.460449,0.839355,-0.21288,3.590349,9.155126,-0.003946,-0.000108,0.010664,0.512939,-0.223389,-0.292236,-0.799736,2.993181,9.244841,-0.019865,-0.01173,-0.00044,0.353271,-0.135986,-0.625244
0.068548,-1.165809,9.801722,-0.004033,0.002744,-0.002036,-0.082764,0.491699,-0.541748,-0.252823,3.187327,9.257011,-0.014431,0.00916,0.006604,-0.829834,0.105957,-0.162354,-0.619639,3.835615,9.025345,-0.005337,0.002501,0.002493,0.109131,0.457275,0.836426,-0.198787,3.624362,9.126439,0.021482,0.009481,0.008611,0.516357,-0.223877,-0.296875,-0.82296,2.968161,9.257869,0.00078,0.004618,-0.003498,0.354248,-0.140137,-0.626465
0.055397,-1.176251,9.768755,-0.001616,0.00232,-0.001458,-0.074219,0.491211,-0.553223,-0.269103,3.161208,9.266168,-0.008207,0.002986,0.005272,-0.821777,0.104736,-0.170898,-0.668014,3.834885,9.041527,0.01098,0.011046,-0.000517,0.115967,0.457764,0.837646,-0.250103,3.699444,9.184103,0.010724,0.003896,0.010507,0.516113,-0.22583,-0.292969,-0.830325,2.978434,9.276418,0.017427,0.004827,-0.005251,0.358154,-0.139648,-0.628662
0.066779,-1.195174,9.775786,0.005992,0.003218,0.000712,-0.083984,0.494629,-0.540771,-0.246856,3.20612,9.256235,-0.001476,0.009457,0.004006,-0.831543,0.106934,-0.163818,-0.648132,3.884256,9.030135,0.010762,0.002034,-0.000762,0.113037,0.459229,0.840576,-0.219754,3.690758,9.137796,-0.02877,-0.002019,0.008612,0.512207,-0.221191,-0.29126,-0.868323,3.068094,9.31605,0.02065,0.006035,-0.006587,0.361084,-0.13916,-0.625488
0.047407,-1.173934,9.797369,0.000454,3.4e-05,-0.000506,-0.087158,0.482422,-0.544678,-0.273593,3.188143,9.270208,-0.021771,0.005946,0.006086,-0.833252,0.097412,-0.165771,-0.651118,3.88182,9.04721,-0.019602,0.005709,0.002462,0.109863,0.458008,0.837646,-0.203275,3.612368,9.129856,-0.021939,0.001974,0.010507,0.516602,-0.227295,-0.292236,-0.852468,3.051499,9.308189,-0.022013,-0.010845,0.000897,0.352539,-0.138916,-0.625977
0.073441,-1.173435,9.766885,-0.000175,0.002279,-0.001017,-0.079834,0.48584,-0.539551,-0.245728,3.168084,9.241656,-0.004011,0.007093,0.004777,-0.827881,0.099609,-0.162598,-0.64532,3.839344,9.006339,-0.014903,0.002947,0.003516,0.117188,0.451416,0.840332,-0.214294,3.597119,9.143601,0.005679,0.003973,0.009523,0.523682,-0.223145,-0.289795,-0.814547,2.973871,9.243621,-0.014287,-0.004848,-0.000722,0.359375,-0.14502,-0.627441
0.055812,-1.187656,9.783411,0.001158,0.004066,-0.000445,-0.086182,0.483398,-0.540771,-0.268449,3.200933,9.298216,-0.00418,0.006561,0.003255,-0.833252,0.09668,-0.162354,-0.639579,3.835588,9.01896,0.001863,0.00358,-0.000748,0.120605,0.456543,0.842041,-0.231328,3.64637,9.139405,0.016412,0.003388,0.009663,0.509521,-0.223633,-0.28418,-0.829585,2.983711,9.264263,0.009892,2.4e-05,-0.004293,0.364014,-0.141113,-0.623535
0.074566,-1.186244,9.781371,-0.001567,0.001252,-0.001929,-0.086182,0.485352,-0.542725,-0.235742,3.191556,9.261778,-0.018777,0.005513,0.006532,-0.833984,0.094727,-0.161133,-0.653788,3.844187,9.034395,0.009424,0.008578,0.000724,0.107422,0.455811,0.847168,-0.233486,3.692046,9.16744,-0.002337,0.00339,0.011632,0.519775,-0.225342,-0.293701,-0.842597,3.00952,9.289285,0.019776,0.005278,-0.006392,0.351807,-0.141113,-0.620361
0.06423,-1.194207,9.775921,0.002125,0.003375,-0.001117,-0.082764,0.490723,-0.544678,-0.269046,3.178362,9.253299,-0.004208,0.00805,0.006604,-0.832764,0.10498,-0.166748,-0.652722,3.89241,9.049681,-0.000201,0.001699,0.000901,0.116943,0.457764,0.83374,-0.247963,3.660114,9.155228,-0.024946,7.6e-05,0.008612,0.512939,-0.224365,-0.295654,-0.875829,3.080199,9.313523,0.003421,0.002399,-0.001998,0.362061,-0.141357,-0.630371
0.053161,-1.173276,9.782743,0.002881,-8.1e-05,0.000883,-0.082764,0.485352,-0.537842,-0.276755,3.197534,9.264311,-0.005997,0.00335,0.003407,-0.831787,0.098145,-0.158936,-0.653073,3.878242,9.032364,-0.018363,0.003674,0.003267,0.109131,0.457764,0.834473,-0.214735,3.604276,9.131956,-0.015507,-0.002677,0.00893,0.518555,-0.228027,-0.296875,-0.837726,3.031391,9.291427,-0.019113,-0.011674,0.000377,0.355225,-0.140625,-0.629883
0.083459,-1.16994,9.793439,-0.000581,0.001177,-0.000982,-0.087891,0.483887,-0.543945,-0.235546,3.197516,9.26965,-0.014623,0.008637,0.005066,-0.835449,0.097656,-0.163574,-0.630155,3.827875,9.044141,-0.011752,0.002237,0.002429,0.114746,0.452148,0.830811,-0.20735,3.603276,9.152971,0.00731,0.007378,0.009862,0.516357,-0.225586,-0.293701,-0.813957,2.974627,9.243429,-0.004663,-0.001281,-0.002512,0.358887,-0.146484,-0.634033
0.062006,-1.17961,9.775278,0.00024,0.00369,-0.000243,-0.085449,0.485596,-0.547119,-0.279792,3.171127,9.261607,-0.008653,0.006776,0.005007,-0.833008,0.099854,-0.168701,-0.635285,3.84293,9.033848,0.004259,0.00741,0.000628,0.114502,0.456055,0.838867,-0.228092,3.668065,9.15462,0.014664,0.003796,0.008858,0.509521,-0.227539,-0.293945,-0.837656,2.996608,9.261443,0.008869,0.003213,-0.00432,0.358154,-0.144287,-0.627441
0.071412,-1.164304,9.787222,-0.000512,0.000726,0.000166,-0.078125,0.486572,-0.542969,-0.247881,3.201361,9.27591,-0.006322,0.004761,0.004684,-0.827637,0.10083,-0.163574,-0.64279,3.868393,9.017193,0.010334,0.003463,-0.000643,0.109863,0.453613,0.835449,-0.226989,3.69952,9.186754,-0.010753,-0.001183,0.011632,0.514648,-0.219727,-0.292725,-0.858422,3.021076,9.309298,0.015738,0.00366,-0.005364,0.35376,-0.147705,-0.62915
0.054049,-1.193444,9.790741,-0.001035,0.001143,-0.000477,-0.07959,0.487793,-0.539551,-0.274061,3.189666,9.260962,-0.013196,0.010353,0.006198,-0.82666,0.102051,-0.158447,-0.639648,3.886224,9.042015,-0.009507,0.006642,0.002713,0.111816,0.461914,0.840332,-0.214837,3.641341,9.142636,-0.025828,0.003504,0.008141,0.523193,-0.220947,-0.287354,-0.869034,3.053998,9.331642,-0.002835,-0.004205,-0.003033,0.357422,-0.135986,-0.625
0.070407,-1.193555,9.761299,0.0023,0.001096,-9.9e-05,-0.085449,0.488525,-0.550537,-0.264262,3.171306,9.272082,-0.009244,0.003762,0.0038,-0.834473,0.101318,-0.169678,-0.659897,3.859419,9.032803,-0.015947,0.004412,0.00096,0.120361,0.457764,0.843994,-0.221311,3.603867,9.132363,-0.005749,0.000557,0.011753,0.510742,-0.223389,-0.289307,-0.832539,3.019167,9.263387,-0.020265,-0.009332,0.000507,0.366455,-0.138184,-0.620605
0.049464,-1.165895,9.775634,0.003981,0.004746,9.8e-05,-0.084473,0.484131,-0.544678,-0.252718,3.202546,9.262927,-0.004728,0.009867,0.004405,-0.830078,0.097656,-0.167725,-0.643567,3.834094,9.028163,-0.003,0.002395,0.000486,0.108887,0.454346,0.84375,-0.211023,3.625172,9.14749,0.009073,0.002211,0.008681,0.520508,-0.224121,-0.287842,-0.843692,2.971913,9.250166,0.003412,0.002107,-0.003712,0.35498,-0.144043,-0.621582
0.059607,-1.178845,9.775385,-0.003471,0.00095,-0.002675,-0.079102,0.485107,-0.541504,-0.262912,3.184852,9.250682,-0.019879,0.003389,0.00506,-0.825928,0.099854,-0.160645,-0.633917,3.846708,9.024964,0.002045,0.007233,0.000347,0.117188,0.457031,0.84375,-0.223705,3.686827,9.160617,0.008121,0.005953,0.010734,0.516846,-0.226074,-0.301025,-0.824362,3.001764,9.278193,0.01205,-0.000569,-0.003916,0.362305,-0.140381,-0.624023
0.062904,-1.191261,9.803526,0.000172,0.004142,-0.001393,-0.085693,0.486084,-0.54126,-0.252752,3.166693,9.261734,-0.000746,0.007669,0.00535,-0.834717,0.098389,-0.16333,-0.652291,3.870739,9.030006,0.005273,0.005107,0.000649,0.114014,0.458008,0.833496,-0.229618,3.680279,9.172268,-0.017998,0.00192,0.008852,0.510986,-0.2229,-0.28418,-0.864264,3.042611,9.303294,0.014036,0.007282,-0.005857,0.358643,-0.143066,-0.634521
0.038879,-1.180243,9.777428,0.003624,0.002576,-0.000336,-0.089111,0.491455,-0.539795,-0.273549,3.203603,9.276029,-0.007397,0.00796,0.004618,-0.837646,0.105713,-0.1604,-0.655413,3.890313,9.04303,-0.009461,0.004387,0.001566,0.108643,0.45874,0.844238,-0.224645,3.624302,9.117065,-0.022475,-0.0044,0.009322,0.517334,-0.231934,-0.291748,-0.854953,3.040417,9.302191,-0.013997,-0.007814,0.000208,0.355469,-0.14209,-0.621338
0.060519,-1.191329,9.789914,-0.000928,-0.000685,-0.000608,-0.093262,0.485107,-0.542725,-0.250408,3.172884,9.255352,-0.021139,0.004136,0.00445,-0.839355,0.098877,-0.16333,-0.651712,3.838195,9.04031,-0.014327,0.002072,0.00364,0.111572,0.446777,0.83667,-0.20899,3.618992,9.149984,-0.000213,0.004044,0.011701,0.52002,-0.221436,-0.287842,-0.829417,2.986819,9.263276,-0.00896,-0.00459,-0.001173,0.358643,-0.150635,-0.628418
0.062864,-1.19698,9.810857,0.000299,0.002931,9.5e-05,-0.082031,0.48999,-0.54834,-0.259085,3.169196,9.262489,-0.001688,0.010411,0.005839,-0.833984,0.10376,-0.166992,-0.652324,3.824051,9.022946,-0.004166,0.005272,-0.000619,0.119385,0.457031,0.845215,-0.236783,3.651019,9.149966,0.010066,0.006024,0.010857,0.515381,-0.223389,-0.288574,-0.838895,2.994506,9.252074,0.005709,0.002501,-0.002632,0.360107,-0.139404,-0.618164
0.044791,-1.165851,9.762043,0.00403,0.003679,-0.000372,-0.076416,0.49585,-0.540771,-0.276511,3.218498,9.28257,-0.003657,0.003261,0.002096,-0.82251,0.111572,-0.164307,-0.660161,3.860432,9.024978,0.008382,0.007781,-0.000128,0.112549,0.456787,0.844971,-0.227097,3.676056,9.123556,-0.001503,-0.002856,0.00988,0.509033,-0.224854,-0.291748,-0.842052,3.010384,9.289054,0.007861,0.001613,-0.003969,0.358643,-0.141113,-0.623291
0.045547,-1.172092,9.769305,-0.002417,0.000423,-0.00058,-0.082275,0.487793,-0.538086,-0.25226,3.180901,9.276719,-0.018641,0.007987,0.00703,-0.831299,0.102051,-0.156738,-0.64407,3.893632,9.029451,0.003182,0.001258,0.000607,0.109131,0.454346,0.838623,-0.217112,3.662846,9.158241,-0.020584,0.003933,0.008443,0.521484,-0.228271,-0.291016,-0.862726,3.045782,9.312343,0.008055,0.002804,-0.00463,0.351807,-0.143555,-0.624023
0.059986,-1.19737,9.797209,0.000338,0.001554,-0.001184,-0.082031,0.479492,-0.543701,-0.275716,3.159382,9.263364,-0.006028,0.006764,0.005764,-0.833008,0.093018,-0.165283,-0.666383,3.866764,9.036312,-0.016204,0.008363,0.003003,0.121582,0.454346,0.839111,-0.233673,3.638462,9.123758,-0.012381,0.001744,0.010534,0.508789,-0.226562,-0.292969,-0.862318,3.045443,9.312492,-0.010301,-0.008668,-0.002576,0.364746,-0.145508,-0.627686
0.065229,-1.176784,9.774559,0.004049,0.004296,0.001247,-0.087891,0.483154,-0.534912,-0.260545,3.203848,9.259793,0.001909,0.00424,0.003752,-0.835449,0.096924,-0.154053,-0.654574,3.847366,9.043304,-0.007712,0.001765,0.001959,0.10791,0.455566,0.838623,-0.21521,3.618663,9.150382,-0.000851,0.001386,0.009412,0.51416,-0.230469,-0.290527,-0.830922,2.978174,9.266516,-0.007879,-0.0022,0.000541,0.351074,-0.140869,-0.626709
0.043652,-1.186117,9.756426,-0.001557,0.001561,-0.001121,-0.081787,0.491211,-0.543945,-0.266488,3.191082,9.268313,-0.022712,0.008224,0.004129,-0.831787,0.104736,-0.162598,-0.631738,3.851803,9.02446,-0.001062,0.005686,0.000288,0.112061,0.453125,0.843018,-0.21525,3.653322,9.141226,0.00563,0.005865,0.009302,0.518066,-0.223877,-0.293945,-0.846559,2.994137,9.274609,0.004889,0.001796,-0.004655,0.358887,-0.144775,-0.623779
0.065452,-1.18353,9.781765,-0.003461,0.001258,-0.001867,-0.092041,0.489258,-0.545898,-0.255491,3.148257,9.261833,-0.011495,0.003407,0.005631,-0.840576,0.103271,-0.168457,-0.662949,3.848804,9.031476,0.001738,0.00612,-0.000138,0.11499,0.458252,0.8396,-0.227285,3.677317,9.154365,0.001571,0.003456,0.011251,0.519775,-0.227539,-0.286621,-0.843952,3.007804,9.27978,0.009479,0.002439,-0.003353,0.359619,-0.137695,-0.625244
0.064789,-1.183345,9.781792,0.004957,0.004365,0.000236,-0.083008,0.49707,-0.540039,-0.254754,3.21219,9.275183,0.009675,0.009926,0.003982,-0.832031,0.109863,-0.161377,-0.640517,3.878763,9.048424,0.00186,0.002449,0.000101,0.120361,0.455078,0.846191,-0.223514,3.659393,9.149477,-0.023019,0.000285,0.009365,0.521484,-0.217773,-0.283936,-0.8612,3.05555,9.308736,0.008664,0.00188,-0.004518,0.363525,-0.142334,-0.62085
0.052263,-1.163178,9.774895,0.000899,-0.00024,-0.00182,-0.087646,0.483887,-0.536621,-0.278199,3.207163,9.294567,-0.025283,0.003944,0.005857,-0.834229,0.097656,-0.157715,-0.64562,3.881013,9.020266,-0.015927,0.007507,0.001801,0.117676,0.461426,0.847656,-0.21514,3.619955,9.12027,-0.007639,0.000238,0.009746,0.523193,-0.218506,-0.287109,-0.853419,3.010461,9.280719,-0.021136,-0.010249,-0.000148,0.361816,-0.137451,-0.617188
0.083448,-1.188609,9.77337,-0.002088,0.00167,-0.002574,-0.080078,0.483398,-0.54248,-0.243749,3.144053,9.25138,-0.013205,0.006018,0.005755,-0.830566,0.097656,-0.163086,-0.652566,3.837842,9.016796,-0.006548,-0.001112,0.003062,0.121338,0.460693,0.844971,-0.220415,3.644893,9.164058,0.003262,0.006615,0.009701,0.514648,-0.227783,-0.289551,-0.838283,2.965764,9.230119,0.005222,0.004124,-0.003757,0.36499,-0.13623,-0.62085
0.052605,-1.176937,9.775656,0.00313,0.00392,0.001449,-0.087891,0.478271,-0.544678,-0.284512,3.197324,9.275403,0.004432,0.010006,0.005368,-0.838135,0.093994,-0.165527,-0.63879,3.858163,9.060823,0.000878,0.010108,-0.00075,0.111816,0.454834,0.841553,-0.236397,3.652984,9.150901,-0.001014,0.002394,0.006713,0.516357,-0.225342,-0.289551,-0.847883,3.031096,9.283321,0.00749,-0.005558,-0.002269,0.355957,-0.145752,-0.626221
0.05227,-1.169537,9.782148,-0.002358,-0.000337,-0.000241,-0.084229,0.485596,-0.544678,-0.25165,3.204669,9.271777,-0.016949,0.001982,0.004508,-0.830811,0.098389,-0.16626,-0.671813,3.860812,9.022228,0.002466,0.002411,0.002767,0.116211,0.460693,0.839111,-0.211411,3.671043,9.147662,-0.004894,-0.001104,0.010732,0.516113,-0.221924,-0.290771,-0.833976,3.006416,9.278475,-0.000915,0.003297,-0.004468,0.360596,-0.141602,-0.624756
0.053251,-1.198246,9.769906,-0.000541,-0.000199,-0.002262,-0.088379,0.489746,-0.544434,-0.256635,3.167635,9.262613,-0.014497,0.011116,0.005565,-0.837891,0.101807,-0.164551,-0.63374,3.887416,9.046753,-0.000509,0.000586,0.000413,0.114502,0.461426,0.842285,-0.230034,3.658254,9.150224,-0.013469,0.006423,0.009262,0.516602,-0.226562,-0.29248,-0.86274,3.052113,9.299774,0.009603,0.003137,-0.004365,0.35791,-0.136963,-0.623535
0.073579,-1.187775,9.788191,0.007316,0.004703,0.000477,-0.084717,0.488525,-0.546631,-0.270508,3.183794,9.266422,0.002395,0.003356,0.003998,-0.835205,0.102539,-0.165527,-0.669064,3.865055,9.029486,-0.013913,0.011641,0.001304,0.114258,0.455566,0.838379,-0.231783,3.632262,9.147131,-0.009118,-0.002502,0.009978,0.51709,-0.227539,-0.293945,-0.842088,3.018317,9.275965,-0.010741,-0.011108,0.000968,0.35791,-0.140869,-0.625244
0.059416,-1.168316,9.767594,-0.000116,0.00152,-0.000679,-0.081299,0.481201,-0.544678,-0.244263,3.211569,9.2735,-0.013468,0.006934,0.004649,-0.830078,0.09668,-0.163818,-0.644212,3.851168,9.038326,-0.003191,-0.004648,0.001917,0.115967,0.453369,0.83374,-0.202895,3.631786,9.128804,-0.00151,0.003548,0.009756,0.517822,-0.226807,-0.29126,-0.829272,2.988348,9.262796,-0.002264,0.00445,-0.003679,0.360352,-0.146484,-0.630127
0.064291,-1.195007,9.796434,-0.007597,-0.000594,-0.001366,-0.084473,0.487061,-0.535156,-0.273272,3.157405,9.263602,-0.019446,0.00787,0.006635,-0.833008,0.102295,-0.156738,-0.631781,3.864692,9.018765,-0.003095,0.01029,0.000257,0.116455,0.454834,0.838379,-0.229538,3.657551,9.160949,0.005618,0.005934,0.009942,0.516602,-0.229248,-0.290771,-0.864328,2.996887,9.297877,0.001668,0.000734,-0.00246,0.361084,-0.144043,-0.626465
0.071398,-1.1744,9.787395,0.005064,0.002537,0.000106,-0.087158,0.489746,-0.544922,-0.258778,3.179434,9.256063,0.006154,0.003984,0.002877,-0.837646,0.101562,-0.167725,-0.674031,3.870286,9.025159,0.001887,0.005544,0.000953,0.114746,0.451416,0.84082,-0.220446,3.683878,9.144504,-0.007461,-0.000848,0.011818,0.510254,-0.216797,-0.285156,-0.850228,3.023275,9.286217,0.011304,-0.000479,-0.003875,0.36084,-0.148438,-0.625977
0.038853,-1.169873,9.7696,0.004436,0.004784,-0.000407,-0.092529,0.491455,-0.536133,-0.273503,3.21922,9.277779,-0.012929,0.008967,0.00488,-0.840576,0.106201,-0.15625,-0.627619,3.8837,9.026975,-0.002346,0.000103,0.002002,0.108887,0.464844,0.842285,-0.226803,3.647132,9.133885,-0.018402,0.002706,0.008743,0.520264,-0.225098,-0.288574,-0.858147,3.035741,9.283536,0.000659,-0.001017,-0.002965,0.355469,-0.132324,-0.62085
0.070198,-1.17297,9.787575,-0.002251,-0.002166,-0.000371,-0.087646,0.487061,-0.545654,-0.255933,3.155865,9.26056,-0.023561,0.004263,0.005683,-0.834717,0.10083,-0.164551,-0.656231,3.870825,9.040091,-0.014302,0.008556,0.001954,0.120605,0.455811,0.843262,-0.230018,3.626313,9.149536,-0.001936,0.004378,0.010274,0.52124,-0.227051,-0.296875,-0.845132,2.999694,9.282878,-0.014546,-0.006698,-0.001262,0.363525,-0.141602,-0.620361
0.060175,-1.180912,9.782115,0.003054,0.004064,-0.00051,-0.084717,0.489502,-0.544189,-0.244894,3.180976,9.280344,0.008519,0.00922,0.002979,-0.835205,0.103516,-0.165283,-0.648574,3.846884,9.039838,7.5e-05,-0.000287,0.000544,0.120605,0.456543,0.832764,-0.222545,3.660004,9.161417,0.000129,0.00054,0.010226,0.517578,-0.225342,-0.294189,-0.848373,2.992737,9.264962,0.007983,0.002314,-0.004982,0.362549,-0.143799,-0.634033
0.048634,-1.160417,9.788861,-0.001596,0.002938,0.000157,-0.080566,0.483643,-0.547607,-0.274204,3.224673,9.285884,-0.014608,0.007231,0.004583,-0.828125,0.098389,-0.164307,-0.651263,3.854753,9.034556,-0.000911,0.006241,0.000537,0.114746,0.455811,0.838379,-0.228998,3.660103,9.140819,-0.001865,0.002382,0.009875,0.515625,-0.21582,-0.291992,-0.840042,3.021303,9.28512,0.004106,-0.003112,-0.00287,0.359375,-0.142578,-0.629395
0.05764,-1.189515,9.761876,-0.003362,-0.00088,-0.002807,-0.085693,0.487793,-0.54248,-0.2418,3.163927,9.255994,-0.018249,0.006148,0.006248,-0.831299,0.100098,-0.165039,-0.654484,3.884047,9.02551,-0.000762,0.005666,0.001624,0.113037,0.46875,0.837646,-0.22949,3.661263,9.150775,-0.00997,0.005579,0.010887,0.513672,-0.223389,-0.291992,-0.840494,3.028262,9.272307,0.005151,0.003631,-0.004109,0.358887,-0.130127,-0.627197
0.078228,-1.179545,9.780105,0.005992,0.003224,0.000714,-0.085205,0.487549,-0.539795,-0.279451,3.17777,9.292415,0.00023,0.007827,0.00486,-0.834717,0.097656,-0.156982,-0.638447,3.872086,9.038508,-0.006672,0.003687,0.00198,0.113281,0.45874,0.838867,-0.23322,3.643562,9.125184,-0.011738,0.001351,0.008704,0.523438,-0.218994,-0.291504,-0.874794,3.031,9.319852,-0.004313,-0.003898,-0.002088,0.35791,-0.13916,-0.627197
0.046002,-1.17518,9.762282,0.002233,0.00155,-0.001248,-0.084717,0.486572,-0.541504,-0.246698,3.214359,9.278278,-0.010565,0.0026,0.004135,-0.835938,0.10083,-0.161133,-0.658508,3.846509,9.028671,-0.008351,0.00602,0.002131,0.120605,0.46167,0.838623,-0.213049,3.649544,9.165363,-0.001226,0.000294,0.010168,0.519287,-0.216553,-0.289795,-0.827555,2.992851,9.271433,-0.004444,-0.004741,-0.001933,0.366211,-0.135742,-0.628174
0.069108,-1.178367,9.794956,-0.001962,0.000457,-0.001086,-0.082275,0.484131,-0.539795,-0.243246,3.171081,9.277705,-0.018168,0.010045,0.007209,-0.830322,0.094971,-0.161865,-0.638439,3.861475,9.044772,-0.000555,0.005099,-0.00012,0.118896,0.4646,0.84082,-0.230389,3.631238,9.138858,-0.001627,0.007457,0.009931,0.51416,-0.222656,-0.289795,-0.852463,3.005534,9.292918,0.006571,0.00312,-0.003689,0.362549,-0.134277,-0.625732
0.07856,-1.170703,9.800388,-0.001151,0.002664,-0.001158,-0.080322,0.491943,-0.542969,-0.277447,3.165868,9.253877,-0.004187,0.00222,0.00282,-0.825928,0.106934,-0.163086,-0.639379,3.870599,9.022875,-0.002542,0.00519,0.000381,0.112549,0.462402,0.842773,-0.223116,3.664615,9.150878,-0.00276,-0.00053,0.010165,0.518799,-0.22998,-0.29248,-0.843306,3.003899,9.291619,-0.001827,-0.002458,-0.002526,0.356689,-0.135742,-0.624023
0.045965,-1.181831,9.769502,0.002202,0.003236,0.00084,-0.081055,0.478271,-0.547363,-0.238066,3.212991,9.295305,-0.004154,0.008537,0.005187,-0.828613,0.093506,-0.167725,-0.648905,3.861646,9.049546,-0.000487,0.00255,0.002106,0.117188,0.453125,0.838623,-0.214805,3.660003,9.162888,-0.014267,0.001453,0.008527,0.515869,-0.227295,-0.291016,-0.851264,3.021617,9.27672,0.007662,0.000428,-0.00331,0.364014,-0.146484,-0.626221
0.066021,-1.194138,9.768261,-0.002493,0.000566,-0.002539,-0.080322,0.484375,-0.543213,-0.284889,3.180643,9.252294,-0.021409,0.007063,0.005211,-0.828857,0.099365,-0.164795,-0.639105,3.873166,9.046895,-0.010336,0.007241,0.001791,0.115479,0.454834,0.841064,-0.229826,3.629685,9.149913,-0.000757,0.004036,0.010398,0.513916,-0.229492,-0.287598,-0.85883,3.026536,9.287038,-0.009504,-0.003327,-0.001786,0.359131,-0.144043,-0.623291
0.065749,-1.186402,9.774793,0.005983,0.002917,-9.5e-05,-0.096924,0.47876,-0.550049,-0.249952,3.156253,9.246012,0.000102,0.002949,0.00292,-0.84668,0.095459,-0.169922,-0.658693,3.857622,9.014858,9.3e-05,0.000546,0.003079,0.110596,0.449707,0.841553,-0.221615,3.660795,9.152443,-0.002011,-3.9e-05,0.0108,0.507568,-0.222168,-0.295898,-0.838725,2.980338,9.288228,0.004152,0.002175,-0.002899,0.356689,-0.149658,-0.625488
0.046874,-1.186007,9.790635,0.002144,0.003997,0.0005,-0.085693,0.479736,-0.539307,-0.277324,3.21332,9.271301,-0.008758,0.011145,0.005387,-0.831299,0.095947,-0.1604,-0.629728,3.872359,9.026117,-0.003425,0.007214,-0.001923,0.105225,0.459961,0.834717,-0.219612,3.651089,9.17547,-0.01159,0.003776,0.007786,0.523926,-0.219971,-0.288818,-0.856987,3.024021,9.308474,0.005453,-0.004264,-0.003658,0.349365,-0.137451,-0.63208
0.053734,-1.172892,9.775097,-0.006166,-0.000944,-0.001734,-0.087646,0.479248,-0.545654,-0.2583,3.164275,9.27331,-0.022146,0.002585,0.004417,-0.837891,0.093994,-0.165771,-0.673541,3.851228,9.013226,-0.008056,0.004868,0.004305,0.123291,0.465088,0.843018,-0.238485,3.640124,9.126895,0.00081,0.003022,0.011266,0.514648,-0.226318,-0.295654,-0.825571,2.997003,9.280206,-0.007692,-0.00131,-0.001831,0.366699,-0.135742,-0.621094
0.05608,-1.201195,9.776524,-0.000522,0.000417,-0.000644,-0.084717,0.475342,-0.543457,-0.250399,3.161841,9.254082,0.0053,0.010612,0.004353,-0.832275,0.091309,-0.165283,-0.6289,3.872147,9.01007,0.003745,-0.001581,-0.00095,0.112061,0.454346,0.835449,-0.221229,3.659956,9.163217,-0.006515,0.001824,0.009639,0.516113,-0.223633,-0.291016,-0.864339,3.017382,9.259691,0.008307,0.004497,-0.004942,0.358398,-0.144531,-0.632812
0.054356,-1.179551,9.782314,0.005363,0.005473,0.000201,-0.083496,0.47876,-0.543213,-0.273967,3.223458,9.300305,-0.011779,0.006266,0.003513,-0.833496,0.095459,-0.163818,-0.649518,3.871766,9.036142,-0.00847,0.01195,0.000215,0.115479,0.459473,0.841553,-0.213393,3.658721,9.133907,-0.009942,-0.000986,0.009747,0.513672,-0.220459,-0.287354,-0.836523,3.034925,9.290382,-0.003554,-0.008919,-0.002606,0.360107,-0.137939,-0.624756
0.063579,-1.171083,9.787846,-0.001913,-0.000612,-0.001556,-0.091797,0.47876,-0.540283,-0.238701,3.153569,9.271682,-0.019834,0.003969,0.006467,-0.841797,0.093018,-0.163086,-0.65221,3.866274,9.013205,-0.004366,-0.004033,0.002489,0.113037,0.460693,0.844727,-0.219553,3.654307,9.155085,-0.002636,0.006781,0.012524,0.516602,-0.218262,-0.282715,-0.835027,3.005057,9.268881,-0.000294,0.002811,-0.001785,0.355713,-0.138672,-0.62207
0.065634,-1.191114,9.795872,0.003112,0.003306,-0.00017,-0.07666,0.48584,-0.544434,-0.268396,3.174593,9.273199,0.001916,0.011489,0.004187,-0.825684,0.098145,-0.166016,-0.641979,3.868772,9.032374,-0.002235,0.007431,3.4e-05,0.114502,0.465332,0.848145,-0.239596,3.648548,9.125268,-0.005748,0.002236,0.009643,0.519287,-0.224121,-0.282959,-0.877872,3.030985,9.289187,0.002464,0.000854,-0.003867,0.359863,-0.136963,-0.61792
0.069675,-1.164109,9.765978,0.001199,0.002694,-0.001726,-0.081055,0.486084,-0.542969,-0.256383,3.206516,9.264217,-0.010245,0.000253,0.004785,-0.830078,0.099854,-0.165039,-0.673141,3.852955,9.021397,-0.004305,0.005548,0.001673,0.116211,0.458984,0.845459,-0.225607,3.65323,9.134986,0.00101,-0.002971,0.010063,0.517578,-0.224854,-0.282715,-0.827397,2.993698,9.271173,-0.00545,-0.006494,-0.002435,0.361572,-0.143555,-0.619141
0.063299,-1.184648,9.788642,-0.005288,0.000811,-0.000658,-0.090576,0.491699,-0.546631,-0.232054,3.168128,9.258484,-0.018572,0.010486,0.007485,-0.840576,0.10498,-0.16626,-0.622045,3.859529,9.012096,0.000503,-0.002847,0.001269,0.117188,0.456787,0.848877,-0.218363,3.651853,9.156093,-0.010806,0.00893,0.009803,0.507812,-0.233154,-0.289062,-0.860883,3.030135,9.265229,0.014079,0.007648,-0.00637,0.364014,-0.144043,-0.619385
0.053038,-1.200493,9.776628,0.001266,0.002242,-0.000577,-0.092041,0.484375,-0.539307,-0.272524,3.175256,9.260507,-0.006242,0.006245,0.004218,-0.841553,0.098389,-0.159424,-0.661689,3.867926,9.0425,-0.013033,0.013005,0.001087,0.106201,0.451904,0.844727,-0.237229,3.637104,9.148982,-0.00441,0.002558,0.010338,0.514893,-0.221191,-0.290771,-0.849476,3.0192,9.29812,-0.013375,-0.008758,0.000329,0.351318,-0.146973,-0.62085
0.069495,-1.170589,9.773224,0.006447,0.003262,0.00021,-0.094238,0.487061,-0.543457,-0.247227,3.211168,9.252661,-0.000361,0.004811,0.003652,-0.84082,0.099854,-0.165039,-0.689809,3.853007,9.01515,0.000569,-0.005397,0.003493,0.114014,0.459961,0.839355,-0.226594,3.657004,9.164738,-0.002942,-0.001115,0.010226,0.518555,-0.22168,-0.284668,-0.842322,2.980519,9.257453,0.004665,0.005401,-0.004377,0.356201,-0.139648,-0.625488
0.042718,-1.170262,9.803741,0.0,0.0,0.0,-0.087158,0.488525,-0.541748,-0.275823,3.194636,9.279876,-0.024132,0.010517,0.006762,-0.836182,0.103271,-0.157471,-0.632354,3.890655,9.032496,-0.005113,0.007285,-8.7e-05,0.118408,0.461426,0.848389,-0.211069,3.65145,9.13687,-0.006021,0.005489,0.009243,0.509277,-0.223145,-0.298096,-0.874828,3.043714,9.294694,0.0062,-0.004197,-0.002844,0.362305,-0.137451,-0.619873
0.070127,-1.184015,9.774032,-0.003848,0.000771,-0.000215,-0.078613,0.485596,-0.542725,-0.256583,3.159774,9.23807,-0.004224,0.000293,0.003785,-0.826904,0.100586,-0.164062,-0.693829,3.849695,9.032462,-0.006497,0.008465,0.002239,0.109131,0.459961,0.83374,-0.234234,3.659843,9.163897,-0.006531,0.001907,0.010276,0.521484,-0.222412,-0.29248,-0.822163,3.010352,9.285548,-0.00215,-0.004493,-0.001709,0.352539,-0.141113,-0.632812
0.036472,-1.166865,9.755302,0.004329,0.006618,-0.000278,-0.079346,0.480469,-0.545654,-0.26226,3.214669,9.2732,0.001819,0.012926,0.004618,-0.829102,0.097168,-0.162842,-0.645103,3.863998,9.018003,0.000712,-0.003412,-0.000478,0.121582,0.45874,0.842041,-0.227014,3.624273,9.143439,-0.01216,0.002203,0.009227,0.514404,-0.228027,-0.297363,-0.858681,3.027612,9.286701,0.000831,0.005112,-0.00315,0.365234,-0.140137,-0.624756
0.058989,-1.191972,9.768571,-0.004088,-0.002924,3.1e-05,-0.085938,0.48291,-0.538086,-0.280813,3.189916,9.29556,-0.026201,0.00195,0.006333,-0.833984,0.097656,-0.161865,-0.654514,3.863765,9.023012,-0.010314,0.011464,0.001806,0.112305,0.458984,0.834229,-0.210225,3.647321,9.138538,0.005872,0.002807,0.011633,0.516357,-0.219482,-0.286377,-0.846118,2.99238,9.285738,-0.007985,-0.007991,0.000224,0.356201,-0.139648,-0.632324
0.079778,-1.18244,9.786762,0.003037,0.00345,-0.002129,-0.08252,0.485107,-0.546143,-0.245798,3.149499,9.256322,-0.002326,0.008342,0.002683,-0.830566,0.099365,-0.16626,-0.670184,3.866305,9.015777,0.004043,-0.002732,0.001224,0.111084,0.462158,0.844482,-0.214119,3.667817,9.163318,-0.00542,0.003562,0.010798,0.513184,-0.222412,-0.290039,-0.838036,3.032887,9.280964,0.020008,0.007001,-0.006716,0.359131,-0.136719,-0.620605
0.048601,-1.177121,9.782637,0.005934,0.003989,0.000376,-0.084473,0.495361,-0.544678,-0.276047,3.216188,9.280241,-0.003331,0.008179,0.003172,-0.834961,0.109619,-0.164551,-0.643198,3.879481,9.043804,-0.007387,0.008228,0.001617,0.112061,0.459717,0.839355,-0.237196,3.641955,9.148815,-0.016974,0.000999,0.008409,0.519043,-0.218994,-0.29541,-0.863194,3.052605,9.289623,-0.008063,-0.008781,-0.001839,0.35498,-0.140137,-0.624756
0.045496,-1.17131,9.761709,-0.003856,0.000462,-0.001025,-0.084961,0.482666,-0.548096,-0.256866,3.19693,9.271534,-0.021182,0.001826,0.005823,-0.835449,0.095947,-0.168213,-0.680655,3.864974,9.021173,-0.009022,0.006047,0.002298,0.119141,0.466553,0.837158,-0.215582,3.639969,9.16089,-0.000117,0.001939,0.010698,0.517578,-0.223877,-0.289795,-0.831885,2.9794,9.256104,-0.010393,0.000843,-0.00111,0.362793,-0.134766,-0.631104
0.079258,-1.203087,9.781115,-0.003923,0.000914,-0.002175,-0.085693,0.484131,-0.554443,-0.267615,3.158149,9.254387,-0.00324,0.011123,0.006094,-0.831787,0.096924,-0.175049,-0.62826,3.853634,9.039279,0.00142,0.001613,0.001906,0.116455,0.45874,0.842773,-0.21733,3.65081,9.147879,0.001047,0.003353,0.009322,0.515869,-0.229004,-0.292969,-0.865539,3.003217,9.275268,0.012881,0.004857,-0.005358,0.359375,-0.142578,-0.623535
0.046003,-1.171141,9.775346,0.005885,0.005058,0.000845,-0.085205,0.483887,-0.543701,-0.269072,3.201527,9.27755,-0.004207,0.002224,0.002807,-0.835205,0.096191,-0.164795,-0.655077,3.877382,9.049433,-0.004201,0.010614,0.001394,0.114502,0.451172,0.838379,-0.220043,3.665638,9.154106,-0.007589,1.6e-05,0.007859,0.517578,-0.220703,-0.289307,-0.817194,3.033023,9.287426,0.004475,-0.010657,-0.002922,0.357178,-0.147705,-0.628174
0.054961,-1.177289,9.767934,-0.002425,0.000114,-0.001392,-0.094727,0.494385,-0.544189,-0.239311,3.195734,9.268532,-0.017148,0.0088,0.006235,-0.84375,0.106934,-0.160889,-0.664434,3.865502,9.036035,-0.00243,-0.000743,0.002296,0.114014,0.459473,0.841797,-0.214083,3.634649,9.152618,-0.013395,0.00455,0.009516,0.516357,-0.229004,-0.289062,-0.840945,3.022021,9.274862,-0.004293,0.006174,-0.002498,0.358398,-0.139404,-0.625977
0.057408,-1.182748,9.788908,0.003211,0.001169,-0.001108,-0.090576,0.484375,-0.54126,-0.285444,3.170835,9.273543,-0.010381,0.007983,0.004641,-0.837158,0.098633,-0.164307,-0.639283,3.861839,9.022672,-0.00792,0.006851,0.000334,0.112549,0.451172,0.841797,-0.223457,3.646418,9.12912,-0.002076,0.001949,0.011213,0.514648,-0.219727,-0.28418,-0.874774,3.000306,9.288552,-0.003378,-0.002792,-0.002789,0.357666,-0.147217,-0.623779
0.074823,-1.181724,9.773265,0.000249,0.004004,0.000562,-0.082031,0.482178,-0.544434,-0.244242,3.200845,9.268549,0.000979,0.002616,0.003833,-0.832031,0.097656,-0.165039,-0.661769,3.85658,9.025556,-0.004313,0.004415,0.002515,0.112305,0.459717,0.844971,-0.224229,3.653385,9.157595,-0.00095,-0.001291,0.008452,0.51001,-0.225098,-0.294678,-0.826935,2.996073,9.270447,0.006867,-0.004917,-0.004095,0.358154,-0.138672,-0.620361
0.044923,-1.176922,9.782678,-0.002639,0.003774,-0.001134,-0.083252,0.484375,-0.53833,-0.271776,3.191261,9.266806,-0.018932,0.00946,0.004405,-0.831299,0.095459,-0.157959,-0.651651,3.868596,9.022771,-0.002118,0.002629,0.001109,0.106445,0.459473,0.838379,-0.231521,3.6551,9.146798,-0.008967,0.00643,0.009589,0.50708,-0.223145,-0.293701,-0.844949,3.033843,9.303139,0.003276,0.001416,-0.002703,0.35083,-0.140381,-0.626465
0.074894,-1.188933,9.780423,-0.001333,-0.001791,-0.000572,-0.082275,0.478027,-0.552734,-0.279288,3.163983,9.255821,-0.009944,0.003239,0.006825,-0.829346,0.092773,-0.172607,-0.659138,3.870357,9.010874,-0.003559,0.008621,-0.000467,0.105957,0.459473,0.836182,-0.228938,3.640698,9.150813,-0.002827,0.00146,0.010579,0.510742,-0.222656,-0.28418,-0.845904,3.006835,9.26004,-0.007148,-0.002736,-0.002067,0.347168,-0.13916,-0.626953
0.053791,-1.190388,9.768794,0.00869,0.005124,-0.000227,-0.087891,0.481689,-0.544434,-0.248173,3.202417,9.255622,0.002335,0.008637,0.002498,-0.836914,0.095703,-0.161621,-0.66252,3.880273,9.04596,-0.001238,0.000602,0.003412,0.108398,0.45752,0.847656,-0.217569,3.657781,9.157308,-0.007434,-0.000998,0.010564,0.510254,-0.220947,-0.288818,-0.853267,3.000339,9.295113,0.009863,-0.000249,-0.006012,0.35498,-0.139893,-0.61792
0.061833,-1.167709,9.77362,-0.00144,3.9e-05,-0.000443,-0.081543,0.489258,-0.542969,-0.287501,3.202641,9.272299,-0.020026,0.004457,0.005855,-0.831055,0.100098,-0.161133,-0.64172,3.86159,9.047695,-0.008515,0.005461,0.001884,0.10791,0.462158,0.840088,-0.218538,3.664762,9.135451,-0.004432,0.004394,0.009486,0.520996,-0.230713,-0.28418,-0.846339,3.031374,9.293875,-0.001543,-0.005565,-0.002452,0.351562,-0.138428,-0.627441
0.062591,-1.18884,9.76791,0.000812,0.002209,-7.2e-05,-0.085693,0.48291,-0.542969,-0.248575,3.166685,9.253995,-0.006728,0.008116,0.004937,-0.832275,0.09668,-0.162598,-0.670189,3.868457,9.016466,-0.001957,0.005446,-0.000323,0.119629,0.449219,0.845947,-0.236119,3.644499,9.160035,-0.008532,0.003842,0.010568,0.513672,-0.221191,-0.287842,-0.840213,3.022669,9.274717,-0.001854,0.00233,-0.002906,0.365234,-0.14624,-0.62085
0.052437,-1.174885,9.781857,-0.000222,0.003352,-0.000552,-0.08667,0.483154,-0.535645,-0.276706,3.201982,9.274974,-0.005232,0.007396,0.004691,-0.834717,0.095459,-0.15918,-0.639305,3.862852,9.014972,-0.004177,0.004139,0.000226,0.109375,0.459473,0.84375,-0.233538,3.63364,9.122736,-0.002549,-0.000115,0.008853,0.52124,-0.223877,-0.292969,-0.864184,2.998957,9.287293,-0.004794,-0.002137,-0.002351,0.355957,-0.140381,-0.621582
0.062749,-1.195633,9.775117,-0.003335,4.4e-05,-0.000382,-0.084473,0.489014,-0.550293,-0.247777,3.17514,9.261196,-0.013748,0.004523,0.00402,-0.83252,0.100586,-0.17041,-0.65911,3.859744,9.000934,-0.002915,0.004065,0.002726,0.119873,0.455078,0.838623,-0.20563,3.671668,9.165098,-0.000927,0.00344,0.010474,0.52124,-0.223633,-0.288086,-0.834472,3.00827,9.267889,0.010813,0.001304,-0.004147,0.363525,-0.140869,-0.627686
0.062356,-1.188237,9.781605,0.004039,0.003995,0.000438,-0.087646,0.484131,-0.546631,-0.269046,3.189013,9.271708,-0.008722,0.009723,0.004936,-0.83667,0.096436,-0.167725,-0.667263,3.875985,9.04745,-0.002386,0.008006,-0.001044,0.116211,0.456787,0.842285,-0.235915,3.647636,9.129323,-0.01005,0.002946,0.009931,0.512695,-0.219238,-0.283203,-0.852901,3.046259,9.300468,0.001329,-0.001593,-0.003358,0.362305,-0.140137,-0.621826
0.061805,-1.172389,9.794704,0.005967,0.002304,-0.001711,-0.08374,0.488037,-0.548584,-0.264168,3.190004,9.279676,-0.005741,0.001015,0.004015,-0.830811,0.102295,-0.170166,-0.659478,3.862352,9.024878,-0.004929,0.001063,0.002367,0.111572,0.465332,0.849365,-0.214545,3.647598,9.151019,-0.010327,-0.002051,0.010498,0.522949,-0.22876,-0.287598,-0.84098,2.984118,9.256415,-0.011856,-0.003939,-0.001496,0.354492,-0.135498,-0.62085
0.060031,-1.180496,9.774525,-0.005287,0.000809,-0.000661,-0.088379,0.474854,-0.549316,-0.252008,3.191716,9.281584,-0.01209,0.011592,0.005725,-0.835205,0.091553,-0.171387,-0.642964,3.87144,9.034433,-0.005956,0.003667,-0.001022,0.120117,0.454834,0.841064,-0.226326,3.635115,9.173932,-0.003522,0.007301,0.009211,0.512939,-0.219727,-0.291748,-0.843417,3.003853,9.281689,0.006975,0.000866,-0.003776,0.364746,-0.145752,-0.625244
0.059667,-1.188466,9.767974,-0.000115,0.001522,-0.000681,-0.086914,0.487061,-0.544434,-0.291489,3.176419,9.26507,-0.010091,0.004654,0.004318,-0.836426,0.099609,-0.163574,-0.665567,3.854176,9.019021,-0.006427,0.009304,0.001948,0.110596,0.460205,0.83667,-0.230369,3.656589,9.148046,0.003423,0.000814,0.010427,0.520752,-0.223633,-0.289307,-0.83551,2.99945,9.271235,0.000144,-0.004242,-0.001486,0.355225,-0.141113,-0.629395
0.039869,-1.174844,9.78295,0.004031,0.003687,-0.000371,-0.080322,0.489502,-0.537109,-0.252053,3.207482,9.274002,-0.002886,0.006317,0.002438,-0.827881,0.10376,-0.15625,-0.666127,3.875572,9.015357,0.005012,-0.001654,0.001553,0.119629,0.459473,0.841553,-0.224973,3.66866,9.16552,-0.009343,-0.001216,0.009179,0.520264,-0.220947,-0.29126,-0.860563,3.012435,9.292611,0.005132,0.00349,-0.004969,0.361816,-0.138916,-0.621582
0.057245,-1.181133,9.760845,-0.000579,0.001179,-0.000985,-0.087891,0.481445,-0.543945,-0.278255,3.195985,9.25871,-0.018937,0.009506,0.007294,-0.833496,0.095703,-0.166992,-0.639449,3.88849,9.043533,-0.010044,0.009477,0.001444,0.117432,0.45874,0.839355,-0.212988,3.64304,9.152871,-0.012437,0.005557,0.009473,0.516846,-0.226807,-0.295654,-0.859115,3.027661,9.276704,-0.002345,-0.005833,-0.001902,0.362549,-0.138672,-0.626465
0.070172,-1.199545,9.781619,0.00173,0.002588,-0.000274,-0.085449,0.489014,-0.545654,-0.253589,3.179549,9.257347,-0.00395,0.003241,0.002919,-0.833496,0.102295,-0.166748,-0.670413,3.837892,9.018406,-0.008603,0.003484,0.003018,0.114746,0.456299,0.834473,-0.233613,3.639424,9.132659,-0.000468,0.002444,0.008694,0.513672,-0.234131,-0.287598,-0.834982,2.999472,9.271275,-0.003923,-0.001376,-0.002549,0.359619,-0.143799,-0.631836
0.07811,-1.184582,9.779926,0.002186,0.002622,-0.000779,-0.085449,0.486084,-0.543945,-0.264899,3.216123,9.252183,-0.003051,0.010177,0.004267,-0.831055,0.100342,-0.166504,-0.645506,3.858462,9.041496,0.00082,0.001656,-0.000758,0.113281,0.448486,0.842773,-0.214937,3.654641,9.150013,-0.000842,-0.000398,0.010932,0.519775,-0.233398,-0.287109,-0.87121,3.004843,9.297349,0.003335,0.001765,-0.003209,0.356445,-0.148926,-0.625244
0.04616,-1.166319,9.774892,0.000348,0.001866,-0.000377,-0.087402,0.480225,-0.541992,-0.27295,3.204332,9.274278,-0.021716,0.004675,0.004539,-0.835449,0.094971,-0.163574,-0.668191,3.875723,9.040228,-0.00413,0.011453,0.001106,0.115967,0.450684,0.840332,-0.224391,3.670183,9.135487,-0.003418,0.003388,0.009034,0.51001,-0.225098,-0.290527,-0.835379,3.005715,9.258697,0.000934,-0.004269,-0.003749,0.365479,-0.148926,-0.623779
0.058943,-1.192336,9.789163,-0.001613,0.002322,-0.001465,-0.081055,0.486572,-0.541748,-0.250557,3.152698,9.248601,-0.004852,0.007952,0.005356,-0.826904,0.102295,-0.161377,-0.647908,3.867058,9.019789,-0.001388,0.001177,0.002326,0.107666,0.459961,0.836914,-0.230017,3.660819,9.137773,-0.01007,0.00479,0.009077,0.511963,-0.227295,-0.286133,-0.850783,3.016917,9.278864,0.007109,0.001857,-0.003075,0.353271,-0.139648,-0.626709
0.055449,-1.200883,9.755322,0.005935,0.003993,0.000377,-0.092285,0.496582,-0.538818,-0.273159,3.220576,9.26656,0.00019,0.008767,0.002932,-0.840332,0.109619,-0.161865,-0.644707,3.871785,9.026917,-0.006217,0.008741,0.000202,0.110352,0.457275,0.844971,-0.239981,3.640777,9.132471,-0.007033,-0.001748,0.010682,0.514404,-0.22168,-0.287354,-0.858342,3.022269,9.289042,-0.005175,-0.004521,-0.001027,0.356445,-0.141113,-0.620605
0.04593,-1.164386,9.788744,-0.000414,-0.001414,-0.000773,-0.084473,0.487305,-0.53833,-0.245956,3.194888,9.26652,-0.02212,0.003172,0.005803,-0.831543,0.100586,-0.158936,-0.662731,3.88165,9.014668,-0.006103,0.002808,0.002105,0.113037,0.459961,0.843262,-0.21294,3.650183,9.151839,0.001076,0.001499,0.010195,0.503174,-0.230225,-0.296387,-0.83473,2.99984,9.271179,-0.002856,0.000724,-0.002552,0.356689,-0.140381,-0.620605
0.06476,-1.192177,9.760896,0.000225,0.003079,-0.001868,-0.077637,0.480957,-0.536621,-0.266909,3.1637,9.254227,-0.008842,0.011169,0.005352,-0.829102,0.09668,-0.157715,-0.646461,3.869445,9.027795,-0.002706,0.003501,0.000981,0.102051,0.451904,0.835205,-0.230179,3.664894,9.167413,-0.006794,0.006926,0.008402,0.517578,-0.230713,-0.283936,-0.862149,3.015799,9.270919,0.009375,0.001523,-0.006282,0.347412,-0.147461,-0.62915
0.044869,-1.178913,9.775817,0.000754,0.002971,-0.000414,-0.095215,0.487549,-0.550781,-0.27907,3.19387,9.277704,0.001337,0.002182,0.003533,-0.843262,0.101807,-0.170898,-0.671577,3.863278,9.046984,-0.003411,0.009174,-0.000213,0.115234,0.452881,0.844238,-0.234297,3.651039,9.150679,-0.004066,-0.002771,0.00971,0.516602,-0.230957,-0.291016,-0.833326,3.00398,9.279903,-0.005365,-0.005713,-0.000365,0.358398,-0.146729,-0.619385
0.072356,-1.162685,9.772137,0.001382,0.000722,0.000103,-0.085693,0.479736,-0.550049,-0.258602,3.218303,9.278139,-0.016334,0.009452,0.005148,-0.836182,0.095459,-0.171143,-0.640037,3.888979,9.019897,-0.000956,-0.000252,0.002208,0.113037,0.453125,0.839111,-0.225439,3.644306,9.153069,-0.009277,0.003363,0.009942,0.517822,-0.229004,-0.293701,-0.849124,3.026152,9.275438,0.005265,0.004482,-0.004269,0.359131,-0.146484,-0.626709
0.056373,-1.198144,9.782889,-0.001895,4e-06,6.1e-05,-0.081055,0.491943,-0.544922,-0.286135,3.162632,9.253796,-0.019817,0.005498,0.005919,-0.832031,0.103027,-0.164551,-0.647153,3.868478,9.011999,-0.01168,0.008427,0.001281,0.115234,0.455566,0.83667,-0.227797,3.656108,9.150137,-0.002847,0.003293,0.00973,0.518555,-0.226074,-0.292236,-0.858682,3.028427,9.276494,-0.003086,-0.005754,-0.001858,0.360352,-0.14502,-0.629883
0.05244,-1.171627,9.767609,0.00121,0.003006,-0.000919,-0.083496,0.484863,-0.539795,-0.26139,3.176483,9.241877,0.006861,0.006486,0.004712,-0.829102,0.098145,-0.160156,-0.660767,3.862459,9.010227,-0.000203,0.001388,0.004285,0.117432,0.458008,0.836182,-0.241015,3.652408,9.150484,-0.007278,0.001429,0.009655,0.515869,-0.229736,-0.288086,-0.833147,3.009995,9.267448,0.003068,-6.7e-05,-0.003756,0.36084,-0.145996,-0.626953
0.062771,-1.177004,9.773919,0.001333,0.001792,0.000572,-0.086914,0.486816,-0.542969,-0.274866,3.229525,9.283736,-0.013409,0.010429,0.006062,-0.837402,0.102783,-0.161133,-0.64669,3.871023,9.03603,-0.001222,0.005126,5.9e-05,0.111816,0.455322,0.843018,-0.225605,3.646527,9.122753,-0.004588,0.003735,0.008922,0.509033,-0.220947,-0.288574,-0.85208,3.0084,9.282091,-0.000836,-0.001004,-0.003734,0.359863,-0.142578,-0.625
0.063463,-1.197974,9.768238,-0.000652,0.001322,-0.002945,-0.07959,0.486328,-0.552979,-0.264968,3.165623,9.271906,-0.019167,0.001713,0.002379,-0.827637,0.101562,-0.17627,-0.675374,3.868908,9.026447,-0.004756,0.005838,0.002634,0.108398,0.46167,0.841064,-0.237365,3.671763,9.146016,0.001024,0.001731,0.012099,0.520996,-0.220947,-0.292236,-0.863523,3.007347,9.274118,0.000918,0.000816,-0.002418,0.352051,-0.136719,-0.621338
0.05484,-1.190201,9.789446,0.003228,0.001789,0.000511,-0.086914,0.481445,-0.54248,-0.250347,3.18721,9.265012,0.002135,0.010554,0.005317,-0.834961,0.096436,-0.163574,-0.635358,3.884007,9.016825,-0.001322,0.001192,-0.000507,0.118164,0.46167,0.840088,-0.226285,3.651965,9.151829,-0.013654,0.001268,0.007968,0.524414,-0.22583,-0.289551,-0.861175,3.044059,9.313608,0.009611,-0.001633,-0.00399,0.367188,-0.137695,-0.625
0.06295,-1.182882,9.781241,-0.002018,0.001217,-0.00143,-0.085449,0.483643,-0.548584,-0.284846,3.22792,9.263622,-0.012759,0.004731,0.006412,-0.83252,0.097168,-0.168701,-0.651807,3.854837,9.035341,-0.01049,0.009771,0.002402,0.121094,0.456787,0.840576,-0.233373,3.652976,9.141353,-0.003193,0.002051,0.00921,0.518311,-0.227783,-0.294922,-0.84234,3.012828,9.268357,-0.013784,-0.006664,-0.000432,0.366699,-0.14209,-0.625244
0.05151,-1.177468,9.774939,-0.000222,0.003354,-0.000554,-0.088379,0.483154,-0.546631,-0.249119,3.180363,9.239055,-0.011083,0.007418,0.004781,-0.833984,0.094482,-0.166748,-0.659055,3.856125,9.023661,0.000152,0.000554,0.000248,0.113281,0.457275,0.836914,-0.231846,3.644172,9.163896,-0.001141,0.004765,0.010319,0.523682,-0.228516,-0.284424,-0.856684,2.986984,9.279845,0.007003,0.006009,-0.004667,0.36084,-0.142578,-0.629639
0.050659,-1.177058,9.774993,0.003576,0.003655,0.000134,-0.09082,0.48584,-0.543701,-0.272246,3.195973,9.263104,-0.009063,0.007743,0.003814,-0.838867,0.099609,-0.165283,-0.645028,3.873776,9.027746,-0.005635,0.007866,0.000334,0.120117,0.454102,0.842529,-0.2273,3.659943,9.140049,-0.003339,-0.000447,0.00949,0.514648,-0.221436,-0.289307,-0.854367,3.023679,9.319341,0.003513,-0.007119,-0.003455,0.365967,-0.145264,-0.621094
0.050617,-1.16987,9.781449,-0.00461,-0.002511,-0.000615,-0.07373,0.488037,-0.533691,-0.238251,3.179859,9.241744,-0.007738,0.003609,0.004964,-0.821777,0.103027,-0.151367,-0.665368,3.849092,9.017284,-0.002259,0.00403,0.002563,0.110596,0.463135,0.839844,-0.219006,3.655953,9.151743,-0.006708,0.001336,0.010351,0.522949,-0.220947,-0.289551,-0.842243,3.013576,9.268122,0.001039,0.001512,-0.00343,0.356934,-0.140137,-0.625
0.073539,-1.195287,9.794738,0.002121,0.003076,-0.001929,-0.090332,0.478027,-0.54541,-0.266023,3.214851,9.26293,-0.006501,0.00914,0.005041,-0.835449,0.094482,-0.166748,-0.644698,3.885943,9.029819,-0.00242,0.00265,-0.000223,0.121094,0.466553,0.841553,-0.245591,3.646246,9.142937,-0.012828,0.006332,0.009371,0.511719,-0.226074,-0.287354,-0.873965,3.040021,9.296543,-0.001858,0.002328,-0.002906,0.364502,-0.136475,-0.623535
0.038824,-1.171152,9.768749,0.003186,0.003168,0.001789,-0.082764,0.486084,-0.542236,-0.282709,3.188611,9.271322,-0.017139,0.002071,0.004312,-0.833252,0.098877,-0.164307,-0.673469,3.861783,9.024067,-0.008146,0.007408,0.002082,0.108398,0.454102,0.84668,-0.22306,3.64016,9.135777,0.00373,-0.002698,0.008928,0.510498,-0.225586,-0.288818,-0.828217,2.981087,9.276355,-0.007171,-0.007736,-0.000317,0.354492,-0.144287,-0.620605
0.060234,-1.175004,9.787797,-0.001497,0.0008,-0.000785,-0.080566,0.488037,-0.540527,-0.242781,3.174474,9.257642,-0.004877,0.007955,0.005348,-0.830566,0.102783,-0.160645,-0.652687,3.86489,9.02207,0.001098,-0.001458,-0.000284,0.108154,0.458496,0.843262,-0.221497,3.670685,9.168498,-0.004236,0.004976,0.00945,0.518311,-0.224365,-0.292236,-0.85156,3.003397,9.294282,0.015278,0.005824,-0.006158,0.35376,-0.14209,-0.624023
0.070518,-1.18798,9.787609,0.001681,0.00366,0.000194,-0.085693,0.486328,-0.546631,-0.281534,3.196445,9.278819,-0.008974,0.006307,0.003381,-0.83374,0.099121,-0.167725,-0.651487,3.877838,9.023874,-0.006431,0.010432,0.001115,0.117188,0.45874,0.841553,-0.230447,3.644205,9.134508,-0.007076,0.001935,0.008971,0.517578,-0.221436,-0.29126,-0.872388,3.056033,9.280384,-0.003819,-0.005528,-0.000956,0.362061,-0.142578,-0.625
0.046939,-1.1625,9.774324,0.001325,0.001484,-0.000237,-0.087891,0.488525,-0.546143,-0.252313,3.198753,9.254948,-0.010287,0.003195,0.004703,-0.835938,0.104248,-0.165771,-0.66085,3.865827,9.010476,-0.001847,-0.000488,0.001582,0.114014,0.458252,0.841309,-0.232806,3.658038,9.14121,-0.008264,0.000603,0.010979,0.517334,-0.223145,-0.292969,-0.836109,2.993525,9.273687,-0.002729,0.001565,-0.002707,0.360352,-0.141602,-0.625
0.069537,-1.187639,9.787657,-0.001554,0.001561,-0.001126,-0.084473,0.48291,-0.544678,-0.27926,3.18078,9.268124,-0.013047,0.010993,0.006715,-0.832031,0.098877,-0.16626,-0.635881,3.8864,9.033658,-0.00536,0.004752,0.000806,0.111328,0.462891,0.840088,-0.218862,3.659116,9.141927,-0.005152,0.003832,0.008236,0.51709,-0.217773,-0.283447,-0.877095,3.022419,9.303134,0.005344,-0.000106,-0.005249,0.35791,-0.139893,-0.627686
0.066833,-1.174979,9.773136,-5.7e-05,0.000761,-0.000341,-0.079834,0.476807,-0.547852,-0.255389,3.172571,9.251721,-0.00664,0.002334,0.004046,-0.827881,0.091064,-0.169922,-0.679632,3.865451,9.020369,-0.005931,0.007582,0.002378,0.112793,0.464355,0.845703,-0.219575,3.663436,9.161023,0.000858,0.001062,0.011527,0.51416,-0.220459,-0.288574,-0.842356,3.014149,9.267926,-0.002465,-0.006531,-0.000887,0.359375,-0.134033,-0.616699
0.047965,-1.182652,9.782363,0.002022,0.005218,-0.000993,-0.091064,0.487793,-0.543701,-0.261737,3.204724,9.282951,-0.005227,0.010318,0.004682,-0.838623,0.104004,-0.165771,-0.639759,3.859476,9.014233,0.003842,9e-05,0.001299,0.111084,0.462158,0.842285,-0.224977,3.654165,9.163257,-0.013723,0.005118,0.007525,0.518555,-0.221191,-0.284424,-0.848231,3.023097,9.287027,0.008965,0.004084,-0.004488,0.354736,-0.136475,-0.623779
0.055954,-1.168215,9.780609,-0.002431,-0.000197,-0.002203,-0.095215,0.489746,-0.542725,-0.283584,3.182378,9.255257,-0.018736,0.005224,0.005935,-0.842773,0.102051,-0.164307,-0.656037,3.873947,9.025215,-0.010485,0.012033,0.000728,0.119141,0.457275,0.844482,-0.244774,3.648202,9.133626,-0.000629,1.3e-05,0.009619,0.513184,-0.224121,-0.29126,-0.860706,3.00677,9.295022,-0.01155,-0.006763,0.000297,0.361816,-0.139648,-0.619141
0.067782,-1.194969,9.781197,0.002309,0.001411,0.000712,-0.084961,0.485596,-0.547607,-0.234694,3.183159,9.2551,0.000617,0.004962,0.003178,-0.834961,0.096924,-0.165771,-0.658982,3.880937,9.020342,0.001389,-0.002614,0.001887,0.110596,0.462402,0.838623,-0.21335,3.670144,9.170255,-0.004215,0.001376,0.011803,0.519531,-0.227539,-0.282471,-0.843619,3.005323,9.271258,0.010583,0.004916,-0.003874,0.355713,-0.139404,-0.625977
0.045632,-1.161339,9.788089,0.000307,0.003246,0.0009,-0.092041,0.491943,-0.541992,-0.279619,3.217571,9.302134,-0.012441,0.010607,0.005555,-0.840088,0.108643,-0.161621,-0.647297,3.887097,9.063172,-0.009183,0.007751,0.000371,0.115479,0.453857,0.847168,-0.238337,3.656108,9.142387,-0.012296,0.001517,0.008035,0.519287,-0.223389,-0.287598,-0.871346,3.045151,9.305051,-0.000262,-0.007214,-0.003587,0.358887,-0.14502,-0.618652
0.054437,-1.190293,9.761189,-0.003913,0.001221,-0.001371,-0.084229,0.491943,-0.547119,-0.271142,3.169842,9.260152,-0.017808,0.001496,0.004462,-0.828369,0.106201,-0.164307,-0.687008,3.83768,9.042246,-0.007052,0.005949,0.001798,0.120117,0.459229,0.841553,-0.210333,3.65742,9.133737,-0.000348,0.003325,0.01119,0.514648,-0.224854,-0.290283,-0.825783,2.997823,9.260046,-0.011263,6.1e-05,-0.000904,0.364502,-0.141846,-0.623779
0.066204,-1.187873,9.787652,0.003113,0.003313,-0.00017,-0.088135,0.486572,-0.548828,-0.278887,3.217613,9.261654,0.003925,0.011812,0.006196,-0.839111,0.099609,-0.169922,-0.63806,3.874035,9.024337,0.005835,0.0,0.000804,0.112549,0.45874,0.840088,-0.229808,3.648729,9.145006,-0.006121,0.002925,0.008924,0.510254,-0.227539,-0.287842,-0.881626,3.013628,9.275764,0.014275,0.004223,-0.005805,0.359863,-0.141113,-0.624023
0.064583,-1.173701,9.786927,0.000398,0.000797,-0.000846,-0.086914,0.479248,-0.542236,-0.281015,3.19475,9.257276,-0.018033,0.003401,0.00434,-0.835205,0.092529,-0.164795,-0.665129,3.854661,9.041684,-0.008941,0.011104,0.002026,0.109131,0.45459,0.842773,-0.225501,3.666397,9.130861,-0.00279,-0.000468,0.010822,0.512695,-0.221436,-0.286377,-0.839764,3.012644,9.289109,-0.003801,-0.010615,-0.002283,0.354004,-0.143311,-0.624023
0.06411,-1.188357,9.773986,-0.000635,0.001941,-0.001327,-0.090576,0.487793,-0.548584,-0.230595,3.163762,9.25394,-0.009711,0.008145,0.00495,-0.838623,0.102051,-0.172119,-0.669553,3.879298,9.00968,-1.2e-05,-0.002265,0.001674,0.109619,0.460205,0.84375,-0.21824,3.664227,9.152204,-0.011663,0.006075,0.010133,0.516357,-0.231934,-0.290039,-0.847941,3.030033,9.274279,0.007449,0.009037,-0.004787,0.354248,-0.139404,-0.621094
0.063744,-1.173473,9.78696,0.002715,0.002517,0.000676,-0.088623,0.484375,-0.533691,-0.306049,3.186657,9.277222,-0.003634,0.008155,0.004014,-0.83667,0.098145,-0.155762,-0.651677,3.871039,9.046318,-0.008067,0.009382,0.000951,0.11499,0.449219,0.84082,-0.222071,3.646978,9.126401,-0.008965,-0.000111,0.008443,0.511719,-0.226807,-0.293701,-0.868768,3.019006,9.292399,-0.008536,-0.007032,-0.002095,0.358154,-0.150146,-0.624268
0.062127,-1.174205,9.77326,-0.00144,3.9e-05,-0.000445,-0.084961,0.490967,-0.540527,-0.235112,3.199068,9.243708,-0.011747,0.000552,0.005455,-0.832764,0.106934,-0.161377,-0.656524,3.87385,9.018022,-0.00346,0.001552,0.002278,0.107178,0.454834,0.836914,-0.224357,3.661811,9.132729,0.002451,0.00163,0.009638,0.516602,-0.221924,-0.287598,-0.81963,2.978461,9.265392,0.002194,-0.000829,-0.003557,0.354492,-0.146973,-0.628906
0.066476,-1.207614,9.795749,-0.001726,0.003847,-0.00215,-0.078369,0.479736,-0.544434,-0.266049,3.176972,9.235744,-0.013172,0.013405,0.005185,-0.828369,0.093994,-0.163818,-0.640313,3.874058,9.049253,-0.000356,0.00227,-0.000174,0.113281,0.463135,0.840088,-0.247047,3.668885,9.149928,-0.006972,0.006434,0.009114,0.514893,-0.219971,-0.287354,-0.85609,3.035598,9.284333,0.010459,0.004223,-0.002863,0.358887,-0.138184,-0.627197
0.049861,-1.175819,9.760515,0.005008,0.00331,-0.00023,-0.083496,0.479248,-0.540283,-0.280871,3.185904,9.268517,-0.005277,0.001112,0.005192,-0.833984,0.092529,-0.162842,-0.679569,3.868748,9.020668,-0.006811,0.009611,7.9e-05,0.115479,0.460693,0.842041,-0.217023,3.659251,9.154223,-0.006641,-0.002495,0.010802,0.519287,-0.226562,-0.282715,-0.854731,2.999925,9.275248,-0.012976,-0.006407,-0.000977,0.359131,-0.137939,-0.621338
0.050499,-1.181704,9.767835,-0.00057,0.001488,-0.000177,-0.085938,0.483887,-0.54248,-0.237668,3.184236,9.260907,-0.011599,0.009301,0.005482,-0.834473,0.099609,-0.162598,-0.654444,3.877361,9.025613,-0.000473,-0.00506,0.001764,0.115234,0.458496,0.844971,-0.221829,3.649807,9.156529,-0.007876,0.003454,0.008753,0.520508,-0.219238,-0.294434,-0.851583,3.017387,9.268699,0.008288,0.004663,-0.004095,0.360352,-0.141357,-0.61792
0.065049,-1.192578,9.808749,-0.003863,0.000151,-0.00184,-0.082275,0.487549,-0.539062,-0.283072,3.181199,9.270066,-0.01279,0.006688,0.005401,-0.831055,0.102783,-0.162598,-0.649379,3.852352,9.041667,-0.008629,0.014476,0.000853,0.118652,0.461426,0.836426,-0.235134,3.64387,9.147355,-0.001933,0.006268,0.010111,0.508545,-0.219727,-0.286133,-0.857334,3.020472,9.300237,-0.000995,-0.006987,-0.002686,0.363281,-0.13623,-0.62915
0.059357,-1.188678,9.760356,0.004966,0.00469,0.001047,-0.091064,0.485596,-0.543213,-0.249923,3.18805,9.267209,-0.001441,0.00366,0.003161,-0.837646,0.099365,-0.16333,-0.672073,3.857021,9.02235,-0.001099,0.001457,0.000285,0.108887,0.463867,0.844482,-0.232477,3.668873,9.161517,-0.004816,-0.003334,0.008441,0.519043,-0.226318,-0.287842,-0.837307,2.998347,9.251556,-0.002656,0.002205,-0.0015,0.352051,-0.134521,-0.621338
0.038065,-1.16145,9.774488,-0.002124,0.00305,-0.001305,-0.084229,0.489014,-0.543945,-0.283147,3.205196,9.247738,-0.018062,0.009725,0.006707,-0.83374,0.102783,-0.166016,-0.634172,3.88268,9.047766,-0.002284,0.000938,0.0017,0.115479,0.458252,0.843018,-0.222642,3.657195,9.145039,-0.009833,0.00348,0.009267,0.520508,-0.220215,-0.290771,-0.870498,3.016244,9.283199,0.006224,0.000955,-0.003736,0.359375,-0.142822,-0.623535
0.059684,-1.188328,9.774017,-0.005138,-0.002405,-0.002071,-0.086426,0.486816,-0.54248,-0.269917,3.153661,9.241621,-0.011098,0.002121,0.006241,-0.834961,0.101318,-0.162842,-0.688687,3.870637,9.033661,-0.008571,0.01223,-0.000306,0.116943,0.464355,0.841553,-0.237236,3.658194,9.164316,-0.001331,0.004251,0.011027,0.516846,-0.231201,-0.293213,-0.83398,3.005289,9.269482,-0.002334,-0.00569,-0.001041,0.362793,-0.137939,-0.624512
0.070107,-1.193699,9.780346,0.007666,0.00659,0.000105,-0.084229,0.488525,-0.547119,-0.260425,3.209881,9.26545,0.004875,0.009996,0.000866,-0.833252,0.102295,-0.169678,-0.65779,3.864949,9.032345,0.001981,-0.002356,0.001178,0.112793,0.452393,0.834229,-0.243817,3.657719,9.144065,-0.00878,0.000475,0.008391,0.512207,-0.225342,-0.286133,-0.849568,3.021609,9.277449,0.00356,0.003013,-0.006092,0.358643,-0.149414,-0.628418
0.048717,-1.165718,9.794567,0.001332,0.001794,0.000572,-0.088867,0.486328,-0.537109,-0.271747,3.216213,9.270915,-0.021464,0.004338,0.007016,-0.838867,0.099121,-0.15918,-0.63476,3.881522,9.032096,-0.00963,0.008044,0.001327,0.108154,0.458252,0.845947,-0.21433,3.65059,9.157744,-0.003022,0.002705,0.009804,0.516846,-0.221436,-0.297363,-0.849067,3.009197,9.302568,-0.007643,-0.005829,0.000276,0.354736,-0.141113,-0.621826
0.067592,-1.186425,9.773207,-0.003399,0.000494,-0.001536,-0.079346,0.481445,-0.547852,-0.24242,3.14382,9.234129,-0.012039,0.006817,0.005762,-0.828613,0.09668,-0.171631,-0.686689,3.870719,9.001501,-0.00507,0.004724,0.00214,0.114746,0.459717,0.833252,-0.216685,3.662982,9.154645,-0.004241,0.005053,0.010102,0.515381,-0.224121,-0.284668,-0.85258,3.008841,9.271966,0.007205,0.002268,-0.005804,0.361572,-0.137207,-0.633057
0.048033,-1.180741,9.781584,0.002244,0.001865,-0.000438,-0.083008,0.483154,-0.543213,-0.279513,3.209173,9.264918,0.005854,0.007254,0.003295,-0.829102,0.099365,-0.164795,-0.634839,3.8714,9.038086,0.000611,0.003348,0.00016,0.111816,0.460938,0.844238,-0.226884,3.643606,9.149008,-0.008182,-0.00154,0.009305,0.519531,-0.223633,-0.29541,-0.877812,3.022093,9.293239,0.001196,-0.002435,-0.003201,0.360107,-0.142822,-0.621338
0.046677,-1.166901,9.780814,-0.001439,3.8e-05,-0.000445,-0.078613,0.489014,-0.548828,-0.249544,3.204044,9.255908,-0.020751,0.002514,0.005427,-0.828613,0.102295,-0.166504,-0.663218,3.890961,9.0248,-0.005801,0.006177,0.000926,0.117188,0.45752,0.836182,-0.214904,3.658165,9.146197,-0.001832,0.002274,0.009289,0.519043,-0.226562,-0.288574,-0.836868,2.993165,9.263801,-0.003372,-0.002654,-0.001927,0.362305,-0.14209,-0.630127
0.068066,-1.193087,9.780435,-0.000171,0.002286,-0.001024,-0.082031,0.486572,-0.546631,-0.248998,3.169617,9.253485,-0.012488,0.010626,0.005527,-0.831543,0.102295,-0.167236,-0.66197,3.869913,9.012132,-0.004489,0.003029,-0.000271,0.11792,0.456543,0.840576,-0.215586,3.65956,9.15604,-0.006964,0.006438,0.009123,0.515381,-0.221191,-0.290039,-0.860666,3.014719,9.281925,0.005252,0.004488,-0.004272,0.363281,-0.142822,-0.624756
0.056491,-1.186696,9.774235,0.005992,0.003238,0.000721,-0.08252,0.484131,-0.544189,-0.27082,3.192755,9.248714,0.000828,0.003054,0.003299,-0.830566,0.0979,-0.16333,-0.658655,3.87441,9.019398,-0.004701,0.00472,0.000642,0.113037,0.460449,0.842041,-0.228065,3.653481,9.146948,-0.004455,-0.003935,0.009823,0.513672,-0.222168,-0.286865,-0.859065,3.023815,9.278534,-0.004026,-0.007165,-0.002861,0.357178,-0.13916,-0.621338
0.043918,-1.166789,9.767219,-0.002017,0.001218,-0.001432,-0.086426,0.484131,-0.539307,-0.248584,3.20145,9.279197,-0.012573,0.005771,0.006473,-0.837402,0.099609,-0.1604,-0.661462,3.860038,9.018048,-0.002871,0.00181,0.00157,0.110596,0.460938,0.840088,-0.207603,3.660286,9.136472,-0.006012,0.00566,0.010565,0.514404,-0.225098,-0.29541,-0.852465,3.009794,9.271668,0.006206,0.000662,-0.005449,0.35791,-0.142334,-0.622559
0.055694,-1.179335,9.780714,-0.001618,0.002015,-0.002278,-0.077881,0.488281,-0.542969,-0.275475,3.168372,9.258838,-0.015185,0.009707,0.003735,-0.827393,0.104248,-0.165527,-0.652462,3.874085,9.055664,-0.005051,0.008123,-0.000367,0.112305,0.456543,0.834961,-0.243186,3.659857,9.134738,-0.001908,0.006186,0.009486,0.510742,-0.223145,-0.29834,-0.862393,3.01815,9.260193,-0.002375,-0.001048,-0.002282,0.358643,-0.14209,-0.631592
0.073208,-1.178308,9.765128,0.005073,0.00286,0.000921,-0.080811,0.489502,-0.54126,-0.242595,3.204479,9.246154,0.001351,0.004104,0.00258,-0.828369,0.104736,-0.162354,-0.665681,3.866571,9.013293,-0.000353,0.003091,0.002367,0.108398,0.459473,0.829834,-0.227655,3.652946,9.157587,-0.006416,-0.003907,0.010336,0.516357,-0.220947,-0.286377,-0.839551,3.01419,9.288626,0.002005,-0.002019,-0.002895,0.352539,-0.139404,-0.632568
0.06326,-1.16398,9.77908,-0.001432,0.000347,0.000364,-0.088379,0.487305,-0.547852,-0.257593,3.213474,9.278885,-0.018342,0.010668,0.005588,-0.835205,0.101318,-0.169434,-0.645254,3.881689,9.029639,-0.005518,0.004196,0.000557,0.112793,0.46167,0.843506,-0.211768,3.648961,9.139533,-0.009383,0.000736,0.00897,0.513184,-0.221191,-0.283203,-0.86481,3.03895,9.285114,0.003009,-0.000264,-0.002394,0.360596,-0.13916,-0.62207
0.068073,-1.190328,9.808015,-0.003862,0.00015,-0.001841,-0.083252,0.484375,-0.545654,-0.267388,3.151703,9.242677,-0.012907,0.001843,0.006322,-0.831787,0.100098,-0.165283,-0.667385,3.864462,9.014072,-0.007726,0.005975,0.001963,0.111816,0.459473,0.847412,-0.233577,3.653061,9.147545,-0.001141,0.004825,0.010982,0.515625,-0.228271,-0.298584,-0.860342,3.027418,9.256787,-0.004241,-0.003419,-0.001727,0.35791,-0.138428,-0.618408
0.054062,-1.186294,9.774297,0.004959,0.004384,0.000239,-0.084473,0.486816,-0.54126,-0.247698,3.199368,9.261927,0.004494,0.009454,0.003122,-0.83374,0.101074,-0.162354,-0.662303,3.873189,9.044732,0.00171,0.001891,-0.000123,0.110596,0.454346,0.835449,-0.249827,3.665076,9.153895,-0.008595,0.001063,0.008341,0.519043,-0.219482,-0.287842,-0.858593,3.030505,9.265881,0.00479,0.001317,-0.005012,0.356689,-0.144043,-0.633545
0.04273,-1.165442,9.781006,-0.00052,0.000418,-0.000646,-0.088867,0.489258,-0.541992,-0.274554,3.211394,9.264745,-0.021507,0.004357,0.006976,-0.835938,0.103027,-0.164062,-0.654661,3.871799,9.040362,-0.006832,0.007342,0.001755,0.115234,0.46167,0.84082,-0.213158,3.658632,9.137565,-0.003204,0.002122,0.009865,0.517822,-0.227295,-0.287842,-0.856519,3.021746,9.299898,-0.004105,-0.002429,-0.001026,0.362305,-0.136719,-0.625
0.064253,-1.191731,9.780626,-0.001952,0.000765,-0.000282,-0.082764,0.493408,-0.541016,-0.250209,3.157772,9.225335,-0.012328,0.006778,0.003676,-0.832031,0.10376,-0.164062,-0.655202,3.858766,9.022475,-0.003689,0.001286,0.001485,0.11499,0.454346,0.844238,-0.243231,3.668597,9.143603,-0.003144,0.006848,0.011913,0.51416,-0.224609,-0.282471,-0.849461,3.029028,9.264525,0.0095,0.002676,-0.00473,0.359619,-0.145752,-0.622559
0.051765,-1.172282,9.773551,0.002194,0.002936,3e-05,-0.091064,0.484131,-0.547119,-0.268728,3.199702,9.275111,0.004109,0.008914,0.005365,-0.841064,0.096924,-0.169678,-0.657847,3.887574,9.01397,-0.003065,0.0069,-2.3e-05,0.11084,0.458008,0.846191,-0.225955,3.651367,9.128945,-0.013221,-0.001353,0.008311,0.518799,-0.229004,-0.285156,-0.856781,3.029176,9.286936,-0.000917,-0.006345,-0.001477,0.356934,-0.144287,-0.618164
0.049972,-1.165546,9.766338,0.000349,0.001868,-0.000378,-0.084473,0.484375,-0.546143,-0.243317,3.205218,9.278534,-0.019387,0.003232,0.002673,-0.834961,0.098633,-0.166992,-0.659289,3.865,9.017864,-0.006254,0.005335,0.002719,0.115723,0.456543,0.843994,-0.217613,3.646446,9.140958,-0.003727,0.000226,0.008756,0.514648,-0.221924,-0.287354,-0.845682,3.002274,9.252186,-0.010656,-0.001022,-0.001644,0.361572,-0.145752,-0.619873
0.05439,-1.198822,9.788855,-0.002472,0.001183,-0.000928,-0.088379,0.492188,-0.54126,-0.267517,3.162064,9.25959,-0.015061,0.010242,0.008151,-0.835938,0.10498,-0.164795,-0.653453,3.88317,9.02678,-0.001845,0.000643,0.000742,0.110596,0.463135,0.843506,-0.228417,3.666927,9.145437,-0.00036,0.006989,0.009504,0.519287,-0.225586,-0.286865,-0.875944,2.993031,9.271537,0.007352,0.003557,-0.003392,0.357422,-0.135986,-0.621094
0.050291,-1.172031,9.773589,0.004097,0.003243,0.00078,-0.079346,0.489258,-0.544189,-0.267873,3.181626,9.26517,0.000329,0.003941,0.003058,-0.825439,0.103027,-0.16626,-0.658986,3.867193,9.042019,-0.005202,0.008388,0.001926,0.117676,0.456543,0.842529,-0.229372,3.675075,9.123273,-0.003284,-0.002526,0.008452,0.52124,-0.221191,-0.287109,-0.847166,3.032432,9.273566,0.003574,-0.006767,-0.003958,0.364502,-0.143311,-0.625488
0.069049,-1.170057,9.77174,-0.000178,0.001977,-0.001833,-0.080322,0.494385,-0.537354,-0.242017,3.217249,9.258508,-0.008388,0.006932,0.006077,-0.827393,0.108398,-0.158447,-0.655356,3.88203,9.027133,0.001782,0.0016,0.000421,0.121582,0.460449,0.843506,-0.219405,3.659067,9.148227,-0.015684,0.003506,0.010183,0.520996,-0.220215,-0.287598,-0.8549,3.044005,9.271183,0.001235,0.002999,-0.00238,0.363525,-0.13916,-0.62085
0.062394,-1.197555,9.787973,-0.001147,0.002669,-0.001166,-0.083984,0.492432,-0.543457,-0.273099,3.165611,9.260249,-0.020109,0.006044,0.005217,-0.831055,0.105713,-0.162598,-0.671047,3.884416,9.019885,-0.010232,0.00778,0.002034,0.11792,0.463379,0.842529,-0.251209,3.639364,9.131532,-0.005588,0.004826,0.010052,0.517578,-0.22168,-0.287354,-0.87049,3.008817,9.286201,-0.010493,-0.004971,-0.001414,0.36377,-0.136475,-0.622803
0.058169,-1.171011,9.772677,0.000755,0.002975,-0.000416,-0.085693,0.484131,-0.544922,-0.261262,3.175028,9.247579,0.000328,0.00394,0.003059,-0.832764,0.098389,-0.164062,-0.670265,3.853116,9.029303,-0.005456,0.002771,0.001934,0.115479,0.463379,0.845215,-0.224065,3.646229,9.141457,0.002274,-0.000817,0.010559,0.519775,-0.228027,-0.287842,-0.833794,2.996939,9.272793,0.005905,-0.001074,-0.00292,0.36084,-0.136719,-0.623535
0.058411,-1.184461,9.773504,0.001625,0.004426,-0.000148,-0.084229,0.486816,-0.542236,-0.275963,3.214514,9.270073,-0.006304,0.010171,0.005143,-0.832275,0.101562,-0.165283,-0.657992,3.878836,9.028314,0.000689,0.00419,-0.000128,0.117676,0.45459,0.843506,-0.220517,3.669219,9.146093,-0.005712,0.002175,0.009054,0.520264,-0.227051,-0.290771,-0.863543,3.033971,9.29737,0.007617,1.1e-05,-0.005888,0.362061,-0.14624,-0.624512
0.058148,-1.169911,9.786432,-0.002302,-0.001104,9.6e-05,-0.086182,0.484619,-0.539062,-0.273744,3.17964,9.253604,-0.019522,0.003717,0.00502,-0.834717,0.098877,-0.162354,-0.657246,3.870645,9.033514,-0.0024,0.007688,0.002356,0.115723,0.455078,0.837158,-0.225495,3.657757,9.138767,-0.006375,0.004502,0.010683,0.521484,-0.223877,-0.290771,-0.849907,3.02091,9.267705,-0.004045,-0.002083,-0.001531,0.362061,-0.144775,-0.626465
0.057769,-1.177135,9.779977,0.00305,0.00377,-0.00132,-0.081299,0.487061,-0.539795,-0.259659,3.179224,9.242335,-0.004299,0.008549,0.005156,-0.831787,0.101562,-0.162109,-0.670534,3.886733,9.027892,-0.004657,0.000209,0.001148,0.116455,0.459717,0.839355,-0.215592,3.63951,9.154178,-0.011571,0.00219,0.009959,0.521729,-0.228271,-0.283447,-0.865385,3.031058,9.28821,0.003194,0.000928,-0.003056,0.362061,-0.140137,-0.626953
0.046042,-1.178478,9.767246,-0.00062,0.002561,0.000289,-0.080566,0.487061,-0.540771,-0.275596,3.204787,9.24519,-0.008316,0.004519,0.004662,-0.828857,0.099854,-0.158936,-0.650168,3.86746,9.029884,-0.009641,0.00804,0.001328,0.119873,0.454346,0.846191,-0.211006,3.656747,9.140321,-0.001423,-0.000333,0.010263,0.515137,-0.223389,-0.291992,-0.85094,3.011486,9.271259,-0.004826,-0.007437,-0.002307,0.36499,-0.144531,-0.621094
0.066321,-1.183776,9.772556,-0.002422,0.000111,-0.001397,-0.090088,0.48877,-0.545166,-0.250927,3.188339,9.243837,-0.013119,0.006669,0.003283,-0.837158,0.10376,-0.167969,-0.664234,3.873672,9.046181,0.001117,0.00163,0.000586,0.112061,0.460693,0.838623,-0.219172,3.664187,9.148143,-0.00148,0.005346,0.008977,0.522461,-0.228027,-0.289795,-0.842817,3.006279,9.261084,0.004863,0.001962,-0.003807,0.356934,-0.137207,-0.626709
0.059952,-1.189199,9.808205,0.002138,0.0037,-0.000311,-0.090332,0.484375,-0.546387,-0.275048,3.182421,9.26289,-0.008372,0.008878,0.005109,-0.836426,0.099609,-0.166504,-0.647683,3.893269,9.033673,-0.003883,0.006375,-0.000106,0.119873,0.458008,0.8396,-0.238047,3.650772,9.140459,-0.006694,0.003113,0.008886,0.521729,-0.223145,-0.290771,-0.87571,3.018487,9.30513,0.001508,-0.0004,-0.004019,0.36377,-0.144287,-0.62793
0.053062,-1.171061,9.759077,0.003164,0.002246,-0.000637,-0.082031,0.486084,-0.540039,-0.247476,3.186493,9.2528,-0.007859,0.001686,0.005861,-0.830078,0.100586,-0.160156,-0.669692,3.876577,9.017833,-0.005014,0.003296,0.003518,0.118164,0.462402,0.840332,-0.226684,3.667446,9.147243,-0.004721,-0.000602,0.010078,0.514404,-0.221191,-0.29126,-0.85871,3.017399,9.281236,0.000529,-0.001713,-0.00195,0.366699,-0.138672,-0.625488
0.053946,-1.170027,9.772819,-0.002016,0.001218,-0.001434,-0.080322,0.481689,-0.548828,-0.250347,3.18574,9.267102,-0.01013,0.010542,0.004247,-0.827881,0.09668,-0.167969,-0.640493,3.890435,9.02991,-0.004421,0.002739,0.000271,0.111816,0.464355,0.841064,-0.217107,3.655925,9.130673,-0.008635,0.003068,0.008765,0.514404,-0.22998,-0.289551,-0.855364,3.02996,9.286811,0.003731,-0.000637,-0.004151,0.358154,-0.137451,-0.623047
0.058656,-1.196032,9.801804,-0.000527,0.000109,-0.001455,-0.094971,0.483887,-0.536621,-0.265284,3.187826,9.251585,-0.010793,0.001704,0.002972,-0.843506,0.097656,-0.15625,-0.656279,3.87099,9.026297,-0.006553,0.00536,0.001385,0.111328,0.455078,0.839844,-0.222873,3.649397,9.142173,-0.00105,0.000826,0.010159,0.522705,-0.214844,-0.291992,-0.839227,3.007248,9.291496,-0.008013,-0.003524,-0.001855,0.358154,-0.14624,-0.623779
0.062957,-1.176761,9.765386,0.001688,0.003974,0.001002,-0.082764,0.48999,-0.540283,-0.247276,3.192138,9.261173,-0.004428,0.009015,0.00461,-0.833252,0.104004,-0.161377,-0.656798,3.891922,9.023,0.000824,0.002475,0.001793,0.121338,0.46582,0.839111,-0.236725,3.648182,9.151938,-0.009465,0.00474,0.009815,0.51123,-0.226807,-0.286865,-0.849407,3.021429,9.267582,0.011096,0.00322,-0.005833,0.366455,-0.13208,-0.626709
0.041806,-1.164383,9.766515,-0.000577,0.00118,-0.000988,-0.081055,0.482666,-0.549316,-0.297452,3.208346,9.267528,-0.016843,0.005611,0.004857,-0.828125,0.095947,-0.171387,-0.651966,3.867012,9.038914,-0.008606,0.008825,0.002207,0.110107,0.456787,0.843262,-0.229821,3.650058,9.131915,-0.002185,0.001029,0.008773,0.51123,-0.233887,-0.290283,-0.856854,3.021319,9.290069,-0.004621,-0.005953,-0.001256,0.356934,-0.144775,-0.625977
0.06472,-1.182163,9.786385,0.00052,-0.000418,0.000646,-0.083496,0.494385,-0.542236,-0.24503,3.176417,9.250449,-0.006047,0.003911,0.0048,-0.83252,0.105713,-0.162842,-0.667218,3.891025,9.028133,0.000658,-0.001164,0.00067,0.104736,0.449707,0.838135,-0.232452,3.66714,9.14782,-0.004967,0.00089,0.011187,0.510742,-0.226318,-0.292725,-0.850697,3.007166,9.283209,0.005251,0.00464,-0.003419,0.352295,-0.151367,-0.625
0.072687,-1.181869,9.77177,0.003057,0.00408,-0.000511,-0.089355,0.48877,-0.545898,-0.280924,3.218578,9.263013,-0.005438,0.009831,0.006057,-0.838379,0.100098,-0.166504,-0.646448,3.894445,9.026146,-0.004621,0.006695,-0.000483,0.107178,0.459717,0.83374,-0.238045,3.65729,9.150238,-0.013486,0.005686,0.006867,0.509766,-0.217041,-0.284912,-0.871252,3.047315,9.294409,0.001613,-0.004695,-0.003282,0.352295,-0.138672,-0.62793
0.061143,-1.168461,9.771983,0.000349,0.001869,-0.000379,-0.085693,0.485596,-0.538574,-0.257027,3.180722,9.256602,-0.017564,0.001135,0.004024,-0.832764,0.097412,-0.158691,-0.690769,3.86341,9.034564,-0.011063,0.006121,0.002781,0.106934,0.463135,0.84668,-0.240408,3.629918,9.136933,-0.00222,0.00118,0.010045,0.520508,-0.224121,-0.296143,-0.834639,2.996473,9.262933,-0.011087,-0.00376,0.00019,0.353027,-0.133545,-0.619141
0.053605,-1.182197,9.787427,-0.001502,0.000491,-0.001597,-0.088623,0.48584,-0.549561,-0.252318,3.180626,9.264997,-0.004538,0.010456,0.005041,-0.835205,0.099609,-0.170166,-0.655098,3.862957,9.040421,0.002139,-0.00067,0.000593,0.117676,0.458984,0.83374,-0.221102,3.680978,9.155754,-0.000471,0.002486,0.009369,0.511475,-0.221924,-0.28833,-0.861685,3.005416,9.275506,0.009133,0.005291,-0.005158,0.362305,-0.139404,-0.632324
0.062977,-1.188792,9.780012,0.001262,0.00194,-0.001388,-0.087646,0.483154,-0.543457,-0.279448,3.19334,9.26757,-0.007042,0.005697,0.004309,-0.837646,0.099854,-0.169189,-0.662237,3.886749,9.024832,-0.004742,0.012312,0.001015,0.108887,0.463623,0.841797,-0.23161,3.662585,9.149666,-0.004371,0.002476,0.00976,0.512207,-0.226074,-0.279053,-0.855491,3.036991,9.273989,0.003573,-0.006765,-0.003957,0.354004,-0.134766,-0.623291
0.060104,-1.168204,9.77202,0.002188,0.002629,-0.000779,-0.084717,0.491211,-0.547607,-0.231342,3.201656,9.253127,-0.0134,0.006644,0.004108,-0.834717,0.104004,-0.167236,-0.667591,3.880449,9.01817,-0.00252,-0.000462,0.001739,0.108643,0.458008,0.850342,-0.229839,3.649809,9.163243,-0.012589,0.005135,0.010216,0.512207,-0.217285,-0.294434,-0.85309,3.034879,9.295356,0.003192,0.000929,-0.003057,0.355957,-0.145264,-0.61377
0.06304,-1.194606,9.78735,-0.00069,0.002705,-0.001672,-0.093506,0.488525,-0.545654,-0.273921,3.181414,9.277964,-0.009536,0.009191,0.005024,-0.840088,0.101318,-0.168701,-0.649148,3.881483,9.033144,-0.007737,0.005972,0.001963,0.109375,0.462891,0.835693,-0.233409,3.63045,9.12786,-0.008218,0.002238,0.008245,0.513672,-0.223145,-0.290039,-0.8677,3.02082,9.281973,-0.01005,-0.002101,-0.002384,0.355469,-0.13501,-0.630127
0.050573,-1.175234,9.780245,0.000336,0.001251,-0.001997,-0.085938,0.48999,-0.540771,-0.259691,3.182056,9.266387,-0.005202,0.001619,0.003759,-0.834473,0.10376,-0.158936,-0.681992,3.851698,9.020233,-0.004788,0.003874,0.000935,0.108154,0.458008,0.842041,-0.231413,3.660662,9.160852,0.007508,-0.000528,0.010875,0.522461,-0.228271,-0.282227,-0.836238,2.993348,9.253864,0.001952,-0.002217,-0.001532,0.356445,-0.141846,-0.621826
0.059999,-1.174503,9.7793,-0.000507,0.001036,0.000972,-0.077393,0.482178,-0.552246,-0.265776,3.199008,9.264577,-0.010768,0.01191,0.003447,-0.826904,0.096924,-0.173828,-0.650649,3.879753,9.033779,0.001559,0.002153,0.002174,0.118408,0.456299,0.847168,-0.219194,3.673864,9.148243,-0.008483,0.00565,0.009139,0.518311,-0.224609,-0.286133,-0.864573,3.03369,9.287426,0.013509,0.004327,-0.005772,0.364746,-0.145996,-0.619385
0.059703,-1.167324,9.785752,-0.000633,0.001943,-0.00133,-0.084961,0.488037,-0.544678,-0.277989,3.183107,9.265243,-0.014754,0.002556,0.004417,-0.831543,0.102051,-0.165283,-0.673365,3.875501,9.035961,-0.005194,0.010653,0.000265,0.115234,0.458496,0.844482,-0.24523,3.662235,9.129855,-0.012078,0.000237,0.008216,0.521484,-0.217041,-0.294189,-0.855035,3.032254,9.286093,-0.007769,-0.006832,-0.000416,0.361328,-0.138916,-0.62085
0.059185,-1.181818,9.772839,0.001782,0.001523,-0.000742,-0.081055,0.489746,-0.544678,-0.250387,3.187143,9.25525,-0.001665,0.00751,0.005,-0.829102,0.102783,-0.165771,-0.669169,3.877903,9.003056,-0.004011,-0.00209,0.002648,0.118408,0.468018,0.838379,-0.235976,3.648113,9.164361,-0.009382,0.000756,0.008981,0.519287,-0.218018,-0.287842,-0.85354,3.001942,9.264772,0.000412,0.002434,-0.003543,0.365234,-0.133545,-0.628906
0.050477,-1.174039,9.794012,0.000799,0.001596,-0.001693,-0.084473,0.492432,-0.541748,-0.276,3.212737,9.277881,-0.011608,0.007903,0.00498,-0.831543,0.106445,-0.16333,-0.636646,3.865372,9.047688,-0.010386,0.008358,0.00095,0.118164,0.465088,0.838867,-0.235686,3.651275,9.123464,0.001642,0.003179,0.01008,0.519287,-0.226562,-0.291992,-0.863968,3.033272,9.287619,-0.000864,-0.006146,-0.002837,0.365479,-0.135742,-0.627441
0.069588,-1.179761,9.785672,-6.3e-05,0.000453,-0.001151,-0.077637,0.487793,-0.541016,-0.260832,3.190265,9.247752,-0.008998,0.003942,0.004807,-0.826172,0.102783,-0.161133,-0.671081,3.853837,9.007489,0.002083,0.002704,0.000927,0.11377,0.458008,0.835693,-0.22613,3.676314,9.158114,9.7e-05,0.002378,0.010068,0.512451,-0.225586,-0.2854,-0.830877,3.016271,9.255669,0.005346,0.0002,-0.003539,0.363525,-0.144531,-0.627197
0.04105,-1.187903,9.795826,0.004446,0.005116,0.000402,-0.087891,0.490723,-0.548096,-0.261292,3.209819,9.253464,-0.005439,0.010805,0.004118,-0.836914,0.103516,-0.171631,-0.637708,3.896152,9.022459,0.001425,0.003868,0.000257,0.109863,0.458496,0.842041,-0.231061,3.664506,9.150912,-0.015657,0.003466,0.009561,0.517578,-0.224609,-0.287109,-0.870052,3.043249,9.306364,0.006399,0.002156,-0.004402,0.356445,-0.141113,-0.623047
0.046359,-1.167987,9.773102,-0.00528,0.001114,0.000136,-0.084473,0.483398,-0.545654,-0.268344,3.175378,9.256421,-0.01811,0.001072,0.005679,-0.83252,0.098389,-0.165771,-0.677483,3.859456,9.01908,-0.011427,0.008388,0.002611,0.114258,0.457031,0.843506,-0.221087,3.650151,9.125063,-0.002443,0.000749,0.011374,0.51416,-0.227783,-0.276611,-0.849288,3.009343,9.282632,-0.00963,-0.009207,0.000142,0.360352,-0.141602,-0.624756
0.061554,-1.21448,9.795458,0.0012,0.002394,-0.002539,-0.081543,0.491455,-0.536865,-0.252524,3.18862,9.265033,-0.000507,0.008174,0.003143,-0.827637,0.105225,-0.158691,-0.666611,3.880773,8.994908,0.001094,-0.00259,0.000547,0.111084,0.454346,0.848877,-0.230581,3.6641,9.161497,-0.00418,0.003055,0.009714,0.518555,-0.230469,-0.282959,-0.860217,3.008593,9.274612,0.012842,0.005051,-0.004525,0.358398,-0.147949,-0.61084
0.05732,-1.172615,9.793166,0.004046,0.004319,0.001249,-0.087646,0.486572,-0.546387,-0.272957,3.224829,9.280416,-0.012148,0.006855,0.005685,-0.837158,0.102295,-0.167236,-0.657907,3.873357,9.035998,-0.00667,0.011293,-0.00049,0.115234,0.450195,0.843994,-0.225193,3.677248,9.128552,-0.004557,0.001896,0.009819,0.511475,-0.216553,-0.281738,-0.853567,3.03312,9.285945,-0.010136,-0.007738,-0.001838,0.359863,-0.148682,-0.622559
0.055373,-1.180407,9.773031,-0.000582,0.000871,-0.001798,-0.08374,0.489014,-0.537109,-0.242394,3.166444,9.262858,-0.01501,0.003498,0.003312,-0.834717,0.105469,-0.160156,-0.656031,3.862279,9.001348,-0.00231,-0.001336,0.003363,0.109375,0.466064,0.847168,-0.223195,3.665541,9.141684,-0.002823,0.003275,0.00978,0.515137,-0.224365,-0.290039,-0.836711,2.986633,9.256593,0.003149,0.005721,-0.003445,0.355713,-0.134033,-0.618896
0.058715,-1.199924,9.794777,-0.001483,0.001419,0.000829,-0.086914,0.481445,-0.547119,-0.269887,3.186658,9.250854,-0.002622,0.012218,0.007444,-0.836182,0.096436,-0.170166,-0.658847,3.881527,9.014731,-0.003141,0.007188,-0.000555,0.111816,0.45874,0.841064,-0.25087,3.6618,9.151333,-0.009797,0.00344,0.00866,0.522705,-0.221191,-0.288574,-0.901636,3.043605,9.291501,0.007978,-0.002442,-0.004609,0.360596,-0.143066,-0.622803
0.064493,-1.172607,9.778529,0.001326,0.001488,-0.000237,-0.088379,0.490234,-0.541748,-0.267166,3.188862,9.272514,-0.009958,0.000401,0.002878,-0.837402,0.107178,-0.16333,-0.68169,3.876431,9.01724,-0.008037,0.006814,0.003169,0.118652,0.464111,0.836182,-0.219709,3.647272,9.136654,-0.00256,-0.001979,0.009734,0.516113,-0.221924,-0.289551,-0.839378,3.013863,9.26887,-0.010049,-0.006948,0.000225,0.364502,-0.138672,-0.624756
0.052995,-1.181376,9.759305,0.000293,0.002633,-0.000721,-0.079834,0.485596,-0.546387,-0.237792,3.191015,9.249176,-0.01197,0.010284,0.004313,-0.82959,0.102295,-0.16748,-0.637379,3.887116,9.03698,0.000715,-0.004539,0.000335,0.111572,0.461182,0.841309,-0.216269,3.669263,9.141771,-0.00923,0.00518,0.008506,0.52124,-0.222656,-0.286865,-0.858262,3.01169,9.283722,0.007838,0.006791,-0.004879,0.35791,-0.139893,-0.623291
0.056146,-1.185875,9.79403,0.000743,0.002359,-0.002035,-0.087891,0.480469,-0.548584,-0.288374,3.177612,9.265149,-0.012328,0.004405,0.00511,-0.835938,0.094238,-0.169678,-0.657804,3.874055,9.044689,-0.01125,0.014292,0.002074,0.118164,0.458984,0.845215,-0.240389,3.645715,9.126186,-0.000864,0.003237,0.009269,0.520264,-0.227295,-0.292236,-0.845428,3.021965,9.288231,-0.005874,-0.0094,-0.001439,0.362793,-0.140137,-0.617676
0.061778,-1.180297,9.758412,0.000857,0.000834,-0.001351,-0.083496,0.483643,-0.541504,-0.249871,3.195086,9.25542,0.000207,0.005373,0.003499,-0.831543,0.099365,-0.163818,-0.668826,3.858305,9.007602,0.002052,-0.002649,0.001718,0.117676,0.455322,0.838135,-0.230634,3.670112,9.161109,-0.002408,0.000595,0.010106,0.518555,-0.224609,-0.285156,-0.839031,3.008125,9.281293,0.009202,0.00594,-0.003955,0.364014,-0.147461,-0.625488
0.052959,-1.172692,9.779558,0.000299,0.002942,8.7e-05,-0.087402,0.483887,-0.545654,-0.273222,3.211012,9.279337,-0.015549,0.010707,0.005466,-0.831543,0.097656,-0.168213,-0.630959,3.905442,9.029886,-0.004333,0.006665,0.000856,0.114014,0.460449,0.844727,-0.22148,3.658479,9.144554,-0.011908,0.004593,0.007106,0.519775,-0.224609,-0.283447,-0.888332,3.054696,9.295787,0.00093,-0.004269,-0.003743,0.358887,-0.141357,-0.620361
0.062015,-1.179297,9.772154,-0.000633,0.001943,-0.001331,-0.091064,0.487061,-0.539551,-0.253123,3.168649,9.251927,-0.015081,0.0001,0.004725,-0.839111,0.104248,-0.160156,-0.692302,3.886156,9.025151,-0.008468,0.009373,0.002461,0.117432,0.458496,0.847168,-0.234352,3.652139,9.135578,-0.003765,0.000375,0.010042,0.514404,-0.225586,-0.286621,-0.840502,3.011123,9.259721,-0.008381,-0.005915,-0.000525,0.364014,-0.143311,-0.622803
0.0613,-1.179112,9.772181,0.002144,0.004013,0.000497,-0.083496,0.494141,-0.537598,-0.249752,3.200207,9.264047,0.002707,0.010612,0.0057,-0.830322,0.105469,-0.159668,-0.645018,3.874781,8.991601,-0.000547,-0.004771,0.001202,0.115967,0.458496,0.841797,-0.22907,3.663079,9.153555,-0.009022,0.002,0.009519,0.514648,-0.220947,-0.283936,-0.878284,3.013239,9.276798,0.008324,0.005028,-0.004611,0.361572,-0.139648,-0.621826
0.041282,-1.187804,9.767607,-0.001039,0.000836,-0.001294,-0.085205,0.484863,-0.547607,-0.270653,3.20681,9.289108,-0.01733,0.005097,0.004103,-0.835205,0.100586,-0.167969,-0.665862,3.87365,9.017603,-0.008729,0.014755,0.000339,0.111816,0.464111,0.842529,-0.227076,3.65496,9.12563,-0.00246,0.002664,0.011167,0.515381,-0.227295,-0.290527,-0.856075,3.027829,9.26756,-0.002783,-0.008869,-0.001771,0.35791,-0.138672,-0.618652
0.071415,-1.170264,9.791426,-0.001089,0.001908,-0.000827,-0.093994,0.487305,-0.545654,-0.249013,3.163344,9.248013,-0.012455,0.008277,0.004073,-0.841064,0.100342,-0.164795,-0.684341,3.862485,9.008541,-0.000375,0.0,0.001498,0.114014,0.457764,0.841553,-0.236328,3.666479,9.15264,-0.005191,0.004147,0.010826,0.519043,-0.229004,-0.286133,-0.847745,3.010924,9.28226,0.003946,0.005991,-0.003997,0.360596,-0.144287,-0.625244
0.03929,-1.181443,9.760344,0.002708,0.002214,-0.000132,-0.091797,0.483154,-0.542969,-0.28472,3.196922,9.275618,-0.002551,0.00786,0.005059,-0.839355,0.099121,-0.164795,-0.646878,3.887815,9.034406,-0.003897,0.005239,0.000733,0.115234,0.45459,0.844482,-0.226916,3.654941,9.136049,-0.008403,-0.000173,0.009154,0.511475,-0.22998,-0.286133,-0.891114,3.042576,9.290127,-0.000223,-0.001783,-0.002761,0.361816,-0.143799,-0.621826
0.048635,-1.172933,9.765929,0.000863,0.001143,-0.000542,-0.087158,0.484131,-0.545654,-0.257911,3.180011,9.26039,-0.01181,0.002066,0.005843,-0.83667,0.097412,-0.16626,-0.677805,3.871751,9.023022,-0.007221,0.006521,0.000716,0.107422,0.453125,0.843506,-0.226915,3.655708,9.146149,-0.005379,0.003567,0.010879,0.51416,-0.229248,-0.29126,-0.83838,3.014983,9.268596,-0.001048,-0.007338,-0.002172,0.353271,-0.148193,-0.620361
0.057772,-1.186788,9.752072,-0.00062,0.002562,0.000287,-0.078369,0.483887,-0.547119,-0.265161,3.183009,9.238956,-0.013049,0.011589,0.005237,-0.825928,0.099609,-0.162842,-0.644198,3.879044,9.0239,-0.003857,-0.000405,0.002061,0.111816,0.455322,0.840576,-0.22689,3.654873,9.146484,-0.002441,0.00443,0.009685,0.511475,-0.224365,-0.289551,-0.855632,3.022388,9.279896,0.003867,0.005348,-0.005203,0.356934,-0.147217,-0.625488
0.057437,-1.172182,9.764999,0.000338,0.001252,-0.001998,-0.087646,0.485352,-0.543945,-0.276443,3.189306,9.244452,-0.003963,0.003274,0.004849,-0.835693,0.100098,-0.164551,-0.670404,3.868996,9.019265,-0.002703,0.00771,0.001035,0.11084,0.458252,0.84082,-0.230272,3.678447,9.130643,-0.003354,-0.000461,0.009517,0.517578,-0.224121,-0.283447,-0.86248,2.997943,9.268522,-0.0045,-0.005263,-0.002264,0.356201,-0.14209,-0.623291
0.056871,-1.171998,9.765025,0.001156,0.003777,-0.001264,-0.091309,0.48877,-0.546387,-0.236401,3.211216,9.269769,-0.010649,0.009532,0.004959,-0.839355,0.103027,-0.166504,-0.680109,3.869326,9.023889,-0.001691,0.002328,0.00016,0.11499,0.458984,0.844238,-0.227524,3.663965,9.134465,-0.008058,0.002982,0.009478,0.515381,-0.225098,-0.2854,-0.849401,3.002469,9.285448,0.007933,0.002352,-0.004999,0.36377,-0.140869,-0.619629
0.060134,-1.18386,9.793281,-0.000531,-0.000201,-0.002265,-0.084229,0.485596,-0.543213,-0.277849,3.162115,9.227134,-0.017239,0.00561,0.005596,-0.831787,0.101807,-0.160889,-0.648462,3.884952,9.019461,-0.006723,0.003669,0.001966,0.111084,0.460449,0.844238,-0.239232,3.649372,9.147594,-0.004383,0.00255,0.010412,0.510498,-0.2229,-0.294189,-0.865638,3.025105,9.28077,-0.002582,-0.002541,-0.003328,0.358643,-0.139404,-0.618408
0.069285,-1.189994,9.78594,0.004046,0.004322,0.001249,-0.079346,0.484375,-0.544189,-0.257668,3.20033,9.262259,0.001489,0.006538,0.004138,-0.827881,0.099854,-0.163818,-0.67534,3.886228,9.033375,-0.003819,0.006082,0.000444,0.111328,0.462158,0.836426,-0.227265,3.663296,9.145148,-0.009983,0.001028,0.009567,0.519531,-0.223633,-0.285889,-0.854571,3.032001,9.276277,0.002242,-0.000477,-0.004063,0.356201,-0.139404,-0.628418
0.04454,-1.150649,9.771756,0.000338,0.001252,-0.001998,-0.083008,0.494873,-0.545654,-0.261312,3.208148,9.26162,-0.015453,0.007829,0.005504,-0.831055,0.107178,-0.164307,-0.661092,3.869882,9.023082,-0.006953,0.002273,0.002004,0.114258,0.45752,0.844238,-0.230933,3.647348,9.118805,-0.002424,0.00251,0.0099,0.516113,-0.227783,-0.292969,-0.857461,3.013494,9.28321,-0.005584,-0.002283,-0.000932,0.361816,-0.143066,-0.621094
0.067109,-1.197992,9.765785,-0.002934,0.000837,-0.001237,-0.087402,0.489502,-0.549561,-0.247649,3.177813,9.260158,-0.013318,0.004758,0.005097,-0.835449,0.100342,-0.169678,-0.654833,3.876014,9.013841,-0.003101,0.003491,0.002487,0.110352,0.456299,0.8396,-0.226952,3.66409,9.155245,0.000839,0.002912,0.011362,0.51709,-0.225342,-0.288818,-0.853111,2.996229,9.267263,0.006256,0.001169,-0.005104,0.358887,-0.144531,-0.624756
0.068104,-1.182478,9.792437,0.002708,0.002215,-0.000132,-0.084473,0.488037,-0.543701,-0.257999,3.205852,9.270766,0.001388,0.009921,0.004579,-0.834473,0.102783,-0.163086,-0.671089,3.890864,9.024629,0.000339,0.007592,-0.001112,0.114502,0.459229,0.843262,-0.267886,3.658084,9.164697,-0.01443,0.001068,0.008628,0.515137,-0.218262,-0.287109,-0.879378,3.045039,9.297663,0.004653,-0.004361,-0.002251,0.361328,-0.140381,-0.62207
0.033786,-1.173097,9.753332,0.002296,0.000797,-0.000903,-0.091064,0.480469,-0.543457,-0.276552,3.210788,9.282357,-0.019917,0.001811,0.004752,-0.839111,0.09375,-0.163086,-0.683468,3.867276,9.049566,-0.010146,0.001837,0.0039,0.112549,0.465332,0.841064,-0.208165,3.642825,9.131725,-0.003203,-0.001577,0.011589,0.520508,-0.219727,-0.285645,-0.845668,3.015139,9.291018,-0.009971,-0.00147,-0.001172,0.358643,-0.133789,-0.621826
0.076205,-1.182479,9.777802,-0.006155,-0.00065,-0.000944,-0.087891,0.486572,-0.538818,-0.256724,3.176788,9.240076,-0.010231,0.008146,0.00662,-0.837402,0.098389,-0.161865,-0.652902,3.878769,9.021801,-0.002147,0.001483,0.001948,0.115234,0.464844,0.841797,-0.234209,3.670148,9.17409,-0.001898,0.00816,0.009965,0.514404,-0.223145,-0.293213,-0.859062,3.010634,9.274057,0.007999,0.002849,-0.00465,0.362305,-0.137451,-0.622803
0.064766,-1.191252,9.758571,0.007837,0.00432,0.001136,-0.085205,0.48291,-0.547607,-0.281071,3.2159,9.282635,0.002744,0.007701,0.002819,-0.835693,0.096436,-0.167725,-0.66936,3.893335,9.032697,-0.003124,0.011404,-0.0005,0.111328,0.462402,0.837402,-0.234278,3.673174,9.133316,-0.008404,-0.000167,0.009158,0.515625,-0.225342,-0.287842,-0.871356,3.040135,9.28738,0.002842,-0.006536,-0.003055,0.356689,-0.141602,-0.625244
0.050867,-1.14991,9.757216,-0.000632,0.001944,-0.001332,-0.085449,0.487061,-0.539062,-0.233701,3.203389,9.263104,-0.019543,0.003332,0.003477,-0.833008,0.099854,-0.160156,-0.685102,3.874447,9.02871,-0.003361,-0.003258,0.003307,0.113525,0.459717,0.84082,-0.216177,3.649472,9.150312,-0.007285,0.00154,0.010337,0.516602,-0.226318,-0.283203,-0.848922,3.009484,9.272685,-0.005138,0.000742,-0.001052,0.359863,-0.140381,-0.624756
0.066099,-1.196267,9.779626,-0.002471,0.001182,-0.000933,-0.085205,0.485352,-0.543457,-0.272096,3.171526,9.275421,-0.012246,0.011729,0.00563,-0.834717,0.098145,-0.168945,-0.640522,3.894521,9.026895,-0.006838,0.007657,-0.001612,0.114502,0.459717,0.846436,-0.23251,3.661191,9.156906,-0.006758,0.007191,0.010402,0.521484,-0.222656,-0.292969,-0.887201,3.011632,9.289709,0.005717,0.002735,-0.004011,0.36084,-0.144043,-0.61792
0.064365,-1.189825,9.772371,0.002657,0.003288,0.000335,-0.077637,0.491211,-0.549316,-0.265156,3.201046,9.260322,0.002829,0.001399,0.00237,-0.827148,0.107422,-0.170898,-0.693912,3.864678,9.039305,-0.005522,0.007274,0.001438,0.11792,0.460938,0.836914,-0.246305,3.664582,9.12528,-0.000802,-0.002606,0.009276,0.511719,-0.229736,-0.292236,-0.847382,3.01265,9.281733,-0.004877,-0.007796,-0.001792,0.363037,-0.137939,-0.627197
0.043072,-1.169516,9.779987,0.003572,0.003359,-0.000674,-0.082764,0.484375,-0.540283,-0.235022,3.231397,9.290545,-0.014412,0.009945,0.005043,-0.829346,0.098145,-0.160889,-0.631543,3.872252,9.009766,0.003086,-0.003814,0.000887,0.106689,0.455811,0.839844,-0.224888,3.664565,9.146763,-0.010993,0.002129,0.010679,0.512939,-0.227295,-0.289551,-0.854223,3.039141,9.263457,0.009962,0.005773,-0.007078,0.351318,-0.14502,-0.624512
0.075295,-1.19368,9.792549,-0.00242,0.00011,-0.0014,-0.087891,0.483398,-0.536621,-0.285167,3.159063,9.248726,-0.022762,0.006735,0.005771,-0.836914,0.097656,-0.159668,-0.6737,3.888955,9.034261,-0.010958,0.01458,4.3e-05,0.108154,0.455322,0.843506,-0.231685,3.664038,9.126644,-0.002637,0.005767,0.009537,0.515625,-0.230225,-0.282471,-0.874523,3.028192,9.281628,-0.009379,-0.00768,-0.001019,0.354248,-0.146729,-0.623535
0.050509,-1.183971,9.752454,0.003978,0.004468,-0.000712,-0.083984,0.493164,-0.544434,-0.243078,3.179559,9.260633,0.007169,0.004969,0.00355,-0.832031,0.108398,-0.165527,-0.693328,3.873926,9.001674,0.000121,-0.002854,0.002745,0.112061,0.449951,0.845459,-0.246328,3.667733,9.155238,-0.005475,-0.002994,0.009659,0.515137,-0.222656,-0.295654,-0.861743,2.999563,9.268066,0.007256,0.002929,-0.004606,0.359375,-0.150879,-0.619141
0.060829,-1.17446,9.771783,0.000339,0.001252,-0.001998,-0.081299,0.486328,-0.547119,-0.279777,3.244534,9.29223,-0.014537,0.007501,0.005461,-0.829102,0.100586,-0.167725,-0.636144,3.889224,9.024042,-0.007017,0.003699,0.00063,0.111572,0.4646,0.837158,-0.215072,3.652922,9.140613,-0.008018,0.002839,0.008213,0.519531,-0.218018,-0.29126,-0.870939,3.040988,9.28714,0.001564,-0.004893,-0.001917,0.358643,-0.141357,-0.632812
0.063229,-1.180564,9.7927,-0.005174,-0.000724,7e-06,-0.071533,0.487549,-0.553467,-0.261895,3.167598,9.239433,-0.021771,0.003006,0.005279,-0.821533,0.10083,-0.173584,-0.686628,3.86106,9.019854,-0.006251,0.008729,0.000229,0.115967,0.467529,0.8396,-0.233897,3.680953,9.153113,0.000778,0.005046,0.013071,0.515137,-0.223877,-0.294189,-0.849806,3.001396,9.275827,-0.003293,-0.002022,-0.000714,0.361328,-0.134277,-0.624023
0.063982,-1.201652,9.787037,0.004948,0.003777,-0.001377,-0.080322,0.489746,-0.549316,-0.264041,3.18862,9.258828,0.010617,0.009861,0.00381,-0.830566,0.104492,-0.169434,-0.657042,3.885506,9.009984,0.004799,-0.001925,0.000777,0.11499,0.462158,0.838379,-0.238829,3.66997,9.145556,-0.009947,0.00089,0.0083,0.510254,-0.229248,-0.288086,-0.875832,3.025842,9.272336,0.006833,0.005189,-0.004526,0.359863,-0.138184,-0.62793
0.048882,-1.168473,9.76549,0.00277,0.001762,0.00102,-0.08374,0.489746,-0.54541,-0.271139,3.229163,9.27573,-0.015702,0.004902,0.004393,-0.831787,0.10498,-0.166016,-0.669229,3.883873,9.031306,-0.010831,0.010914,0.000245,0.105225,0.457275,0.840332,-0.23526,3.652347,9.140215,-0.008994,-0.001824,0.00995,0.510986,-0.22998,-0.290283,-0.853035,3.028454,9.288097,-0.002904,-0.009716,-0.00161,0.351562,-0.143555,-0.625244
0.049993,-1.175248,9.772711,-0.005704,-0.000925,-0.002258,-0.084717,0.484619,-0.543701,-0.251635,3.156635,9.257825,-0.022354,0.006324,0.006449,-0.834229,0.099365,-0.165527,-0.663963,3.867838,9.025686,-0.00445,0.000466,0.00193,0.106689,0.453125,0.8396,-0.227439,3.648037,9.151882,-0.000727,0.005946,0.010939,0.516357,-0.229004,-0.288574,-0.849773,3.007819,9.263212,0.00128,0.003348,-0.00289,0.352783,-0.145508,-0.62793
0.07293,-1.200953,9.78611,0.000406,0.001108,-3.8e-05,-0.083496,0.485107,-0.550049,-0.262997,3.163136,9.263251,0.007179,0.008854,0.002599,-0.833008,0.099365,-0.169678,-0.643695,3.882841,9.042295,-0.000856,0.007067,0.000303,0.114258,0.455566,0.840576,-0.244635,3.669443,9.13588,-0.005326,0.001499,0.009829,0.518799,-0.22583,-0.290527,-0.87863,3.01422,9.266516,0.002718,-0.002389,-0.00465,0.359375,-0.144775,-0.625244
0.038677,-1.170036,9.766321,0.001208,0.002707,-0.001731,-0.084717,0.484375,-0.546631,-0.277196,3.240227,9.262079,-0.011936,0.002563,0.003332,-0.833252,0.097168,-0.170654,-0.678865,3.883666,9.020099,-0.003664,0.007768,-0.000131,0.113525,0.456299,0.841553,-0.22815,3.657328,9.139828,-0.004558,5.1e-05,0.010683,0.521484,-0.225098,-0.280029,-0.847862,3.005339,9.28466,-0.002583,-0.002544,-0.003326,0.360107,-0.143555,-0.623779
0.069756,-1.195034,9.765177,0.000457,3.6e-05,-0.000504,-0.083496,0.487549,-0.538574,-0.275721,3.183341,9.240169,-0.023583,0.009059,0.006815,-0.83252,0.104492,-0.157227,-0.662206,3.881133,9.011491,-0.004609,-0.001222,0.002508,0.117676,0.458984,0.849854,-0.244508,3.671574,9.155841,-0.007512,0.004879,0.010614,0.516602,-0.227051,-0.28418,-0.866041,3.018889,9.283347,0.007697,0.005956,-0.004728,0.364746,-0.140381,-0.61377
0.061208,-1.172825,9.799226,0.00035,0.001872,-0.00038,-0.083496,0.485107,-0.547119,-0.274123,3.163065,9.256866,0.001094,0.004044,0.003467,-0.835205,0.101074,-0.171387,-0.665759,3.877991,9.028625,-0.007727,0.011316,0.001185,0.11499,0.457031,0.846924,-0.222281,3.664495,9.14894,-0.006065,0.000954,0.008549,0.514648,-0.219971,-0.293701,-0.873963,3.030171,9.281035,-0.004999,-0.008642,-0.001633,0.36084,-0.142578,-0.62085
0.05939,-1.18062,9.779094,0.003171,0.002562,0.000173,-0.082275,0.482178,-0.544922,-0.251046,3.222714,9.28349,-0.002516,0.00787,0.005091,-0.829346,0.094971,-0.166016,-0.669097,3.863329,9.027238,-0.002599,-0.000175,0.00119,0.113037,0.464111,0.837402,-0.22688,3.653309,9.141467,-0.004933,0.000738,0.009939,0.52417,-0.224121,-0.291016,-0.848387,3.017329,9.259654,0.000287,0.001738,-0.002532,0.355713,-0.134277,-0.627441
0.039819,-1.167395,9.793876,-0.002358,-0.000344,-0.000249,-0.08252,0.488525,-0.536133,-0.272168,3.192674,9.269843,-0.024707,0.007438,0.007708,-0.831543,0.10498,-0.157959,-0.656536,3.88894,9.026582,-0.003018,0.005467,0.001369,0.118652,0.460938,0.840088,-0.241319,3.659328,9.119216,-0.000279,0.004957,0.009141,0.517334,-0.224365,-0.289062,-0.878298,3.00271,9.291348,0.002363,0.000367,-0.00422,0.365479,-0.140869,-0.624268
0.079354,-1.192768,9.778063,0.002128,0.003088,-0.001931,-0.081299,0.490723,-0.546143,-0.26974,3.157701,9.25302,-0.004218,0.004218,0.002782,-0.829834,0.105469,-0.168213,-0.671935,3.879895,9.000725,-0.003456,0.004947,-0.000219,0.114746,0.460205,0.838867,-0.237829,3.677442,9.1655,-0.00784,-0.000266,0.009859,0.520264,-0.217773,-0.280762,-0.858208,3.014425,9.272904,0.005018,-0.001975,-0.003578,0.361572,-0.140869,-0.622314
0.038769,-1.189084,9.774528,0.000355,0.002182,0.000428,-0.083496,0.485352,-0.538574,-0.267777,3.211925,9.284276,-0.003399,0.009198,0.004172,-0.832031,0.098633,-0.162842,-0.664447,3.889846,9.015029,-0.005178,0.001922,0.000719,0.115479,0.462891,0.85083,-0.232406,3.650682,9.122238,-0.01233,0.001854,0.009984,0.516113,-0.225342,-0.289062,-0.859394,3.044278,9.294385,-0.000783,-0.000516,-0.003379,0.363525,-0.136963,-0.614502
0.057885,-1.180614,9.779104,-0.003396,0.000492,-0.001544,-0.088623,0.487549,-0.544678,-0.267903,3.186928,9.266146,-0.020711,0.004163,0.005786,-0.837158,0.100342,-0.164307,-0.671519,3.869437,9.006819,-0.007759,0.005963,0.001963,0.115967,0.458252,0.839111,-0.247453,3.653996,9.150971,0.000871,0.004663,0.009896,0.513184,-0.225586,-0.291504,-0.857944,3.013703,9.273163,-0.008671,-0.002824,-0.000595,0.36084,-0.142578,-0.624756
0.067221,-1.179937,9.778175,0.002714,0.002526,0.000677,-0.09082,0.484375,-0.544189,-0.261388,3.185461,9.261046,-0.002516,0.008845,0.004125,-0.838867,0.099854,-0.166504,-0.678748,3.882874,9.013415,-0.000289,0.001977,0.000379,0.107178,0.460449,0.840576,-0.234191,3.658063,9.160846,-0.004551,0.001896,0.009841,0.513672,-0.22876,-0.295654,-0.857953,3.013895,9.2731,0.010772,0.001356,-0.004167,0.354736,-0.139404,-0.624756
0.038783,-1.173677,9.801165,-0.000163,0.0026,-0.000219,-0.084717,0.486328,-0.546875,-0.282553,3.200669,9.271198,-0.008492,0.004548,0.00358,-0.833252,0.100098,-0.170166,-0.660698,3.88431,9.028272,-0.005239,0.005294,0.001062,0.111084,0.456787,0.833984,-0.23627,3.676796,9.126301,-0.005151,0.002153,0.010421,0.518555,-0.225098,-0.292236,-0.854511,3.026979,9.278503,-0.002207,-0.005004,-0.002043,0.358887,-0.145264,-0.632568
0.05649,-1.173152,9.785591,-0.000575,0.001181,-0.00099,-0.082031,0.486572,-0.543213,-0.24515,3.195632,9.256914,-0.014764,0.007495,0.004366,-0.831055,0.101318,-0.164795,-0.671915,3.880464,9.009499,-0.003606,0.004395,-0.000471,0.116211,0.459717,0.83667,-0.22643,3.658741,9.141402,-0.008431,0.001839,0.009595,0.515137,-0.225342,-0.286865,-0.857319,3.008896,9.285315,0.002566,0.001855,-0.003172,0.362793,-0.140137,-0.627441
0.065708,-1.179635,9.778221,0.001208,0.002707,-0.001731,-0.08252,0.483643,-0.540527,-0.286496,3.182654,9.252748,-0.007552,0.009063,0.004545,-0.833008,0.099854,-0.161133,-0.664974,3.890544,9.023714,-0.003746,0.006923,0.000161,0.114258,0.458252,0.839844,-0.239056,3.652812,9.13229,-0.005307,0.001426,0.009198,0.514404,-0.227539,-0.290771,-0.865444,3.025814,9.27062,-0.002218,-0.005153,-0.002899,0.360352,-0.143555,-0.621582
0.043505,-1.175326,9.75911,0.001382,0.000727,0.000106,-0.08667,0.481201,-0.533203,-0.249663,3.19232,9.271987,-0.008628,0.002099,0.00399,-0.833984,0.100586,-0.152832,-0.674085,3.878605,9.010137,-0.005559,0.001918,0.002216,0.111572,0.45752,0.84082,-0.217906,3.653001,9.15364,-0.003202,0.000261,0.010754,0.519775,-0.227051,-0.290283,-0.851815,2.985423,9.282028,0.000515,-0.001861,-0.002804,0.358154,-0.14624,-0.624023
0.057815,-1.178286,9.806632,-0.001551,0.001564,-0.001134,-0.090332,0.486328,-0.547607,-0.27188,3.193483,9.262409,-0.013311,0.010141,0.006552,-0.839355,0.10376,-0.167969,-0.659969,3.873933,9.018317,-0.005758,0.003931,-0.000237,0.119385,0.456055,0.838623,-0.227531,3.671276,9.14887,-0.002041,0.005579,0.009611,0.517822,-0.228271,-0.291504,-0.864615,3.020254,9.283036,0.005335,0.000209,-0.003543,0.364014,-0.143799,-0.625977
0.055886,-1.193763,9.779996,0.002139,0.003708,-0.000313,-0.080566,0.493164,-0.542236,-0.273356,3.191493,9.263051,-0.004177,0.006169,0.003781,-0.830078,0.105957,-0.161865,-0.678609,3.874807,9.027467,-0.000779,0.007909,2.1e-05,0.113037,0.454346,0.839111,-0.248176,3.671422,9.137803,-0.007258,-0.000446,0.00992,0.51123,-0.220215,-0.292969,-0.850165,3.034068,9.296468,-0.000225,-0.001784,-0.00276,0.362061,-0.144043,-0.627686
0.050537,-1.160239,9.757466,0.002241,0.001562,-0.001245,-0.087158,0.483643,-0.540527,-0.255995,3.203939,9.2582,-0.010207,0.00721,0.004679,-0.834717,0.099854,-0.162109,-0.668684,3.887076,9.024934,-0.003188,0.000698,0.001062,0.108154,0.464844,0.838867,-0.224695,3.657635,9.162686,-0.007258,-0.000445,0.00992,0.520508,-0.219971,-0.288086,-0.854864,3.012692,9.294244,-0.000784,-0.000517,-0.003378,0.355469,-0.135986,-0.625732
0.045386,-1.179482,9.793889,-0.003391,0.000801,-0.000736,-0.082031,0.486328,-0.543701,-0.280241,3.197609,9.277018,-0.01383,0.008124,0.006286,-0.829102,0.101562,-0.165527,-0.663256,3.88318,9.037591,-0.00843,0.005991,0.002125,0.117432,0.463135,0.842041,-0.237089,3.649461,9.144079,-0.00677,0.007346,0.011702,0.510986,-0.228516,-0.292969,-0.861181,3.032804,9.288611,0.001804,-0.003354,-0.003086,0.363281,-0.135986,-0.624756
