# sampling frequency: 40
# units are seconds/meters/radians/a.u.
seg1_acc_x,seg1_acc_y,seg1_acc_z,seg1_gyr_x,seg1_gyr_y,seg1_gyr_z,seg1_mag_x,seg1_mag_y,seg1_mag_z,seg2_acc_x,seg2_acc_y,seg2_acc_z,seg2_gyr_x,seg2_gyr_y,seg2_gyr_z,seg2_mag_x,seg2_mag_y,seg2_mag_z,seg3_acc_x,seg3_acc_y,seg3_acc_z,seg3_gyr_x,seg3_gyr_y,seg3_gyr_z,seg3_mag_x,seg3_mag_y,seg3_mag_z,seg4_acc_x,seg4_acc_y,seg4_acc_z,seg4_gyr_x,seg4_gyr_y,seg4_gyr_z,seg4_mag_x,seg4_mag_y,seg4_mag_z,seg5_acc_x,seg5_acc_y,seg5_acc_z,seg5_gyr_x,seg5_gyr_y,seg5_gyr_z,seg5_mag_x,seg5_mag_y,seg5_mag_z
0.402876,-0.783887,9.795354,-0.00625,0.006323,-0.000104,-0.043457,0.419922,-0.589111,-0.226309,3.489148,9.14695,0.034105,0.020401,-0.000839,-0.625488,0.032715,-0.497314,-0.306569,0.038439,9.827859,0.033999,0.011974,-0.0175,-0.401855,0.357422,0.780029,-0.160466,0.335955,9.840763,0.016371,-0.018156,0.010188,0.60376,0.101318,0.019775,-0.127327,-0.328032,9.776457,0.023448,0.003402,-0.011297,0.206055,-0.20459,-0.39209
0.404182,-0.853417,9.806886,-0.011996,-0.001862,-0.006432,-0.047607,0.422607,-0.589844,-0.290657,3.575341,9.186749,-0.021553,0.00078,0.007361,-0.630127,0.031006,-0.499023,-0.402088,0.149705,9.872128,-0.00964,0.009835,0.010158,-0.396729,0.344727,0.780762,-0.09242,0.387161,9.875629,0.000754,0.004007,0.009675,0.60791,0.092529,0.021484,-0.295747,-0.216763,9.846768,0.007836,0.018555,-0.000756,0.212891,-0.213379,-0.391846
0.428917,-0.862047,9.820703,0.008938,-0.000123,0.002399,-0.044678,0.412842,-0.595703,-0.196532,3.458888,9.143574,-0.028263,0.003041,0.004391,-0.629395,0.023193,-0.505859,-0.310579,0.046635,9.825053,-0.02295,-0.014514,0.005337,-0.390381,0.357666,0.780762,-0.140711,0.362043,9.854208,-0.015393,0.01309,0.010218,0.612793,0.104248,0.02002,-0.170268,-0.295852,9.764474,-0.018658,-0.039059,-0.000268,0.214844,-0.201904,-0.393311
0.413903,-0.783836,9.822215,0.018307,0.005033,0.004295,-0.037354,0.429932,-0.589355,-0.267919,3.492034,9.129234,0.014902,0.013971,0.00392,-0.620117,0.037842,-0.5,-0.33069,0.059707,9.852552,0.009946,0.023253,-0.003307,-0.391846,0.355469,0.775879,-0.132971,0.36434,9.853277,-0.010286,-0.009887,0.008271,0.613037,0.102051,0.011719,-0.158358,-0.318316,9.799724,0.007514,0.032331,-0.004714,0.21582,-0.208008,-0.398193
0.398113,-0.783804,9.778957,-0.011093,0.003879,-0.004305,-0.036133,0.429443,-0.589111,-0.244332,3.53144,9.176073,-0.018935,-8.2e-05,0.003376,-0.618896,0.03833,-0.497803,-0.406329,0.091069,9.868399,-0.007899,-0.003466,0.002307,-0.388672,0.358643,0.781738,-0.119504,0.322758,9.844641,-0.007716,0.011387,0.008617,0.615723,0.10791,0.02002,-0.321155,-0.272022,9.806601,0.001171,-0.008326,-0.001569,0.217773,-0.201416,-0.389648
0.411349,-0.844552,9.781962,-0.006978,-0.001091,-0.004534,-0.042236,0.419678,-0.594971,-0.235453,3.467838,9.113348,-0.010351,0.010352,0.005524,-0.626709,0.030029,-0.503418,-0.289142,0.083033,9.831773,0.003492,-0.00204,0.004705,-0.400391,0.352051,0.779297,-0.149994,0.369359,9.857573,0.018062,0.002779,0.011544,0.604248,0.097412,0.018066,-0.099899,-0.281527,9.745753,0.009844,-0.028179,-0.002355,0.208252,-0.20752,-0.392822
0.403942,-0.834328,9.828062,0.003333,0.004997,0.002628,-0.041992,0.419922,-0.592041,-0.255267,3.530012,9.17765,-0.004991,0.002845,0.004079,-0.624512,0.031738,-0.498047,-0.372076,0.102505,9.851571,-0.010329,0.018996,-0.0044,-0.397217,0.364258,0.769531,-0.136676,0.421261,9.854838,-0.010689,-0.007041,0.006938,0.608154,0.111572,0.009766,-0.226506,-0.23631,9.816967,-0.003071,0.040556,-0.004464,0.209717,-0.195801,-0.399658
0.415687,-0.831287,9.77999,0.006291,5e-06,-0.001389,-0.044434,0.42749,-0.590088,-0.230104,3.483999,9.148927,-0.017262,0.005979,0.006574,-0.625488,0.03833,-0.498779,-0.343176,0.041745,9.847062,-0.015413,-0.016208,0.012751,-0.387695,0.357666,0.780273,-0.123624,0.321269,9.831397,-0.035427,0.008003,0.010141,0.613281,0.104248,0.02002,-0.267662,-0.324237,9.813814,-0.020201,-0.033489,0.002666,0.215576,-0.205566,-0.393311
0.433163,-0.793345,9.819601,0.000686,-0.000445,0.001154,-0.043213,0.427734,-0.594727,-0.226109,3.523546,9.177097,0.003028,0.006001,0.001433,-0.625977,0.037842,-0.500732,-0.28076,0.083379,9.839867,0.013453,0.011461,-0.00806,-0.394043,0.351807,0.781738,-0.110153,0.321064,9.857096,0.020719,-0.002447,0.010356,0.611816,0.0979,0.022949,-0.081174,-0.307433,9.745041,0.019321,0.001126,-0.006575,0.212646,-0.21167,-0.391113
0.409872,-0.863165,9.852659,-0.011582,0.007351,-0.003736,-0.047363,0.432617,-0.59082,-0.256295,3.49944,9.146381,-0.024509,0.010376,0.006048,-0.629639,0.043457,-0.500488,-0.37375,0.08636,9.844942,-0.019076,0.014359,0.005268,-0.392334,0.35498,0.77417,-0.112059,0.396827,9.86085,-0.003497,0.005278,0.011985,0.614258,0.102051,0.015869,-0.299259,-0.260952,9.817207,0.000193,0.027531,-0.003502,0.212891,-0.208008,-0.397461
0.394993,-0.826548,9.759795,0.017483,0.007142,0.003884,-0.04541,0.419189,-0.585449,-0.279127,3.493174,9.109287,0.008884,0.004993,0.004375,-0.628906,0.030762,-0.492188,-0.373907,0.070765,9.829059,0.013983,-0.008171,0.001165,-0.394043,0.349854,0.774902,-0.180697,0.371796,9.857987,0.000125,0.0119,0.009188,0.609131,0.095703,0.019531,-0.220972,-0.268117,9.793609,0.010548,-0.042016,0.000287,0.211182,-0.211182,-0.396729
0.399185,-0.761772,9.741749,-0.007154,-0.004991,8e-05,-0.043457,0.43042,-0.592529,-0.21333,3.55883,9.185233,-0.015008,0.00021,0.002735,-0.625732,0.042236,-0.499023,-0.298418,0.131869,9.876489,-0.012625,0.006681,-0.003177,-0.396973,0.361328,0.783203,-0.124069,0.376451,9.868064,-0.020907,-0.019512,0.00937,0.604248,0.108887,0.021973,-0.12897,-0.252347,9.778165,-0.016948,0.020079,-0.007029,0.206787,-0.197998,-0.387939
0.462062,-0.870778,9.907386,-0.021697,-0.007616,-0.006932,-0.033447,0.423828,-0.588135,-0.215915,3.440953,9.151158,-0.033926,0.011691,0.008854,-0.618408,0.033447,-0.49707,-0.346431,0.022817,9.840364,-0.032223,0.004212,0.013122,-0.395752,0.358887,0.776123,-0.048944,0.29146,9.840112,-0.021094,0.007966,0.004961,0.605713,0.109131,0.014893,-0.284797,-0.355501,9.794188,-0.02063,0.003236,0.006203,0.209229,-0.199219,-0.398926
0.433396,-0.871833,9.866536,0.030987,0.011256,0.007188,-0.038574,0.42627,-0.582764,-0.270336,3.49159,9.139935,0.028738,0.006758,0.000686,-0.622803,0.036621,-0.491699,-0.340668,0.030356,9.827109,0.02918,0.005879,-0.011212,-0.391357,0.353027,0.782959,-0.173497,0.306609,9.812294,0.016284,0.025484,0.016046,0.614258,0.098633,0.021729,-0.172648,-0.377219,9.740228,0.034327,-0.017855,-0.014942,0.216797,-0.208496,-0.391357
0.395586,-0.717829,9.715388,0.003961,0.01177,-0.000922,-0.046631,0.419922,-0.597656,-0.218035,3.574636,9.149694,-0.016324,0.005438,0.003326,-0.630615,0.029297,-0.503662,-0.319031,0.185451,9.89175,0.02332,0.001504,0.004292,-0.388672,0.35083,0.773926,-0.174298,0.454119,9.904135,0.031724,-0.021478,0.004121,0.614258,0.093994,0.015625,-0.198987,-0.075422,9.862737,0.062738,0.010158,-0.004658,0.216309,-0.212158,-0.39624
0.390216,-0.826329,9.743415,-0.015151,-0.011806,-0.001898,-0.043213,0.424072,-0.591797,-0.294703,3.479952,9.094472,-0.033689,0.005437,0.006948,-0.625244,0.036865,-0.499023,-0.379775,0.134659,9.910939,-0.04497,0.010296,-0.002809,-0.400146,0.355225,0.77832,-0.02668,0.41884,9.853701,-0.080375,-0.013625,0.012291,0.606934,0.101807,0.018066,-0.209723,-0.444651,9.62461,-0.202641,0.015264,-0.010097,0.207031,-0.206787,-0.397217
0.395666,-0.831487,9.926266,-0.01068,0.005228,-0.006447,-0.040527,0.423584,-0.590088,-0.22001,3.454412,9.126854,-0.012074,0.000218,0.001232,-0.626221,0.032471,-0.498779,-0.347291,-0.05845,9.844629,0.013673,0.002787,0.016008,-0.392822,0.359375,0.777588,-0.166374,0.228914,9.807559,0.002759,0.066474,-0.000318,0.611084,0.10498,0.017334,-0.280137,-0.762412,9.963824,-0.0395,0.008625,-0.038479,0.212158,-0.202637,-0.39624
0.464074,-0.887251,9.821963,0.01178,0.021021,0.005746,-0.03418,0.436523,-0.591797,-0.236149,3.586804,9.230113,0.019863,0.020802,0.004486,-0.617676,0.044922,-0.501465,-0.298082,0.156808,9.742123,-0.041816,0.00298,-0.024456,-0.395752,0.351074,0.780029,-0.221107,0.415775,9.817046,0.022562,-0.03453,0.022301,0.608398,0.098633,0.020264,-0.243639,-0.66689,9.575405,0.214587,-0.026376,-0.240209,0.211914,-0.209961,-0.397705
0.350263,-0.773537,9.692978,0.014562,-0.002843,-0.000952,-0.038086,0.422363,-0.599121,-0.294177,3.481428,9.094055,-0.045316,-0.008943,0.012536,-0.620605,0.032471,-0.507812,-0.407692,0.127952,9.889283,-0.028199,0.008154,0.02242,-0.392578,0.354004,0.781006,-0.047129,0.423239,9.980896,-0.034598,-0.01042,-0.006985,0.613281,0.103516,0.020752,-0.141662,0.842408,9.964813,0.312074,-0.031847,-0.034595,0.216064,-0.211914,-0.390625
0.813531,-1.117584,10.52828,-0.134557,-0.002578,0.038142,-0.043701,0.432617,-0.583984,-0.177132,3.508241,9.167955,-0.006474,0.000358,-0.010144,-0.626953,0.041504,-0.494141,-0.276108,0.126037,9.798568,0.014947,-0.032142,-0.016118,-0.390869,0.356201,0.776123,-0.122696,0.427256,9.92115,-0.03054,0.017707,0.026254,0.615967,0.102783,0.014893,0.019362,0.311962,9.912721,-0.536415,0.028162,0.044736,0.219482,-0.204346,-0.397461
0.503957,-1.196837,9.478648,0.230799,0.181269,0.306217,-0.039795,0.432373,-0.598633,-0.230467,3.576227,8.945572,-0.043688,0.053788,-0.004962,-0.627441,0.040771,-0.505859,-0.269035,-0.043347,9.816445,-0.100825,0.050675,0.026638,-0.394287,0.35083,0.781494,-0.194173,0.286102,9.860709,-0.101141,0.029111,0.000753,0.611328,0.100342,0.019287,-0.445115,-1.318348,9.683193,-0.164638,0.131536,0.039739,0.216797,-0.205811,-0.393555
-0.299708,0.368528,9.79336,-0.053462,-0.048483,0.074118,-0.040771,0.422852,-0.594727,-0.386969,3.459778,9.56102,0.067172,-0.040836,-0.005343,-0.627197,0.032715,-0.50293,-0.506938,-0.236697,9.755263,-0.002023,-0.035533,-0.010691,-0.394043,0.35376,0.778076,-0.12391,-0.027644,9.7716,-0.016439,-0.022794,0.005226,0.608887,0.101807,0.018799,-0.496947,-0.718603,9.632101,0.375203,-0.158896,-0.049425,0.212402,-0.205322,-0.395996
0.718436,-1.392305,9.38478,-0.271195,0.062702,0.022386,-0.036377,0.434814,-0.591064,-0.185255,3.469848,8.789727,-0.080725,0.028033,-0.016348,-0.625,0.036377,-0.500488,-0.248166,0.153989,9.919938,0.160427,0.014189,-0.002291,-0.400391,0.35498,0.783691,-0.181183,0.305931,9.845151,0.19072,0.018758,0.018175,0.602783,0.100342,0.02002,0.164571,0.49355,10.129922,0.128379,0.009748,-0.047346,0.207764,-0.206787,-0.392334
-0.022013,-0.617588,10.081713,0.138987,0.0092,-0.026851,-0.032227,0.424805,-0.595703,-0.273446,3.472887,9.18697,0.115534,-0.039776,-0.008391,-0.623291,0.03125,-0.501221,-0.352299,0.39556,9.907442,-0.027085,0.021254,-0.011153,-0.392334,0.355713,0.780029,-0.154337,0.789851,9.904149,0.067639,-0.034645,0.012972,0.610352,0.102295,0.016846,-0.376244,-0.486951,9.619496,-0.404239,0.045127,0.01735,0.216309,-0.203369,-0.395508
0.9577,-1.46129,10.0555,-0.229432,0.04311,-0.035578,-0.028809,0.426025,-0.591309,-0.208298,3.665656,9.285116,-0.14526,0.036879,0.00785,-0.61499,0.028564,-0.498291,-0.362425,-0.079091,9.845469,-0.119676,-0.016799,0.03295,-0.389893,0.359375,0.779785,-0.058194,0.399059,9.900407,-0.195914,0.03461,-0.00677,0.613037,0.105957,0.018555,-0.254398,-1.073839,9.79919,0.186217,-0.054146,-0.126422,0.219482,-0.200195,-0.394287
0.208301,-1.158978,10.29382,0.292754,0.070623,0.229282,-0.031494,0.438965,-0.59375,-0.129646,3.286356,9.068716,0.114203,-0.053207,-0.036028,-0.624268,0.043213,-0.5,-0.147995,-0.352981,9.79902,0.016205,-0.032687,0.0001,-0.390137,0.363037,0.780518,-0.059898,-0.271349,9.706736,-0.097038,-0.037506,0.021959,0.612305,0.114502,0.018799,-0.076313,-0.22168,9.808174,0.067736,-0.036421,-0.101368,0.219727,-0.193604,-0.395508
0.360409,-0.357349,9.261331,0.019237,0.080756,0.201318,-0.031494,0.43335,-0.593506,-0.311509,3.942314,8.885156,0.098372,0.116322,-0.031171,-0.626221,0.036865,-0.498779,-0.436323,-0.017692,9.954487,0.355392,0.103008,-0.010354,-0.393799,0.36377,0.775635,-0.109355,0.093556,9.849508,0.470964,0.100707,-0.000384,0.614258,0.104736,0.016113,-0.316239,-0.977805,9.92989,-0.095413,0.028649,-0.203426,0.218262,-0.201416,-0.399658
-0.15549,0.316063,9.709373,-0.021431,0.111935,-0.05221,-0.028076,0.431396,-0.59668,-0.655255,3.579496,9.473455,-0.182424,-0.131627,-0.05159,-0.625244,0.035889,-0.503906,-0.596955,0.747649,9.818545,0.0367,-0.084144,-0.038881,-0.38916,0.35498,0.770508,-0.562887,1.118822,9.856443,0.129332,-0.008632,0.052019,0.614502,0.095703,0.008789,-0.585125,-0.92307,10.158033,0.239334,-0.058918,-0.368182,0.223877,-0.209473,-0.410156
0.561543,-0.901795,10.088665,-0.701192,0.053925,-0.021662,-0.031738,0.443604,-0.592041,0.18515,3.055486,8.824968,0.027672,0.037358,0.008186,-0.630127,0.037842,-0.503174,0.013515,-1.01509,9.528841,-0.024985,0.009856,0.146047,-0.397705,0.361816,0.772217,-0.114839,-0.493994,9.952691,-0.265267,-0.087138,-0.064263,0.605469,0.101807,0.01001,-0.828678,-0.463538,10.97369,0.413613,-0.218062,-0.288915,0.216553,-0.204834,-0.412109
0.285457,-0.352168,10.398119,-0.144385,0.150604,-0.019079,-0.023926,0.440918,-0.594238,-0.327623,3.852185,9.615307,0.137714,-0.024058,-0.09856,-0.623535,0.025879,-0.502441,-0.180912,-1.932941,9.352385,1.027999,0.101092,-0.088282,-0.401123,0.372314,0.771973,0.209157,-2.374531,9.049589,0.773082,-0.035398,0.01092,0.611084,0.09082,0.013916,-0.592783,-1.086242,9.883317,0.577519,-0.564912,-0.087241,0.215576,-0.213379,-0.4104
0.201511,-0.297647,10.008329,-0.819579,0.140196,-0.270585,-0.027588,0.468994,-0.585205,-0.191312,3.31039,8.942039,-0.24446,0.040313,0.061047,-0.624268,0.046387,-0.5,-0.671029,0.762732,9.78506,2.067466,0.154395,-0.090573,-0.40332,0.404053,0.759521,-0.239552,0.240543,9.473535,2.609722,0.044338,-0.011417,0.619629,0.091553,0.006104,0.407621,-1.007883,8.715536,1.411859,-0.705773,-0.104943,0.216309,-0.222412,-0.412109
0.087716,-0.566791,9.77132,-0.622058,0.193478,-0.203064,-0.024658,0.473389,-0.579834,-0.37163,2.88947,9.213778,0.0578,-0.009589,-0.013072,-0.627197,0.037598,-0.494873,-0.59791,4.540889,10.726656,0.98688,-0.042059,-0.124437,-0.397461,0.415771,0.753662,-0.332392,5.772536,11.014599,1.734917,-0.080625,0.04128,0.630127,0.07959,0.0,0.862614,1.728512,9.986607,1.217745,-0.18616,-0.565647,0.225342,-0.238037,-0.418213
0.442136,-0.209064,10.195784,-1.501841,0.170521,-0.245402,-0.016846,0.500488,-0.568115,-0.179892,4.062764,8.773396,0.272256,0.039547,0.04295,-0.623535,0.032959,-0.492188,-0.055926,0.260484,9.434926,-0.601363,-0.083537,0.398087,-0.391113,0.408936,0.761719,0.282844,2.605,10.029885,-1.416975,0.018081,-0.162981,0.625732,0.084473,0.008789,-0.391768,1.03323,10.251562,-0.051323,-0.177899,-0.259904,0.226318,-0.236572,-0.416748
0.020462,-0.400424,9.63326,-1.714345,0.240811,-0.128146,-0.023193,0.525879,-0.562012,-0.286346,4.2484,9.556313,-0.270415,-0.015009,-0.064788,-0.632812,0.032471,-0.498779,-0.430126,-1.277472,8.849985,1.412259,0.051155,-0.155988,-0.392334,0.425293,0.748779,-0.196453,-2.615896,8.103256,0.39611,0.245017,-0.087434,0.630371,0.083252,0.00708,0.404435,-0.72558,9.134201,0.788661,-0.650241,-0.362114,0.22998,-0.244873,-0.424072
0.219273,-0.205258,9.635097,-2.780486,0.170925,-0.304054,-0.004395,0.57251,-0.536133,-0.24735,2.927046,8.748981,-0.166576,0.00197,0.009232,-0.618408,0.032959,-0.497314,-0.120411,3.076643,10.17786,1.39734,0.136072,-0.118306,-0.405762,0.448975,0.746826,-0.828462,0.977798,9.808937,2.385165,-0.234691,0.167245,0.631592,0.076904,0.00293,0.531479,1.429606,9.868696,1.195388,-0.13688,-0.555635,0.226318,-0.256104,-0.419189
-0.110724,-11.84522,7.226781,-3.549127,0.211137,-0.105492,-0.018311,0.636719,-0.514893,-0.196613,3.534439,9.868891,0.221609,-0.030098,-0.120939,-0.635498,0.035645,-0.509766,-1.038437,2.133161,10.236811,0.188686,0.007311,0.100921,-0.409424,0.456543,0.741699,0.779444,4.843465,10.917014,1.191785,-0.253086,-0.08876,0.628174,0.078613,-0.006348,0.119881,1.823254,9.959096,0.479216,-0.58151,-0.170352,0.217285,-0.253662,-0.431152
0.716252,-8.593342,7.528153,3.539405,0.023052,0.686408,-0.000244,0.588867,-0.535645,-0.270302,3.516207,8.286939,-0.064244,0.088935,0.033702,-0.622559,0.041992,-0.494873,-0.080989,0.125247,8.80149,1.016515,-0.13552,0.057002,-0.405029,0.472656,0.749023,0.164975,2.231134,9.391561,-0.280394,0.511642,-0.024718,0.62793,0.079102,0.018066,0.921736,-0.238566,9.430871,0.615896,-0.243616,-0.376511,0.21875,-0.258789,-0.416016
-1.178722,5.967454,12.483505,0.317242,0.607491,-0.386692,-0.003174,0.570801,-0.551758,-0.61172,3.673718,9.54253,-0.025166,-0.139689,-0.050321,-0.629639,0.030762,-0.503662,-0.548261,2.899214,10.148635,1.60922,0.129328,-0.184796,-0.406982,0.482422,0.725342,-1.603528,-0.185885,8.712975,0.975347,0.03213,-0.053693,0.637451,0.067139,0.001953,-0.534387,0.366375,10.259185,1.192643,-0.421677,-0.52373,0.223633,-0.282227,-0.430664
1.254835,-4.327602,9.63456,-2.310347,-0.147355,0.063853,-0.007324,0.610107,-0.521484,0.399151,2.69294,9.349296,-0.29665,0.079335,0.132076,-0.634277,0.037109,-0.497559,-0.346855,1.885722,9.236345,0.974875,-0.080638,0.174886,-0.405518,0.510498,0.720947,0.484742,1.349497,9.618976,2.268302,-0.501219,-0.023164,0.643555,0.070801,-0.006836,0.468937,-0.266102,9.927955,1.143912,-0.787066,-0.748342,0.223389,-0.279541,-0.436523
-0.941598,-7.155184,7.953138,0.857122,0.76278,0.048274,0.013184,0.593018,-0.543457,-0.778821,3.805848,8.508856,0.642661,0.054691,-0.088312,-0.624756,0.026855,-0.505859,-0.098725,0.472048,8.992732,1.822369,0.010417,-0.053191,-0.40625,0.536377,0.715088,0.915676,3.7198,9.448426,2.085395,0.319564,-0.051859,0.655273,0.062256,0.004395,0.919329,0.897593,8.576881,2.334932,-0.692178,-0.779685,0.227295,-0.310547,-0.428711
-0.022994,0.349931,11.146121,0.205942,0.115119,0.265605,0.020996,0.584717,-0.537354,-0.185576,4.358206,9.709622,-0.504802,-0.11001,0.054509,-0.623535,0.028076,-0.494873,-1.34962,6.228387,9.572812,2.921461,0.135,-0.383317,-0.420166,0.583496,0.687256,-1.432835,5.108879,8.899212,2.102194,0.334809,0.054629,0.658936,0.057129,-0.003174,0.993365,4.907469,8.3705,2.714043,-0.884652,-0.951428,0.224854,-0.335938,-0.428955
-0.004616,-3.626156,10.229506,-1.280525,0.811778,-0.071481,0.02832,0.613525,-0.541992,-0.301626,2.574133,8.740092,-0.014058,0.043543,-0.119289,-0.623291,0.036621,-0.507812,-0.017229,8.748553,10.205118,-0.682414,-0.461177,0.206914,-0.405762,0.557617,0.687744,-0.380089,9.165753,9.334673,0.830467,-0.541924,0.087952,0.662354,0.043457,-0.016846,2.968864,8.455445,8.6945,0.255917,-0.263172,-1.097381,0.236084,-0.348633,-0.43457
-0.068469,-5.477128,9.588932,-0.151665,0.460111,0.453195,0.040039,0.624023,-0.535156,0.066553,4.006129,9.329033,0.257785,-0.031846,-0.013098,-0.627441,0.037354,-0.502197,0.458904,0.783136,7.451846,-1.467443,0.116132,0.41341,-0.401123,0.537598,0.707031,1.292181,4.230512,8.455629,-2.297184,0.228921,-0.117206,0.652344,0.049072,-0.000244,0.451163,2.710175,9.156513,-1.989621,0.377433,-0.614561,0.242188,-0.318359,-0.442871
-0.880111,-2.736561,9.88388,0.017598,1.002784,0.191043,0.053711,0.614014,-0.537109,-0.589638,3.724626,9.442774,-0.310461,0.097447,-0.017566,-0.625488,0.030762,-0.498779,-0.852145,1.285712,8.403916,1.12474,0.199215,-0.4538,-0.412598,0.551758,0.697021,-1.731093,-0.6037,7.453212,-0.44182,0.49965,0.089022,0.655029,0.046631,0.006348,-0.556155,0.397359,9.140201,0.676927,-0.458175,-0.886398,0.24585,-0.326172,-0.445801
-0.775691,-4.983635,9.233444,-0.014374,0.585358,0.19086,0.070068,0.616943,-0.546143,-0.009589,2.306042,9.173931,-0.120048,-0.123832,0.085876,-0.618652,0.037354,-0.502441,-0.065028,6.424342,10.566014,0.27747,0.029145,0.033356,-0.416016,0.569092,0.699951,-1.198797,3.416461,9.796442,1.912633,-1.091345,0.066713,0.657959,0.050049,-0.009033,1.94607,6.52905,9.141126,1.376928,-0.698608,-0.557055,0.240967,-0.330811,-0.439453
-0.653698,-3.291574,10.028056,0.903957,1.144268,0.300894,0.088379,0.598877,-0.555908,-0.237569,3.537347,8.793963,0.475985,0.171117,-0.081362,-0.623291,0.027588,-0.501709,-1.00751,3.293264,9.872749,-1.232357,0.139643,0.106583,-0.41626,0.546143,0.709961,2.857066,8.050855,10.494461,0.416768,-0.312899,-0.013609,0.653564,0.050049,-0.014893,2.58224,6.116812,9.186675,-1.295128,0.102241,-0.085316,0.240967,-0.31665,-0.448242
-1.088913,-4.337651,10.06285,0.699503,0.959412,0.039508,0.099854,0.587402,-0.564941,-0.414255,3.990546,9.835674,-0.302857,-0.103607,0.138518,-0.623535,0.032227,-0.496582,-0.280868,0.480815,8.346631,0.456703,-0.335945,0.221292,-0.403564,0.55249,0.702148,-0.42058,4.515762,9.032845,-1.665498,1.073281,0.161434,0.653564,0.05127,-0.001953,0.23778,0.161599,9.317444,-1.036368,0.364796,-0.444452,0.252686,-0.299805,-0.457764
-1.473069,-4.202083,10.27426,1.334043,1.38019,0.377454,0.119385,0.555664,-0.57373,-0.436216,2.598827,8.986675,-0.11634,0.178885,-0.088898,-0.626221,0.030029,-0.494629,-0.236163,4.728018,9.794705,1.019388,0.280015,-0.268812,-0.414551,0.566406,0.691895,-2.72717,0.250567,9.102372,-0.227765,-0.281148,0.001567,0.645508,0.051758,-0.005859,-0.350922,1.730834,10.407241,1.549594,-0.455454,-0.54537,0.250977,-0.318604,-0.448975
-1.333865,-2.462625,10.424455,1.247821,1.356888,0.266696,0.147705,0.531494,-0.592529,-0.6771,3.199153,8.975038,0.302226,-0.130449,0.031242,-0.621094,0.022461,-0.49585,-1.150862,4.536943,9.772654,-0.45005,-0.154713,0.35137,-0.396973,0.562744,0.687012,1.049509,3.24866,9.380291,1.838897,-0.910092,0.197968,0.65332,0.048584,-0.026367,1.741818,6.132822,11.291856,0.712131,-0.490536,-0.541763,0.258545,-0.318115,-0.457275
-2.760565,-0.932782,9.861911,0.669665,1.62581,0.207829,0.168457,0.520996,-0.60498,0.367442,4.250858,8.824058,-0.05116,0.080983,-0.018463,-0.623291,0.0271,-0.505127,0.236656,1.996987,8.388924,0.115005,-0.249074,0.107094,-0.399902,0.556152,0.6875,0.878971,7.628491,10.053078,0.746529,0.247474,0.154173,0.641357,0.041504,-0.021484,1.331905,4.842893,9.8446,-0.676286,-0.148654,-0.100913,0.249756,-0.307373,-0.459717
-1.067543,-1.911021,8.499853,0.295993,1.341956,0.330412,0.200684,0.513428,-0.602539,-0.568056,3.504134,9.209438,-0.030466,-0.026604,0.154247,-0.617188,0.029053,-0.499756,-0.263379,4.228657,9.567575,0.775372,0.149404,-0.068927,-0.40332,0.566406,0.679443,-1.031337,4.970203,9.227778,-1.387939,-0.158764,0.151762,0.62793,0.038818,-0.021729,1.058454,2.122717,8.642709,-0.352316,-0.326578,-0.354141,0.249756,-0.297119,-0.464111
-3.709524,-0.686168,9.685194,0.024912,1.697592,0.332562,0.223877,0.508057,-0.594238,-0.185171,4.228296,9.2489,-0.001301,0.073573,-0.220903,-0.618896,0.023193,-0.489014,-0.679924,4.311842,9.109454,-0.039891,-0.243985,0.340382,-0.401855,0.570801,0.680664,0.599093,1.024045,7.674682,-0.059839,-0.462081,0.126824,0.614014,0.04541,-0.024414,0.958756,2.876147,9.001869,0.83734,-0.24834,-0.338721,0.240967,-0.29541,-0.456055
-3.29993,-1.546883,7.774521,-0.859446,1.458158,0.480479,0.248291,0.519775,-0.597168,-0.746974,3.400174,9.46124,-0.294713,-0.05867,0.015273,-0.623047,0.024658,-0.500488,0.237984,2.962041,8.425377,-0.000334,-0.006208,0.083985,-0.395508,0.567383,0.680908,-0.005448,3.830508,9.215001,1.439523,-0.039319,0.304647,0.614502,0.0354,-0.026123,0.480626,4.964223,10.508319,0.237903,-0.445345,-0.336634,0.242432,-0.294678,-0.457275
-4.25271,-2.139198,7.613153,-0.677876,1.117188,0.283983,0.270752,0.524902,-0.591309,0.212204,2.464975,9.225252,-0.046459,0.129943,-0.089848,-0.619629,0.017822,-0.508789,-0.826385,3.585503,9.572258,0.377732,0.074247,0.080118,-0.405029,0.5625,0.682373,-0.662908,6.049123,10.146493,-0.06162,-0.489289,0.127406,0.600098,0.025635,-0.022705,1.63087,3.206297,9.307547,-0.71586,-0.484201,0.066576,0.225098,-0.288818,-0.458496
-3.422686,-3.307021,8.321468,-0.955883,1.373087,0.308121,0.296387,0.544189,-0.572754,-1.443163,3.33442,9.286904,0.317787,0.003426,0.005084,-0.612549,0.019531,-0.500244,-0.777978,3.611796,9.733954,0.217245,-0.16554,0.120552,-0.403809,0.567871,0.674316,1.195887,2.852972,9.830614,-0.637996,-0.538122,0.076167,0.58667,0.029541,-0.030762,0.835005,1.6092,9.205416,0.22124,-0.125905,-0.080716,0.223877,-0.280029,-0.463867
-4.696653,-3.894747,7.434293,-0.227899,1.188865,0.383939,0.312744,0.546143,-0.569336,0.809372,3.74397,9.316958,-0.122144,-0.016769,0.074775,-0.61792,0.021973,-0.500977,-0.245602,3.268839,9.830144,0.805006,-0.341686,0.217978,-0.383789,0.573242,0.653809,1.07759,2.346339,9.716205,1.436535,0.03897,0.158887,0.594727,0.025146,-0.040283,1.718637,3.193626,9.773154,1.339193,-0.710886,-0.004357,0.229004,-0.289551,-0.467285
-5.479778,-0.975537,7.854342,-0.276131,1.199091,0.238621,0.334717,0.551514,-0.55835,-1.457222,2.838669,9.954201,-0.261414,0.373401,0.123583,-0.609619,0.029541,-0.503906,-0.592711,3.626072,9.29986,1.015806,-0.217123,0.121302,-0.387207,0.576416,0.63916,-0.190945,5.731694,10.21922,1.709779,-0.01167,0.17959,0.575928,0.010498,-0.040771,2.059631,3.709915,10.184535,0.671746,0.043693,-0.206741,0.224854,-0.298096,-0.46167
-6.117083,-3.02995,5.987311,-1.563471,0.747779,0.23116,0.352783,0.570312,-0.543457,-1.154856,1.796236,9.112458,-0.020306,-0.09532,0.05591,-0.602051,0.02124,-0.508057,-1.301357,3.196421,9.265148,0.97818,-0.500139,0.376832,-0.380859,0.587402,0.625732,-0.509507,5.494775,10.029984,0.394564,-0.100929,0.169842,0.55835,0.007812,-0.039551,-0.726412,3.326433,9.86373,1.201461,-0.158964,-0.201772,0.220947,-0.301758,-0.456299
-4.541663,-5.846695,5.110427,0.460534,0.619718,0.22737,0.351562,0.563477,-0.550293,-0.81987,3.005847,8.025519,0.564498,0.328661,0.259806,-0.607178,0.017334,-0.516602,-0.463905,4.741352,7.762927,1.83793,-0.608904,0.042518,-0.382568,0.589844,0.606689,-0.606368,3.060503,8.0496,0.394788,-0.161252,0.258845,0.541992,-0.008789,-0.034912,0.816416,5.258656,10.235241,1.298316,-0.653652,-0.118584,0.2146,-0.321289,-0.452393
-4.710641,-0.753806,7.444054,0.565923,1.103345,-0.035694,0.370117,0.554443,-0.540771,-1.965013,5.335911,8.827308,0.469816,-0.097427,0.404789,-0.604736,0.015137,-0.510254,-0.029898,7.706345,8.450827,0.992245,-0.259627,0.015056,-0.394775,0.597656,0.58374,-0.609296,3.928353,8.042364,1.755811,-0.484842,0.01749,0.522949,-0.008301,-0.04248,0.747008,4.535991,9.552179,0.265641,-0.218522,0.449869,0.199707,-0.314941,-0.458496
-5.903462,-1.81929,7.842033,-0.517277,0.919661,0.094091,0.383789,0.557373,-0.541016,-0.280922,4.158077,9.022106,-0.897857,-0.00984,0.411434,-0.5979,0.021973,-0.522949,-0.689307,4.771006,8.754321,0.042824,-0.431714,0.316451,-0.391602,0.586426,0.575928,0.467286,7.521515,8.419663,1.656526,-0.657748,0.194295,0.515869,-0.012207,-0.036377,0.714456,3.961691,8.480394,1.157277,-0.786809,0.059615,0.193848,-0.321045,-0.448486
-7.45385,-1.742613,7.429333,-0.126336,0.812367,0.305884,0.396729,0.54834,-0.526123,0.021716,3.881889,9.081524,0.792586,-0.353239,0.125974,-0.600342,0.006836,-0.508545,1.645579,5.413877,6.966971,1.342117,-0.765633,-0.07727,-0.393555,0.5896,0.550049,1.365867,7.683698,6.78085,-0.146037,-0.651652,0.060792,0.50293,-0.01001,-0.042236,3.074391,6.293107,7.976212,0.802446,-0.771455,0.201292,0.185547,-0.327393,-0.456055
-5.172372,-2.16605,7.70486,-0.661345,0.059573,0.47434,0.407227,0.562744,-0.527832,0.701721,6.974619,9.933579,0.245407,0.312848,0.114005,-0.587158,0.009766,-0.525879,1.983171,9.474345,9.756182,0.207969,0.231676,-0.099863,-0.406738,0.581787,0.525635,1.924844,6.909015,7.217233,0.229865,-0.426178,0.071083,0.486816,-0.010986,-0.050049,2.865445,6.63842,8.167339,-0.272206,-0.437563,-0.049293,0.174316,-0.31958,-0.462646
-5.469108,-3.200758,7.988302,0.003061,0.551279,0.546289,0.41626,0.554688,-0.522949,-2.469283,3.321782,9.639951,-1.322908,-0.476752,-0.103473,-0.589355,0.020996,-0.525635,-0.730674,6.699074,10.072229,-1.893684,-0.152067,0.521917,-0.400879,0.525146,0.520752,0.865007,10.320272,9.147955,0.335457,-0.414162,0.592302,0.462158,-0.025635,-0.049316,2.310774,7.335169,8.542264,-0.534311,-0.52032,-1.062258,0.171875,-0.313965,-0.466064
-5.271429,-2.582822,7.270021,0.054035,0.594967,0.55606,0.432373,0.556885,-0.521973,1.503435,3.360311,10.165738,-0.456924,-0.380065,-0.121915,-0.584961,0.029053,-0.519775,1.517497,5.319798,9.261443,-1.278948,-0.456009,0.332861,-0.402832,0.497559,0.502197,1.692273,10.938215,9.239079,-2.551454,-0.605476,0.421285,0.415527,-0.011963,-0.060791,2.607473,8.165719,8.795005,-1.930028,-0.514208,-1.073231,0.158691,-0.27002,-0.476807
-7.149623,-2.951589,7.60906,0.055506,0.764358,0.229303,0.44873,0.553223,-0.516602,-0.659914,2.540826,11.600838,-2.209513,-0.441044,0.324621,-0.578613,0.060547,-0.51709,1.423785,5.993046,9.838454,-2.063646,0.058961,0.194789,-0.395264,0.442139,0.478516,2.915215,1.667569,9.081035,-5.366803,-0.246638,0.40106,0.381836,-0.004639,-0.066895,3.139197,2.285336,8.173476,-4.029997,-0.323931,-0.900429,0.15918,-0.213379,-0.495117
-9.183683,-1.867294,8.554045,-0.092191,0.496121,-0.086128,0.455566,0.549316,-0.513916,2.575335,-4.885131,8.422607,1.123568,-0.369807,0.220644,-0.572754,0.036865,-0.518311,0.758457,1.085838,8.343738,-1.619392,-0.383562,0.329913,-0.383545,0.409668,0.448975,2.303087,-5.827185,7.279835,-0.566253,0.104555,-0.103633,0.361084,-0.00293,-0.073486,2.924492,-3.508778,7.433523,-0.707695,-0.121657,0.145815,0.155518,-0.194092,-0.502441
-7.373852,-3.091183,8.077631,-1.068027,-0.203057,-0.005634,0.444336,0.563477,-0.498535,0.043527,3.328604,10.385486,5.618102,0.4597,0.237477,-0.574951,-0.037109,-0.513672,1.700515,3.171961,9.710287,0.905487,-0.294955,-0.335815,-0.391602,0.388672,0.405762,1.170072,4.625933,9.754049,3.664762,-0.414299,0.324405,0.335693,-0.022705,-0.086426,1.892212,3.214507,10.185363,1.77505,-0.292861,-1.05535,0.144531,-0.213135,-0.498047
-6.746784,-4.484129,7.136892,0.058665,0.111293,-0.018812,0.45166,0.567871,-0.500488,-0.102564,9.906135,9.586417,3.1538,-0.074148,0.393942,-0.565674,-0.071045,-0.504639,1.243284,5.103233,11.698701,0.649788,-0.073315,0.079444,-0.380371,0.37085,0.36499,2.482258,9.249926,12.004118,0.268949,-0.588407,-0.291982,0.313477,-0.025635,-0.095215,3.486029,5.630928,11.058633,0.55975,-0.436816,0.530466,0.134766,-0.217773,-0.497559
-7.374388,-2.170642,7.227152,0.226171,0.083665,0.040325,0.453369,0.544189,-0.501221,-1.773427,7.856948,8.988287,2.750608,-0.1975,0.312188,-0.55957,-0.12207,-0.49707,-0.032735,4.460981,12.544351,0.815877,-0.1804,0.018411,-0.366699,0.338135,0.303223,3.00179,4.904605,11.755894,-0.544511,0.280826,-0.004789,0.285645,-0.041748,-0.108643,2.370585,4.325405,9.829549,0.652115,0.031002,-0.544596,0.134521,-0.224609,-0.497314
-7.513247,-2.910427,6.833499,0.311272,-0.281538,0.393652,0.450195,0.537109,-0.498535,-0.25716,11.959747,10.858786,-0.130579,-0.474493,-0.112028,-0.550537,-0.124023,-0.488525,0.445939,5.818247,12.337034,0.920355,-0.580227,0.14935,-0.354492,0.296143,0.24707,0.456991,4.884673,9.682477,1.596598,0.359269,0.155961,0.255371,-0.062744,-0.121582,2.194585,6.639385,9.34224,1.48504,0.120402,-0.252198,0.130127,-0.240234,-0.492188
-6.845639,-1.615192,7.373705,0.464209,0.125108,0.380871,0.456299,0.523193,-0.507324,-1.61871,4.961518,9.727098,-2.082895,-0.868933,0.29478,-0.539551,-0.100098,-0.494873,1.173568,6.864512,11.074824,-0.511809,-0.348538,0.21912,-0.3479,0.247803,0.186768,1.342824,9.437298,11.120076,0.517285,-0.226999,0.139966,0.216064,-0.073242,-0.141602,1.575277,8.439238,9.430238,-0.613222,-0.089594,-0.479267,0.120117,-0.226074,-0.500488
-8.660658,-1.631995,8.233601,-0.82706,0.015403,0.115685,0.457764,0.535889,-0.484863,2.946945,3.138876,9.487158,0.056607,-0.868916,-0.181949,-0.529297,-0.109863,-0.474609,1.211744,4.941152,9.323321,-0.902579,-0.338851,0.321076,-0.337402,0.191162,0.130127,3.481348,7.162207,9.240602,-2.220738,0.245813,0.21906,0.178711,-0.084717,-0.158203,3.938613,3.931603,7.472998,-2.123841,0.327381,-0.350064,0.11377,-0.200439,-0.507324
-8.107026,-6.16472,6.498562,-1.045676,-0.474553,-0.408923,0.44751,0.552002,-0.486816,0.353189,5.64276,11.170804,0.161702,0.012661,0.53417,-0.513672,-0.107666,-0.485596,1.60564,4.252569,8.798542,-0.244344,-0.559964,0.126393,-0.326416,0.156982,0.070068,1.823456,0.946699,7.672095,-1.733525,1.202412,-0.147719,0.151855,-0.083496,-0.184326,1.358577,0.095011,7.482882,-0.495031,0.8188,-0.113917,0.118164,-0.181396,-0.512939
-7.761944,-4.819565,6.619666,1.330828,-0.29374,-0.289135,0.450439,0.530273,-0.490967,1.163746,3.216126,9.7415,0.272058,-0.47175,0.327058,-0.494385,-0.118164,-0.472412,2.528006,3.734694,9.779032,0.057238,-0.171428,0.144094,-0.319824,0.113281,0.023926,0.115801,1.204825,7.558192,1.482045,0.336972,0.152966,0.124512,-0.105713,-0.194336,1.631205,3.110209,7.782754,1.442999,0.19033,-0.641928,0.113037,-0.204102,-0.501221
-8.399796,-0.952978,9.447515,0.526974,-0.610621,-0.429415,0.435547,0.523193,-0.497803,0.596679,2.155222,10.080763,2.242314,-0.092902,0.395539,-0.48291,-0.143066,-0.467529,1.891199,2.754836,9.801892,0.673792,0.039593,0.147251,-0.309326,0.086182,-0.036133,2.342221,6.51291,9.002419,2.052873,0.016939,-0.010553,0.106689,-0.124512,-0.2146,2.227433,5.749984,9.486635,0.824443,0.462345,-0.209752,0.115234,-0.20874,-0.507568
-7.390538,-4.159229,7.930226,0.277206,-0.821112,-0.446339,0.424561,0.510986,-0.503418,2.026079,2.216067,7.695372,4.802232,-0.61506,0.248787,-0.475098,-0.212646,-0.434814,3.360901,2.301634,9.356091,1.354514,0.059542,0.22496,-0.298096,0.050781,-0.087646,2.85386,5.786235,9.22436,0.307799,0.748644,0.197946,0.093262,-0.141602,-0.234131,2.166239,3.17035,9.120877,0.605637,0.499391,-0.701285,0.119385,-0.216797,-0.508789
-8.260573,-2.141959,9.175142,0.690457,-0.951865,-0.54624,0.410889,0.507324,-0.503906,2.876854,3.510025,4.833891,7.126882,0.227379,0.105872,-0.454834,-0.285889,-0.375977,1.525976,5.24885,7.660343,2.738771,0.644611,-0.001346,-0.286133,0.013184,-0.126465,0.852249,3.304458,8.591285,1.460231,0.850034,0.268158,0.081543,-0.160889,-0.243408,1.457394,4.047623,8.767118,2.556121,0.538879,-0.612782,0.126221,-0.248779,-0.495605
-5.838909,-2.822949,7.68868,0.004831,-1.333412,-0.908618,0.393555,0.510742,-0.513672,0.662614,6.309331,1.641649,9.849051,0.085299,0.368684,-0.447021,-0.372803,-0.292969,1.213986,8.442326,10.334294,1.830219,-0.100239,0.02461,-0.28418,-0.015869,-0.163818,0.735799,5.416893,9.046576,2.589318,0.116495,0.200629,0.055908,-0.187256,-0.255859,1.527585,7.596875,8.840717,2.152546,0.378896,-0.677865,0.119629,-0.265381,-0.488525
-4.844095,-3.006484,8.807357,0.239856,-1.084897,-1.121095,0.359375,0.513184,-0.512451,2.573397,8.502346,-2.425737,10.584214,0.279544,0.234421,-0.451416,-0.434814,-0.17627,2.852166,6.897294,9.271938,0.966421,0.216458,0.327305,-0.279541,-0.051514,-0.200195,2.49347,8.807125,8.519532,2.310246,0.355853,0.018747,0.039307,-0.220947,-0.265869,1.845453,6.759531,8.522637,0.746088,0.652532,-0.046668,0.117432,-0.279297,-0.486816
-4.922382,-2.567954,9.367492,0.315432,-1.395854,-1.19291,0.342285,0.511719,-0.51416,0.357158,4.177256,-10.329456,12.635397,-0.115277,0.479159,-0.445801,-0.463135,-0.016602,1.012521,7.418896,6.940131,0.338277,0.281269,-0.155525,-0.256104,-0.075195,-0.243896,1.449307,10.852205,8.414619,-0.050506,0.975689,0.045393,0.040771,-0.225098,-0.294189,0.196672,6.945295,8.435012,0.334556,0.727954,-0.971257,0.135254,-0.277832,-0.499023
-2.194442,-0.990282,8.781033,0.229039,-1.170545,-1.069374,0.320312,0.508301,-0.519287,2.190063,7.686474,-16.990399,15.667996,-0.126672,-0.111181,-0.443604,-0.444824,0.16748,1.752021,5.463125,8.348675,-0.572166,-0.001922,0.585507,-0.254639,-0.102783,-0.261963,0.004744,4.974108,7.60993,-2.354235,0.815676,0.05266,0.030029,-0.223389,-0.312012,0.785067,5.83033,8.680132,-0.640906,0.399236,-0.382702,0.130859,-0.275879,-0.494629
-2.239105,-0.350049,8.421555,-0.681417,-0.711333,-0.64789,0.305176,0.526367,-0.513916,1.144065,9.905807,-16.426535,14.031064,-0.028355,0.89244,-0.447266,-0.355713,0.30835,0.772224,5.338615,7.236748,1.224077,0.397786,-0.358856,-0.236816,-0.128418,-0.285645,-0.237577,0.862424,6.759931,0.846883,0.47973,-0.077904,0.032471,-0.243164,-0.318604,-0.115453,3.786795,9.355382,0.276935,0.697515,-0.368281,0.142334,-0.277588,-0.49292
-1.765398,-2.163561,9.614417,-2.105825,-0.389645,0.264701,0.293945,0.5625,-0.487549,1.756306,3.923885,-15.574897,12.615013,-0.280245,0.892743,-0.448975,-0.238037,0.411133,1.478267,7.115511,10.179018,-1.264387,-0.218826,0.355972,-0.241943,-0.140137,-0.317871,0.285451,9.133183,8.201417,2.752815,0.034003,0.106671,0.015625,-0.274658,-0.325684,-0.915101,7.272133,8.029877,1.405862,0.207106,-0.494977,0.130371,-0.296875,-0.490234
-3.981394,-4.898266,10.102316,-2.69916,-0.105286,0.552473,0.311768,0.587158,-0.471191,3.192277,10.348509,-14.585654,12.943457,-0.016154,1.187878,-0.426758,-0.099854,0.468018,1.336397,-3.04821,2.532084,-0.864655,0.396649,1.060205,-0.23999,-0.142334,-0.350586,0.968778,9.106229,9.264312,-2.333043,0.578916,0.628929,0.005127,-0.264893,-0.357422,-0.732067,9.383484,11.244319,-0.796553,0.035183,-0.802867,0.125488,-0.287354,-0.507568
-1.249704,-11.112569,8.891014,-1.718333,0.388431,0.269537,0.319092,0.604736,-0.443848,1.43301,8.360363,-10.789781,6.541263,0.261635,0.30132,-0.418457,-0.026123,0.495117,0.473413,7.913895,7.582648,5.263677,-0.146616,-1.256437,-0.223389,-0.201904,-0.345459,-0.751337,-0.902593,5.447285,-0.641623,0.229978,0.019116,0.005371,-0.263916,-0.379395,3.038936,-0.386563,7.00395,-1.292795,0.046477,0.362652,0.126221,-0.270264,-0.523682
-3.761839,-6.370566,4.787631,-0.503427,0.597704,-0.103746,0.326904,0.617188,-0.438965,4.743273,3.582967,-14.60137,5.455946,0.168982,-0.119202,-0.405762,0.047852,0.493652,5.616105,12.426042,8.731833,0.147001,-0.33286,1.109053,-0.237305,-0.213379,-0.359131,3.225287,3.275966,7.296108,4.839114,-0.74542,0.250643,-0.019775,-0.321289,-0.362305,-0.564596,1.991507,5.667038,4.424446,0.673008,-0.905835,0.126709,-0.328613,-0.493896
-9.353132,-4.209448,5.443158,-0.354933,0.423082,-0.199237,0.338867,0.624756,-0.425293,-2.101892,6.64165,-7.618856,1.931563,0.377829,-0.31696,-0.38501,0.073975,0.5,-0.944295,3.538845,6.681201,-0.355913,1.025752,-0.06778,-0.2229,-0.231934,-0.381836,1.675422,14.239809,7.905006,3.579033,0.945867,0.615155,-0.020752,-0.37085,-0.353271,-0.157553,12.65757,7.751413,3.13745,0.215131,-1.158571,0.129639,-0.376465,-0.47876
-2.951415,-2.645473,4.001523,-0.669764,-1.182258,-1.051572,0.307861,0.627197,-0.423584,2.5958,1.666978,-9.991947,-1.531501,-1.068026,-0.528763,-0.368408,0.04541,0.509521,0.639685,5.638436,5.722446,1.48158,-0.822293,0.284071,-0.230469,-0.245605,-0.376221,-1.748217,12.451152,6.993137,-3.318491,0.796526,-0.222594,-0.015869,-0.338135,-0.37915,-0.721738,10.716509,9.164596,-2.503316,0.25033,-0.065337,0.12915,-0.341553,-0.496582
-2.288963,-3.63752,7.73569,-0.189268,0.219378,-0.894058,0.300049,0.640381,-0.416504,1.311285,-1.430993,-9.571988,-2.690014,0.518721,-0.597412,-0.363525,0.017334,0.516602,1.896799,12.311706,7.964664,1.009674,0.241487,-0.255125,-0.222168,-0.264893,-0.393311,-0.75745,-1.214925,4.492673,-3.320406,-0.358798,0.031993,-0.024658,-0.308594,-0.419922,-0.255808,-0.658003,6.509429,-2.82727,0.338591,-0.288452,0.131104,-0.303711,-0.526367
-5.590719,-0.893775,9.105073,-0.400111,-0.313088,-0.942228,0.293701,0.6521,-0.408447,2.619022,1.375921,-7.652403,-4.763865,-0.149213,-1.506794,-0.348389,-0.05127,0.519287,1.355653,9.786198,4.738974,-1.521516,0.249735,-0.24231,-0.220215,-0.266602,-0.421875,1.805444,1.234903,5.299125,3.609786,-0.173552,-0.43471,-0.034668,-0.354492,-0.402832,-1.026949,1.731896,6.675561,3.120492,-0.331119,0.061154,0.114258,-0.351562,-0.510986
-1.30512,-5.158951,6.872207,-0.15267,-0.620086,-0.527989,0.280029,0.649902,-0.405273,3.518837,0.49534,-9.517592,-8.129379,0.723197,-0.072972,-0.350098,-0.154053,0.49292,1.216452,2.388863,6.90476,-1.466987,-0.390555,0.194868,-0.22876,-0.254883,-0.44043,0.084438,12.756411,8.280329,2.294072,-0.088623,0.046435,-0.043945,-0.381836,-0.397217,1.507081,11.924597,8.529283,2.056259,-0.304452,-0.428202,0.10498,-0.374756,-0.500977
-6.295973,-3.656332,8.525065,0.262601,-0.351506,0.160281,0.271484,0.65332,-0.412598,0.993082,0.184179,-12.836276,-7.454864,0.449049,-0.109919,-0.35083,-0.233887,0.453613,3.564652,0.219846,5.2633,0.482411,0.192004,-0.412891,-0.20874,-0.269775,-0.453369,1.676106,9.949981,7.641449,-2.326019,-0.491313,-0.414271,-0.03833,-0.366455,-0.428955,-0.891021,10.576714,6.993739,-1.422804,0.470286,0.770518,0.111084,-0.365967,-0.522705
-2.682335,-7.528441,7.010676,0.191545,-1.75465,0.402314,0.261475,0.644531,-0.413574,1.543728,4.96249,-11.181471,-8.655512,-0.521571,0.859268,-0.335938,-0.328369,0.400146,0.436132,6.507853,6.515333,1.791874,-0.220649,0.319939,-0.216309,-0.295898,-0.449951,2.876907,3.840549,5.714009,-0.703814,0.310569,0.556775,-0.042725,-0.368164,-0.44458,-1.012991,5.069999,6.042556,-1.117916,-0.282614,-0.997639,0.108154,-0.355469,-0.537354
2.550122,-4.105711,5.94058,2.372401,-1.358894,0.089355,0.241455,0.620605,-0.442871,5.763141,2.668618,-8.467679,-9.386183,-0.679567,-0.358958,-0.325928,-0.415283,0.317871,4.51717,8.620784,2.974732,0.063755,-1.199588,0.398551,-0.239014,-0.293701,-0.433594,1.541161,6.57855,7.239067,1.813394,-0.041247,0.338771,-0.059814,-0.383789,-0.42749,2.237201,5.535578,7.015936,0.99165,-0.47485,-0.262858,0.08667,-0.362305,-0.516602
2.702326,3.186561,7.456014,1.151348,-0.464722,-0.499042,0.235596,0.604004,-0.451416,4.35027,2.900948,-6.694849,-6.849925,0.909776,-0.174892,-0.31958,-0.469727,0.231689,2.348223,6.806335,7.540722,0.434168,-0.100902,0.436145,-0.240723,-0.297119,-0.447754,1.947318,8.577779,6.561515,0.145076,0.130207,0.304638,-0.061768,-0.386475,-0.440186,1.405388,5.957919,8.008997,0.265914,0.745953,-1.192537,0.105225,-0.366699,-0.531982
-1.857013,-2.954233,5.653787,-1.800012,0.395233,-0.362724,0.239502,0.629883,-0.432861,0.049409,0.281065,-7.890337,-5.862214,0.776796,0.479296,-0.317627,-0.496338,0.159424,1.640862,6.727636,5.44534,0.948602,-0.455694,-0.208105,-0.241211,-0.316895,-0.438477,-0.486856,4.548585,5.194691,-0.30817,0.142424,0.179482,-0.064941,-0.392334,-0.450195,-3.166044,5.228228,6.933075,0.975569,0.022939,-0.150843,0.103027,-0.385986,-0.525391
-3.55149,-6.338468,8.590802,-0.106526,-0.443714,0.306654,0.229004,0.626953,-0.435303,2.408879,-3.615182,-7.539047,-1.420649,0.074001,0.621508,-0.332275,-0.506104,0.142334,2.115637,8.5137,5.426083,0.085419,-0.362099,0.405101,-0.24707,-0.314209,-0.448242,0.472951,6.429667,4.784282,1.159243,-0.761942,0.1221,-0.07666,-0.402344,-0.448975,0.351779,8.663057,5.702798,1.322605,-1.097787,-0.692942,0.089355,-0.400635,-0.521973
-4.20941,-5.068077,9.786306,0.466681,-0.04947,0.226843,0.241699,0.62085,-0.434326,-0.138699,7.55568,-4.028827,2.795071,0.489281,0.280841,-0.324951,-0.490723,0.172852,0.402472,4.070294,4.404857,-1.590977,-0.249102,0.138499,-0.25,-0.292969,-0.463379,1.442952,8.593222,5.604705,0.179126,-0.127773,0.219916,-0.077881,-0.400146,-0.450928,-0.381199,10.645275,4.594917,0.1356,0.61443,0.49729,0.091797,-0.401611,-0.52832
-1.591175,-2.921725,8.585445,-0.311147,-1.063768,0.799255,0.225342,0.626221,-0.435547,2.025103,7.270392,-4.020409,-1.51939,-1.186248,0.711483,-0.338623,-0.490723,0.159668,3.467078,1.724378,7.294203,0.080248,-1.212229,0.962195,-0.274658,-0.302734,-0.45874,1.064584,7.865269,5.710519,-1.402662,0.007058,0.371107,-0.090576,-0.401855,-0.469482,-3.53164,9.692397,5.128609,-1.23391,-0.763486,0.23458,0.06665,-0.404541,-0.540771
-1.660332,-4.450634,6.937734,-0.35275,0.130983,0.141549,0.236328,0.634521,-0.429932,4.558768,1.672396,-7.719566,4.399636,0.126649,0.450721,-0.335449,-0.465088,0.210693,2.525054,9.782871,3.567296,2.104688,0.543174,-0.604281,-0.263184,-0.331543,-0.453369,0.869243,3.265326,4.230589,-1.624141,-0.020104,0.298416,-0.093018,-0.381104,-0.489502,4.276028,4.152378,4.04924,-2.026151,-0.596775,1.255926,0.046387,-0.370361,-0.565186
-2.490795,-3.601428,6.331045,-0.812043,0.128364,0.138271,0.22876,0.644531,-0.422607,0.23369,20.009208,-0.249927,1.242691,0.965519,-0.103446,-0.349365,-0.459229,0.215088,-1.69666,13.295843,6.063043,-1.174852,-0.38421,0.23109,-0.266113,-0.313477,-0.460938,-1.074354,3.47151,4.068934,0.761971,0.197238,-0.307629,-0.086914,-0.387207,-0.484619,-3.012619,0.635885,5.761594,-0.607573,1.307558,1.410057,0.052734,-0.357666,-0.570557
-4.395389,-5.958502,6.981974,-1.460799,0.448547,-0.243386,0.238525,0.6604,-0.400635,3.267806,-2.225038,-8.926453,-3.411183,-0.116968,0.797755,-0.348145,-0.475342,0.18042,4.579723,5.073428,4.493534,-3.242697,-1.244463,0.540831,-0.282227,-0.268311,-0.483643,0.704474,9.538061,6.224315,0.141167,-1.185138,-0.061436,-0.098877,-0.382568,-0.48584,-1.818939,6.11509,5.887867,1.021699,-1.865566,0.403254,0.020264,-0.369873,-0.56665
-4.293799,-9.050693,6.283603,0.194449,-0.554511,-0.30236,0.224365,0.661621,-0.404785,3.528209,-0.035033,-13.080395,8.380957,1.436975,-0.662638,-0.352051,-0.431641,0.262695,2.372429,3.312856,5.188154,0.445257,0.876583,-0.691854,-0.265381,-0.288818,-0.480957,3.016734,7.503115,5.596988,-2.219014,-0.096692,-0.561465,-0.100342,-0.370605,-0.503906,4.78178,8.13882,6.138713,-0.869966,0.013541,1.797409,-0.000244,-0.364746,-0.571045
-3.827399,-3.44483,8.898089,2.15773,-0.724922,0.377209,0.220459,0.62793,-0.43457,0.251457,22.700742,-4.33984,3.560345,0.233234,0.004853,-0.349854,-0.414551,0.290283,2.222779,11.014801,8.208717,-0.250695,-0.671345,-0.491143,-0.281006,-0.279053,-0.486084,0.975373,4.215474,5.613332,-1.133169,0.182423,-0.413738,-0.104492,-0.345703,-0.512695,-2.446247,5.575973,5.456743,-1.90537,0.680523,0.531028,-0.001465,-0.324463,-0.594238
-1.874632,-1.812365,8.604118,0.713266,-1.185003,0.728627,0.210205,0.624512,-0.435791,3.176638,10.460002,-5.914318,-7.835731,-0.495244,0.736347,-0.35791,-0.453613,0.216064,4.609959,5.322731,5.4156,-4.552439,-0.07109,0.84779,-0.276611,-0.228516,-0.517822,1.503865,8.887748,7.476904,0.043565,-0.622079,-0.210525,-0.103027,-0.355957,-0.515625,0.501103,5.777801,5.977715,-1.167415,-1.401443,0.79368,-0.020996,-0.312988,-0.598633
-3.09044,-6.278481,8.01255,0.246235,-1.011857,0.502618,0.213135,0.626953,-0.446777,1.328585,-7.542753,-7.475444,-0.505787,-0.865353,-0.107093,-0.337158,-0.455322,0.21167,0.65936,-3.991409,5.73363,-2.105304,0.070315,0.269785,-0.282227,-0.197998,-0.533936,2.729565,8.586133,7.464542,-3.317125,0.309464,-0.017044,-0.102783,-0.304199,-0.544434,2.773262,5.958809,6.753443,-1.910791,0.393554,-0.401628,-0.017334,-0.278564,-0.62085
0.580967,-5.136699,7.853936,1.209824,-1.263801,-0.038881,0.19458,0.609375,-0.447998,4.646618,7.796265,-3.713367,4.700979,-0.063952,-0.547328,-0.334229,-0.429932,0.27417,3.014984,2.924316,6.796639,2.358036,-0.670744,-0.063625,-0.288086,-0.222168,-0.510254,-0.42104,-1.475025,5.649273,-3.191531,0.855493,0.112653,-0.089844,-0.256348,-0.556152,-1.624843,1.802232,6.476331,-1.755557,0.307863,0.217528,-0.016357,-0.248535,-0.62793
1.041535,0.048955,8.295477,0.634683,0.098173,0.269208,0.198975,0.597656,-0.458008,1.017371,12.667951,-3.664122,1.225322,0.132743,0.077944,-0.336182,-0.42627,0.279053,2.662464,8.868555,7.257531,0.603661,0.400308,-0.11124,-0.276855,-0.232666,-0.513428,-0.791294,-2.139846,5.761922,2.571411,-0.451736,0.21118,-0.093994,-0.293213,-0.542725,1.229329,0.310075,5.721897,1.31531,-0.609202,-0.154737,-0.023438,-0.27124,-0.620361
-1.592319,-1.920972,8.99183,-2.108065,0.388852,0.090784,0.208008,0.625244,-0.431152,3.417621,5.855639,-5.489444,-3.574566,0.417321,0.164597,-0.333984,-0.44873,0.239258,0.099618,5.231203,7.265025,-0.490926,-0.083281,0.241911,-0.290527,-0.220215,-0.516357,1.210349,9.365873,7.138467,3.975036,-0.415775,0.246939,-0.112061,-0.346191,-0.52124,0.48749,6.789881,6.613352,2.390319,0.75006,-0.10047,-0.018555,-0.304688,-0.603027
-2.634865,-7.126004,6.970101,-1.200609,0.441973,0.402754,0.209717,0.652588,-0.424072,0.722794,-0.056243,-7.307864,1.053813,0.323913,0.088617,-0.345459,-0.427734,0.246826,3.736993,3.069156,6.814244,-0.020439,-0.697551,0.100291,-0.287354,-0.225342,-0.514893,1.291937,12.033815,8.644126,-1.462099,0.314468,-0.097023,-0.095703,-0.332764,-0.537109,-0.913637,9.807207,8.144344,-0.018639,-0.39038,0.478078,-0.018066,-0.308594,-0.610107
-1.531948,-4.805176,8.274399,-0.000481,0.051871,0.419903,0.223389,0.646484,-0.419678,3.90385,9.610093,-4.818445,1.602008,0.023792,-0.003257,-0.339355,-0.423828,0.263672,3.185194,3.725296,6.320421,0.532046,0.285766,0.11325,-0.290283,-0.228271,-0.507568,1.159891,1.939183,6.774553,-2.786115,0.283527,0.147114,-0.097656,-0.289795,-0.549316,2.991998,5.232292,7.26045,-1.262316,0.202524,0.500669,-0.025146,-0.282715,-0.612061
-1.916626,-5.909605,8.086831,0.341119,0.256764,0.53567,0.22168,0.640625,-0.432373,1.801792,5.88344,-6.237799,-1.355091,-0.197992,0.296344,-0.349609,-0.426514,0.244873,2.650519,4.899142,8.224891,0.614941,-0.606533,0.304628,-0.296143,-0.233887,-0.509277,1.366837,1.141477,6.338485,2.274279,0.035398,0.399128,-0.098145,-0.320312,-0.542236,-0.777452,4.210234,7.366594,0.899058,0.673466,0.168528,-0.013672,-0.296143,-0.616699
-1.143928,-4.41671,8.269608,1.79196,0.131101,0.687038,0.241455,0.608643,-0.44751,4.752605,4.214769,-7.25068,1.511338,-0.250953,0.488867,-0.346436,-0.420898,0.266357,4.65586,6.603912,7.556976,0.856378,-0.072261,0.334472,-0.305664,-0.243164,-0.508057,1.200375,10.249209,8.659576,2.412373,0.059779,0.526892,-0.106934,-0.35498,-0.533691,1.050519,7.223749,8.28479,0.556416,-0.495242,0.114073,-0.029297,-0.310547,-0.617188
-3.310506,-0.490031,8.900496,-0.089271,0.640704,0.111648,0.244873,0.613525,-0.444336,2.827996,8.68235,-6.181339,1.30652,0.562039,0.005662,-0.351807,-0.405762,0.272461,1.801334,9.04569,6.872595,0.49683,0.221616,-0.140906,-0.291504,-0.24292,-0.495605,1.369165,9.68805,8.188305,-1.702029,0.273413,-0.035891,-0.090576,-0.322754,-0.534668,2.159452,5.24792,7.311504,-0.940221,0.550777,0.639996,-0.014404,-0.28418,-0.614502
-3.450503,-4.436373,7.888427,-1.635367,0.232548,-0.112653,0.241943,0.633789,-0.419189,3.120594,4.824868,-8.1702,0.981341,0.174499,0.120268,-0.358398,-0.39624,0.285889,3.338857,8.224473,7.868056,-1.155645,-0.669758,0.53762,-0.302246,-0.220703,-0.49585,1.019548,3.81678,6.426847,-1.675585,0.552623,-0.059359,-0.084229,-0.296631,-0.543457,-0.591919,3.549949,7.239322,-0.49508,0.359732,0.060984,-0.009033,-0.270508,-0.616455
-3.954283,-6.361918,6.728505,0.073848,0.282524,-0.089548,0.242676,0.638672,-0.428467,2.094048,8.01795,-8.271144,2.070659,0.491167,-0.205488,-0.358398,-0.379395,0.293701,3.734128,2.980545,7.876759,-1.315457,0.207281,0.286938,-0.306641,-0.212891,-0.509277,-0.151683,4.310491,7.54727,0.786545,0.228752,0.134532,-0.087891,-0.314209,-0.547119,0.08395,5.442665,8.194507,0.378745,-0.015658,0.032221,-0.016113,-0.285156,-0.620361
-4.102716,-3.907449,9.16992,0.59651,-0.089465,0.179137,0.253662,0.628906,-0.4375,2.190177,7.229019,-7.507081,-0.066333,-0.117249,0.504253,-0.354248,-0.376465,0.294678,1.350618,4.135666,6.856167,0.853259,0.08183,0.027992,-0.300781,-0.224609,-0.504639,0.424655,8.149311,8.654458,0.262186,0.150294,0.100432,-0.080322,-0.320312,-0.542969,0.308082,6.50921,7.996051,-0.644309,0.30544,-0.289377,-0.003174,-0.279785,-0.620605
-3.606623,-4.059316,8.391031,0.369879,-0.110875,-0.131892,0.250732,0.617432,-0.436768,2.633255,4.941021,-8.244131,0.612846,0.311767,-0.22719,-0.352295,-0.379639,0.297607,2.937415,8.431475,8.244057,0.234516,-0.355593,0.116189,-0.305176,-0.227051,-0.507568,0.234627,6.175686,7.39001,-1.428539,0.51213,0.031039,-0.074463,-0.30127,-0.562012,-0.579603,3.779953,7.640805,-0.930148,0.339718,0.075407,0.001709,-0.265137,-0.638916
-3.16451,-2.737922,8.319353,0.498424,0.041992,-0.107085,0.246338,0.611084,-0.438721,2.342965,7.321796,-7.078535,0.213988,0.017728,0.167002,-0.358154,-0.377686,0.300537,2.92093,6.102903,7.581331,-1.241611,0.102371,0.341228,-0.318115,-0.202393,-0.515381,-0.390237,3.439636,7.592313,-0.508527,0.342802,-0.044087,-0.080566,-0.285645,-0.563965,-0.037118,3.960943,7.880186,0.211101,0.056395,-0.240369,-0.008057,-0.256348,-0.635742
-3.44448,-2.84829,8.318891,-0.564183,-0.168955,-0.141295,0.233154,0.615479,-0.435059,2.977845,4.681076,-8.467202,-0.369859,0.243324,0.013088,-0.370605,-0.384033,0.292725,2.204873,3.116258,6.818266,-0.382777,-0.17925,0.087953,-0.310791,-0.202881,-0.511963,0.226694,4.701098,8.000868,0.310795,0.088192,0.002501,-0.067139,-0.296875,-0.560547,0.509994,5.728178,8.547974,-0.169632,0.274873,0.040953,0.008545,-0.263428,-0.630615
-2.113024,-5.44272,8.07552,-0.201203,-0.065217,-0.173941,0.239014,0.620117,-0.436768,2.637996,5.164076,-6.494483,0.081806,0.029346,0.013108,-0.359375,-0.377441,0.294434,3.773926,5.091471,7.23764,0.549683,-0.170591,-0.082365,-0.313965,-0.211426,-0.510498,0.790956,5.550978,7.978871,-0.122831,0.237647,-0.091539,-0.065918,-0.296631,-0.564941,0.216706,4.177949,8.361396,-0.643532,0.256427,0.141329,0.008789,-0.251953,-0.635498
-2.442417,-4.427378,8.264723,1.205266,-0.047989,-0.024339,0.238037,0.605957,-0.450195,3.352392,4.661851,-7.335099,-0.305131,0.143236,0.207,-0.366455,-0.381104,0.287598,3.183578,5.401843,7.05637,-0.484559,0.028404,0.066764,-0.316162,-0.205322,-0.513428,0.489309,4.639667,8.093137,-0.300409,0.28867,-0.020289,-0.063232,-0.290527,-0.566162,0.495638,3.802483,8.676595,0.279261,0.199984,0.070955,0.010742,-0.257324,-0.634521
-2.024007,-0.896812,9.731259,0.411827,-0.110269,0.006109,0.234619,0.610352,-0.443848,2.677884,4.080755,-7.015896,0.152943,-0.203933,0.091383,-0.36377,-0.366455,0.299072,3.060112,3.239977,6.771904,-0.070237,-0.264896,0.161467,-0.308594,-0.197754,-0.503418,0.260328,4.470679,7.976577,0.180003,0.129539,0.043111,-0.052246,-0.28833,-0.558838,0.140215,5.831759,9.047351,0.47909,0.142665,0.037927,0.022461,-0.259277,-0.625977
-2.152819,-2.779677,8.390589,-0.988435,0.190638,-0.058921,0.239746,0.621338,-0.437988,4.111488,5.118764,-7.279069,0.386819,0.143423,0.26142,-0.36792,-0.365234,0.296387,3.633454,5.372433,7.155476,0.965303,-0.130342,-0.235095,-0.314697,-0.215088,-0.499512,0.426762,5.389217,8.038586,0.53458,0.027247,0.035111,-0.057373,-0.297607,-0.555908,0.506242,5.478481,8.468326,-0.211636,0.120401,0.234481,0.017822,-0.255859,-0.631592
-2.615374,-6.932951,6.710981,-0.523541,-0.224045,0.051698,0.233887,0.62793,-0.425049,2.504113,5.254964,-7.31245,0.107791,-0.076605,0.166174,-0.370605,-0.362061,0.303467,3.446923,6.879682,7.536743,0.082638,-0.193606,0.064194,-0.317871,-0.211182,-0.496094,0.779597,6.195895,8.086545,0.302514,0.026113,0.052446,-0.056641,-0.298828,-0.554932,0.354779,4.366217,7.9749,0.13867,0.155453,0.174001,0.020264,-0.256348,-0.625732
-1.401017,-4.172512,8.428075,0.911753,0.047708,0.177016,0.237305,0.616699,-0.439453,4.612134,5.120917,-6.977074,0.150045,0.041489,0.304482,-0.369141,-0.356445,0.299316,3.565101,5.137519,6.794589,-0.183238,-0.233242,0.045171,-0.32373,-0.211914,-0.508057,0.639988,5.74096,7.80588,-0.081648,0.193896,-0.026475,-0.055908,-0.303467,-0.568848,0.510147,5.251644,8.030378,0.468147,0.125927,0.148974,0.020264,-0.265869,-0.638672
-2.358549,-1.961789,9.649677,-0.080682,0.233914,-0.051413,0.245605,0.610107,-0.439697,2.437701,5.642563,-6.837324,0.17056,0.266937,0.096386,-0.369873,-0.360596,0.295654,3.353529,5.378391,6.948458,0.255307,-0.160703,-0.118081,-0.325195,-0.210449,-0.497803,0.133773,5.670691,7.781893,0.12793,0.121992,-0.059226,-0.053711,-0.296631,-0.559814,0.198495,6.178211,8.575203,0.100747,0.158567,0.305049,0.019287,-0.261963,-0.62793
-3.24297,-4.246724,8.737833,-0.783501,0.196555,0.040912,0.243164,0.622559,-0.432861,3.596176,5.795543,-7.180774,-0.270094,-0.025572,0.2354,-0.375732,-0.354492,0.286377,3.340917,5.810467,7.647924,-0.261203,-0.318595,0.106816,-0.330566,-0.213623,-0.498535,0.15039,6.102566,7.922188,-0.003977,0.010006,-0.033669,-0.054443,-0.303711,-0.558105,-0.048365,5.635181,8.370493,-0.327053,0.14381,0.247401,0.017822,-0.261475,-0.63208
-2.512919,-5.105969,7.449712,-0.077396,-0.000182,0.106044,0.244629,0.618164,-0.430664,2.68546,4.807377,-7.456557,-0.264377,0.052575,0.340216,-0.379395,-0.357666,0.287598,3.932097,4.379646,7.310766,-0.38058,-0.246511,0.137878,-0.337402,-0.198242,-0.497314,0.489574,6.147585,8.013469,-0.176887,-0.002395,0.000913,-0.058105,-0.29541,-0.55835,-0.000197,5.202615,8.417829,-0.115015,-0.040517,0.287745,0.013672,-0.251465,-0.630371
-2.3407,-3.854029,8.539413,-0.057675,0.139447,0.156598,0.243408,0.61792,-0.432129,3.844686,7.241696,-5.299393,0.485945,-0.312542,0.292315,-0.382324,-0.350586,0.289062,3.870068,3.798932,7.538271,-0.379551,-0.150745,0.254798,-0.338379,-0.199463,-0.494873,0.563543,6.21663,8.215711,-0.332479,0.064215,0.122244,-0.05542,-0.296143,-0.560547,0.350191,6.147706,8.618186,0.020611,0.006342,-0.026263,0.015625,-0.260742,-0.630127
-1.442869,-4.569047,7.59996,-0.433753,0.369474,-0.126604,0.243408,0.624268,-0.428467,4.574439,7.006034,-6.910624,-0.654694,0.288834,0.219227,-0.387451,-0.353516,0.276123,4.052293,4.311355,8.07288,0.554448,-0.193069,0.194561,-0.336182,-0.202393,-0.488525,0.444486,4.44151,7.826679,-0.649104,0.048369,0.235969,-0.05127,-0.285889,-0.564209,0.469903,4.853997,8.600874,-0.727634,-0.043363,0.09596,0.018555,-0.245605,-0.633789
-4.699827,-5.865239,7.224714,-0.750893,0.581738,-0.600169,0.239502,0.631592,-0.412354,3.328118,4.357639,-8.204789,0.596388,0.168655,0.253305,-0.398193,-0.345947,0.290039,4.510684,6.58176,7.043023,0.70453,0.062915,-0.00959,-0.344238,-0.212646,-0.488525,0.65904,4.38834,7.762722,0.866693,-0.028368,0.24997,-0.060059,-0.295898,-0.558105,0.459598,3.15058,7.89093,0.286619,0.023356,-0.157817,0.012207,-0.249756,-0.636475
-3.486622,-6.21909,7.631623,0.058265,0.019724,-0.388433,0.24585,0.640381,-0.415527,3.872739,7.637352,-7.765332,0.307155,0.311671,-0.329525,-0.387451,-0.337158,0.288818,3.187357,6.449977,6.649753,-0.095141,0.035549,0.297736,-0.331299,-0.208008,-0.49292,0.621762,7.630572,8.34997,0.802477,0.018843,0.284917,-0.047363,-0.308594,-0.557129,0.153365,5.568078,8.918298,0.857305,-0.019195,-0.436275,0.0271,-0.265625,-0.633789
-4.550445,-6.062714,8.341181,0.184405,0.202771,-0.587867,0.230957,0.632568,-0.419434,2.980946,3.939857,-10.00805,-0.550877,0.089871,-0.021962,-0.395752,-0.347656,0.280273,3.701772,5.811225,7.149088,0.658518,-0.263177,-0.019574,-0.342285,-0.217285,-0.478516,0.090164,6.519904,7.970895,-0.513775,0.055736,0.148796,-0.058594,-0.304688,-0.554932,0.275469,5.759008,8.793126,-0.081035,-0.114887,-0.216471,0.017334,-0.265625,-0.624512
-3.756307,-5.236536,8.970602,0.716593,-0.494434,-0.105008,0.232178,0.628906,-0.426758,4.324619,4.360873,-9.931219,0.663281,0.21165,-0.219867,-0.386719,-0.338379,0.28125,4.633048,8.958607,7.83198,0.606822,0.082546,-0.134999,-0.342529,-0.218506,-0.481445,0.41451,5.569972,7.923832,0.338273,-0.220314,-0.001286,-0.064453,-0.302002,-0.556396,0.209704,4.860431,8.553908,0.084752,-0.101458,-0.307191,0.016357,-0.259521,-0.627686
-4.068809,-2.131968,10.249191,0.338803,-0.257133,-0.020296,0.21582,0.616943,-0.420898,2.62645,6.551088,-9.184857,-0.275753,-0.022413,0.123264,-0.401367,-0.344482,0.288818,3.487406,7.662515,7.078765,-1.168112,0.072484,0.163196,-0.331299,-0.208496,-0.491699,0.893465,7.445596,8.514363,0.089314,-0.133637,-0.033399,-0.052979,-0.30957,-0.558838,0.356814,5.96753,8.990176,0.02746,-0.220405,-0.316343,0.025146,-0.268066,-0.631836
-3.943374,-4.980692,9.349493,-0.925554,-0.779769,0.069721,0.221924,0.638916,-0.416748,3.386772,9.004043,-6.631341,-0.96505,-0.141751,-0.281269,-0.382812,-0.347412,0.277344,3.030614,4.197439,5.822258,-0.780782,-0.078587,0.005714,-0.344482,-0.202393,-0.488525,-0.067468,6.300598,7.99076,-1.139002,0.134594,-0.231318,-0.061768,-0.293213,-0.561279,0.320231,5.646776,8.691315,-0.620058,-0.075378,-0.028159,0.013428,-0.260742,-0.633301
-0.1026,-6.260597,7.145146,0.880683,-0.730633,0.291635,0.212891,0.622559,-0.427002,2.998798,7.815081,-6.345001,-3.803727,-0.277043,0.041117,-0.38501,-0.376709,0.244141,3.978769,4.095011,8.964529,-0.935795,-0.217582,-0.037129,-0.349365,-0.188965,-0.486572,-0.252795,3.617167,7.724057,-1.357759,-0.41938,-0.309324,-0.071045,-0.273682,-0.562744,-0.428274,5.133335,8.413037,-0.560012,-0.267181,0.202784,0.004639,-0.251221,-0.630615
-1.111778,-1.47349,9.178606,0.268314,0.294049,-0.022527,0.216064,0.621582,-0.436279,5.168803,3.962406,-6.127338,-2.108684,-0.091438,0.178101,-0.383789,-0.390137,0.218018,5.215859,2.676499,7.11122,-0.028763,0.176299,0.120915,-0.344727,-0.1875,-0.487549,1.750976,2.560044,7.595847,0.281527,-0.499193,0.044023,-0.074951,-0.280029,-0.561768,1.119563,4.438829,8.035524,-0.240895,-0.498377,0.085928,-0.003174,-0.246582,-0.63208
-2.76776,-6.747596,8.666928,-0.982643,0.016218,-0.135199,0.219482,0.627197,-0.41626,3.165809,7.483413,-4.864045,-1.573394,0.432967,-0.230812,-0.378418,-0.403076,0.206543,3.038643,5.680134,6.60243,0.784532,0.403974,-0.458791,-0.337402,-0.207031,-0.493164,0.874967,6.966011,8.396931,1.66122,0.127644,0.028626,-0.073975,-0.307617,-0.556152,0.36107,4.939342,7.704257,0.414028,0.108516,-0.049412,-0.000488,-0.257324,-0.633545
-2.402944,-6.010943,8.642284,0.735941,0.008492,-0.33022,0.207764,0.624023,-0.435303,4.246477,5.119923,-7.708344,-1.775966,-0.212828,-0.159555,-0.385986,-0.411865,0.184082,4.006092,7.033684,7.698507,-0.043173,-0.43895,0.345816,-0.336914,-0.193848,-0.496826,0.368299,9.100484,8.76272,-0.440559,-0.338063,0.138405,-0.072754,-0.291992,-0.568848,0.16361,6.189657,8.788259,0.143165,-0.426406,-0.379644,0.0,-0.250244,-0.639893
-2.064205,-1.938932,8.457982,0.24066,-0.172178,-0.054736,0.210938,0.620117,-0.435791,3.228448,6.861037,-6.416704,-1.21233,0.401443,-0.101768,-0.378906,-0.418457,0.168945,4.7229,5.843319,7.842817,-0.3943,0.12931,-0.121179,-0.339844,-0.197266,-0.489746,1.470044,5.160889,8.024653,-1.278029,-0.088506,-0.133914,-0.077148,-0.280273,-0.566406,1.260524,5.530298,7.10229,-0.30587,-0.065002,-0.069805,-0.003418,-0.253662,-0.632812
-1.957186,-5.623693,8.412474,-0.04985,0.005053,0.299241,0.213623,0.626709,-0.429932,3.63168,4.337215,-7.079851,-1.145976,-0.384327,0.18718,-0.378906,-0.416016,0.165283,3.167903,6.233384,7.783531,-0.354898,0.118587,0.053341,-0.338135,-0.188232,-0.502686,0.609062,4.060467,7.917871,-0.266662,0.289497,-0.089267,-0.072021,-0.274414,-0.576904,0.240069,5.043045,8.282536,-0.653201,0.05588,-0.177126,-0.001221,-0.238525,-0.647705
-3.024009,-4.059957,9.00604,1.056993,-0.062185,0.164917,0.206787,0.599121,-0.441406,3.617555,7.042336,-5.612826,0.711095,0.301044,0.02519,-0.385742,-0.424316,0.169678,4.099739,4.400993,7.846245,-0.892388,-0.366111,0.094088,-0.348633,-0.177734,-0.491455,0.067734,5.284493,8.490897,0.122408,-0.207374,-0.132502,-0.080566,-0.276123,-0.564453,0.684429,4.2418,8.002538,-0.272311,-0.117281,0.095571,-0.008789,-0.236572,-0.637207
-2.011124,-3.07164,8.864115,-0.177637,-0.346564,0.249637,0.216797,0.615234,-0.435303,3.727496,14.381315,-4.92193,-0.538504,-0.411316,0.190545,-0.375732,-0.416992,0.171143,5.460537,2.487162,8.194294,-0.058658,0.122743,-0.003968,-0.343018,-0.180664,-0.499268,2.02867,5.113896,8.746543,-0.124664,-0.223513,-0.071177,-0.077881,-0.275879,-0.56543,0.727072,4.60301,7.559754,0.328366,0.058585,-0.232835,-0.002686,-0.244141,-0.638428
-3.485781,-5.304386,9.031391,-0.434905,-0.046899,0.095874,0.208252,0.612793,-0.432129,5.048998,14.204634,-5.886482,-4.02625,0.035038,0.262681,-0.388672,-0.438965,0.124268,4.486269,4.898424,7.927311,1.259366,0.325738,-0.188787,-0.334229,-0.195312,-0.49292,1.860696,5.232362,8.651604,0.537648,0.427312,0.21972,-0.070312,-0.282471,-0.56543,1.016927,5.435907,8.501091,0.305394,0.108897,-0.466622,0.005615,-0.248291,-0.634521
-4.719562,-7.850989,9.715678,0.24053,-0.454871,-0.398907,0.198975,0.614502,-0.443848,3.689919,11.547335,-4.285688,-5.5804,-0.149778,-0.350256,-0.377441,-0.453857,0.055176,3.62444,7.847112,6.941965,0.64647,0.157052,-0.139946,-0.338867,-0.195557,-0.492188,0.023489,6.458848,8.225832,0.767331,0.37424,0.063753,-0.072998,-0.283936,-0.562988,0.426315,4.947325,7.858995,0.230535,0.303906,-0.542485,0.008301,-0.242676,-0.633057
-1.930801,-4.72509,8.735448,1.39785,-0.677663,-0.386722,0.190918,0.594482,-0.459473,4.696957,6.955095,-4.350781,-5.522413,0.378849,-0.44625,-0.367676,-0.47168,-0.015381,3.963899,6.410249,8.649853,-0.555002,-0.155256,0.208158,-0.333984,-0.196777,-0.49585,0.820932,7.08572,8.423866,-0.120599,-0.061175,0.009707,-0.062012,-0.291992,-0.560547,0.139822,5.467702,8.43426,0.225066,0.180661,-0.564677,0.020508,-0.26001,-0.633545
-2.470911,-2.293111,9.414422,0.076139,-0.295281,-0.632199,0.178955,0.591309,-0.451904,2.494269,7.384718,-4.626412,-1.675458,0.209381,-0.403116,-0.364258,-0.478516,-0.028809,5.308786,4.741295,9.057551,0.080108,0.331007,-0.143885,-0.333008,-0.193604,-0.500244,1.302953,4.580926,7.67993,-0.82924,0.428603,-0.164221,-0.05835,-0.274658,-0.568115,0.785063,5.293368,8.731309,-0.287172,0.088683,-0.246235,0.023438,-0.247803,-0.634521
-2.9998,-6.234149,9.506951,-0.087575,-0.60011,-0.395159,0.171387,0.596924,-0.461426,3.963349,16.656647,-1.249392,-2.473884,0.085821,-0.251101,-0.35498,-0.481201,-0.072754,3.477326,7.183117,7.995381,0.227306,0.799628,-0.374942,-0.325195,-0.204834,-0.510742,-0.039496,4.50653,8.288421,0.434848,0.387409,-0.157889,-0.053955,-0.285889,-0.57251,0.127119,4.567348,7.835811,-0.289862,0.339156,-0.284174,0.025391,-0.248779,-0.643555
-2.517863,-5.178709,9.992098,1.380222,-0.819328,-0.311657,0.148193,0.574707,-0.465576,3.178643,14.281486,-2.783343,-7.004181,0.057391,-0.278279,-0.355713,-0.475342,-0.154053,3.361608,6.05756,7.372077,-0.966879,0.342631,0.004075,-0.322021,-0.195801,-0.520996,0.302568,6.438853,8.034825,0.067901,-0.039865,-0.252214,-0.054443,-0.288574,-0.571777,-0.127736,4.931301,8.899383,-0.099866,0.068535,-0.180077,0.026611,-0.247314,-0.643066
-2.798573,-3.344403,11.039039,0.578921,-0.754188,-0.435074,0.137939,0.565674,-0.465332,3.743607,8.234472,-1.269972,-6.366482,0.111155,-0.622574,-0.34375,-0.458008,-0.231934,3.641887,3.22453,7.388709,-0.529492,0.570982,-0.159368,-0.3125,-0.19043,-0.5271,0.701302,5.895356,8.272838,-0.667474,0.33138,-0.254705,-0.047852,-0.282227,-0.572266,-0.086673,5.345686,8.483713,-0.172945,0.233037,-0.178211,0.032471,-0.247314,-0.64209
-1.571378,-7.823866,8.740354,1.18516,-1.01956,-0.339628,0.126953,0.550781,-0.487305,3.323385,7.36711,1.301708,-4.756862,0.381717,-0.64852,-0.327393,-0.434814,-0.300049,2.891402,5.168486,7.797549,0.639577,0.702106,-0.462422,-0.312256,-0.196777,-0.535645,-0.588952,3.711003,7.879261,-0.48746,0.330718,-0.193454,-0.049316,-0.269287,-0.584717,-0.520034,4.696133,8.49726,-0.350795,0.147465,-0.089125,0.028564,-0.237305,-0.650635
-1.271822,-1.43153,10.551265,3.111475,-1.023785,-0.274418,0.111816,0.503662,-0.50415,3.45263,7.603961,2.33615,-3.128543,0.380868,-0.827939,-0.312744,-0.422119,-0.340576,3.311479,6.389639,7.77475,-0.332792,0.498912,-0.185298,-0.29126,-0.195801,-0.531006,0.067195,4.78311,7.858144,0.845301,-0.176535,-0.19741,-0.041504,-0.282471,-0.572998,-0.299945,4.619051,8.377046,0.251862,0.092148,-0.095257,0.041016,-0.240479,-0.638184
0.216925,1.322225,11.364722,-0.225659,-1.063092,-0.36785,0.089844,0.51123,-0.502441,3.283809,10.577726,3.491842,-3.173618,0.721,-0.761702,-0.300049,-0.398438,-0.38623,2.876674,4.274549,7.177175,-0.107537,0.747101,-0.22497,-0.289551,-0.197266,-0.541992,0.576561,6.812968,8.315717,0.374829,0.156948,-0.085354,-0.046143,-0.290039,-0.571289,-0.204816,5.48671,8.516404,0.178187,0.161672,-0.207796,0.037354,-0.248291,-0.644775
1.420623,-4.9517,9.19852,-0.317751,-0.763424,-0.374403,0.076416,0.506836,-0.491455,2.436979,10.143453,2.782796,-4.961992,0.549974,-0.61033,-0.288086,-0.367188,-0.435547,2.443455,6.300275,7.555289,0.569277,0.580588,-0.544648,-0.268311,-0.210693,-0.552002,-0.364504,6.270671,8.133067,-0.310099,0.270667,-0.31687,-0.027588,-0.286377,-0.581787,-0.501508,5.469863,8.273694,0.0304,0.146408,0.104285,0.050537,-0.249512,-0.647949
1.604683,-2.958517,10.005179,1.24568,-0.151702,-0.069022,0.079346,0.498291,-0.503174,2.321335,6.754502,2.361872,-5.822776,0.547492,-0.2901,-0.27124,-0.293213,-0.493164,2.786565,6.78447,8.127851,-0.480371,0.482559,-0.112364,-0.267822,-0.202393,-0.560547,-0.188665,5.301872,8.163188,-0.210355,-0.040406,-0.197238,-0.036865,-0.282227,-0.584473,-0.558712,5.66459,8.596192,-0.090445,0.113689,-0.11361,0.047363,-0.246826,-0.650146
0.422288,-1.110601,9.792664,0.966701,0.104719,0.220582,0.087402,0.483154,-0.517578,1.898749,5.938657,4.14718,-4.864062,0.240478,-0.320289,-0.260986,-0.237061,-0.540771,2.372359,4.962733,7.307593,-0.330505,0.603975,-0.369015,-0.260498,-0.211914,-0.558594,0.209555,5.736286,8.173439,0.355741,0.111319,-0.280963,-0.035156,-0.299561,-0.570312,-0.356031,5.313126,8.335537,-0.140157,0.122485,0.176583,0.045898,-0.252441,-0.642822
0.24273,-2.22702,9.985009,0.341199,0.161043,0.389308,0.089111,0.478027,-0.510742,2.584598,6.456227,5.517135,-5.194618,0.317673,-0.255569,-0.259521,-0.165527,-0.564697,2.162321,5.289625,8.130309,-0.194887,0.364031,-0.24577,-0.253418,-0.197021,-0.565918,-0.238682,7.106481,8.687562,-0.011857,0.210471,-0.262024,-0.027832,-0.289062,-0.577148,-0.661138,5.652294,8.603092,-0.031045,0.154506,-0.060524,0.048096,-0.242432,-0.64624
0.422316,-1.745705,9.588484,1.123138,0.183076,0.38854,0.093506,0.45874,-0.523682,2.147761,1.877249,7.256834,-5.030285,-0.0067,-0.267465,-0.258545,-0.098633,-0.588379,3.159291,4.691353,8.037616,-0.324918,0.211929,-0.063672,-0.240723,-0.193115,-0.575439,0.287596,6.125961,8.741438,-0.584785,-0.043651,-0.153162,-0.020996,-0.280762,-0.583984,-0.133253,5.931536,8.746865,-0.207727,0.018609,-0.038945,0.060303,-0.237061,-0.6521
0.03353,1.982216,11.621372,-0.303551,0.360666,0.307468,0.109863,0.482666,-0.524414,3.762474,0.440526,8.327069,-2.721029,0.469707,-0.252053,-0.243408,-0.045654,-0.603271,2.509961,5.266437,8.362615,0.127826,0.55002,-0.242189,-0.243164,-0.205566,-0.573242,0.694701,5.325086,8.315208,-0.114955,0.33581,-0.159072,-0.02417,-0.288086,-0.579346,0.000865,5.333744,8.666843,-0.339004,0.26981,-0.193228,0.052246,-0.241211,-0.647461
-1.070829,-3.797688,8.58055,-1.863147,0.196648,-0.056353,0.105713,0.507812,-0.505371,0.814027,3.834278,9.279183,-1.68553,0.445857,-0.046681,-0.243164,-0.024902,-0.605225,2.08905,6.517506,8.025816,0.131483,0.185357,-0.125462,-0.231689,-0.201416,-0.583008,-0.608281,5.662923,8.626781,-0.007472,0.358771,-0.077059,-0.006104,-0.280273,-0.592285,-0.480811,4.657295,8.666256,-0.334684,0.192399,-0.138256,0.069092,-0.230713,-0.661377
-0.142842,-6.411302,8.237664,0.984337,0.037362,0.096951,0.106934,0.484863,-0.520264,3.168032,3.638566,9.050622,-2.493431,0.239765,-0.033772,-0.233398,0.010254,-0.61499,2.188474,6.431768,8.0989,-0.407073,0.366877,-0.239562,-0.22876,-0.200195,-0.586914,-0.512852,5.770809,8.383121,-0.028672,0.062364,-0.307543,-0.009033,-0.281738,-0.587646,-0.411802,4.524462,8.363453,0.093794,0.219405,-0.048034,0.065674,-0.230469,-0.65625
-0.1879,1.759955,11.005878,1.084165,-0.046167,0.177049,0.118164,0.473877,-0.527344,1.725182,1.378483,8.512386,-2.619739,0.740469,0.11463,-0.216064,0.053467,-0.61792,2.103044,3.845607,7.903866,-0.992254,0.066868,0.042068,-0.239014,-0.186279,-0.594238,0.455685,5.947043,8.382569,-0.173991,0.095169,-0.160883,-0.018311,-0.283691,-0.596191,-0.582199,5.934451,8.753309,0.102008,0.15058,-0.202894,0.058594,-0.237305,-0.658936
0.741437,-0.688424,9.528769,-1.020364,0.205843,-0.213063,0.109863,0.487549,-0.516602,2.055069,0.475372,9.524082,-2.503518,0.379321,0.060443,-0.219238,0.092041,-0.615479,3.064967,2.125213,7.923692,-0.075507,0.148642,0.071073,-0.239014,-0.183594,-0.592773,0.296146,5.492254,8.400929,-0.533828,0.370324,-0.033209,-0.014404,-0.271484,-0.593506,-0.101324,5.898982,9.030643,-0.60108,0.104422,-0.23272,0.061768,-0.225098,-0.656494
-1.397376,-3.064197,8.958133,-0.87229,0.257602,-0.130501,0.120117,0.505127,-0.509277,1.053077,-0.493498,9.146626,-1.116185,0.719301,0.206615,-0.199219,0.112549,-0.615967,1.380434,6.282099,7.761075,1.381255,0.63831,-0.443156,-0.2146,-0.194336,-0.583008,-1.030663,3.779589,7.654939,-0.36985,0.432485,-0.027267,0.00293,-0.256348,-0.589111,-0.461701,3.167284,8.340206,-0.740829,0.381073,-0.168198,0.079102,-0.202148,-0.655518
-1.07327,-3.37378,8.566973,-0.394458,-0.042466,-0.026784,0.115479,0.516357,-0.514648,0.32162,2.214982,10.148704,-0.602564,0.310595,0.08029,-0.19458,0.124512,-0.624512,1.173955,8.823806,9.228288,-0.521973,0.140092,-0.130037,-0.215576,-0.199707,-0.5896,-1.445668,4.576955,7.733693,0.614377,-0.028641,-0.198231,0.000977,-0.272705,-0.586182,-1.663082,3.540579,8.381422,0.68471,0.115568,0.019277,0.07666,-0.223389,-0.6521
-0.886736,-3.133234,9.182374,0.415824,-0.101987,-0.065969,0.117432,0.501221,-0.512451,1.523871,1.606538,9.960689,-1.232003,0.357003,0.184668,-0.186768,0.138672,-0.617188,2.329387,3.544506,7.91923,-1.45444,0.343808,0.121954,-0.208984,-0.171631,-0.600098,-0.205297,6.536084,8.407059,0.010911,-0.145682,-0.174455,0.005127,-0.267822,-0.590576,-0.380021,6.543601,9.354854,0.217608,-0.161303,0.001197,0.078857,-0.221436,-0.656006
-0.963008,-2.055479,9.906998,1.004702,-0.238639,0.074729,0.11792,0.497803,-0.511719,0.838771,1.333395,10.355004,-1.022257,0.353616,0.072526,-0.177002,0.164062,-0.610596,1.580753,2.426837,7.918392,0.386097,0.666249,-0.491162,-0.203857,-0.180176,-0.610352,-0.233434,4.973818,8.20767,-0.767014,0.218205,-0.219528,0.002197,-0.25708,-0.60083,-0.392472,4.961768,8.523398,-0.853703,0.284963,0.346664,0.077148,-0.205078,-0.666748
-1.102937,-1.003234,10.002383,0.805586,-0.305874,-0.038438,0.102783,0.481934,-0.533203,1.56387,2.041842,10.441953,-1.793114,0.592256,-0.238896,-0.178955,0.190918,-0.62207,1.121189,5.597789,8.730372,0.33106,0.502903,-0.137156,-0.190918,-0.199707,-0.613525,-1.334509,3.793469,7.664191,-0.047964,0.167841,-0.057175,0.009033,-0.270752,-0.604004,-1.925701,3.260183,8.291974,-0.135204,0.103016,-0.018326,0.081543,-0.217773,-0.671143
-0.383126,-1.932346,8.92868,0.532967,-0.553521,0.04231,0.109619,0.481445,-0.527344,-0.226269,-1.272426,9.292869,-2.033642,0.500143,0.13805,-0.160156,0.228516,-0.608887,1.303991,5.997541,7.893961,-0.228572,0.579476,-0.233447,-0.172119,-0.19165,-0.611328,-1.157536,5.030837,8.214745,0.169996,-0.2522,-0.080633,0.012939,-0.271973,-0.597412,-0.368566,4.668336,8.966242,0.158231,-0.338875,0.213782,0.080078,-0.219971,-0.661865
0.04614,-0.027236,9.32303,0.816288,-0.361904,0.096083,0.0979,0.471191,-0.525879,0.910001,-1.685564,8.604265,-0.40109,0.2602,-0.206464,-0.160889,0.239502,-0.601807,0.754614,5.70427,8.390156,-0.307278,0.746788,-0.428086,-0.166016,-0.180664,-0.630371,-0.429206,5.22702,8.032272,-0.179094,-0.035401,-0.29947,0.009277,-0.258301,-0.608887,-0.400408,4.376366,8.19866,-0.362528,0.250322,0.394272,0.078613,-0.202881,-0.681396
0.4498,-0.570744,8.26957,-0.266406,-0.380178,-0.092573,0.095215,0.477295,-0.527832,0.301425,0.533764,8.917282,-0.563228,0.265437,0.029407,-0.151367,0.248535,-0.606445,0.920601,4.950494,8.223894,-0.83959,0.457988,-0.2198,-0.159668,-0.166748,-0.627197,-0.961829,5.327254,8.471299,-0.396695,0.00147,-0.228178,0.006104,-0.251953,-0.605225,-1.568768,4.113924,8.570771,-0.427385,-0.094065,0.328031,0.070557,-0.195068,-0.673096
0.079757,-4.530815,7.914282,1.173864,-0.194137,0.123953,0.091553,0.453369,-0.538086,0.909566,0.940741,8.840706,-1.076255,-0.033741,-0.140013,-0.154785,0.258301,-0.601318,1.294137,4.082704,8.415457,-0.522213,0.642844,-0.345282,-0.151611,-0.166016,-0.634033,-0.559457,4.925787,8.025762,-0.759715,-0.182631,-0.330661,0.001465,-0.246338,-0.611084,0.227963,3.879288,8.612605,-0.662043,-0.257159,0.285209,0.061768,-0.189209,-0.674561
-0.089346,2.935665,11.014656,1.547474,-0.351831,-0.030316,0.087891,0.42627,-0.53833,1.511042,-1.499584,9.611227,-2.290787,0.304704,-0.110437,-0.150635,0.287598,-0.579834,0.232472,4.184509,7.7937,-0.315871,0.806857,-0.404919,-0.139648,-0.152344,-0.644043,-0.369451,3.454531,8.583837,-0.421776,0.103033,-0.280865,0.004883,-0.226318,-0.616699,-0.567153,2.414924,7.992518,-0.520407,0.367415,0.154999,0.068604,-0.165527,-0.682129
-0.878105,0.123886,9.431654,-0.783555,-0.554375,-0.086711,0.074219,0.445312,-0.536377,0.422091,-5.281822,8.528837,-0.29025,0.507418,0.035596,-0.143066,0.297852,-0.58667,-0.218735,2.967439,8.362039,-0.487437,0.269027,-0.142598,-0.131348,-0.145508,-0.639648,-1.355316,4.273838,8.587837,0.399563,0.118215,-0.239047,0.009277,-0.235596,-0.606934,-1.738287,2.991364,8.0773,0.430278,-0.088019,-0.12005,0.070312,-0.177734,-0.674316
0.387112,-0.725975,8.108332,-0.407229,-0.56311,-0.00865,0.068115,0.457031,-0.533691,0.038028,-1.690582,8.530317,0.945418,0.603997,-0.259451,-0.135986,0.289551,-0.598877,0.014995,2.699832,8.159492,0.09595,0.400596,-0.233323,-0.128174,-0.148926,-0.646973,-1.086124,5.250387,8.915934,-0.147463,0.019967,-0.124589,0.005859,-0.236328,-0.615234,-0.184211,4.822464,8.90097,0.10863,0.043242,-0.300124,0.067627,-0.183838,-0.679443
0.522898,-3.756769,7.694798,-0.136886,-0.61374,-0.084211,0.057373,0.453857,-0.532959,-0.68556,-2.812295,7.000478,1.244282,0.320207,-0.040387,-0.130859,0.266846,-0.61084,-0.175881,3.748841,8.558817,0.335464,0.228598,-0.192719,-0.119629,-0.152832,-0.644775,-1.004883,3.581832,8.332172,-0.39856,0.174121,-0.15073,0.016846,-0.228027,-0.614014,-1.341968,3.868967,8.934962,-0.271438,0.318229,-0.090727,0.079834,-0.177246,-0.67749
0.81923,-0.902226,8.975176,1.648024,-0.005566,0.237651,0.063965,0.42749,-0.537842,-0.52485,0.05757,7.469818,2.750129,0.161484,-0.32172,-0.125732,0.22168,-0.620605,-0.291472,5.324182,8.223278,0.705353,0.329224,-0.254688,-0.117676,-0.171875,-0.641113,-1.727695,3.289713,7.929714,0.527073,0.181719,-0.067814,0.016113,-0.241455,-0.607178,-1.290758,3.030443,8.849268,0.214845,-0.040892,-0.176342,0.07666,-0.18457,-0.673828
0.951116,1.995335,9.467004,0.623785,0.028567,-0.247629,0.060303,0.427979,-0.543701,-0.07639,4.136643,9.490649,0.7843,-0.297719,0.0007,-0.132812,0.218994,-0.627441,0.095129,7.012608,7.835018,0.434053,0.229351,-0.513784,-0.111572,-0.181152,-0.644531,-1.351342,4.951637,8.486417,0.891166,-0.34391,-0.304582,0.010498,-0.257812,-0.607666,-0.128126,4.089641,8.80268,0.844813,-0.035664,0.266612,0.074707,-0.202637,-0.676514
0.142449,2.348284,9.904264,-1.574666,0.468369,-0.040785,0.068604,0.439453,-0.529053,0.967829,-1.022049,8.13306,-1.35608,-0.227073,0.158126,-0.134521,0.228516,-0.614502,-0.497856,3.441665,7.542143,-1.145019,0.159609,0.008415,-0.107178,-0.172363,-0.647949,-0.183505,6.314136,8.623799,0.508609,-0.041796,-0.344419,0.011475,-0.274902,-0.606689,-1.182005,6.09671,8.997483,0.740323,0.223511,0.216362,0.077393,-0.224609,-0.674316
0.744597,-2.851476,8.158309,-2.248815,-0.008685,-0.270278,0.059814,0.477051,-0.514648,0.602857,-4.583264,7.453186,0.59456,0.161871,-0.205896,-0.135986,0.223145,-0.619873,0.277068,-0.113049,8.235544,0.066784,-0.229364,-0.036246,-0.115723,-0.169678,-0.651123,-1.039792,5.515063,8.825513,-0.537388,0.122964,-0.002566,0.009521,-0.260498,-0.612305,-0.660591,6.236725,10.015518,-0.211832,-0.148449,0.151735,0.071289,-0.217041,-0.675049
0.048213,-4.846889,8.304058,-0.677581,0.467603,-0.13022,0.069092,0.485352,-0.516602,-0.231466,0.860426,9.450373,1.884428,0.072892,-0.172743,-0.135254,0.192627,-0.634033,-0.038853,4.415028,8.530372,2.142587,0.229531,-0.307919,-0.106934,-0.196045,-0.643799,-1.246123,3.720969,8.875328,0.490433,-0.08028,0.046669,0.011719,-0.262451,-0.609863,-0.68329,4.084985,8.869114,0.109917,0.089195,0.081603,0.073975,-0.212402,-0.677002
0.144966,-2.545792,8.879039,0.08426,0.204733,0.061666,0.068604,0.483887,-0.522949,-0.316038,1.42217,8.605704,-0.077623,-0.073401,-0.113386,-0.144043,0.193604,-0.638916,-1.630158,8.827691,9.124689,0.110482,-0.14848,-0.023605,-0.106201,-0.197266,-0.63916,-1.626762,6.604379,9.018212,1.272581,0.06513,0.223482,0.016602,-0.282959,-0.599609,-2.018931,5.322876,9.562546,0.826104,0.138395,-0.153292,0.07959,-0.226807,-0.666992
0.260502,-3.271728,8.319432,0.223392,0.619916,-0.257497,0.08374,0.488281,-0.52124,-0.446254,-3.380184,7.941156,0.05171,-0.225123,0.088529,-0.137207,0.199219,-0.633545,-0.305416,4.110721,7.446881,-1.317843,-0.736225,0.60017,-0.121338,-0.17334,-0.641357,-1.766335,8.091829,9.15371,-0.426262,-0.206823,0.026345,0.009033,-0.276123,-0.602295,-1.172579,7.160597,10.053669,0.025126,-0.434381,0.191295,0.068115,-0.224854,-0.668213
0.372795,-0.282548,9.321666,0.735566,0.626675,0.089212,0.092529,0.470459,-0.521729,0.86083,-2.501458,8.706771,2.995338,-0.370905,0.010919,-0.147217,0.144287,-0.635986,0.505364,4.376684,8.582932,0.570119,-0.317192,-0.263879,-0.126465,-0.187988,-0.639893,-0.529955,5.269557,8.592069,-1.443347,-0.273038,0.031408,0.006836,-0.256104,-0.611328,0.147568,5.146811,9.111465,-1.419401,-0.068226,0.142187,0.067871,-0.204102,-0.677734
-0.860618,-1.09731,8.988123,-0.820396,0.610678,-0.426689,0.096924,0.484863,-0.517578,0.18288,4.847922,10.586955,2.7544,-0.170707,0.246284,-0.148438,0.100342,-0.645264,0.034695,8.153971,9.97878,-0.357629,-0.330309,0.060809,-0.126465,-0.182373,-0.640625,-0.927866,3.168946,8.339031,-0.585106,0.138201,-0.136089,0.012695,-0.251221,-0.615967,-1.384968,2.377678,8.556179,-0.753173,0.070817,0.424736,0.071289,-0.195801,-0.683105
-0.696956,-2.949079,8.30025,-0.054519,0.325048,-0.106007,0.101562,0.48999,-0.515625,0.348131,4.37045,10.128278,-0.218481,-0.428466,0.1993,-0.156006,0.109863,-0.63916,0.122736,2.727552,8.172708,-2.184758,-0.483947,0.416271,-0.145264,-0.141602,-0.649902,-1.773222,4.78533,8.791288,0.212924,-0.177105,0.059973,-0.00293,-0.247803,-0.616699,-0.90653,3.868941,9.014107,0.321076,-0.373792,-0.036213,0.055176,-0.191162,-0.682373
-0.958482,-1.627683,9.120942,-0.355171,0.112353,0.004874,0.106689,0.490723,-0.52002,0.90619,0.399994,9.260596,0.316406,-0.217766,0.069946,-0.157227,0.102783,-0.644775,0.190954,0.407933,7.626989,0.788575,-0.401217,-0.006015,-0.145508,-0.156738,-0.642334,-0.84201,5.537652,8.878013,-0.219878,-0.414348,0.034154,-0.003174,-0.246826,-0.617676,-0.229219,5.246794,9.573382,-0.192297,-0.041833,0.139122,0.056396,-0.191895,-0.684814
-0.497137,-3.307534,9.070283,0.457897,-0.05671,0.210849,0.102783,0.489258,-0.523438,0.178417,0.338873,9.357502,1.663811,-0.208842,-0.084368,-0.163086,0.078369,-0.648193,0.731725,7.969363,9.758967,1.628702,-0.409284,-0.260133,-0.150879,-0.18042,-0.643555,-0.417388,4.733456,8.382001,-0.097169,-0.009979,0.066276,-0.002441,-0.242676,-0.62793,-1.246983,3.618273,9.115846,-0.318308,-0.107274,-0.061549,0.053223,-0.183838,-0.692627
-1.167625,-2.642895,9.033736,1.094893,-0.040866,0.532573,0.106201,0.474365,-0.52417,-0.25542,-0.740622,7.84782,3.349182,-0.39872,-0.105288,-0.171143,0.024658,-0.641602,-0.075397,6.731118,8.802414,-1.514013,-0.184294,0.467316,-0.157471,-0.163086,-0.646729,-2.131528,4.857294,8.185018,0.038851,0.048614,0.160418,-0.005371,-0.249268,-0.625244,-1.211464,3.962582,8.816609,0.395085,-0.259263,-0.127986,0.048828,-0.196289,-0.690186
-1.139663,-2.563712,9.286834,2.247568,-0.077579,0.416327,0.109619,0.4375,-0.543213,-0.056631,4.508248,8.776293,5.167427,-0.449991,-0.16713,-0.175781,-0.0625,-0.635498,-0.551275,2.046703,7.84474,-0.148369,-0.45706,-0.057865,-0.165039,-0.159912,-0.635742,-1.971871,4.258438,8.145116,-0.366438,-0.517196,0.005096,-0.015137,-0.244385,-0.615723,-1.160086,4.417193,8.978976,-0.347151,-0.301792,0.037301,0.039551,-0.19165,-0.681152
-0.985825,-0.527789,9.355012,1.879751,-0.230611,0.319661,0.105957,0.394043,-0.549316,1.503572,9.059314,10.170208,2.618293,-0.488597,0.195552,-0.185791,-0.120361,-0.621582,1.027839,5.861497,8.332988,0.978788,-0.203801,-0.338893,-0.165283,-0.175049,-0.63623,-0.358868,3.713813,8.171128,0.103509,-0.486602,-0.169458,-0.018799,-0.244385,-0.621826,-0.502824,2.728516,7.731192,-0.19673,-0.380907,0.332861,0.033203,-0.185791,-0.690674
-0.98309,-0.818481,8.535608,1.912133,-0.306846,-0.035792,0.10376,0.373291,-0.563965,1.28612,4.695949,9.032816,0.17517,0.04732,0.273275,-0.181641,-0.11377,-0.630127,0.114944,6.03578,9.019412,-0.836605,-0.329948,0.057796,-0.169678,-0.159424,-0.644043,-0.416919,4.805867,8.187968,0.219147,-0.104579,-0.047852,-0.022461,-0.24292,-0.623535,0.011913,3.596272,8.02818,0.322597,-0.214692,0.04549,0.029053,-0.186279,-0.692871
0.164081,-0.213959,9.616303,1.892625,-0.709325,0.088987,0.082031,0.34668,-0.575684,0.040084,-1.51862,6.851537,2.306779,-0.339342,0.221378,-0.200439,-0.142334,-0.621338,1.808789,1.986628,9.028806,-0.865812,-0.48105,0.024562,-0.185547,-0.139893,-0.640625,-0.730051,5.030106,8.536542,-0.279714,-0.284579,-0.197861,-0.032715,-0.232422,-0.626709,-0.173929,4.604888,8.188489,-0.10666,-0.143628,0.207691,0.019043,-0.177246,-0.690674
0.173688,0.487238,9.051131,2.991697,-0.131687,0.246687,0.08374,0.300781,-0.579346,1.870321,6.094484,8.358169,5.281316,-0.240686,-0.226888,-0.199707,-0.219238,-0.589844,0.658358,2.124706,8.480318,0.429424,0.21383,-0.118871,-0.18042,-0.158203,-0.646729,-0.129723,4.371054,7.971559,-0.227523,-0.126438,0.023207,-0.035889,-0.239258,-0.629639,-0.537132,4.151867,7.823652,-0.212999,-0.114201,-0.133342,0.017822,-0.184326,-0.696045
-1.346019,2.869151,10.632994,2.416279,-0.640266,0.293761,0.077637,0.251221,-0.576416,0.525009,12.014043,8.155633,2.452331,0.068641,0.234679,-0.195557,-0.266357,-0.565186,0.490005,5.152653,8.716627,0.939695,-0.369385,-0.038053,-0.18042,-0.170166,-0.633057,-0.703596,4.321762,7.531134,0.398722,-0.016722,0.149113,-0.029297,-0.246826,-0.620361,-0.173715,3.893436,7.604724,0.271427,-0.19125,-0.204312,0.017578,-0.190674,-0.686279
1.29837,3.25522,9.895834,1.230496,-0.588252,0.027807,0.066406,0.233154,-0.580078,1.260093,10.388598,7.465917,-0.045561,-0.459415,-0.250231,-0.200439,-0.263672,-0.569092,1.763793,5.788699,7.982108,0.11436,0.016182,0.146356,-0.18042,-0.166992,-0.633789,-0.358908,5.60044,7.558691,0.961213,-0.169204,0.092445,-0.033447,-0.256348,-0.618408,-0.158041,4.601242,7.408516,0.831577,-0.055792,-0.319521,0.019775,-0.20166,-0.68457
0.482569,2.467523,10.107558,0.981384,-0.536661,-0.087428,0.05127,0.207764,-0.573975,1.638806,6.420911,7.447761,-2.164773,-0.051822,0.27008,-0.209717,-0.236084,-0.575684,0.812025,3.613123,8.081085,-0.157036,0.005059,0.210746,-0.186035,-0.171631,-0.635986,0.293005,7.030024,7.842058,0.319782,-0.127605,0.297153,-0.03833,-0.266602,-0.615967,-0.077139,6.490928,7.936854,0.607556,-0.1961,-0.56306,0.016602,-0.219482,-0.68042
1.390637,1.809171,10.543949,1.218863,0.313593,-0.189053,0.06543,0.191162,-0.581055,1.643801,4.254834,8.011745,-1.186836,-0.083613,-0.032667,-0.203125,-0.215332,-0.588623,1.722624,3.943736,7.802249,1.400194,0.068316,0.206667,-0.178955,-0.181885,-0.629639,0.052623,4.910111,6.82599,-0.232385,0.201921,0.241029,-0.034668,-0.256836,-0.617432,0.228978,5.384933,6.8957,-0.049563,-0.010651,-0.328756,0.020264,-0.208984,-0.682129
-1.258178,-2.523861,8.435098,3.082535,-0.596538,-0.42767,0.049561,0.133301,-0.577637,1.209523,6.261766,7.613181,-0.439946,0.114071,0.586647,-0.208252,-0.210449,-0.595947,0.783312,9.495072,8.528386,1.355141,0.55811,-0.362716,-0.171143,-0.211426,-0.634033,-0.759566,4.740387,6.949945,0.956837,0.055712,0.258336,-0.036865,-0.275146,-0.622314,-0.35626,3.936142,6.430769,0.397599,0.085445,-0.447969,0.022461,-0.222168,-0.688721
0.72798,5.690802,8.691606,5.517578,-0.038013,-0.219297,0.051025,0.043701,-0.565186,1.717344,5.162192,6.918725,-0.435577,-0.031506,-0.004895,-0.210205,-0.201904,-0.595947,0.694041,6.73571,7.244484,-1.505869,0.012735,0.553661,-0.178711,-0.19043,-0.642334,0.138498,6.890598,7.129627,0.403278,-0.183238,0.052886,-0.044189,-0.288086,-0.617432,-0.115427,5.597119,7.31042,0.577526,-0.120537,-0.240695,0.017334,-0.238525,-0.683105
1.407805,9.724559,8.914892,2.406679,-0.670512,-0.048059,0.044189,0.012695,-0.546631,1.647171,3.889472,7.509067,1.093155,0.206245,0.173171,-0.20459,-0.206787,-0.584717,2.038202,0.421627,7.212863,-0.526587,0.30802,0.186148,-0.17334,-0.165527,-0.638428,0.643989,5.112578,7.278571,-0.924013,0.205062,0.087461,-0.039795,-0.258789,-0.616943,0.62099,4.85998,7.258922,-0.54129,0.067961,-0.235003,0.02124,-0.212158,-0.68042
0.116679,9.348936,10.51173,0.92893,0.191976,0.211459,0.040527,-0.004639,-0.555908,1.199384,6.989139,8.64767,1.673936,0.15623,-0.135965,-0.205078,-0.237793,-0.588867,0.855813,3.788023,8.478291,1.234073,0.767901,-0.256712,-0.157715,-0.196533,-0.636475,-0.429901,2.303047,7.358218,-0.386137,0.326304,0.122474,-0.033203,-0.259766,-0.617676,-0.487592,2.854807,7.759757,-0.270286,0.216736,-0.226072,0.027832,-0.220215,-0.682373
0.329778,6.547594,9.822983,-2.016647,-0.691756,-0.070082,0.037598,0.027832,-0.552002,1.747243,8.119837,8.919661,0.402424,0.160795,-0.242601,-0.193359,-0.244385,-0.577393,0.668351,5.099321,8.463733,0.062401,0.363133,0.337892,-0.15332,-0.202393,-0.639648,-0.56344,3.096643,8.091827,1.095819,-0.04246,0.320655,-0.033203,-0.283447,-0.61377,-0.33085,2.811094,8.17154,0.649589,-0.052145,-0.488915,0.031738,-0.234619,-0.68042
0.574635,-1.324515,7.368374,0.195132,-0.310051,0.066712,0.033203,0.017822,-0.552246,1.553681,5.64938,7.949373,-0.189573,0.470425,-0.094473,-0.186523,-0.251709,-0.584961,0.64151,4.210781,7.931509,0.578368,0.669002,-0.060425,-0.147705,-0.203613,-0.636963,-0.220578,6.112092,8.633974,1.1876,0.04871,0.174056,-0.035156,-0.296387,-0.605713,-0.178437,4.617905,8.669732,0.948583,0.147567,-0.343855,0.033691,-0.244873,-0.671143
1.124085,5.729567,9.236974,2.702255,-0.686501,0.141064,0.015381,-0.018555,-0.542969,0.732647,6.504779,6.107535,0.964019,0.522543,-0.401155,-0.183594,-0.259277,-0.585205,-0.0781,5.5254,8.514925,0.586219,0.455197,-0.000982,-0.139404,-0.2229,-0.628662,-0.575741,6.288658,8.988746,-0.12033,0.187266,0.126343,-0.035156,-0.304932,-0.598877,-0.88856,5.585562,9.49943,0.361304,0.109204,-0.251521,0.0354,-0.263184,-0.665283
1.144926,7.093777,8.054079,0.31098,-0.290539,-0.127121,0.016113,-0.0271,-0.532471,0.701527,8.734369,6.568379,0.168368,0.262175,-0.128743,-0.174072,-0.26416,-0.578613,0.506235,6.387119,8.335692,0.847227,0.330247,0.027282,-0.127441,-0.223145,-0.631104,-0.683753,4.402385,8.378697,0.297836,-0.027509,0.128981,-0.03125,-0.298096,-0.601318,-0.281792,4.812416,8.905419,0.351397,-0.031603,-0.139228,0.043213,-0.25415,-0.666504
2.383754,5.282295,7.85254,0.447077,-0.14121,0.191876,0.013428,-0.033936,-0.536133,1.433147,5.82965,6.691754,-1.189087,0.217825,-0.017587,-0.169922,-0.24585,-0.593262,0.240159,7.994445,8.871407,0.177528,0.458645,-0.289304,-0.132568,-0.237305,-0.632568,-0.12381,6.570311,8.713113,1.05191,-0.078008,-0.042006,-0.042725,-0.323242,-0.594727,-0.448171,5.907947,9.152382,0.590476,0.134332,-0.005995,0.036133,-0.276123,-0.663574
0.692782,9.127052,9.027327,-0.573784,0.189542,-0.144126,0.014404,-0.021484,-0.544678,0.164973,4.682874,6.262235,0.182422,0.183062,0.270471,-0.170654,-0.246582,-0.595947,0.184882,5.909942,8.29992,-0.369928,0.193893,0.205258,-0.112549,-0.235352,-0.636475,-0.057345,7.740841,9.261405,0.051219,0.068664,0.010096,-0.023193,-0.327393,-0.598633,-0.424246,6.409769,9.337175,0.076839,0.030312,0.074568,0.052734,-0.279541,-0.665039
1.841921,4.57376,8.122656,-2.249978,0.169852,-0.177528,0.015869,0.01123,-0.545166,1.799029,6.600486,6.74395,0.684832,-0.148201,0.216456,-0.178223,-0.258545,-0.582764,0.124999,5.841738,8.372843,0.203358,0.231403,-0.417412,-0.11499,-0.233643,-0.634766,-0.49032,6.373528,8.575749,-0.438579,0.070234,-0.202693,-0.026611,-0.311523,-0.597168,-0.58514,5.853715,8.898701,-0.070841,0.076057,0.247112,0.04541,-0.273438,-0.663818
0.892968,-1.367634,6.540693,1.098367,0.290269,-0.005813,0.020508,-0.013916,-0.552002,1.042644,8.120323,7.692113,0.002095,0.295221,-0.057057,-0.170898,-0.265625,-0.592041,0.77639,4.24317,8.568301,-0.809491,-0.039759,0.427167,-0.11499,-0.2146,-0.642334,0.495119,5.981081,8.527064,0.209312,-0.128503,0.110381,-0.029053,-0.313477,-0.601807,-0.61617,6.529492,8.869616,0.411211,0.016223,-0.125494,0.050049,-0.274902,-0.665771
1.973141,6.57459,9.04057,3.01964,0.386868,0.423665,0.032227,-0.060059,-0.5354,0.476342,5.620794,6.554136,-0.552891,-0.138903,-0.216791,-0.16626,-0.257812,-0.593506,0.161215,2.782875,7.996897,0.465231,0.116371,0.102449,-0.114014,-0.233398,-0.642578,0.014761,6.805267,8.566072,0.173959,0.296225,0.327901,-0.02417,-0.325439,-0.600586,-0.466127,7.043477,8.996973,-0.165634,0.047377,-0.217432,0.053223,-0.282471,-0.667236
0.849283,9.638384,9.855334,0.783728,0.723436,0.176125,0.029785,-0.067871,-0.5354,1.31367,5.463526,8.103218,0.227924,-0.093095,-0.312531,-0.176025,-0.259277,-0.593506,0.323407,7.068202,9.003839,0.740503,-0.000564,0.053538,-0.12085,-0.244141,-0.632568,-0.855478,6.214606,8.500962,-0.554369,0.135497,0.138519,-0.031982,-0.314941,-0.5979,-0.664588,5.407709,8.604803,-0.55329,0.021492,0.094856,0.043457,-0.271973,-0.663086
0.416172,6.910078,9.12676,-1.528153,0.401516,-0.062252,0.045166,-0.045898,-0.542969,1.487923,6.115793,9.572329,-0.339127,0.03592,0.015951,-0.166992,-0.25708,-0.588623,0.485631,7.000548,8.654044,-0.591483,-0.058565,0.480376,-0.12915,-0.223389,-0.625732,0.009184,4.966927,7.849443,-0.149824,-0.151277,0.330991,-0.037598,-0.305664,-0.590332,-0.42819,4.720179,8.451824,0.014633,-0.045699,-0.103626,0.037842,-0.266113,-0.653564
1.234923,1.739319,8.747492,-0.521175,0.41728,-0.067228,0.04126,-0.038574,-0.542236,0.990689,4.336918,8.527327,-0.469208,0.344917,0.226724,-0.173584,-0.248047,-0.589844,0.854404,4.225759,8.975903,-0.556428,0.214159,0.168299,-0.113525,-0.223389,-0.639893,0.115687,5.793752,8.032692,0.147762,0.213056,0.16978,-0.025391,-0.312012,-0.602051,-0.478538,5.755011,8.533226,0.103518,0.033263,0.094727,0.049561,-0.270264,-0.667725
-0.774417,7.472077,11.264177,-0.108178,0.528248,-0.434406,0.060791,-0.039062,-0.551025,-0.178926,5.496487,8.935525,0.87549,0.034935,0.318418,-0.16748,-0.263184,-0.591553,-0.43681,4.953309,8.464559,0.469694,0.449677,0.1621,-0.106445,-0.236084,-0.632812,-1.367099,5.617209,8.045718,-0.458345,0.25213,0.283288,-0.022949,-0.313232,-0.595703,-1.037633,5.11212,8.483628,-0.526623,0.087345,0.163235,0.051514,-0.268555,-0.660889
0.070006,4.063011,9.424547,-1.813825,-0.082475,-0.205893,0.064209,-0.019043,-0.554932,2.630459,8.368012,9.74675,0.680472,0.373874,0.208215,-0.159912,-0.281006,-0.579834,0.354584,6.077922,8.473649,0.111866,0.164509,0.02237,-0.104736,-0.220215,-0.63208,-0.749811,3.969208,7.479555,-0.120746,-0.366147,0.09298,-0.033203,-0.291504,-0.598145,-0.729765,3.404684,7.975135,-0.037241,-0.153455,0.372848,0.043945,-0.253174,-0.664062
1.461296,3.60143,8.83798,0.338583,-0.053928,-0.238733,0.060791,-0.013184,-0.561768,0.667403,7.665591,8.945199,-0.049664,0.646066,0.240083,-0.154785,-0.269287,-0.592041,1.468741,4.841802,9.013292,-0.107939,0.487214,0.336082,-0.102783,-0.223389,-0.63501,1.378413,5.242801,7.803803,1.048212,-0.265671,0.287077,-0.039795,-0.312256,-0.588135,0.131165,4.868291,7.918061,0.977485,-0.104774,0.018089,0.040283,-0.269531,-0.655762
0.796749,6.547514,10.173716,0.267244,0.037388,0.064667,0.058594,-0.02124,-0.564941,2.099087,7.316902,8.202186,-0.10693,0.454015,0.100758,-0.15332,-0.271973,-0.600586,0.481587,5.653688,8.632308,0.25108,0.755964,-0.133214,-0.083008,-0.218994,-0.640625,0.539065,8.036567,8.591595,0.282292,0.315799,0.273214,-0.026611,-0.30957,-0.592529,0.162153,7.113478,8.574613,0.056695,-0.033261,0.058057,0.04834,-0.264404,-0.6604
0.830335,7.6323,10.211117,-0.677621,-0.089258,0.06896,0.061279,-0.007812,-0.563232,0.679275,7.333289,7.844876,-0.213465,0.793343,-0.090926,-0.135742,-0.265137,-0.595947,0.024951,5.788662,8.516478,-0.463607,0.54955,0.361888,-0.082764,-0.222168,-0.645264,-0.448867,6.122103,8.201319,-1.255535,0.135919,0.168442,-0.032959,-0.299805,-0.601318,-0.299522,4.821077,8.235958,-1.041985,0.097653,0.131593,0.041504,-0.254639,-0.666992
0.557757,4.190527,8.381514,-1.992845,0.02514,0.266574,0.0625,0.021484,-0.579834,0.628585,6.253754,7.89935,-0.260654,0.561526,-0.087223,-0.125488,-0.267822,-0.609131,0.185737,4.081312,8.420143,-0.153085,0.67044,0.154083,-0.069092,-0.231689,-0.645264,0.063981,3.284761,7.530003,-0.171416,-0.039223,0.322355,-0.031006,-0.306885,-0.599609,-0.855029,2.965297,7.699263,0.110536,0.04741,-0.159635,0.047363,-0.269287,-0.665527
1.107437,3.007556,8.588223,-0.942067,-0.185963,0.302306,0.056641,0.045898,-0.577393,1.104891,5.684077,7.207636,-0.283753,0.675982,-0.087024,-0.115723,-0.256348,-0.605469,-0.548067,5.633765,7.696376,0.486182,0.694025,0.085024,-0.062256,-0.226807,-0.640869,0.076856,5.778297,8.123065,1.052093,0.084085,0.284815,-0.035645,-0.311035,-0.59375,-0.4302,5.563347,8.689318,0.775241,-0.191687,-0.219658,0.041504,-0.269531,-0.658447
0.370754,2.983637,7.80174,-0.030659,0.220661,-0.171563,0.060791,0.040283,-0.589355,0.209588,5.669466,5.773983,0.368755,0.884736,0.316502,-0.104248,-0.268555,-0.615479,-0.208066,7.39967,8.265976,0.454122,0.539565,0.103789,-0.053955,-0.235596,-0.647949,-0.155975,7.30197,8.396661,0.004667,0.049693,0.242987,-0.037598,-0.314697,-0.597656,0.49226,5.710955,8.214615,-0.339736,0.085403,-0.081684,0.04126,-0.266602,-0.668457
0.530774,5.152902,7.07523,0.007261,-0.131654,0.01796,0.0625,0.039551,-0.584229,-0.69489,7.988384,7.041938,0.370277,0.461771,0.176207,-0.094727,-0.275146,-0.613037,-1.036446,7.493021,8.494981,-0.323094,0.808872,-0.116433,-0.040283,-0.226074,-0.64502,-0.287719,5.599434,7.864628,-0.588114,0.187405,-0.048207,-0.034424,-0.300537,-0.600342,-1.392393,4.146111,8.076968,-0.190744,0.329306,0.105737,0.046143,-0.259033,-0.665039
0.372519,3.379635,7.762558,0.121067,0.230782,0.157062,0.059326,0.037842,-0.586426,0.786002,7.401703,5.705628,-0.210994,0.457326,0.496287,-0.098877,-0.272461,-0.614014,-0.773803,4.261447,7.767398,-0.916176,0.273918,0.277444,-0.03833,-0.213623,-0.648926,-0.053629,5.032999,8.088092,0.29908,-0.074676,0.123307,-0.035645,-0.306641,-0.59668,-0.795893,5.312454,7.958293,0.652461,-0.286658,-0.104887,0.043457,-0.270996,-0.659424
0.56168,7.222871,8.179249,0.782222,-0.142798,0.482546,0.054443,0.028564,-0.578613,-0.069692,6.314334,6.855999,-0.387925,0.479441,-0.303197,-0.087891,-0.268311,-0.614258,-0.264775,2.476883,7.3796,-0.008486,0.499969,0.112185,-0.033203,-0.2229,-0.654541,0.775316,6.818265,8.419747,0.380204,0.094546,0.220025,-0.036133,-0.322266,-0.593994,0.192169,7.018972,8.6763,0.030801,0.176851,-0.225527,0.047363,-0.278809,-0.659668
0.397969,6.276683,7.851505,-1.322532,0.241038,0.36595,0.065674,0.04834,-0.588135,-0.279549,6.641866,5.979552,0.03469,0.474079,-0.075091,-0.072266,-0.268799,-0.619385,-1.121402,5.05108,7.86719,0.922657,0.432205,0.135673,-0.021484,-0.236816,-0.657959,-0.17477,5.977531,8.208599,-0.616171,0.43969,0.297183,-0.027832,-0.30957,-0.608398,-1.122175,4.940383,8.51436,-0.790576,0.252276,-0.184982,0.054932,-0.267578,-0.676025
0.593972,1.031339,6.402484,-0.643089,0.059091,0.122622,0.063721,0.063721,-0.596924,-0.097936,6.931488,6.683871,-1.552712,0.221707,0.04179,-0.071045,-0.240479,-0.638672,-1.089951,8.261005,7.447124,0.507794,0.246571,0.050586,-0.021484,-0.237061,-0.64624,-0.874445,4.069572,7.622091,-0.126556,0.041977,0.158376,-0.033447,-0.300049,-0.601074,-0.359715,3.243464,8.206145,0.104472,-0.154105,-0.018301,0.046631,-0.258789,-0.665283
-0.167681,1.810303,6.303124,1.983235,0.272817,-0.108429,0.064453,0.028564,-0.587646,-0.458217,2.942253,5.376585,-0.2752,0.381176,0.526461,-0.071777,-0.23584,-0.637939,-1.113747,7.188323,8.019628,-0.788006,0.320399,0.084116,-0.021729,-0.226074,-0.65625,-0.06336,5.369917,8.042277,0.680342,-0.061437,0.010784,-0.037109,-0.313477,-0.601318,-0.223043,5.29289,8.498021,0.725488,0.26463,0.044825,0.04834,-0.272949,-0.664307
0.186283,9.032151,8.507983,2.035764,0.046578,0.002001,0.068115,-0.005615,-0.567139,-0.304448,8.457758,7.32346,0.378049,0.27275,0.21261,-0.066162,-0.246582,-0.619141,-1.639784,3.035555,6.61745,-0.265714,0.119743,0.196415,-0.012451,-0.232178,-0.651855,-0.258584,6.817925,8.084153,0.393245,0.101434,0.04849,-0.026611,-0.326904,-0.593506,-1.587992,6.516372,8.752931,0.199509,0.126624,0.277753,0.057861,-0.2854,-0.656006
0.023305,9.685086,8.249242,-0.518817,0.137914,-0.355995,0.076904,-0.001221,-0.583008,-0.148541,6.438468,6.743827,-1.282991,0.268985,0.432197,-0.062256,-0.226318,-0.644775,-0.847552,5.768977,7.776668,0.830175,-0.014747,-0.274675,-0.011475,-0.233887,-0.653076,-0.283694,6.511646,8.077429,-0.435456,-0.043493,0.011169,-0.028809,-0.313965,-0.604004,-0.271913,5.698489,8.245678,-0.376562,-0.148775,0.247569,0.050537,-0.270508,-0.665771
-0.061053,6.381882,7.426597,-1.139878,0.222283,-0.02382,0.075195,0.016602,-0.590088,-0.700386,5.681723,4.955395,0.435952,0.337528,-0.037574,-0.059082,-0.234131,-0.641846,-0.919207,6.417039,7.932104,-0.469251,0.127139,0.268088,-0.010498,-0.227539,-0.649902,0.081392,4.692125,7.624207,-0.456165,0.042267,0.066853,-0.027832,-0.301758,-0.599854,-0.667982,4.723131,8.217317,-0.130537,0.341889,0.332731,0.053711,-0.26416,-0.662109
-0.067347,5.996047,6.919763,-1.177587,0.501603,-0.106238,0.082764,0.046143,-0.602295,-1.311367,9.805174,6.733373,-0.703127,-0.074789,-0.11322,-0.063721,-0.217285,-0.650635,-1.620174,3.569703,7.264237,-0.153985,-0.055476,0.024651,-0.009033,-0.230225,-0.656738,-0.834038,4.286809,7.401088,0.41081,0.086928,0.0641,-0.024902,-0.314697,-0.60376,-1.465745,4.395333,8.306804,0.148721,-0.072735,0.358439,0.052734,-0.27417,-0.666992
-0.462461,2.293623,5.489649,-0.649228,0.511335,-0.052198,0.09082,0.052246,-0.601074,-0.067847,3.529818,6.002907,-1.905243,-0.326883,0.08897,-0.068359,-0.191162,-0.654785,-0.509928,5.254706,7.978074,0.799794,-0.045965,-0.002092,-0.013184,-0.238281,-0.652832,-0.160653,6.605475,7.83933,0.940618,-0.358206,0.049122,-0.0354,-0.325684,-0.594482,-0.277019,5.460202,7.944112,0.690278,-0.097063,0.377469,0.047119,-0.282227,-0.661621
-0.469415,3.974035,7.398349,1.048012,0.400488,0.162447,0.096924,0.020508,-0.59668,-0.609022,4.027332,7.377867,0.840618,-0.135684,-0.39234,-0.068848,-0.215576,-0.64917,-1.573189,7.316122,7.436728,0.302412,0.144579,0.015282,-0.01123,-0.242676,-0.649414,0.48957,7.639299,7.991915,-0.124079,0.055637,0.168178,-0.03418,-0.324463,-0.595947,-0.944902,6.628118,8.412944,-0.052812,0.174271,0.146793,0.049805,-0.279541,-0.66333
-0.981398,6.220782,8.641626,0.745799,0.193601,-0.032538,0.098389,0.017822,-0.592041,-0.324546,8.443147,8.509365,0.677374,-0.254955,-0.034143,-0.07666,-0.21875,-0.644287,-1.610051,7.040019,8.059815,-0.448978,-0.228808,0.031037,-0.019287,-0.242676,-0.648926,-1.00649,5.890107,7.606277,-0.727903,0.26248,-0.103631,-0.03418,-0.319824,-0.597168,-1.083333,4.743851,8.017081,-0.675478,-0.084533,0.53713,0.04126,-0.272949,-0.664307
-0.111245,6.698762,8.18942,-0.006175,-0.083132,0.070888,0.099365,0.017822,-0.598145,0.249951,6.924442,8.265696,-0.904995,-0.112946,-0.201163,-0.074951,-0.204346,-0.653809,-0.425084,4.916313,7.488125,-0.22951,-0.182809,0.151555,-0.026367,-0.234863,-0.650391,-0.403011,4.836845,7.453378,0.127051,-0.42254,0.05267,-0.047607,-0.319824,-0.597656,-0.435522,3.843577,7.758335,0.211537,-0.090992,0.054949,0.029785,-0.276855,-0.666016
-0.537566,6.992354,8.422347,-0.6215,-0.024999,-0.095072,0.106201,0.03125,-0.600586,-0.444233,4.150346,6.836583,0.234987,-0.037566,0.027237,-0.068848,-0.204346,-0.653076,-1.213252,5.719473,7.593754,0.571954,0.120222,-0.26515,-0.014893,-0.247559,-0.652344,0.840899,6.201216,7.833266,0.553444,-0.0557,-0.068689,-0.036621,-0.331055,-0.597412,-0.301926,5.538908,8.199945,0.493536,0.019276,0.196487,0.041748,-0.286133,-0.665039
0.037101,4.089019,7.846201,-0.74178,-0.17626,0.007286,0.102783,0.042236,-0.591064,0.019877,7.191731,7.556189,1.268879,-0.109501,-0.323795,-0.067627,-0.226807,-0.633789,-1.03015,7.112203,8.205304,0.258954,-0.287987,0.019388,-0.023682,-0.24707,-0.642578,-0.441761,6.577288,7.758369,0.05462,0.192678,-0.103273,-0.036621,-0.328125,-0.5896,-0.39457,5.466165,7.781111,0.048441,0.020893,0.215851,0.039307,-0.28418,-0.65625
-0.394799,1.92727,7.884537,0.407618,0.018547,0.207621,0.098877,0.034912,-0.595703,-0.803247,8.42586,7.975941,-0.149067,-0.063807,-0.254346,-0.071289,-0.228516,-0.641602,-0.539012,5.320363,8.002486,-0.57831,0.004172,-0.016051,-0.026855,-0.241211,-0.650146,-0.34041,6.179159,7.679688,-0.063762,-0.231817,-0.049079,-0.03833,-0.327637,-0.594482,-0.92924,5.705467,8.074849,0.198537,0.094071,0.052,0.037354,-0.28833,-0.658447
0.038048,3.945905,8.434988,1.208883,-0.171087,0.456502,0.087402,0.017334,-0.594238,-0.593682,5.023777,8.031032,-0.744048,-0.322059,-0.252924,-0.082275,-0.213867,-0.651367,-1.956989,4.993949,7.603196,0.38011,0.02746,-0.113723,-0.026367,-0.255859,-0.649902,-0.034351,5.952477,7.840216,-0.193395,0.109304,-0.045569,-0.04126,-0.334473,-0.599854,-0.789751,5.710615,8.419424,-0.328381,-0.114271,0.106108,0.031982,-0.288086,-0.66626
-0.446754,5.68393,9.819866,0.496244,-0.004294,0.183977,0.091064,0.01416,-0.585693,0.068751,4.319544,8.505217,0.237359,-0.069801,0.006347,-0.078125,-0.212158,-0.638916,-0.845695,8.013186,8.811113,0.411951,-0.249645,-0.3186,-0.02124,-0.250732,-0.647461,-1.020089,5.40166,8.046192,-0.226452,0.016283,-0.189688,-0.034912,-0.322754,-0.598877,-0.123548,4.318007,8.051253,-0.323748,-0.019498,0.338085,0.035645,-0.276367,-0.669678
-0.155549,6.29127,9.906611,-0.162336,-0.472004,-0.021763,0.084717,0.01709,-0.58667,0.051568,7.000174,8.685268,0.488294,-0.044634,-0.034307,-0.077393,-0.219727,-0.639893,-0.485388,5.58126,7.949266,-1.22336,0.0489,0.061824,-0.018311,-0.234863,-0.651123,0.366209,5.529175,8.044553,0.190377,-0.415152,-0.219248,-0.034668,-0.326172,-0.592529,-0.473,5.053985,8.151871,0.498408,0.016085,0.215781,0.040039,-0.283691,-0.656494
1.146321,4.860584,7.989871,-0.757758,-0.306096,-0.06181,0.081055,0.027832,-0.59082,-0.089885,6.112656,7.193947,-0.886125,0.129445,-0.127217,-0.074219,-0.20874,-0.648438,-1.451126,2.275549,7.758229,-0.112133,-0.166218,-0.117409,-0.02832,-0.230225,-0.657471,0.853598,6.329805,8.6951,-0.043342,0.161449,-0.034563,-0.040527,-0.326172,-0.604736,0.175247,6.554327,8.979735,-0.068524,-0.081696,0.149172,0.029785,-0.281982,-0.67041
0.649935,4.548815,8.142612,0.093275,0.234245,0.183365,0.084961,0.021484,-0.591797,-1.229396,3.035542,5.343075,0.392526,-0.250483,-0.010372,-0.075195,-0.219482,-0.647217,-0.238747,6.171408,8.858155,1.07682,-0.2479,-0.343233,-0.019043,-0.253418,-0.651367,-0.646484,5.333602,8.371662,-0.495732,0.155084,-0.213687,-0.024414,-0.323242,-0.60376,0.219387,4.549594,8.196349,-0.764443,0.138297,0.424565,0.037598,-0.276367,-0.669189
0.368762,5.588952,8.746011,-0.002277,0.294847,0.087062,0.088379,0.03125,-0.594971,0.519684,7.257728,8.387813,1.167513,-0.505461,-0.430641,-0.086914,-0.231689,-0.637939,-1.142283,6.850104,8.010365,-0.440904,0.01662,0.014752,-0.019775,-0.243652,-0.645264,0.052435,4.770415,7.821477,0.352296,-0.211455,-0.114227,-0.029541,-0.32373,-0.598145,-0.664798,3.589014,7.794838,0.367245,0.151772,0.101599,0.041504,-0.275391,-0.661621
-0.163043,3.516829,8.585988,0.00155,0.204355,0.055205,0.090088,0.031494,-0.59082,0.234829,7.530232,8.519869,-0.616869,-0.079137,-0.007786,-0.088379,-0.219238,-0.641357,-1.00781,4.204687,7.454109,-0.213471,-0.515509,0.03631,-0.038818,-0.239502,-0.652344,0.419334,7.255876,7.888857,0.84196,0.067081,-0.046558,-0.038818,-0.338623,-0.594482,-0.285105,6.697873,8.528883,0.957813,-0.121733,-0.051097,0.030762,-0.295654,-0.661133
0.480529,4.496922,8.253435,0.418297,0.012537,-0.148286,0.094971,0.019043,-0.587402,-0.157949,3.582847,6.747959,-0.685699,-0.227234,-0.138821,-0.084473,-0.215088,-0.640625,-0.127022,6.185021,7.860915,0.658471,-0.163145,-0.187734,-0.038574,-0.253418,-0.640137,-0.336767,7.879958,8.118394,-0.497525,0.136622,-0.086959,-0.031738,-0.334473,-0.590088,0.242285,7.496941,8.344718,-0.448611,0.1041,0.045274,0.034912,-0.290527,-0.654053
0.560833,5.482392,8.665921,0.171332,0.422655,-0.299395,0.095215,0.014404,-0.590576,-0.185659,4.537525,6.838359,0.608951,-0.198475,0.184481,-0.0979,-0.224121,-0.640625,-1.348157,7.692905,8.239683,-0.125911,-0.180503,-0.088088,-0.037598,-0.251709,-0.640869,-0.346676,5.033437,7.41972,-0.907329,0.003365,-0.13518,-0.029785,-0.322021,-0.596436,-0.696377,4.73294,7.932366,-0.822364,0.177766,0.201943,0.036133,-0.276611,-0.662842
-0.296838,6.234581,9.440246,-0.534952,0.491401,-0.338435,0.111572,0.021729,-0.588623,-0.161522,7.15946,8.395753,0.400395,-0.346972,0.158118,-0.099365,-0.233887,-0.628174,-0.361891,5.180684,7.883671,-0.902702,-0.459019,0.090338,-0.052246,-0.239014,-0.655518,-0.16881,4.594865,7.303984,0.335827,-0.006463,-0.145476,-0.035156,-0.328125,-0.600342,-0.424476,4.483056,7.666575,0.380074,-0.11039,0.181754,0.02832,-0.282715,-0.666748
-0.476942,3.544073,8.605427,-0.255605,0.335792,-0.193725,0.115234,0.034668,-0.601807,0.214985,6.05991,8.047072,0.09503,-0.255998,-0.041955,-0.103516,-0.223389,-0.638428,-0.570798,2.64317,7.826292,-0.169586,-0.04636,-0.020391,-0.047363,-0.220703,-0.645508,-0.471941,6.689279,8.031118,0.438879,0.002165,0.016066,-0.0271,-0.31958,-0.595703,-0.295843,6.706273,8.436742,0.378308,0.076605,0.080856,0.034912,-0.274414,-0.659424
-0.1263,5.330237,8.765568,0.4243,0.242678,0.088399,0.118652,0.025879,-0.594482,0.362655,6.128757,7.905537,0.857282,-0.24363,-0.325284,-0.109863,-0.243164,-0.62793,-0.607911,5.463596,7.86142,1.081175,-0.317222,-0.117743,-0.049805,-0.254639,-0.647705,0.0389,6.408265,8.014577,-0.424247,-0.156681,-0.01053,-0.033203,-0.328369,-0.600098,-0.103256,5.892217,8.452307,-0.606599,-0.090164,0.180136,0.029785,-0.282227,-0.669434
-0.010636,5.367923,8.697379,-0.252789,0.133933,0.030291,0.117676,0.024902,-0.59375,0.896292,8.901232,8.825102,0.472511,-0.106528,-0.281724,-0.111572,-0.255371,-0.620361,0.464829,8.628449,8.687771,0.042524,-0.153003,-0.094631,-0.05127,-0.253418,-0.652832,0.492699,4.908821,7.576158,-0.373388,0.014216,-0.05203,-0.029785,-0.320068,-0.609863,0.598024,3.843014,7.856057,-0.383311,-0.006853,0.207211,0.033203,-0.273193,-0.675049
-0.621117,4.265415,8.54521,-0.477138,0.072201,-0.126032,0.125488,0.034424,-0.602539,0.098687,6.392379,8.216738,-1.314943,-0.075495,0.127295,-0.10498,-0.234375,-0.635254,-0.820469,6.115748,8.197239,-0.955859,0.048551,0.030745,-0.05542,-0.237061,-0.647705,-0.370287,5.711959,7.683657,0.437099,0.100798,-0.101021,-0.032959,-0.327148,-0.598389,-0.396683,4.987586,8.023693,0.537213,0.125075,0.122495,0.027588,-0.27832,-0.663818
-0.295108,3.56959,8.616916,-0.223038,-0.166508,-0.097709,0.121094,0.039795,-0.595459,0.370293,3.761185,7.687591,-0.083783,-0.046354,-0.068871,-0.10791,-0.231445,-0.628662,-0.488782,4.0202,7.932148,-0.207228,-0.237057,-0.100214,-0.052002,-0.226807,-0.655762,-0.396671,7.225425,8.296707,-0.065357,-0.163047,-0.094706,-0.026855,-0.321289,-0.602783,-0.204355,6.804835,8.622498,-0.039709,-0.16802,0.121945,0.031982,-0.274414,-0.670654
-0.585392,3.923184,8.878631,0.137711,-0.100528,-0.143826,0.113281,0.030518,-0.598145,0.021517,7.009408,8.162442,0.600886,0.087069,0.091344,-0.111572,-0.246094,-0.629395,-0.329957,6.039523,8.438542,0.435349,0.06475,-0.220033,-0.056641,-0.240234,-0.64917,0.119937,5.823661,8.052528,-0.77023,-0.02594,-0.131539,-0.034668,-0.314453,-0.606445,0.29283,5.251844,8.219017,-0.769453,0.080449,0.251885,0.024658,-0.264893,-0.673096
-0.236086,4.1008,8.457417,0.371518,-0.20221,-0.13291,0.116455,0.022949,-0.59082,-0.093331,7.135753,7.768718,-0.692532,-0.04521,0.038673,-0.108154,-0.237061,-0.630615,-1.000386,6.502775,8.443811,-0.474537,-0.05387,-0.092545,-0.057861,-0.22876,-0.656738,-0.464048,4.600324,7.767856,-0.153765,0.137474,-0.109994,-0.03125,-0.307617,-0.612305,-0.663247,4.060445,8.001146,-0.125839,0.092121,0.131597,0.023682,-0.257324,-0.675537
-0.234793,4.713722,8.540728,0.762161,-0.053574,0.056914,0.114258,0.029053,-0.587891,-0.175978,4.260891,6.641169,-0.115306,-0.042362,0.027416,-0.109131,-0.217529,-0.631592,-0.431442,3.845679,8.034447,-0.602721,-0.190522,0.086338,-0.0625,-0.2146,-0.661621,-0.674453,5.732675,8.225785,0.351043,-0.138994,-0.054887,-0.033447,-0.309082,-0.611328,-0.149041,5.274744,8.377885,0.349031,-0.153539,0.070767,0.021973,-0.26001,-0.67749
-0.16649,6.195729,8.835875,0.446908,-0.011011,0.170713,0.11084,0.009521,-0.591797,0.082589,6.39811,7.598327,1.056564,-0.162927,-0.278305,-0.109863,-0.243652,-0.628662,-0.591616,4.143685,7.827079,0.582591,0.034292,-0.229412,-0.063477,-0.229492,-0.651855,0.113337,6.095147,8.256037,-0.188228,-0.096359,-0.069636,-0.034912,-0.312744,-0.604248,0.246921,5.582083,8.637522,-0.252829,0.063349,0.075985,0.02002,-0.26123,-0.669434
-0.395545,5.308174,8.675026,-0.179612,-0.016757,0.096069,0.116943,0.02002,-0.585938,0.397317,8.086886,8.172194,0.03615,-0.053446,-0.072102,-0.107178,-0.242188,-0.620117,-0.606249,6.870447,8.510689,0.345363,-0.143511,-0.125946,-0.059326,-0.237305,-0.645264,-0.240868,4.860594,7.887042,-0.263815,0.141781,-0.100751,-0.028809,-0.309326,-0.602295,-0.256335,3.988948,8.416036,-0.302566,0.069922,0.162002,0.024414,-0.259521,-0.671387
-0.133642,4.868834,8.828547,-0.000597,-0.023665,0.02942,0.10791,0.008545,-0.590576,-0.063751,5.764502,7.598723,-0.861454,-0.063511,-0.080105,-0.115479,-0.23877,-0.630615,-0.404032,5.800305,8.136895,-0.569617,-0.086246,0.002653,-0.062256,-0.228027,-0.654541,-0.843134,5.22235,8.165966,0.267658,-0.072779,-0.06281,-0.031982,-0.314697,-0.604736,-0.293527,4.420625,9.320333,0.332246,-0.105361,-0.042779,0.022461,-0.262451,-0.672852
-0.350994,4.748256,8.408898,-0.113701,0.007066,-0.017033,0.114258,0.011963,-0.590088,0.256208,4.629165,7.419465,0.092616,-0.075161,-0.069994,-0.111328,-0.243408,-0.629639,-0.615382,4.181454,7.841969,-0.207776,-0.057271,-0.168025,-0.053955,-0.217041,-0.654785,-0.402969,5.981522,8.313424,-0.055577,-0.315627,-0.132509,-0.029053,-0.307373,-0.607666,-0.034791,5.544268,9.37894,-0.030338,-0.164849,0.095767,0.023926,-0.257568,-0.675049
0.040041,4.083355,8.020287,-0.057901,-0.115927,0.006496,0.109619,0.012451,-0.593262,0.402835,6.229047,7.558919,0.246697,0.007289,-0.072495,-0.112061,-0.240723,-0.631348,-0.192294,5.065216,8.051931,0.359367,-0.109718,-0.165131,-0.052979,-0.228516,-0.659912,0.222218,5.29965,7.95167,-0.242721,-0.223231,-0.118267,-0.033691,-0.311279,-0.614014,0.187143,4.53228,8.622944,-0.308976,-0.226473,0.051612,0.02002,-0.25708,-0.682617
-0.071996,4.389888,8.321766,0.352415,0.069622,-0.039964,0.108887,0.011719,-0.584961,-0.27752,5.888789,7.183615,-0.107749,-0.037873,0.025226,-0.117432,-0.240234,-0.625977,-0.623608,6.135341,8.423853,0.212583,0.074645,-0.177432,-0.059082,-0.234619,-0.650635,-0.401897,5.395752,8.045817,0.421698,-0.084609,-0.056866,-0.040039,-0.316406,-0.601562,-0.10232,4.460548,8.333014,0.393458,-0.108076,-0.107942,0.013672,-0.268066,-0.673828
-0.257023,5.139649,8.576812,0.296392,0.057874,0.067156,0.113281,0.006836,-0.587402,0.024075,5.70229,7.46801,0.275184,-0.197194,-0.051124,-0.112549,-0.240967,-0.622559,-0.897406,5.363933,8.344015,-0.234625,-0.166073,-0.013468,-0.063477,-0.230713,-0.657715,-0.597554,6.848174,8.337652,0.394467,-0.341019,-0.054315,-0.047119,-0.324219,-0.60376,-0.275389,6.062269,8.431617,0.381528,-0.289907,-0.225234,0.004395,-0.273926,-0.673096
-0.473521,5.943838,9.036833,0.051273,0.111422,0.049014,0.114746,0.005371,-0.593506,0.234669,6.945305,7.85794,0.347407,-0.0591,-0.071257,-0.115479,-0.246094,-0.62915,-0.529378,4.927895,7.862934,0.356026,-0.11006,-0.036324,-0.062256,-0.23877,-0.654785,0.301701,6.665642,8.167844,-0.140932,-0.266465,-0.00882,-0.043701,-0.323486,-0.607178,0.246008,5.748631,8.739509,-0.139487,-0.172893,-0.301115,0.009277,-0.270752,-0.676514
-0.572984,4.95782,8.431747,-0.300175,0.02239,-0.007191,0.107178,0.010742,-0.583008,-0.126498,7.242762,7.855147,-0.210676,-0.063986,0.00845,-0.12207,-0.242676,-0.614258,-0.910198,7.029064,8.418839,0.310104,-0.04803,-0.222635,-0.056885,-0.24707,-0.651855,-0.667339,5.850454,8.271179,-0.269812,0.064592,-0.035179,-0.041016,-0.323486,-0.606201,-0.62776,5.013416,9.280567,-0.161298,-0.144651,-0.330635,0.010498,-0.273682,-0.675049
-0.260004,4.709291,8.376579,0.029579,0.037168,0.07823,0.119629,0.012451,-0.593506,-0.027028,5.858291,7.496687,-0.405734,-0.099449,4.1e-05,-0.11499,-0.236084,-0.629639,-0.725823,6.090939,8.642051,-0.626559,-0.206372,0.106457,-0.065186,-0.23999,-0.65332,-0.86696,5.434285,8.163678,-0.050544,-0.519296,-0.038746,-0.052979,-0.324219,-0.607666,-0.194996,4.855401,8.381093,0.052903,-0.483285,-0.367425,0.003174,-0.282227,-0.674316
-0.369116,5.593507,8.567412,-0.076044,0.087635,0.004056,0.118896,0.008057,-0.580078,0.171862,5.332308,7.559064,0.108957,-0.130642,0.027906,-0.118652,-0.24585,-0.615234,-0.392476,3.910783,8.017294,-0.113049,-0.145029,-0.073107,-0.075684,-0.232422,-0.654541,0.810523,5.844217,8.147927,0.218824,-0.421873,-0.055487,-0.067383,-0.322754,-0.606201,0.426331,5.357259,8.172915,0.219585,-0.272155,-0.427103,-0.010254,-0.277832,-0.674805
-0.415681,4.945842,8.427615,-0.328825,-0.027804,0.00872,0.115234,0.011719,-0.593506,0.236163,6.741644,7.744569,0.384609,-0.072218,-0.020536,-0.121338,-0.251465,-0.624268,-0.660925,5.599055,8.290065,0.68276,-0.088789,-0.159969,-0.071533,-0.247559,-0.641113,-0.020963,5.985141,8.053619,-0.027506,0.074828,-0.00014,-0.058594,-0.326416,-0.59668,-0.047009,5.833202,7.942933,0.180385,-0.219279,-0.34923,-0.005615,-0.285889,-0.666504
0.106584,4.518789,8.311464,-0.095974,0.002049,0.071284,0.111816,0.013916,-0.591309,0.244777,6.938234,7.640463,-0.193861,-0.160903,-0.000579,-0.126465,-0.248779,-0.619385,-0.130596,6.653382,8.406153,-0.108862,-0.245658,-0.033472,-0.074463,-0.240234,-0.654541,-0.340379,5.466531,7.640872,-0.036879,-0.398108,-0.089099,-0.067627,-0.321777,-0.608154,0.422804,6.137858,7.449167,0.238249,-0.356548,-0.110371,-0.013184,-0.286865,-0.676025
0.031417,5.026469,8.618534,0.200074,0.031105,0.115937,0.123047,0.015381,-0.588135,0.645625,5.690098,7.537578,-0.198784,-0.164636,-0.106199,-0.118652,-0.241211,-0.620361,0.084122,4.655616,7.949954,-0.433437,-0.073132,0.074935,-0.075439,-0.236572,-0.659424,1.235464,5.985465,7.485603,0.321028,-0.366481,0.017415,-0.076172,-0.329834,-0.606934,0.701434,6.836858,7.416288,0.162078,-0.120219,-0.060955,-0.015381,-0.290527,-0.672852
-0.20515,5.55047,8.882707,-0.03398,0.0341,0.007663,0.114502,0.011719,-0.589111,0.626224,5.983571,7.940014,0.056525,-0.098096,-0.065772,-0.129639,-0.24585,-0.621338,-0.373059,5.233049,7.901094,0.465405,-0.07809,-0.126489,-0.077881,-0.248291,-0.652832,0.616664,7.013431,7.710783,0.029881,0.160569,0.051281,-0.071289,-0.333984,-0.605225,0.298531,6.703353,7.301405,-0.338246,-0.149719,0.096479,-0.01709,-0.285645,-0.672607
-0.298402,4.390492,8.713654,-0.130484,-0.046345,-0.081888,0.115479,0.014648,-0.589355,0.475565,6.572915,8.060103,-0.042145,-0.015153,0.024405,-0.124268,-0.245605,-0.624268,-0.142107,7.448073,8.38301,0.11019,-0.06879,-0.038968,-0.081299,-0.249756,-0.649658,-0.17764,6.201003,7.599244,-0.567335,-0.038105,-0.039293,-0.071289,-0.322998,-0.604004,0.655402,5.063604,6.831482,-0.55499,-0.064594,0.171998,-0.02124,-0.273438,-0.675049
-0.376356,5.194924,8.697011,0.110244,-0.12191,-0.067936,0.109375,0.012451,-0.590576,0.333461,6.41839,7.964939,-0.278882,-0.036767,0.069409,-0.132324,-0.236816,-0.625732,-0.483711,6.00632,8.2921,-0.852398,-0.060914,0.043742,-0.07959,-0.233398,-0.648193,0.568433,5.088018,7.361058,-0.321063,-0.087043,-0.057043,-0.07373,-0.316895,-0.5979,0.181496,4.450813,7.026891,-0.161038,0.071293,0.080254,-0.02002,-0.272461,-0.668945
0.146902,6.001983,8.984563,-0.269399,-0.125359,-0.111675,0.12085,0.018799,-0.587891,0.74293,5.795453,7.692564,-0.201014,0.031378,0.09049,-0.119629,-0.238281,-0.622559,0.07609,3.683431,7.624247,-0.199339,-0.135831,0.035184,-0.07666,-0.222412,-0.655518,0.592611,5.25159,7.539315,0.086376,0.147253,-0.043739,-0.064697,-0.312256,-0.611572,0.720236,4.808669,7.352818,-0.008275,-0.03152,0.030966,-0.015869,-0.265137,-0.674805
-0.376942,5.156349,8.589781,-0.646527,-0.111838,-0.11253,0.10791,0.028076,-0.595459,0.281143,6.121399,7.542063,0.181578,0.069999,0.003177,-0.130615,-0.241211,-0.628418,-0.15151,5.348244,8.062018,0.52307,0.121664,-0.207728,-0.075684,-0.232422,-0.651611,0.080309,5.769956,7.749341,0.050227,0.161843,-0.056971,-0.066895,-0.313477,-0.60791,0.478147,4.664127,7.749175,-0.11679,0.256128,-0.03834,-0.012695,-0.267334,-0.675049
0.120075,3.315967,8.254651,-0.135651,-0.170044,-0.018604,0.101318,0.029785,-0.590332,0.357414,6.929951,7.454391,0.129539,0.039882,-0.055439,-0.131592,-0.242676,-0.62207,-0.431236,6.270896,8.240202,-0.056197,-0.009435,0.023973,-0.084229,-0.230469,-0.657227,0.102272,5.438043,7.730141,-0.120737,0.087791,-0.057067,-0.072754,-0.310059,-0.614746,-0.120799,4.245352,8.250726,-0.054726,0.113277,-0.175531,-0.018311,-0.260498,-0.682861
-0.443601,4.707754,8.600607,0.654072,-0.065276,0.092501,0.105957,0.022705,-0.588867,0.050578,6.553127,7.776432,-0.17428,0.010804,-0.112276,-0.124268,-0.237061,-0.624023,-0.304915,4.779209,7.920076,-0.359007,0.036959,-0.029233,-0.072754,-0.231445,-0.661377,-0.148693,5.079166,7.813995,-0.006362,0.163483,-0.083259,-0.05542,-0.317139,-0.613525,0.119774,4.480952,8.683387,0.221224,0.025093,-0.190102,-0.006104,-0.270264,-0.679688
0.062889,5.873268,8.88469,0.226729,-0.203649,0.173579,0.095215,0.021729,-0.587402,0.532761,5.833552,7.590417,0.083435,0.000971,-0.197036,-0.131592,-0.240479,-0.624512,-0.235207,3.973446,7.787944,0.251763,0.107135,-0.064026,-0.069336,-0.235352,-0.65918,-0.280754,5.005791,7.920018,0.152998,-0.043567,-0.033532,-0.05542,-0.319336,-0.612305,0.033021,5.13102,8.822859,0.266464,0.015344,-0.255339,-0.001953,-0.276611,-0.678467
-0.18208,5.047729,8.712709,-0.313335,-0.124118,0.121994,0.094971,0.021729,-0.586426,0.254097,6.426642,7.639001,0.163394,0.10796,-0.181568,-0.125244,-0.247803,-0.621338,-0.473943,5.912284,7.841679,0.716884,0.137472,-0.213842,-0.080811,-0.250732,-0.651123,0.07502,5.15409,7.717586,0.298015,-0.113626,-0.080527,-0.071533,-0.328857,-0.606689,0.232188,5.052358,8.652976,0.120199,-0.078958,-0.031886,-0.015381,-0.283691,-0.670654
