# sampling frequency: 40
# units are seconds/meters/radians/a.u.
seg1_acc_x,seg1_acc_y,seg1_acc_z,seg1_gyr_x,seg1_gyr_y,seg1_gyr_z,seg1_mag_x,seg1_mag_y,seg1_mag_z,seg2_acc_x,seg2_acc_y,seg2_acc_z,seg2_gyr_x,seg2_gyr_y,seg2_gyr_z,seg2_mag_x,seg2_mag_y,seg2_mag_z,seg3_acc_x,seg3_acc_y,seg3_acc_z,seg3_gyr_x,seg3_gyr_y,seg3_gyr_z,seg3_mag_x,seg3_mag_y,seg3_mag_z,seg4_acc_x,seg4_acc_y,seg4_acc_z,seg4_gyr_x,seg4_gyr_y,seg4_gyr_z,seg4_mag_x,seg4_mag_y,seg4_mag_z,seg5_acc_x,seg5_acc_y,seg5_acc_z,seg5_gyr_x,seg5_gyr_y,seg5_gyr_z,seg5_mag_x,seg5_mag_y,seg5_mag_z
2.0489408039259667,-6.134516024793355,7.3116688094403415,-0.009241243114777772,0.0034992409522610376,0.014712230131818618,-0.5621932414295877,0.05078402754856139,0.0719768326118923,-0.0495536846541399,7.446050390219258,6.360783860706621,-0.02239176137271451,-0.003985874428994202,-0.010594584308206732,0.22144522652486073,0.46666984371821485,0.5507487568105534,-1.10306449421533,-6.087022835892646,7.520772426404082,-0.030843127974225715,-0.015464603773781935,-0.002603613620617501,0.6902241139239155,0.1339480760093835,-0.31230042543891967,0.9518750921141275,-6.16713705595445,7.724672590124141,-0.032272448160625536,-0.0013551705299184554,0.007656460184352722,0.09806719815770892,0.4361972632921632,-0.7909968864110174,0.4475191600203182,-6.050474911260269,7.722186787301556,-0.012513508707321751,0.008208861614437913,-0.003098352598848375,-0.29995794340605597,0.4484178553211952,-0.4439024967960295
2.046015257499495,-6.149375287451086,7.304124463453107,-0.010856426536845239,-0.0003593573355365209,0.010430079297660138,-0.5707218655998727,0.05183203947485459,0.06707994750354258,-0.04299376974487478,7.443478747934065,6.384793346360009,-0.017506177488870445,-0.0013102453980380069,-0.009836000494361818,0.23337734335407245,0.4724237014945938,0.5562894028616242,-1.0783915055174207,-6.095607364543192,7.411700855068739,-0.020088571125677305,-0.00690914980674567,-0.003061657733410176,0.7046751154998574,0.13982289526607397,-0.30483420201918837,0.9369357851474991,-6.205729964228897,7.5507806584042445,-0.026271381763071106,-0.006310190049384842,0.00615700639918618,0.11108127851306857,0.4446599887151321,-0.7846922975330908,0.43413985011417955,-6.029388195432581,7.683352385786433,-0.014827191440387731,-0.002274500913546834,-0.006709981638154262,-0.2889255752008126,0.45222156803262537,-0.4400263531721631
2.0716784800430132,-6.171287616500688,7.2937240249862025,-0.00369091055697406,0.002866051504674125,0.008664364837249907,-0.5568320399101984,0.04759850109257447,0.06977259454246654,-0.02477376403377326,7.430166775587108,6.379885104809183,-0.010613576801487546,-0.001251661100166401,-0.009691333136842195,0.22606668883883546,0.4720291915720766,0.5489576343519206,-1.0606291595423705,-6.089272809074631,7.424054135259778,-0.004255286361241119,0.0034564256448732108,0.00040800091335452173,0.6953675234365594,0.13607718861798193,-0.31404691680309826,0.9612964127984236,-6.131431792852372,7.443512848616978,-0.0029398044232359396,-0.0032247797279834063,0.004350608883720724,0.10177409925642035,0.4444775028165837,-0.7919797081967934,0.47889654497939615,-6.120323458408988,7.751093936094597,-0.007088883058531735,-0.0034631862800664336,-0.006389012034111484,-0.2992130558881431,0.4508593294997021,-0.4448685094363929
2.1003239388429207,-6.173617866626813,7.325096459582398,0.0029695061701073265,-0.0005751908461399682,0.010531714323708715,-0.5634008417509494,0.05106595130258358,0.06684860421791794,-0.006570321508923947,7.457982624363878,6.391218038501403,-0.003362217705462638,-0.0024236746800422307,-0.01204282488232706,0.23095860434788393,0.47219379512886284,0.5431033048154644,-1.0589826943742031,-6.107388240899244,7.458399626758049,0.011749724711608601,0.011782097035707867,0.00766450237409958,0.7019865031831944,0.13961346475096564,-0.3185038878850021,0.9908878697963258,-6.160252862660099,7.5261071259059,0.016916574433752544,0.010136760381466256,0.004171718997732942,0.10542968845082011,0.44519049827911933,-0.7946795172848942,0.4959189597991296,-6.117243689262946,7.752067075710479,-0.0019026464605961882,0.004760744427789647,-0.003679609210126888,-0.2919301823585769,0.44937973904976297,-0.45125929774870555
2.060442618479921,-6.129854166867432,7.304197321526616,0.005186106449522252,0.001168931859771755,0.012517986507479317,-0.5580385824735531,0.046916699309227455,0.0626852801448235,-0.022150810137261834,7.460645693442079,6.363602296628571,0.004620027425538893,-0.004500459956314852,-0.01280572171995296,0.22188607532243948,0.47606581211781157,0.5576742794746886,-1.0977289031039092,-6.078952512876729,7.534326003050506,0.01772670720280191,0.015060951548172899,0.010490072650354681,0.6934606461195634,0.14186669198547364,-0.3046215603294296,0.9887399041043257,-6.143172561387423,7.694367214048693,0.02534083820825408,0.021833460369117992,0.006255498798117072,0.09571743878631706,0.4474361757715586,-0.7843848771719854,0.4437154804876684,-6.066447021267478,7.736310030481879,0.0034892695529918855,0.009159427060006978,-0.000532006502757021,-0.30280593150676377,0.4562184758096704,-0.4384711830716156
2.034730053290001,-6.130835799404203,7.309104929285685,0.00012931312396606876,0.001565523796875331,0.013196424491406268,-0.5600146493978715,0.046143967663853404,0.0704878947267987,-0.05880690458294783,7.465006401405227,6.353813120511599,-0.00450020357833699,-0.003925451320906584,-0.012833730738982944,0.22750676153916174,0.4755707571840998,0.555982804359366,-1.1372810350282732,-6.055652112533659,7.573694890856619,0.007344932733816616,0.009515923188952528,0.006957754378940432,0.6993057051574462,0.14007969457299632,-0.3065463190393632,0.9579597456984966,-6.174370158429818,7.87511690281272,0.011901836079703201,0.01446750276867485,0.006169682615034642,0.10521128034056076,0.44543014058776315,-0.7885743753978223,0.43488972490047767,-6.019607641039466,7.699272645758187,-0.002958882254842964,0.007088071606537072,-0.000750590236133132,-0.2952838690891094,0.45129451471210397,-0.4407335504366921
2.0359007968523253,-6.139276182656796,7.323684113249838,-0.0044145126511494085,0.00039497562944857854,0.00904814866726799,-0.5629119455605889,0.052751148239145056,0.07027841730321206,-0.03831837630583303,7.476543313881115,6.3695548886321625,-0.010538688506501533,-0.0007759628704744584,-0.008894052798728907,0.2163100355638014,0.4695512229043057,0.5489826373979946,-1.1289606365723872,-6.089958734374273,7.609482444536921,-0.006204349641280992,0.0025813756623576808,-0.001194964107629962,0.6863218209133987,0.13445491654470831,-0.31304101164715187,0.9641588043013557,-6.204333152688121,7.898877159408877,-0.006937962472967873,-0.0026083781771840476,0.0034210039474516173,0.09196187350164534,0.43696754038283503,-0.7924360128987341,0.4273322298421178,-6.014339913351497,7.700103192233873,-0.0065273717141446945,-0.0007639664305812061,-0.005739563641804903,-0.3070773523859622,0.44753248438817844,-0.4507099896596174
2.060001382447883,-6.12872260308778,7.310810514792854,-0.0073137743721270534,0.0017493481432076744,0.009738741577199459,-0.5621919362329186,0.0483767893980961,0.06659061642764887,-0.03846654514061574,7.443572110446427,6.34441371202754,-0.01749615905353133,-0.001856631239749741,-0.007944574803796548,0.21800193163926737,0.4730161078912186,0.5513698593602947,-1.1004050791465703,-6.078728611142328,7.578510222493673,-0.02089970659485984,-0.006032338948754112,-0.0023861083496178907,0.6912223512406692,0.1366548231466867,-0.3106370408790115,1.002390673759803,-6.145874150482878,7.799447514182318,-0.02391948769663219,-0.011587095620207571,0.006124697006287558,0.09516893420540458,0.44060802933981513,-0.7895162247563327,0.47079679591534085,-6.117367267178685,7.7501282226230055,-0.012166642750962945,-0.0026483755922216685,-0.007097926732008819,-0.3043327891746249,0.45285775911344717,-0.4462961803208048
2.0755614084142926,-6.151690165658715,7.333966108900432,-0.010522400692537808,0.0009292445064404824,0.012158997175463529,-0.5626759398741056,0.04983539434904696,0.06781963761232362,-0.01634580375309933,7.46276358671778,6.3518649958761575,-0.017777452097912504,-0.002234124897750983,-0.009340931048224024,0.22384914849798446,0.4745635543459454,0.5550163488333206,-1.0870969332528242,-6.092032652426669,7.512918364894004,-0.024309615313931963,-0.008704942159320418,-0.003072277866914168,0.6924493031580574,0.1374594564523812,-0.3057682317601628,0.9848318161327609,-6.152227855687028,7.5864061951782045,-0.027521715986988837,-0.006991840995622319,0.005073297805516464,0.09862868488822717,0.4442449987792122,-0.7843994215053174,0.47413416675672876,-6.091129392865912,7.770895495925348,-0.012468393366549799,0.0030680211433300867,-0.003723269278612078,-0.30138312683481144,0.45182627125106106,-0.44070125593607573
2.058328659741341,-6.178867329228474,7.291085575654246,-0.00729113656046933,0.0008565085979816089,0.013193273539124816,-0.5644338980783035,0.04055298440572184,0.0699542728496304,-0.025111828087295954,7.41940708622143,6.382464915354518,-0.014401242494357602,-0.003995141319704968,-0.01146607336686343,0.22462424272720444,0.46639717209961473,0.54831733764191,-1.0716121906795666,-6.0916495129638,7.443507885018181,-0.01273920073063947,-0.003094938293145066,0.0011827276550834263,0.6967941953968965,0.13115489549034598,-0.31567364126754094,0.9749156122141002,-6.139285150373197,7.477094796445031,-0.013465852168129124,0.0027446829582936753,0.007153937995575893,0.10024631191530001,0.4354555955603276,-0.7944242395015277,0.4647796981501895,-6.108152569904174,7.7214861113247135,-0.010838716088252766,0.004388775503652786,-0.0024481297222140506,-0.29633640698707603,0.4457319356555974,-0.4483309473733711
2.0675549460193627,-6.160137731539232,7.311215512015671,4.979734193748628e-05,0.0021047416896096053,0.010677560004268545,-0.560741339720862,0.0451974885074924,0.06633013109943288,-0.02674531812444807,7.437741957567892,6.39318192169991,-0.006107351320383009,-0.0015179638896056526,-0.011027465142963239,0.21898942602051896,0.4705659383444879,0.5506794203410684,-1.0725467955136088,-6.101921123205428,7.415002068561741,0.0031292722484439054,0.006642683789508664,0.005034005688089521,0.6900142955667671,0.1383524295445496,-0.31188647955565296,0.9384965897216457,-6.181516873310551,7.500136025675186,0.007632119781708579,0.010786556758084894,0.006180084622581285,0.09543115968121679,0.44304662438994014,-0.7885379415757858,0.4529635325398234,-6.060912844069159,7.719704422995906,-0.002097567541836654,0.004074879050202168,-0.003470766073024341,-0.3035973413328441,0.4523557917459215,-0.444838644992259
2.0731809414056284,-6.145421966208242,7.311082227969311,0.0012481908473172356,0.001770303926221131,0.009846302890805236,-0.5673372027368362,0.04304758164604302,0.06361484924268283,-0.04237755376790894,7.459878601554879,6.375000621862423,0.0008349184853743615,-0.0025180729755582163,-0.0118821427197515,0.22581054552823873,0.4744974920463494,0.5506251418850794,-1.0942422414730322,-6.097712810925632,7.4980428390927125,0.016091038362368502,0.015290546782856566,0.007633242856221719,0.6971247334672156,0.14222756480325685,-0.31048845931596086,0.9603220021331843,-6.186333740917063,7.64859933694948,0.0232158442529116,0.015451282305802802,0.003629832052717678,0.1030181269437232,0.4469091945262985,-0.7897853058767692,0.4477993534689,-6.071939440306396,7.737787794527353,-0.0013776471401610486,0.002630711344993367,-0.004663857542478037,-0.29553122205539717,0.45474909146993747,-0.44657192143674895
2.0743960826464205,-6.147588769532677,7.284185931493436,0.003997389543446432,0.0010514800801633224,0.010457367378024208,-0.5693134846918241,0.04323749904316687,0.07386555609717141,-0.021831681373070642,7.452625583115578,6.3805624142043005,-0.00112460605390372,-0.0035917388753023438,-0.01027325766615269,0.22995690463446192,0.4743143287391046,0.5533215820133077,-1.0969127745885445,-6.080630621552554,7.563747215134961,0.012258942687112499,0.013366944838326945,0.007101596079981996,0.6997679845795877,0.13683257218919084,-0.31064234320438644,0.990119278282973,-6.150164814846019,7.814377119112592,0.01904518662946118,0.008474825718256768,0.00349871580643053,0.10520890294812044,0.4446976908026666,-0.7880870565491028,0.4657692081760747,-6.093462116617076,7.72503517051389,0.001027534687748593,0.004766137897433043,-0.0032575542985690867,-0.2942887267279139,0.4539748458997435,-0.44096631084037174
2.0649007664748664,-6.111393889755299,7.336549467906702,-0.0010583778923459743,0.0014540608303983552,0.011136845394387699,-0.5617227082709471,0.05049485201881165,0.07881229543891534,-0.03473118553316864,7.493025033144311,6.342350344333649,-0.00736990092963006,-0.002433796009955791,-0.011619356189968583,0.22409836556326143,0.47522795085624303,0.5508550651213541,-1.1161617884781947,-6.05974282351426,7.633224517748027,-0.002617654418768166,0.0032219336512917126,0.0032719136435085737,0.6951410756695263,0.13830859050631022,-0.3121311608109192,1.0059331465376462,-6.1467213022202625,7.861379208019577,-0.0009271617120548361,0.0034597950257095394,0.006187000366880146,0.10322999364378545,0.4422709995943806,-0.7910115527014074,0.4454498633568459,-6.046831805472164,7.752007281622329,-0.004861105701039262,0.005394016639765329,-0.002826680005458405,-0.29625564256464787,0.45400634274077495,-0.4438868174813863
2.039129323556654,-6.108408169213977,7.29801484005379,-0.009913448183915562,0.002711137698477185,0.01363765923774007,-0.5626529976349643,0.05616482800255779,0.07078845695331892,-0.04807158631056443,7.4626588093940605,6.354889658638992,-0.01748552474074767,-0.004494896966240752,-0.010747813442909255,0.21892210118068492,0.48391955228586636,0.560711311193274,-1.1071765560295774,-6.074014682875975,7.601409916882957,-0.018841850258020057,-0.007010901769387453,0.00031819841977837363,0.6915333447917386,0.14512105795358268,-0.3007692970028413,0.9671127534540858,-6.1612789951573905,7.791010408490338,-0.020251429874888826,-0.0012662619507205729,0.006947978964750667,0.09576257209829343,0.45280383912574057,-0.7809619371929143,0.43007479773299084,-6.0410198371467425,7.70920512547049,-0.013349896903034949,0.003196627500170298,-0.003597289438381743,-0.3032220034632091,0.46179738758052824,-0.43184370537794925
2.067320244642346,-6.169865425880403,7.318298100106784,-0.011711030344087405,0.0008297984433790573,0.010097491164800774,-0.5619169605371847,0.05665394177591094,0.07006126433275098,-0.041314622560113326,7.440465845561483,6.369627442264797,-0.01765980439632161,-0.0028392104900946567,-0.009546638229062435,0.22089927820720198,0.4820426309972512,0.5502465688896071,-1.1067537257988067,-6.101627014307235,7.506804376677712,-0.022422477299695806,-0.0076425920001435,-0.004153831034595531,0.6918154448299004,0.15027135091346314,-0.31379695220229575,0.9528374734586881,-6.182496124039346,7.671842780180216,-0.02539472112640903,-0.00563455883550233,0.005315171741456471,0.09621622247098158,0.4545208135765323,-0.7924361987410353,0.44113926855668895,-6.058891774157533,7.695972245289899,-0.012988528627262302,-0.00025494635495535724,-0.005649675340661849,-0.3003630249065239,0.46235715738402633,-0.44723546363941846
2.072264906391926,-6.169047451164287,7.310775858183923,-0.0033011421528538762,0.0014813375957078512,0.011502673837599404,-0.5648590643853033,0.052293838073183996,0.06685282644986261,-0.011388840363074892,7.440504143504616,6.38831292492281,-0.01500291912619004,0.0004841561654789493,-0.008662633289042647,0.22384523326647934,0.4750729103930754,0.5562289918509538,-1.0741723452286414,-6.092579585265137,7.45159838656006,-0.013877012421261298,-0.0002000359094544189,-0.0003259292792745837,0.6944227859118269,0.14011342486904926,-0.30678960263496885,0.9803466678510256,-6.154309372716531,7.520328419317128,-0.015740662436261925,-0.005263818041454372,0.004718323292665747,0.10008069385457029,0.44252810661187914,-0.7851388004659386,0.4726509126357505,-6.117663657637941,7.758052832953032,-0.009109113061598265,-0.0016346002668897598,-0.0078984970214911,-0.29671015370270015,0.45618344185471593,-0.4399655389815264
2.0831668394130967,-6.151228633074977,7.317353774898355,-0.002166576758013244,0.0007993675507463873,0.011598105606970931,-0.5648809092392625,0.04717311766785766,0.0658446348347268,-0.014010950745414478,7.424194926758817,6.358387133516711,-0.008352156640547673,-0.002970222242108269,-0.010819925382563447,0.2240921881750488,0.47528921831529797,0.5545165473537751,-1.0593491269747277,-6.075889894354671,7.4475987602137685,-0.0014672841206282061,0.003904106585495616,0.0036261653407480025,0.693436434444913,0.13884263861253757,-0.3101864179190221,0.9744948990643143,-6.135601487345985,7.5310164004655675,0.0018353374795558276,0.0031241368098673633,0.00553174714980443,0.09935777707905485,0.4447302995113166,-0.786110860016247,0.4836326834455509,-6.0926895776501855,7.764948661376523,-0.004368501817052216,0.0038897083396625186,-0.002541001949383615,-0.29918206044787765,0.45352963755466275,-0.4424106479320979
2.071235700841192,-6.147181228739081,7.308914504164472,0.0010412640536274472,0.002054243423580514,0.012081640374026184,-0.5563868840989601,0.040006984267115936,0.07314411906299145,-0.04133771267430696,7.457366682791834,6.3686975106760375,-0.0031220673802320833,-0.0035938995667345835,-0.012458900038828297,0.22579324888993943,0.4784284269837451,0.5520245436659363,-1.0995136354084707,-6.108501993347273,7.500705330904904,0.00838751796096657,0.012052717845331339,0.006211647204670813,0.6968997140391039,0.14467414512992768,-0.31028557027702713,0.9809988358662385,-6.167377983999261,7.58469597870088,0.013036433509428918,0.012453392963628615,0.0055172783188528855,0.10449406085737062,0.4490987761277659,-0.7900330708724027,0.4631545876096796,-6.092747938183807,7.72801500313658,-0.0030364379128001388,0.007405594380579709,-0.0017533541205461572,-0.2971980545340325,0.4581573390175236,-0.44288051355593444
2.035822042708239,-6.143272867564954,7.305370446098509,0.003706989684910613,0.0018797064106663138,0.010165862545090124,-0.5631469809232704,0.05904498245963072,0.07910652979588753,-0.03601640576954289,7.463075624052929,6.36618261753662,-0.001659066169030043,-0.002787343523423174,-0.011270758294330106,0.22384904513517723,0.47667953511945454,0.5500972515222833,-1.1107625203811242,-6.098968055418065,7.5406164784257905,0.011179977070054456,0.011432688329240544,0.007500517067476323,0.6961207603661856,0.1387848344772584,-0.31238348119310605,0.9639419452129746,-6.163569552689022,7.741474371272043,0.016818047082124137,0.01644443062368847,0.0052760995826607185,0.09957955589186789,0.44473418914830887,-0.7917267802461747,0.43011872156723185,-6.051638539888046,7.7171127691643235,-0.0004688614998660482,0.00539762259114793,-0.0021926099191312766,-0.29993032967165606,0.4540486421991893,-0.4465550988423761
2.0536297685430034,-6.121781955224643,7.306291742671242,0.00012057792173439207,0.0024471782974796815,0.009760855973998114,-0.5614661055718712,0.05124710808456248,0.07539954891062348,-0.0349885443817175,7.4610699848131725,6.337727883779172,-0.005845207542072768,-0.003231395347941544,-0.00954414647285955,0.22753856841927428,0.46938287819732216,0.550958674587219,-1.125934998247093,-6.083825218869826,7.595285324889568,0.00274733262148939,0.006771523165558125,0.005560013802609659,0.696810641498093,0.1331897729924526,-0.310825225435831,0.978010056599961,-6.192479540987051,7.844909152910577,0.0059815566533325815,0.008146756026753145,0.006686115706711488,0.10271180086824658,0.4371467343877009,-0.7907693599290317,0.43512708865757377,-6.04114439726083,7.698616951539572,-0.002728680158583091,0.0016941901992927738,-0.005134010631151368,-0.29580634111073356,0.44863207608986877,-0.4439210398201177
2.061574335951182,-6.127588471430009,7.314389461377996,-0.0054566527100534295,0.0005305159837995842,0.01149556749329061,-0.5619833495726642,0.04611186042628142,0.07707514466490391,-0.023639346944897922,7.482490925175346,6.352528736103962,-0.012560245090387858,-0.002884998510770772,-0.010988473636599312,0.22138799261785522,0.47945285088400874,0.5559075222713153,-1.1052901467153746,-6.081960848424559,7.5937391330915975,-0.009775187016856727,-0.00011012882403600587,-0.00028654568151012294,0.6932278691338428,0.14332511310952534,-0.3051341300318493,1.0067704742375796,-6.152788388841484,7.837650945372398,-0.010835461785821527,-0.0032718020463920793,0.003799797923209334,0.09913822490773451,0.4479040635305345,-0.7843979674935283,0.45249173712458857,-6.075252739649402,7.724704234075722,-0.009477823890617531,-0.0001257160106576668,-0.0048926431285251,-0.3003626314430697,0.45767610248623053,-0.4401831983374741
2.0465715402224967,-6.14836752327434,7.306455163754767,-0.007911268028617078,0.0008538057007072136,0.014088797216399317,-0.5617444838354946,0.04416848533883995,0.07535448710771298,-0.02758558439760255,7.461443109959484,6.3757265017421805,-0.0184615214482867,-0.0029646282734670784,-0.01004596292122411,0.22359228346666152,0.4777443188065031,0.5554507608521879,-1.0864334691776882,-6.0635965908667036,7.556519505560033,-0.022519377712417903,-0.007835148157536007,0.00010504187220323016,0.6961540920302222,0.14300811652054082,-0.3080599972064281,0.9780493480328981,-6.149577119311825,7.705569529107495,-0.021656775838011705,-0.007581897323176535,0.005644539067357134,0.10228470265095634,0.4461805922881539,-0.7888060870118826,0.45684368534880215,-6.0781126025638645,7.744487965315412,-0.013124879995499905,0.0013180245507639996,-0.004119591410238372,-0.2982027402209102,0.4540130643984931,-0.4426564453684483
2.061024008121596,-6.152549998766834,7.307283431453143,-0.008056562187908504,0.0010525444590161186,0.012489661039201879,-0.5643401012277753,0.060811768116008046,0.07081357764460887,-0.031341653536271524,7.454898449566818,6.365901272586065,-0.016641763073542943,-0.003385778577836076,-0.011360032888417575,0.22481172943189356,0.4803488124201271,0.5502815123038521,-1.0937305200356848,-6.097581014969127,7.4814611294704685,-0.017217390123931826,-0.004108046918569652,-0.0002792093035075098,0.6959355851294862,0.1463657517562195,-0.31177900841351797,0.982325246165004,-6.154432029347466,7.551689734551128,-0.019864816720674534,-0.0002765349814854245,0.005883379136008861,0.09960977634271537,0.448882726222999,-0.7902579535497015,0.4620965962579193,-6.069570109140791,7.724442286501821,-0.01041671343929514,0.0032030053752842907,-0.003176243014869601,-0.29891803049899646,0.45892296631438656,-0.4462858316794354
2.066459563422681,-6.164818652763148,7.280329844814487,-0.002749289022391454,0.002470873112063314,0.011008185633220417,-0.5621948239766704,0.0478862741351831,0.06683153848513929,-0.03029140975384,7.43655009912757,6.372614972397349,-0.010063480752730464,-0.005229013319006498,-0.009622852012219458,0.23093749821988546,0.47263790736831446,0.5550605295708216,-1.0870892407805288,-6.088388249297442,7.4516913064585575,-0.006737722477770853,0.0016285637007792163,-0.0010037475205676492,0.6995456462663646,0.13957243507598238,-0.30751497897295194,0.9519614885514045,-6.1670655447634815,7.530061705495852,-0.004672008701849569,0.005423173452879082,0.005858675566186396,0.10471851382879013,0.44445679678041067,-0.7883293468330266,0.4610874393107784,-6.083725176287953,7.705015052774001,-0.008919262183253058,0.002576489416771625,-0.004237162658154119,-0.29332623579954403,0.45226037561646265,-0.44122514642631877
2.0835003704122323,-6.1616937963249665,7.316918924092128,0.0007750541645808957,0.0011160858601419077,0.009437061639872717,-0.5678092604210762,0.04960187219199555,0.07000297486621178,-0.01667255544579974,7.442006135051133,6.391349311973036,-0.005064213513018116,-0.0004990947374665371,-0.011041753798088322,0.22797777510495362,0.47973425806546743,0.5566460348107858,-1.0776328692418566,-6.100635820238951,7.465988029661982,0.00658039115870882,0.008690219260330655,0.006097743796336882,0.6993171185645879,0.1415485518079382,-0.3063270266375425,0.9766384687858112,-6.165028288221945,7.572813359853253,0.01290690767126464,0.008773228646657753,0.0042862906433084776,0.10427086807886697,0.4483612043872059,-0.7836848347464264,0.48523166824729974,-6.082229653796711,7.748941989686778,-0.0014501836461436244,0.002954227834434346,-0.00567160976220252,-0.2952071768902492,0.4598201986944499,-0.4375089369808183
2.05727023394431,-6.1438095308303255,7.2992461141969445,0.002368485582055772,0.0028445829786186362,0.01230876897684521,-0.5678345542158678,0.043749180644154576,0.06898918402497488,-0.041644760302608386,7.4542065278605625,6.36322909083441,-0.0014119226517114879,-0.003957474731916462,-0.011682822654300061,0.22778432109752084,0.47194996275061396,0.5438351330861547,-1.1020632079320802,-6.082392540193315,7.523459562707981,0.011461169604219517,0.013163381891823141,0.005872065179588633,0.6999952778035956,0.1347176583350791,-0.32013013510661564,0.997249099268685,-6.14622514300694,7.6872835950505385,0.015525185314914975,0.008811889476283643,0.00529197673797892,0.10465304422436526,0.4400713673720024,-0.7983433294391011,0.4524320944756758,-6.0902339298876385,7.7454267090919995,-0.0008180279369841784,0.005338891432570924,-0.004005346372729105,-0.2948695818196153,0.4489215143094698,-0.4527130415004825
2.0709930278798265,-6.132910424346667,7.321293709382389,-0.0007765106312133602,0.0019412377218211419,0.010899568080753994,-0.5585376454734711,0.04978514607133292,0.07271130589260012,-0.026983212847457846,7.469591154693579,6.371099541992329,-0.005870165131357385,-0.002697215648219191,-0.011444394395405878,0.22119422516214626,0.46767845879606035,0.5526857325307569,-1.0885512445402545,-6.085153655564467,7.587587506189783,0.0032877672136036526,0.007732279508181081,0.005368661505116134,0.6911846606368787,0.13178088014955108,-0.3100668724135046,0.9948387277152684,-6.16080351485489,7.798956230773159,0.008236222883720145,0.007150826626180969,0.006299247746515921,0.09636215846340448,0.43522901662770136,-0.7885490385730983,0.4529627532875571,-6.037451292270969,7.724671601733744,-0.002893024417960085,0.005840566945949809,-0.003282424327683005,-0.29872392402912484,0.4503620190352848,-0.4438967845131382
2.04098445045294,-6.151783235943065,7.298330227824457,-0.004047165479321297,0.00034281217032512397,0.011344749640202158,-0.5634138061242975,0.053684495360181626,0.0776072388405567,-0.04944488715710153,7.464860205838268,6.348035542249528,-0.009542800218487186,-0.003412467688595334,-0.010620506638778289,0.22894779605845267,0.48120685510082856,0.5568670649472344,-1.1294882074756332,-6.082378370755115,7.593033600281369,-0.008364551183490086,-0.0001948845344321573,0.0015057547997644968,0.6966646738099515,0.14573920695287573,-0.30517571769559404,0.9735172776863454,-6.173916916249717,7.805068201447361,-0.006556698898096633,0.005427955360866851,0.0061941394204631205,0.10476018237532182,0.45153667113249074,-0.7883227977118753,0.4376640572810506,-6.071540925733829,7.721019072354212,-0.007072613336364291,0.0020116925492465894,-0.0034833281042112177,-0.29522118526349106,0.4593453386728363,-0.4397097685794083
2.0529120738607776,-6.1221066449786825,7.310599090916593,-0.006793338313609671,0.0010676153698913732,0.010734729897804352,-0.5680417039518795,0.05132116191227701,0.0685481708028678,-0.03439803207738641,7.458910886535076,6.3486605486804635,-0.015367185770192086,-0.00301834109074041,-0.008877679289338731,0.225048932997512,0.4808866938414346,0.5532033264740331,-1.0967078136866033,-6.076855194193556,7.547262243182131,-0.015647788736101113,-0.004169004594240593,-8.857970167009508e-05,0.6961679741479627,0.1448836597965991,-0.31273124775702366,0.9717543706911406,-6.157340762441345,7.746167408049924,-0.017129827118069835,-0.002565995853349653,0.006233390264184631,0.10132639010632287,0.45033787982145174,-0.7905073672452022,0.44839361984929604,-6.046799385691275,7.727804713769497,-0.008697276317456638,0.0006949200544301493,-0.004761467922370019,-0.2972039036033894,0.4576722788541892,-0.4433723950724948
2.0773933458612084,-6.15686624823081,7.293904113588199,-0.010168623233447326,0.0017868461400639445,0.011006194092779477,-0.5634060996685596,0.05129309737135318,0.06953607682573087,-0.032195153470213796,7.434480269869191,6.379169317193247,-0.017597796667237358,-0.002390725279396696,-0.008758925681670292,0.223619250432146,0.47136966094666494,0.5538482316160188,-1.0924861104380417,-6.0906535833587805,7.49356685216832,-0.016325173016639476,-0.0026441991762416227,-0.001377257308257759,0.6944044495814754,0.13783457245420586,-0.3116349089669103,0.981879961219976,-6.165826365701474,7.634666377616328,-0.019148045177615085,-0.006238350047299903,0.005332885106897116,0.09931740443734705,0.44082853570958097,-0.7905084367677395,0.4572672723625214,-6.091947047320733,7.74984552878316,-0.013454408033409712,-0.0032577888624608082,-0.005301363333911992,-0.29970287106316434,0.44864843799471493,-0.4419492813111011
2.0767956529498686,-6.164953171385141,7.321675592250303,-0.0008363695864950394,0.0015896552847728183,0.011831241143277403,-0.5665772626243856,0.05058991334992679,0.06732605086669603,-0.025485513453380477,7.447653078213243,6.368737771709699,-0.01084487803312114,-0.0011747832205853312,-0.010304096167610128,0.2199392700471541,0.4769371620465651,0.5517955860380668,-1.070550694474354,-6.099942802693533,7.463064031501194,-0.008551277536499405,-0.000662361176864223,0.0008025778249763,0.690553010980912,0.14491895352490403,-0.31321839453717115,0.989762266106875,-6.147050360054035,7.542708236690157,-0.007599952188132134,-0.002879266075987591,0.005344382059861795,0.09742045370620735,0.4503606281553684,-0.7902478901719248,0.48454060254713405,-6.108914780912186,7.752134112495983,-0.004713627620677047,0.003835942302268791,-0.004352728030471839,-0.3035445764532209,0.4601718205470564,-0.4455242670800799
2.076273830933251,-6.1411378600210185,7.333752987143773,-0.0022398736586074232,0.001778274241157894,0.011991079214012013,-0.5629351185893554,0.05052052949317306,0.07563549234663418,-0.0292494846760765,7.44260071595687,6.357186318110039,-0.005852186818265703,-0.0032325892624714826,-0.009554139684151117,0.21850454793327567,0.47052322986511547,0.5482379717492892,-1.0946038909958646,-6.084200513938432,7.474064988089081,0.0003855407242324585,0.005577826286705888,0.0021882754089216296,0.6882649749080088,0.1331984305031245,-0.31424154751939215,0.9764703765154062,-6.153317813034291,7.538999850217784,0.004346676483302446,0.006475350226632916,0.006683998877315176,0.09320347184418036,0.43964415426224934,-0.7912183767887487,0.4623592871830466,-6.087711967949745,7.742672285389201,-0.006134475357829433,0.004146900793419879,-0.002282028022114765,-0.30582229334950284,0.4509284715543161,-0.44849864821550917
2.061436990775164,-6.1552111923790855,7.284550214107462,0.0012814601971431528,0.0004205138150938216,0.010417929347737633,-0.5687743055386931,0.054701178843695325,0.07515977102205255,-0.03313251509816249,7.423125208314136,6.3784026045617015,-0.004565902483165505,-0.0028482401563737158,-0.011859726241606226,0.22606761279850668,0.4689659471324656,0.5556018252469425,-1.0967308178079358,-6.1105344913324515,7.504173298485838,0.006512905746305953,0.00993156000938123,0.005361753399755941,0.6965698577389305,0.13351785179853864,-0.305946993330004,0.9797970398238789,-6.175100866504811,7.639633864436299,0.012672505095984356,0.013438485358084314,0.005589652929547957,0.103221539634653,0.43738322426142456,-0.7858891119917186,0.4476213284943943,-6.068557335855928,7.718631270975451,-0.002347821951101894,0.00659510215719172,-0.0016694767509999092,-0.29846302224793975,0.45058531418800823,-0.4407226046922482
2.0452913427304646,-6.147622012309256,7.31736503083839,0.00042383791256534706,0.0015997593551441032,0.010073271585215062,-0.5665892477918413,0.04621801676175642,0.06363651897523535,-0.04190875042486655,7.471053685616351,6.366675269699026,-0.004362458496196904,-0.0029555050611866154,-0.011263504148454855,0.21993340469165648,0.47910932815987783,0.5502940221953412,-1.1189105674463564,-6.075338067175952,7.548383850999607,0.005398766865845801,0.00862722284550652,0.0053770216014273065,0.6929969594084647,0.14515220603090173,-0.31273491408057624,0.9710667705882844,-6.151059004421203,7.787680429082789,0.009888853220198031,0.009790599472865119,0.005810208597917314,0.09667257182698165,0.44963572508698735,-0.7931756429340578,0.44404969599569777,-6.059775288790966,7.728078014522465,-0.002527629831638347,0.0023939761174639365,-0.005336799769826876,-0.30110558976054486,0.45991177062813454,-0.44578147118700273
2.0640339253234177,-6.114485449531814,7.323904725024128,-0.0032243713704205464,0.001826683012849846,0.010596002568713268,-0.5670814679979765,0.051758064565686476,0.07612137250256365,-0.0271460896216446,7.446127682194016,6.357273870420263,-0.008871395385169945,-0.0006324566214075124,-0.01001980037435992,0.21530367533026512,0.4724322451298456,0.5608974231709869,-1.0991046867722933,-6.099567675873021,7.5773576385171495,-0.0022629235127194897,0.003718171406711674,0.002375333990388092,0.6846358458249706,0.1372883787588992,-0.3050301356100413,0.9904501672850815,-6.179873420486531,7.791816450275767,-0.0009395192427896081,0.0004596810715464406,0.005250196463456387,0.09105036845274041,0.44184662816764686,-0.7833947049217919,0.4512843255434528,-6.07043818596452,7.739256159277878,-0.005104577529957879,0.0024552728284769503,-0.003944090082438777,-0.30795217968974,0.4511066192261068,-0.43481501651245946
2.0679993774449033,-6.125636454023193,7.3106889500825885,-0.0069344182784708865,0.0017050524163551115,0.012047420819274575,-0.5567919008972645,0.05879546803124241,0.07521403940886168,-0.033551841825783885,7.47663662084024,6.351164768000098,-0.015268529439876676,-0.0030811917667977152,-0.010981758831800907,0.2155692919392232,0.4717492004525658,0.5491896436297637,-1.0894867945312732,-6.071924874635447,7.580180935097413,-0.011656160747607794,-0.0011508997396064463,0.0007726392530159876,0.6834049486539288,0.13617400107972,-0.3138012810621739,1.0030955907439454,-6.145343820077481,7.767588964518112,-0.01199252308772346,-0.00321854504438131,0.005479440098012595,0.09125191092138388,0.44087800878913164,-0.7926744976529309,0.45667956895635675,-6.061037587535595,7.719868941744317,-0.010144922714421571,0.0026483346306490044,-0.005924931459731702,-0.30971828756626474,0.4497122242001729,-0.4445801922139064
2.053540725506856,-6.159922102991071,7.282798788968211,-0.008610858529423416,0.0013993580500529998,0.012459513089764299,-0.5683537782419241,0.039811922776683425,0.07433437138331905,-0.03739059972757517,7.435383321047396,6.36558452371832,-0.018218050539289102,-0.002086100128702452,-0.010555322534197407,0.2248339655530682,0.47448967543501064,0.5503795905611508,-1.0925818203621047,-6.092334942700076,7.546007630388859,-0.01982952630033346,-0.006577120862719168,0.0002621523632697205,0.6949176823017694,0.14098267618316956,-0.31290924255216357,0.9745894167043396,-6.144517936103786,7.6647806780024546,-0.019528271685611075,-0.003207449140160099,0.00683627610517943,0.10032258892332194,0.44594993559003093,-0.7907515589873785,0.4578121397966849,-6.0962015794200335,7.7301999604764084,-0.011761751375556599,0.0022684649774958924,-0.0036504130212164977,-0.2967223239095775,0.45792296787094294,-0.4450822479946454
2.0728772994076823,-6.146700482331319,7.310908480853885,-0.004816590823922224,0.0005349172494602272,0.010633102763123195,-0.5658582443182996,0.053203988944425885,0.07808740391646433,-0.028388454949165372,7.432147975138166,6.359607993601591,-0.01308962348189006,-0.002641106433679672,-0.010100321524997517,0.22772862858993415,0.4821341264003659,0.554164112372593,-1.0721401567852704,-6.10206372334532,7.470375214247576,-0.011584667169389154,-0.002391237977140216,0.0015106119657805712,0.6998425228668136,0.14640126065249073,-0.307874107821322,0.965809983054457,-6.18678995533493,7.564176493104861,-0.010842265926755234,0.0017771095629201827,0.006197632626648672,0.1040205373796562,0.4495868591753812,-0.7871007103122594,0.44169149318849305,-6.0564116570551905,7.733217499230699,-0.0060626702623885155,0.0028994187472222354,-0.004824890694907628,-0.29253645046460397,0.459327527879617,-0.43996670015646633
2.063535611174286,-6.163038032461653,7.310604718300449,-0.0033492657420354827,0.0006928243335731977,0.009547569503912312,-0.5639490119641865,0.04391803786053033,0.07803371699527671,-0.029859175098985946,7.430444337845069,6.361591295952339,-0.008242502960222706,-0.0035696237163472984,-0.01104274356645172,0.22946088162157827,0.4776809394420833,0.550333997446257,-1.0890104069534665,-6.079807914427186,7.461724755319752,0.0008012404292989716,0.0058925853431708,0.003965114594548998,0.7022578940129504,0.1430865458927511,-0.3151439714574554,0.9630411452684343,-6.147708029041932,7.583703671102294,0.0027366915751879887,0.004751083768832218,0.004209712964542135,0.10666311726634545,0.4471360507008784,-0.7944385502099248,0.4606896447360855,-6.075145934983107,7.706194191489153,-0.006726211816241379,0.0011424786400272306,-0.005222220615804771,-0.29137622861123774,0.45643844142186624,-0.4482907260268377
2.065511527873136,-6.159041922326323,7.331405964176249,0.0005750680244569912,0.0013929234735780183,0.011683371386890106,-0.558577973736432,0.041964198730588397,0.07412718912384049,-0.025651545385164023,7.446294531171154,6.378732634106553,-0.002726191108386265,-0.0037968078004604017,-0.011286671722297885,0.22896169364985794,0.48036467478551376,0.5502882483991424,-1.0803746275880943,-6.109174321991115,7.533958199876563,0.005364505755716832,0.009245456464359264,0.005012568080586891,0.6971432450904105,0.14464347469462113,-0.311994361941171,0.9821427501679056,-6.157546472007039,7.612728008274517,0.009884405081762424,0.006778443419784029,0.004868361940572601,0.10571361223244392,0.44835791344183445,-0.7893065924321505,0.4710894799189259,-6.0906382258863125,7.751984411370042,-0.00252077152232219,0.003332874108235828,-0.001782124886448956,-0.2942798376441995,0.4576585430521491,-0.444606473511675
2.063722148074582,-6.1281998204782235,7.315376773600052,0.001248613133834564,0.003079620861464147,0.00932450409360469,-0.5683236978448903,0.0435074963206892,0.06898650112025555,-0.015700366491525862,7.454293558674319,6.360455007848463,-0.004981771402940479,-0.002634895175190789,-0.013061167026900803,0.2177383806555828,0.47931630213119086,0.548577613952452,-1.1032735902861568,-6.069078312605515,7.569866259803306,0.008350132804862437,0.008023194819328798,0.005076353615761584,0.6888477763218875,0.14541600405555,-0.3134703400226359,1.0018716196132604,-6.153300733997712,7.725401912232639,0.010927623818294296,0.0100587864421626,0.003328332615111211,0.09252408821818052,0.45039281522993396,-0.793890517932195,0.44850839412219645,-6.068885341693386,7.742999789923934,-0.0024233776032638434,0.006914628403294978,-0.002675238313934953,-0.3025904097988616,0.4584689995427999,-0.4477360504381807
2.0474070325332177,-6.115375617571784,7.305846066297527,-0.0019405852656196063,0.0009358866076544822,0.012301516861122172,-0.5633662380060397,0.057185072746177526,0.06444601138112954,-0.045445173909340365,7.463396906919204,6.349214937946123,-0.009552740257106673,-0.0034227219362474724,-0.01063335366323268,0.22313599307319817,0.4708502751052085,0.5521468654964793,-1.1087291561677397,-6.067108049229635,7.593715936931966,-0.0031595686664416494,0.003325898713415904,0.005394610327923471,0.6958383740007447,0.13374281935954807,-0.30741579254612,0.9744249674056943,-6.143190762055316,7.796472677100628,-0.0014069425806944803,0.007779502983411081,0.006394996708812824,0.09834480717354294,0.4400992116794479,-0.78830826222432,0.4341665071592231,-6.045850831910396,7.705719654832995,-0.006242431220754212,0.005092157790702109,-0.0020188631674149947,-0.30018946882433833,0.4501260820691655,-0.44364718843696554
2.061861231083126,-6.150121931838013,7.323527023318918,-0.0067833600960072295,0.00107047390026962,0.010749771971383316,-0.5624180984652687,0.05228229260329243,0.06685857791529147,-0.03884451121893572,7.482198741835633,6.380344907988237,-0.010657542860275438,-0.003381060980390929,-0.009626772035748533,0.21704580636422252,0.46788205016652357,0.5512101197662059,-1.1069161221328006,-6.101391694199608,7.562560366175501,-0.010694479094182963,-0.0009312561688062616,0.00041963061392591525,0.6904842084779623,0.1360862482502994,-0.31575499260299855,0.9618791857237395,-6.190270216063731,7.772100465254789,-0.010461538309601972,0.0017693908852970722,0.0056331143332758625,0.0931904196296593,0.4398916226472356,-0.7948801207773598,0.4405835094752844,-6.06118407024582,7.729541197634097,-0.00937676071805558,0.0015203172238724184,-0.004840299781534887,-0.3045868340826207,0.4491772685221732,-0.4428988351525499
2.06926600828679,-6.137684535767829,7.308737363398641,-0.0045396643010265315,0.0010301739904696303,0.01038686413617436,-0.5558089683615566,0.056635789734027844,0.06836668500859969,-0.016594548124789797,7.442802162059311,6.359898678770187,-0.01250424616103504,-0.002431637353576991,-0.010206853664324259,0.22898876397814963,0.4718740361521665,0.5536048164740107,-1.0892405958790943,-6.077480252343055,7.517448523428888,-0.014141582903232062,-0.002976839820075187,-0.0006451415942484412,0.701476032437901,0.1366370389999397,-0.30697699188621613,0.970011892739883,-6.1389992189786105,7.706208364730622,-0.014756618581996853,-0.0048945673149198765,0.004679779890676829,0.10322966705109919,0.43909265670781816,-0.7863755270987198,0.4636780862323167,-6.081294504907402,7.723514731991968,-0.009733329588492481,-0.0004860734734733532,-0.005704597768481345,-0.2923709506762158,0.4495704029770221,-0.4417347772065991
2.0726522158156424,-6.135434714334728,7.3153077009919985,-0.005521952391917464,0.0015143156902212966,0.01189959111783874,-0.5604940996122795,0.04954426324657838,0.07368214916907555,-0.03569377789164684,7.455218300259583,6.383068006932751,-0.012841419681016392,-0.003826265072034787,-0.010514132925473764,0.23016929980243425,0.48097164027721495,0.5571170961256731,-1.087040187235772,-6.098885855552653,7.5046895906351265,-0.012416515822403879,-0.0019520768019270455,-0.00011378924102240928,0.6993626326331319,0.1474147629783083,-0.3059377709706736,0.9682494717239036,-6.152321312154713,7.591863757710572,-0.012891013085045085,-0.0038530305193371743,0.006303399991929173,0.10548316921575256,0.4478674207927615,-0.7851551114943087,0.46232626273288535,-6.1029412141478625,7.730677197160147,-0.007447115430257841,0.0025876415378840536,-0.004027118453662943,-0.2915722219525723,0.4573646992885776,-0.43949500502316174
2.074107630312656,-6.157764571926491,7.3097859977607955,-0.0027942171493937793,0.00211508814074062,0.011960868433309183,-0.5593306856214322,0.0375727965585111,0.07409785004999368,-0.03354834823808362,7.446545595896302,6.379210180131463,-0.00968330183407557,-0.0028377834714009053,-0.010433331997000406,0.21996902103012597,0.47076871127027814,0.547992300366501,-1.0801180398284949,-6.0937440366827085,7.483881180965461,-0.005106593547994091,0.002455815533322258,0.003790560961372108,0.6907120330895178,0.1339401685968131,-0.3125454588257558,0.9786434833678136,-6.145377591830302,7.565085998282221,-0.0019242002097778585,0.004115110701889027,0.005715562567577163,0.09565063116650478,0.44085100680154404,-0.791470916289736,0.46508477469908,-6.071953395732942,7.739215226886981,-0.006783561900390546,0.004345575633054099,-0.003628782627958895,-0.3019217673508284,0.4486904301223474,-0.44633256500324414
2.0523404551595457,-6.148819479123758,7.292885787300438,0.0008529614721531075,0.0018821631260443642,0.011439097372344609,-0.5717197938099076,0.04840344517994929,0.06949811715196665,-0.038433183263951995,7.432237009499699,6.377660112035852,-0.006143454473087253,-0.00361037210204752,-0.010965510039294168,0.22850581175490642,0.47158736742945895,0.5511674533099571,-1.090918759265497,-6.090995753158847,7.486087130039134,0.0027780025420138066,0.007203315308058978,0.007873062202805719,0.6997568348010238,0.13538015083671023,-0.3098857740421175,0.9609310776748138,-6.154778816895932,7.607574511575015,0.0064954138904046235,0.008792966565462922,0.006444693504813851,0.1051728624083518,0.4410392285069713,-0.7917524136545524,0.45961140679620643,-6.0882623274361185,7.712191229505007,-0.0034788642547528264,0.003777020026981113,-0.0026629254989178064,-0.2948182348101392,0.45033544981555945,-0.44415959775721525
2.0609888263821485,-6.141886155095187,7.307546236308259,-0.0004692910284754263,0.0010897435362921186,0.011220967781599858,-0.5692823646815769,0.04910550664291484,0.07243740191982838,-0.035488719218303086,7.4538228137064095,6.371533069255398,-0.003908689119970828,-0.002147170322706415,-0.01117424999580332,0.22167553500216217,0.4707997538367541,0.5494598672039268,-1.0915779029191681,-6.0901484064991225,7.53127844866652,0.00636235929195241,0.008835088740545984,0.0050382127968938,0.691945970247091,0.13562297729740858,-0.31355027322073653,0.9593179941547815,-6.175139868560364,7.69533931128239,0.010177971378039085,0.011061640021525428,0.003951254694651315,0.09832506946261811,0.4388822432700546,-0.7914833644767374,0.4459417193556817,-6.060491550798331,7.719585458350023,-0.0030609022392885012,0.0025862847774293374,-0.0033920491640829623,-0.3026537400252855,0.44869568087435585,-0.44632903889328673
2.056203637777582,-6.134920230616846,7.292721175627749,-0.0003426182060685799,0.0017868315833290205,0.009364600293535663,-0.5636488326048884,0.04960980860451131,0.0656178520173457,-0.03711560592974558,7.468049341297366,6.33918573296117,-0.006272021127968076,-0.0030253758008859932,-0.010762485550918778,0.21895061877633115,0.4796425464279873,0.5532138561158224,-1.1169096300735857,-6.063503389285164,7.571074232438699,0.0008384875785224728,0.0052724298606928064,0.004335600528731673,0.6871337434634655,0.14473337094075944,-0.31126106810844323,0.9875281286244759,-6.134094680799302,7.771568255869476,0.00460563995920991,0.0037679071071017372,0.004382387773620808,0.09644687963879486,0.4506101329564187,-0.7899997996853787,0.46800054528866497,-6.083459150027349,7.72763029576998,-0.00529550345437781,0.0017714025451186308,-0.0037392542288295838,-0.3025483721693173,0.46038694515368855,-0.4418656324401694
2.073142608017836,-6.132279694535577,7.329116969964503,-0.004468650441000671,0.0018123654064631548,0.01237598419801836,-0.5639304683973786,0.045654550260320365,0.07364955381155446,-0.02578837807388744,7.4697790447660175,6.3448897082426745,-0.009608416912867937,-0.0023620517805079495,-0.009634051941665696,0.22531536997727208,0.47643708839343335,0.5498597477486352,-1.1047081075643845,-6.1000814498221985,7.582577544431619,-0.007629277533975687,0.0012480817991284766,0.002005327437666498,0.6978359723476965,0.13954046291504502,-0.3101993595109442,1.000504430495639,-6.154973127361254,7.7561149895834065,-0.0074615486043912525,0.0017943225205461681,0.0060792725812031006,0.10153590148290866,0.44447754867063044,-0.7905137536208972,0.46670246169646334,-6.0553363309159876,7.728094357422428,-0.006671562976587508,0.0034062896819011925,-0.0038919311469244023,-0.2952503990836529,0.4574113617098928,-0.4428942650324626
2.062769619991626,-6.13014851749761,7.3061660715541805,-0.007406484308009616,0.0010668165829319733,0.011640282409528932,-0.5661192298740046,0.04472165833462698,0.06826735957003788,-0.02605252572697804,7.462127709531575,6.370389879539109,-0.014951396393687824,-0.0037997407059537523,-0.010602148435403871,0.22800618481978094,0.47381485347402374,0.5530826140987595,-1.1073160717257258,-6.087835407668718,7.555486182348691,-0.014525485632226125,-0.002843103685127894,-0.00012621641574939177,0.699544459397542,0.13949843992481956,-0.31190835572767567,0.984842717360603,-6.1527667205279615,7.715907712809646,-0.015121065839723552,-0.0008822764488334747,0.0056800349592743965,0.10517712444537566,0.4427495874533034,-0.7932158206757676,0.46212195807721046,-6.0639814999879125,7.731764734829702,-0.011065176253945841,0.001458975010155601,-0.003576567962286547,-0.2933419055791233,0.45400427653256165,-0.4470748340293311
2.0683937088222684,-6.142651364756499,7.278941459780165,-0.0062121071639068375,0.0007274167088510374,0.0108059845232085,-0.5665807186659827,0.04985693596633719,0.06732144533495346,-0.04009124830608184,7.436937259656344,6.359846158353947,-0.01382043702614072,-0.0022948406872983712,-0.009802305424051964,0.22383751045822614,0.4749147241162806,0.5613593507526357,-1.1040260497950545,-6.09640762448167,7.493540863852395,-0.014105283664726909,-0.003590123476549548,-0.00028277227713483205,0.6961091938246795,0.1370541723610772,-0.29916945936571626,0.9538016145909136,-6.160326719437524,7.635426687783066,-0.014116143489185612,-0.0005471676003964796,0.005661376741553156,0.10205626041070341,0.4442225794229754,-0.7819709834455374,0.46070356460396494,-6.085951203299805,7.738667582455318,-0.009260730709388713,0.0005860083308737924,-0.005104437869573036,-0.2974434091767894,0.4532340449940252,-0.4358285207838548
2.067855143527614,-6.150689838174554,7.306756384362672,-0.003838554956780003,0.00181591435196591,0.011497489983039946,-0.5633818961581851,0.055938081912084596,0.06858824624674974,-0.02550063830751061,7.451123402275124,6.36926776052498,-0.009382243248328585,-0.0029969044945216375,-0.01194137517541044,0.22531444219169874,0.4738617720850061,0.5564957710345169,-1.0778013416806769,-6.101909527646198,7.476034949512268,-0.005741235922533919,0.0022976958836491523,0.0009399908021187514,0.6936803177306432,0.13870779930567623,-0.303591277639675,0.9785829239053307,-6.174181629644305,7.593067154265507,-0.004315370784827252,0.0014399243840136871,0.004863478976800685,0.09982136251703091,0.4400878164674693,-0.785384090637911,0.4538030002874497,-6.081337273706476,7.738999075775653,-0.006644567620733181,0.0008338969390680361,-0.004214422739654524,-0.29892879943858724,0.452039181830933,-0.4382706319180257
2.0657735880721284,-6.151832714552446,7.306383241667992,-0.0019326517835280442,0.000928761178131118,0.012315491413566183,-0.5734053195705631,0.055947138737632414,0.07466852568688312,-0.017983221366304824,7.459652585249263,6.38100240237404,-0.007149648388330475,-0.0036185804673869244,-0.012064225392634593,0.2250856805499992,0.4718305138211538,0.5518897180629566,-1.0860314476772153,-6.072517769774376,7.493073630842992,0.0013446834873753837,0.006854368786538313,0.0037767446110253833,0.6968544635991376,0.13882436984201887,-0.30969896437980626,0.9879344839238364,-6.128564809650317,7.616798611318466,0.004363814594789871,0.005430031888941446,0.004736923671263651,0.10469782887469152,0.4427503742734286,-0.7910169054575665,0.4758872202656795,-6.104442296636183,7.746914967978735,-0.0031708604549382843,0.003530550196082487,-0.0031278806384276376,-0.2972454864489041,0.4525513273228428,-0.4443787902635403
2.064445069845199,-6.140198826800546,7.312548177766356,0.0012811016330694792,0.0021665903808355475,0.012801933437079634,-0.5587555005442453,0.051060849837779206,0.06417459504658847,-0.025635874136938172,7.461811215419499,6.375048536204881,-0.005633805887368634,-0.0017858529640370803,-0.011962316557184504,0.2219214842118428,0.4681977774154286,0.5543875114371405,-1.1072666511366709,-6.088681743894308,7.519515319228678,0.0034824348719078887,0.00819191445237055,0.006084970252019512,0.6919406526043829,0.13478693420777388,-0.30523401320346016,0.9893755030902657,-6.159163413028748,7.657424229332861,0.008268756380311283,0.00909858575562038,0.005308957917584521,0.09518057245423503,0.43962687885126117,-0.785122164871673,0.4505027887512081,-6.069759734044476,7.734403798178933,-0.0032322320753218055,0.006728658193984073,-0.0015314531399268734,-0.3004311791947938,0.44864786470954776,-0.4409687789211262
2.0473070827767166,-6.139740122143111,7.2968098119274964,-0.0025639427578509474,0.0004924744821933868,0.01028620320715336,-0.5629506959913941,0.047826954342633406,0.07683958837807894,-0.04029282735350075,7.45786262894853,6.371918431208437,-0.006019690699050385,-0.002113667540387757,-0.011263384145827463,0.22747742334665155,0.48079502670808066,0.5617551658528332,-1.1082004554011509,-6.083630140679447,7.555883660729979,0.0004600123257005969,0.004334549517336583,0.0029312975184993973,0.6983866843760059,0.1472975956174565,-0.29885452956514713,0.985567554673808,-6.153702205613948,7.763693353430268,0.0043722864692516015,0.008440155915998436,0.005687752556540759,0.10430879326321915,0.4529975758441367,-0.7809955658134727,0.43880157800668645,-6.06369288623138,7.713791271266276,-0.005981002114851456,0.0025928250222131224,-0.003815081009143572,-0.2937224181725081,0.45978492080244665,-0.43336611523466173
2.0531962232157204,-6.131306509740555,7.338330692321981,-0.003191059642998411,0.0004868800493176365,0.011169691811881082,-0.5675220616674964,0.05815311249151687,0.0688362665839986,-0.03129333818001254,7.455927598287843,6.3645159399414055,-0.01007613683157848,-0.003175740445030521,-0.009741242588967022,0.22946911559904104,0.4757200625315732,0.5498787536176952,-1.1128721924846696,-6.092012567213244,7.551301433102725,-0.00490834244581909,0.0018644248879913592,0.0025582916705506977,0.6997846062437387,0.13900452400786187,-0.3121441364716681,0.9762277347776144,-6.161171088862357,7.773119300455809,-0.004690605036246642,0.004464789351059601,0.006373844557612181,0.10322603420147212,0.4442276690378535,-0.7949157138163969,0.44457436148633733,-6.045406835906964,7.726122210380145,-0.004287543555412912,0.00266013110890078,-0.005078801309747754,-0.2943062371012426,0.4535033548530558,-0.44389912699207973
2.06799549814555,-6.129434658829803,7.29749582171218,-0.006076260492376192,0.0018581356457514592,0.011868424341536496,-0.5653151911147598,0.05816874960317386,0.06469153657539702,-0.025789644671396807,7.460260662978895,6.363771624049878,-0.013312922674830334,-0.0025651810981721737,-0.010712054975006829,0.22213601460583246,0.4769578268970062,0.5525320500954879,-1.093181231424864,-6.0719939122541255,7.560192260407819,-0.009120846843557611,-0.0009882455285470783,0.0006101922907345536,0.6963801440842775,0.14075204396847707,-0.31144054540290184,0.9899700356190604,-6.166709096919413,7.728829312441099,-0.009257736274707367,-0.004521519094227997,0.005323383336610185,0.09933895672794014,0.4444904707205015,-0.7905050493550762,0.46238526206381475,-6.075943692922502,7.738636282268695,-0.010410804434666722,0.0003413152310585363,-0.0057844273645859855,-0.2981950970216306,0.4557278211998923,-0.443623275598406
2.062571623420874,-6.1546203307605625,7.298206934479025,-0.004107517322183649,0.0013195382682351638,0.011756740883706854,-0.5628871761382068,0.05763858862862354,0.06957711429094898,-0.036513259788736194,7.448196687647514,6.356153294901105,-0.014367999237462716,-0.0035933624815505504,-0.010713632903383225,0.22239565894191143,0.4730451535090723,0.5521088896317204,-1.0795645500356568,-6.092401355433769,7.513019553639874,-0.014366923386463528,-0.0017446610733460439,0.00019928910316017868,0.6949168476673704,0.14080451216045195,-0.30899868736339625,0.9826275206304222,-6.140839632709213,7.651218252171838,-0.014868421928954604,-0.001554980108681927,0.00482039035807116,0.10202777858922095,0.4439850664078512,-0.7888071525740401,0.4506468994400188,-6.078730927739096,7.743632835279464,-0.009711061862342493,0.002403444445637576,-0.0031013819988016684,-0.30137601459688595,0.45477363134296395,-0.44361378368782844
2.0642446160207504,-6.151199671718843,7.318667840775694,-0.0036204897889650827,0.0019595776541859533,0.012183926752291917,-0.5673201560025622,0.05056734552229224,0.07147523031832465,-0.026464846015780624,7.4597274594961,6.3817819523420125,-0.010285566430137404,-0.003070565101615637,-0.010341440381686228,0.22382969378923662,0.4796897992815584,0.5549305387266363,-1.089449435583603,-6.096226313456513,7.477579609313898,-0.008355424098111821,-0.00017822663895126017,0.001489469504844066,0.6927467507643277,0.14445001016914585,-0.3110137773613898,0.9717074888836705,-6.1559655009567935,7.569996439692635,-0.00797532458822528,0.0011450883272996894,0.0063456918011459765,0.0981553199190166,0.4513342260455272,-0.7912268824076192,0.4557003432385726,-6.069404557612374,7.724192805031694,-0.0069744830504957405,0.003661699381210279,-0.0034229468035585787,-0.2998636373704302,0.4603691343604693,-0.44212256401722744
2.0704222444915312,-6.150691415478494,7.298237307349688,-0.002443510088585613,0.002952767300185574,0.01079793284466685,-0.5641513588655857,0.04909197562687528,0.07074052059579014,-0.03008705175728344,7.434689475830145,6.361374857239828,-0.008720016861438818,-0.002302680673861535,-0.011247774786616564,0.22192354390354338,0.4681773493522101,0.5531666840734633,-1.0856764703111692,-6.093749781712102,7.489474572473654,-0.0005328555016219501,0.004742963039112613,0.0029106850781221378,0.6951010993937139,0.13316601877274586,-0.3130216751917783,0.9716295737905998,-6.145855559046322,7.599937583121122,0.0003526895993519163,0.007108710879417587,0.005772393669818356,0.0971103909332922,0.4386435770794024,-0.7895257688801357,0.4555943315592392,-6.070594335491811,7.723264182868785,-0.005782982910100516,0.003287626709071523,-0.0040168853958365445,-0.3009337640603215,0.4479300535774928,-0.4429237207697857
2.0599924261272657,-6.153130016824129,7.318243579200423,0.00010389808231534418,0.0007356458650033092,0.011282115818843324,-0.5638893731566909,0.05034394006210891,0.06562188263816461,-0.026234764382612036,7.450180606537195,6.378954665299076,-0.006152261534783973,-0.0015267202839984513,-0.011062399341103413,0.22704133724249487,0.46946268790545914,0.5558391906016713,-1.0910631689593848,-6.0921794373348055,7.5130679292973435,0.0023682810402026583,0.0068856113122493,0.006102271853272442,0.6980691527921289,0.13810771228289553,-0.3082220144458608,0.9576079361973509,-6.170220671960128,7.65421040145499,0.007138724875740817,0.008091470610903324,0.005036471433589892,0.10373442240236222,0.4417745074099368,-0.7861309788480263,0.4601871167098695,-6.064481596602376,7.717610574124827,-0.003745369783363568,0.00341068801377597,-0.0034658630178574664,-0.2947954379358856,0.4520312626439795,-0.4419525206961479
2.055279046269858,-6.146258752592642,7.30331009370035,-0.0017846100330509212,0.00029020324682801685,0.011016810387106809,-0.5646145525510997,0.05349986689655569,0.06905802359300676,-0.03965000117786367,7.455489195870236,6.365912375353653,-0.007077758801370288,-0.003141944043538826,-0.011269966236723885,0.22724766431863472,0.47970286375502624,0.5549360866721066,-1.0966808365134755,-6.081042072556628,7.564603202752033,0.001955597006609585,0.00657284550460871,0.004326398423664273,0.6968993842332704,0.14465358343680756,-0.31150639709029926,0.971557578169639,-6.162783440585054,7.7242648440144634,0.005238296823644679,0.007117856816837291,0.005881073942945877,0.10353059098486703,0.4500788786623468,-0.7883193153978715,0.45025841752565027,-6.082981634252035,7.740316222859681,-0.002861849490754025,0.0032850731484859205,-0.0035928346610117927,-0.2944975368630445,0.4593517371998521,-0.4416662424615194
2.0541960666857366,-6.134837585530484,7.309245276271987,-0.0021655811370656984,0.003447038158026637,0.010548690358328542,-0.561463716836553,0.05028951495215349,0.0724634825478335,-0.03429147150363487,7.460410596327287,6.364498876760892,-0.00905717435785437,-0.0036993917507775354,-0.011560019867011667,0.220213424819766,0.4679472811131028,0.5543888212689754,-1.1145713145334137,-6.094345399740933,7.558510199547911,-0.0036014693767153425,0.0036372088674029453,0.003247182622438564,0.6924174657400869,0.13345546181805665,-0.31156061730906376,0.9751374667813016,-6.1668767773699225,7.766637149551143,-0.0019429065358860706,0.0031407306772640235,0.006226716791833708,0.0978419305814755,0.4383942701563116,-0.7895288995725265,0.44314618490643826,-6.073743039694019,7.728018960125119,-0.005585982845733725,0.003980441624652824,-0.004219696804262096,-0.29921954901137576,0.4486507627352246,-0.4429276035432089
2.0537565868400574,-6.137159233146512,7.29502434635119,-0.005914792839270814,-0.00010896792208639242,0.011117455134178274,-0.5678012026105856,0.05131081946151071,0.07001371272944241,-0.027719138087653635,7.454461164502783,6.344453666948202,-0.012345663036257136,-0.002025963217091543,-0.011520559067952662,0.22436387904939795,0.4691421115022686,0.551933485237216,-1.1005078656555842,-6.072828824195814,7.546267324253606,-0.010721582886262012,-0.00029240036356754766,3.582513641454602e-05,0.6963291501143014,0.13416528566370622,-0.3110855599812872,0.9669741182458298,-6.158927637866716,7.747227824450898,-0.008983199780222792,0.0008179969819261567,0.0063643693046652235,0.09808736636597504,0.43863783067852663,-0.7895296396437712,0.445206376900019,-6.054891486141212,7.718654365814888,-0.007596626915574986,0.0012840114945966812,-0.005097216592151569,-0.2980143060603685,0.4494002039316103,-0.4473240131376629
2.0563516351817053,-6.147342971411258,7.2953726738689735,-0.004877900104982626,0.0015186729489177955,0.01104113572238091,-0.5609519546300764,0.05227842413104247,0.06637404072430377,-0.028141805853300644,7.4466630295167535,6.370003033842502,-0.013036563813711871,-0.0022037543869014194,-0.009318438631725325,0.23287030184884883,0.47660489976934933,0.5581718597400576,-1.0914005620997587,-6.0870886965952575,7.514270462702922,-0.012188431116307224,-0.002090092336991414,0.0009416230381015825,0.7042159566542477,0.1435168272490693,-0.30318705033840637,0.9921830876481349,-6.156752716587728,7.676691567021801,-0.01335664102313197,-0.0005565961436982613,0.00453535360385587,0.11084062739681332,0.44539364224212097,-0.7849346517007504,0.4516509089249961,-6.078803129944544,7.710934655807274,-0.01035816280250777,0.0026021228444113357,-0.004451146151199379,-0.287914079744035,0.45586620027357033,-0.4383003790213767
2.063572062826585,-6.1402437971435475,7.323066049671532,-0.0034744314231978713,0.0013230479365852828,0.010882253647245713,-0.5638929123342324,0.05105754072303651,0.06855641591808256,-0.027342344641880626,7.448406868900373,6.385331374228061,-0.010547680723988527,-0.001905590874215361,-0.00993531583619303,0.22579643880087807,0.47581227127948134,0.5562199120830741,-1.0878222275228546,-6.090347000090757,7.489033786555162,-0.009380486085141988,0.0008572350563749467,0.0010942531080967409,0.6990581225436289,0.1396049963122447,-0.3058061532399813,0.974768553829462,-6.181739179613338,7.634001417217097,-0.008105420113446475,0.00048011795336663776,0.0060475734419180366,0.10351966156402717,0.4464143974361396,-0.7856377250319626,0.46113903266096024,-6.062147196175841,7.744210739174516,-0.007633022283158352,0.001907747151546493,-0.0038242828910234005,-0.2950147097682667,0.4539713659621375,-0.4394988226751198
2.074386068071004,-6.148472968146768,7.303637799926034,-0.003825612228137706,0.0018127400622485552,0.01151550135889195,-0.5663386070845406,0.05226248338920558,0.07295323719709315,-0.024344207752644877,7.449455991038652,6.37108686528839,-0.008804852784164175,-0.002786633445749943,-0.012057935622992195,0.22530003082602332,0.4758839164545711,0.5606124970954998,-1.0723145420007048,-6.078147019328751,7.493902840174994,-0.0024511137597092113,0.004317432665403814,0.003604467577419486,0.6963934698790532,0.1423401287114373,-0.30414225722879074,0.964730924893378,-6.1308290947208395,7.6057791748791805,-0.0004271648026450279,0.004129086551443016,0.005946654898518465,0.1030504280776884,0.4481241529785335,-0.7834362289677935,0.4472567851476178,-6.088770362418317,7.713537221472698,-0.006161496911143768,0.0038605925839902883,-0.004558674337392942,-0.29742406541141103,0.45591992804703907,-0.43581258201746703
2.059488183321955,-6.142465119989806,7.322351358126626,-0.00024432065417033543,0.0012202863239278122,0.011921339048344382,-0.5690262051881376,0.050342155026241474,0.06976070898078279,-0.033150429753946734,7.46183259272684,6.384541844579185,-0.00674772326348321,-0.0038373462970142493,-0.010884720536432642,0.21823244545796422,0.47667441894466855,0.5510649993668617,-1.08767600114473,-6.105851450816946,7.513161264925798,0.0004222790957052014,0.00601850302742823,0.004497171964042248,0.6885663569453571,0.14056040458187496,-0.3119232760660524,0.9603574762542367,-6.174456005271178,7.631590319620038,0.004744237179241916,0.0074399901815992995,0.0056433321437608765,0.09495608008061693,0.44573614209344664,-0.789266517512541,0.4687915900625178,-6.066603242525933,7.727652123950358,-0.004776255678345893,0.005101299321474836,-0.001799802191294637,-0.3030691435224768,0.456490440962002,-0.4428624314579747
2.060066440228961,-6.131791149579136,7.314812514407486,-0.0006036541333973384,0.0012813364037136067,0.009636813202908448,-0.5587750951849616,0.047392841424048295,0.06512756426269911,-0.025344258197752385,7.466040334992822,6.3536222429702,-0.00582422597965254,-0.0022221301819873147,-0.010677156887123156,0.2265392416197671,0.47265378341282077,0.5570061196691531,-1.0964681372093126,-6.075824986016171,7.530689479010229,0.0017346322404501564,0.0067265682854427,0.0032567176868232416,0.6995459101650536,0.1395888877984872,-0.30653811755070226,0.9719447095810317,-6.140974794811946,7.720440962110765,0.006165396436421382,0.009723138764438722,0.004051861467181676,0.10349377717149492,0.44250916091917875,-0.7863733320906688,0.4441239802088902,-6.069370593580561,7.739933736721069,-0.0052769694541645075,0.0037359705020022986,-0.004685644863621594,-0.2945297954718785,0.4542191292163229,-0.4407196946975013
2.047228775489965,-6.140077326574419,7.300082583862775,-0.0031379050416394535,0.003929063630147583,0.012072428087998919,-0.5678030021007613,0.05227094918579945,0.07270479089151285,-0.040822977484933104,7.452423543386836,6.360788962483887,-0.00852153446121551,-0.0024170807732564275,-0.010658442661189794,0.22435214476990462,0.47630674068624146,0.5422912335830197,-1.1054211763482147,-6.082593507193,7.549885602297396,-0.0025507850458634184,0.0061868550962583535,0.002495856099157481,0.6929566970754844,0.140117928979551,-0.32168439515574404,0.9786073244991158,-6.157491319222573,7.7453261454503854,-0.0020404672256184296,0.004436537219971707,0.004919320786143424,0.09906106905852777,0.4454771556171652,-0.8002690950512968,0.44880315515531455,-6.063497384451429,7.734094280466738,-0.006858460243528569,0.0027263905317511114,-0.003687090825612508,-0.2987225061589778,0.45676411233033004,-0.4531358503442263
2.0697945544672076,-6.1476564570856675,7.323717418510889,-0.0054371819481682905,0.001863572970016665,0.01100096365087787,-0.5673138169321404,0.05178983819964941,0.07123890750945026,-0.03536206387690344,7.4571173202862395,6.359675487300381,-0.010756246265948406,-0.003891398046807269,-0.01045651760901188,0.2197215180878332,0.46939385430140784,0.553386647742107,-1.109173375416747,-6.087165447535533,7.580986018768151,-0.009124282395645085,8.233878317766554e-05,0.0025324371836841254,0.6911826388635458,0.13152870413562714,-0.310550693837621,0.982580422643988,-6.178664528532605,7.732840244255647,-0.007450359794312121,0.0007670524298431726,0.0041182379126477285,0.09760948283196966,0.4393712986716553,-0.7880620412549119,0.4517485208633276,-6.0778863522244135,7.736475407568359,-0.007127028004936468,0.0023540970000416866,-0.004494054197631135,-0.3023969521571805,0.4481845516310404,-0.44291521583293025
2.049181199635907,-6.15259497769181,7.28624542066154,-0.004707041883730712,-0.0017839633921562096,0.010838824904954013,-0.5658821937059135,0.04422027023928831,0.07021782434359043,-0.0332077966104016,7.448501106549539,6.355784725628424,-0.011940737941039399,-0.002248566415455492,-0.010331983667171942,0.22383700047851587,0.4760936883178031,0.5588972770024304,-1.1029640452372957,-6.086633660428846,7.523853282528796,-0.009792139976168785,0.0005484102920866985,-0.0006846874021409694,0.6956556901733454,0.14160570895499414,-0.3046177577305695,0.9763567284494163,-6.141213084604723,7.686191997082904,-0.011015725334613004,-0.0008195735438386142,0.006908862320136726,0.09866088800292527,0.44741570112329243,-0.7809785137888409,0.4635304467767712,-6.082298823974963,7.74210898572267,-0.00774098057346809,0.002851998223882679,-0.0035601239995482876,-0.29987369138694026,0.45668689351852576,-0.4387263942189583
2.077293352931874,-6.137752904463408,7.294495765887458,-0.005773974697354676,0.0010186898267430743,0.012185887748998763,-0.5626609584629778,0.05276837091865363,0.06734905818283381,-0.02779614324853464,7.4528005479993515,6.355143831635133,-0.012402476463501094,-0.0030581992743253903,-0.0104372318059348,0.22116025500146405,0.473183449514946,0.5606506995873848,-1.0867548934793205,-6.084448787600453,7.500461793050555,-0.009312001242996745,-0.00038414712194688477,0.001828243648731486,0.6900186254407118,0.13874850373022735,-0.30285887015495166,0.9762440156382649,-6.1639710135283625,7.607478209974618,-0.008955594194350477,0.0027908030940018373,0.0053551225678434055,0.09595769402432379,0.44547914877382694,-0.7826786694616641,0.4568027663046677,-6.069669816314413,7.71615572377017,-0.006577423073224756,0.005054295451150222,-0.0038265425919872856,-0.3016025981251305,0.45278312236977586,-0.43703238999557864
2.0576573737670985,-6.149303868811988,7.285613270806776,-0.00409557696541749,0.0013163624363997895,0.011775749880851633,-0.5597643972866608,0.04591565651933476,0.06780199936358683,-0.016527848503079486,7.453920946106473,6.361625011435995,-0.011892014841114674,-0.0033154966717661573,-0.011345194349953458,0.22363582795477965,0.4690902891286089,0.5490027097348594,-1.091834103079071,-6.088982423980413,7.486674556053385,-0.005322483708103766,0.0026193294494677275,0.0027107125284915523,0.693644611788739,0.13433649327998118,-0.3167035148521203,0.9720591948165102,-6.136216628416617,7.596382994665362,-0.0026784272647189396,0.0031093004383578884,0.0048845858751420945,0.09709436863019508,0.440358798016712,-0.7961161334695965,0.46045295946151005,-6.071942367182528,7.736574329316817,-0.008204538844818081,0.0017888813116815746,-0.004165273700081135,-0.3014251227748438,0.4508940269333798,-0.4480308336096646
2.0795442178957235,-6.168932657650485,7.303277776597286,-0.0010147151959131319,0.001416427369103725,0.011204715060153777,-0.5638847713877975,0.05131990994803448,0.06562801496965268,-0.019197145853943432,7.442959875118093,6.373435563812593,-0.00721730048261386,-0.0025601231901887745,-0.011074908261232658,0.22995257899149388,0.47388766806697585,0.556991231854869,-1.0996527627655122,-6.101014705556806,7.514001168115146,-0.000536350048355993,0.00580573396598171,0.004844063143877753,0.7005154527988475,0.13861370249593727,-0.30603388575187745,0.9906701828225626,-6.163834474258242,7.652406635947473,0.0037225790253647877,0.006125489633912699,0.006173132036879028,0.10813225990676577,0.44077059130999835,-0.7839523123409293,0.4516168711216581,-6.083149126351961,7.732345504684763,-0.004049289819941824,0.0036661048862435385,-0.002996873857401536,-0.2928320633613656,0.4510184394096128,-0.43830583296944914
2.0678382610577857,-6.120162209536801,7.2983836227073,-0.001289653732667937,0.0009221172341100263,0.011457964525009358,-0.5677988439541706,0.05083508359691581,0.06805769053532547,-0.03515114474770753,7.464577218827036,6.356329561437193,-0.005110319104189877,-0.0025857428233146654,-0.010991913650726551,0.2255578236429196,0.47527846830244064,0.5535420617907508,-1.0913762005563186,-6.0717552363296,7.5181307875333845,0.0031743856766256835,0.006004839887511863,0.005426790534135273,0.6976221763510267,0.14344457339297856,-0.3105090910848879,0.9858404442653107,-6.153245012089529,7.700136181330244,0.006629919634295888,0.007431198669675175,0.005311860594424119,0.10227270985508785,0.4444720863416989,-0.7892966638190956,0.4499876556566185,-6.054555990131794,7.7333299695462285,-0.0028587824405169287,0.0032930393437238053,-0.003590801698573616,-0.29649139797492435,0.4559682954796779,-0.44509501731454165
2.0564278229967066,-6.135237146943589,7.311955155871822,-0.004380917872049258,0.0021555835942333942,0.011481326010815618,-0.5616901583884882,0.051786248113961715,0.06759021997888642,-0.030537562638567252,7.440369694670456,6.3557042620442585,-0.00970814982483505,-0.00286632663041197,-0.01045990012506555,0.22066094151461477,0.4794010323326057,0.5529767483921143,-1.113002392365747,-6.083627382150153,7.535729052602344,-0.003375496744886515,0.0034844640088580107,0.0043178456776769725,0.6956685319194086,0.14328974462827854,-0.3061113322819942,0.9902655054016789,-6.143385496157226,7.744044387402915,-0.000413352118768692,0.0051154872367031225,0.005444531509417215,0.10326980154370932,0.44788427928198266,-0.789297372874243,0.44811873282791287,-6.075739926749976,7.740824675265413,-0.008817484248979985,0.002287775318824626,-0.0032313423850726117,-0.2972097747311948,0.4566938650817782,-0.44313419973287876
2.070157016782183,-6.151038725303759,7.3073967024796875,-0.002276099382115259,0.000978572850165486,0.010056933567427675,-0.5553422885555425,0.052479018580122945,0.06907374337445264,-0.03949015024467663,7.452433469723626,6.369504276994302,-0.00920154253639055,-0.001035635806199104,-0.0114458134891284,0.2318905345678002,0.48015233799532897,0.5515179154129801,-1.1048328551938411,-6.087272735064432,7.532436766842085,-0.006242371906470907,0.0007235989569120887,0.0014917122815270112,0.7037196557820788,0.14262327493986027,-0.3129392520751934,0.9769521133779278,-6.168362166219266,7.715484138166714,-0.005075905339073917,0.002464845116352956,0.005483465012303068,0.10765457428346287,0.4466379196269964,-0.7898039068130235,0.45050340743766887,-6.0530607212927885,7.718176989073746,-0.005849462026465399,0.0036190998112459426,-0.005024619045975415,-0.2923240080331863,0.45739471925541386,-0.4436413576963657
2.0610298152630158,-6.136003726323873,7.2909238540282715,-0.005430205904274779,0.001863477142040829,0.0110109799190749,-0.560735737549264,0.04906968145599148,0.07172555206403496,-0.03532583387144668,7.462859316731898,6.345396462466565,-0.011786114618630482,-0.0033870034855196327,-0.008650438346441334,0.22800845268399944,0.47708122258339014,0.5439936845304236,-1.1066805965872424,-6.069856393486505,7.542117347082138,-0.00950069763344566,-0.0008476763135173788,0.001121000154032839,0.697131882907557,0.1433044568231363,-0.31905281092381904,0.9751214771176151,-6.148539862179361,7.70988613223317,-0.009481889330224072,-0.0008705230292900089,0.004661726974508333,0.10420424296553431,0.4478884941326484,-0.799799152793105,0.4427162175372353,-6.052146573208044,7.731991027141369,-0.007196547792124628,0.002680597807874346,-0.005502803037369716,-0.2962671443122712,0.4579617170737903,-0.45216439675285963
2.072740648837173,-6.137902595480913,7.319507528160944,-0.005905833524163559,-0.00010911711319193974,0.011134475957155526,-0.5604852518459239,0.04763878946824853,0.06610204861584223,-0.03860437851863213,7.441995717432489,6.367737151204161,-0.01287017276952598,-0.0038759710027618374,-0.010549354798673773,0.22871800326837252,0.4787162613020581,0.5539779379505183,-1.0798266089274418,-6.08930234860818,7.5053863543216215,-0.009344194862481872,0.00024293473169030404,0.0014556394086812764,0.6949487363096291,0.1449383461582335,-0.3100454583953226,0.9723468971914776,-6.158542283231098,7.64888511925521,-0.008475984660995587,-0.0005384200092918741,0.0046430620198487215,0.10303640655102969,0.4483718536997376,-0.7873429709287509,0.46011566303897866,-6.082795690369456,7.744373389575813,-0.008425467295257283,0.00367440751579373,-0.003634949692145477,-0.2969563786513895,0.45865085504039455,-0.4440997574621805
2.0704811025210135,-6.1650974839191175,7.292721969752004,-0.004365541702697275,0.0008199848105510236,0.012035998402811316,-0.5658465064223546,0.05178903670093857,0.07026538132825551,-0.012082938756842986,7.449950320371957,6.391385148223723,-0.00942583149326421,-0.0024967777801751727,-0.009060408786418641,0.22409784987604017,0.47358863453647415,0.5550330817246966,-1.0909551430842759,-6.078335087954732,7.489721449206058,-0.006692766743191758,0.0020977356237329575,0.0012786631980893463,0.6995507963619633,0.14027242051726296,-0.3094800468747077,0.9815214849643309,-6.165094688612235,7.621094377416974,-0.0041846400270717735,0.00513605598264432,0.006122477259000007,0.10372717216417451,0.44202158650142376,-0.788327734036161,0.47241878863302006,-6.083296051205762,7.736745441381788,-0.007010002807914316,0.0014197869023700798,-0.004759197073550513,-0.2947855214172754,0.452265051878631,-0.44024212271426766
2.0494034726294803,-6.130528610347028,7.301566694626897,-0.000733821790101447,0.001905652832135546,0.010960448114185208,-0.5689956095502999,0.05524491146762695,0.06661746094993978,-0.04174697209068927,7.458686420566563,6.3805334137652,-0.007351861604312502,-0.001976166405895908,-0.010872876633496955,0.23046188575587542,0.472033739768532,0.5482328699941108,-1.091980783670161,-6.0789187359500545,7.489098466536844,-0.00030590505658461815,0.004587278307057127,0.00398539795126648,0.7022132295317729,0.13727278519230043,-0.31235966048308195,0.9691147716124615,-6.160269384258047,7.64790426081273,0.0017098090791094808,0.005465285611364033,0.00621446957504919,0.10616226274032722,0.44298599055230203,-0.7912664779366363,0.46181966736729835,-6.068873929704016,7.747503437374693,-0.0014712390686819506,0.0036157706807104935,-0.004384523233750534,-0.29238077138643814,0.45179936405645543,-0.44709258329305107
2.060907764048438,-6.131834076548581,7.330721610626507,-0.0038126766002601693,0.0018085595314562574,0.011534506429102517,-0.5687865633416356,0.04502529066082679,0.06093873510272191,-0.034002136518475966,7.462922284860482,6.349754258048338,-0.006627109310490656,-0.004426690468550499,-0.011106688376039557,0.22945439170326082,0.47469122599169855,0.5613725669353506,-1.097289609348092,-6.077493040108904,7.512631229619191,0.001352670186628024,0.006852458697122351,0.0037857759007157267,0.7012499803838457,0.13889311155200346,-0.3035964436897423,0.9705306003745253,-6.1565507204826035,7.68473549053211,0.004029499629678429,0.00838791673549163,0.0038020436048105586,0.10619604597588649,0.4434665727372486,-0.7834530911897444,0.4390353730948024,-6.059562775636393,7.720259994504283,-0.006165894601682554,0.0019149233756381625,-0.0036122383955625734,-0.29086682856203266,0.4527133558221633,-0.43830509951345586
2.062921444593409,-6.167396059087307,7.305318800750862,-0.0034501100267719824,-1.668737092524117e-05,0.011451921774742396,-0.5648829327732954,0.051990124288738476,0.07637307897997926,-0.04801376255483604,7.443415183981849,6.3799832615570224,-0.007015836660275174,-0.0026704789507011532,-0.010483638496733897,0.21969537290871205,0.4738811495093617,0.5589273118851752,-1.1010550722058867,-6.085750315287873,7.553006026350386,-0.001108016208325699,0.005467103107108335,0.004665894844328786,0.6919544834978353,0.1365326381203751,-0.30306610717322846,0.9878449173766616,-6.162348817815378,7.736726920470795,0.0020935171340024585,0.0054515456019393225,0.005653933812808048,0.09740102420929546,0.4427867435332544,-0.7839079432300684,0.461253821982223,-6.0828862856007815,7.727924934489574,-0.0062384430836795604,0.0022374458771041014,-0.004620996520093961,-0.3001287362576061,0.45300641010041026,-0.4353290442336132
2.0708051684684206,-6.128835099237826,7.317105727040162,-0.001357950646321416,0.001900012850177632,0.011848943674915293,-0.5641294055684541,0.05228424817601128,0.06783152918556258,-0.030248590889357323,7.466711135154683,6.349757200539268,-0.010390151980535072,-0.0014868722827232504,-0.01124624086689648,0.22507003602306003,0.4785634002137463,0.5456731674862124,-1.1095195984723432,-6.102271200983026,7.544063256704901,-0.005059785291866956,0.0007816558418921198,0.002216517977604231,0.6951627737763977,0.1411754189674797,-0.3158419705293481,0.9818813208402196,-6.163984732359537,7.752925097403856,-0.004858152580740262,0.0018470627921084424,0.007094030979933433,0.10177063449097566,0.4461897138144819,-0.7953960990547131,0.44303466676760495,-6.062468951860959,7.740187137196362,-0.0028567441597486323,0.0032970128862780056,-0.0035887876551084566,-0.29575939081265495,0.4569477460644162,-0.4465577090340923
2.063435959375898,-6.133820247901039,7.309265702285332,-0.00675143734356285,0.001078021246847345,0.010797896553833562,-0.5638883636223805,0.05299823138566519,0.0705216428925581,-0.033973802562642756,7.461151990418881,6.3389313936965594,-0.014437640523788,-0.004661994268934472,-0.009650721244668538,0.22168438140397104,0.46460481608755727,0.5585978191640081,-1.1003246629281969,-6.069955579909476,7.53861780420123,-0.009689386548272035,-0.0013102225169646026,0.0004127399595434097,0.6936330377716105,0.1326048481756767,-0.3034884763249397,0.9829320027832241,-6.156630398772253,7.729804723359702,-0.009086656409462655,0.002132840374142308,0.00505501466217456,0.09662878610607115,0.43644385574357497,-0.7846429090792503,0.45486966961572056,-6.066602113539315,7.7460431354994395,-0.009227120316903028,0.0025644979232553188,-0.006055817538451314,-0.2999411134679957,0.44667250406311954,-0.43780981629077415
2.065213631190086,-6.1697086913268295,7.283634276644238,-0.003946799210692197,0.0024389385975034177,0.012851169771973581,-0.5641542418944103,0.048602460333107694,0.07098144893640711,-0.028092944506359026,7.449876154683203,6.371763607678926,-0.013135280714498355,-0.002713957608513707,-0.010140185336102989,0.22432537862780397,0.47845141997391644,0.553730924108845,-1.088769037448384,-6.0983225784134065,7.532168469611656,-0.010491505445746905,-0.0004313975450801712,0.0010932536942365688,0.6939743808616923,0.14523509070074625,-0.30736481217891043,0.9809311555564875,-6.153152167297671,7.669920442298772,-0.01127891254994704,-0.002145491976098261,0.006307641228791091,0.10011126489607976,0.4493663010698892,-0.787574456838636,0.4510786518801111,-6.071384651550323,7.736375408119049,-0.009277025838865536,0.0012276355518567198,-0.003837493522709663,-0.29793006647061665,0.45717789440127077,-0.4414188218071749
2.08142683765851,-6.13537582859909,7.3173360508101535,-0.003523105055914396,-0.0007938820254277274,0.009464828371116573,-0.5600331098287349,0.04296087721954618,0.0719329190988604,-0.024833967202854718,7.450894157248298,6.35769208385552,-0.007992016952508849,-0.0032259129123432015,-0.009685879666441686,0.22309790566812768,0.48203469942916993,0.5492742729581689,-1.095580868501559,-6.093458730871701,7.501248016400326,-0.006729470370843374,0.003785596497089937,0.0028394708466828004,0.696197965355555,0.14877255273356413,-0.3137728927312307,0.9705807920406339,-6.170262817045108,7.61831273889792,-0.004968496454202623,0.0021594598697025898,0.0062917571516802875,0.09936516771315866,0.45157405012402485,-0.7944054678990574,0.46307785978604676,-6.075767764784784,7.742022124510371,-0.005352901260630889,0.0021148165348787128,-0.004747959995381156,-0.29719732952851774,0.4618512422801354,-0.4482306262800584
2.075826866954159,-6.141167930250614,7.295901879947515,-0.0027564313838497156,0.002096570279091324,0.012014843656534166,-0.5641595829479651,0.0502761844463945,0.07660806035588057,-0.026345290196059752,7.449499448233423,6.359319098782936,-0.009465806239126616,-0.0019576728812649435,-0.010961764599427933,0.2270094322096963,0.47964474593185524,0.5515181738907587,-1.088506143370762,-6.092149890654113,7.489575408867796,-0.001291239728644698,0.003937889046060959,0.0020313226784739753,0.7008206659785718,0.14659343208353137,-0.31056298959522194,0.9728307673505397,-6.151082214368326,7.626416093392217,0.0002256631860987988,0.006444707669721642,0.005490264217528224,0.1042538804200083,0.4500766567124225,-0.7905191973165097,0.45862289085604174,-6.083805487946681,7.746143541281989,-0.005588332626419563,0.0020407518402614814,-0.0032722349217261296,-0.2927797877535845,0.4610527727944587,-0.4423963122546426
2.0643817118801238,-6.156175791988268,7.309487751299574,-0.002332005883002804,0.000622896354135133,0.011000590652035257,-0.5624562944447613,0.04784149259732918,0.07415479867498531,-0.017400397982245762,7.4477289024507565,6.3518967606799706,-0.006760668753922286,-0.0038427465926014204,-0.010905654983759071,0.2206553810687599,0.47898661846004775,0.5573782947367156,-1.083792262349668,-6.098520334030363,7.51897658440397,0.0010019388903275913,0.006356173104921903,0.004681355137170921,0.6903250254892586,0.14680222846898425,-0.30299459724357247,0.9762154069738408,-6.155140529814337,7.668927205767231,0.004492005123328127,0.006094991266767257,0.005059049755638377,0.09427544661673277,0.4523283205737375,-0.786083546891905,0.46359430887725417,-6.073654261259075,7.727338844352893,-0.003655205859107226,0.005058692633231423,-0.0033954553406043103,-0.3022687189046835,0.46305067767259156,-0.4384329688797082
2.0661209049150475,-6.1334692355830045,7.307887278618827,-0.0014928188043520732,0.0007692327360999517,0.010795506010145381,-0.5673506546579228,0.04397707926651776,0.07118981744191316,-0.03441821568584127,7.459675735365323,6.345124218253479,-0.008157592533920954,-0.00209665040645755,-0.011375291078632605,0.22556112265551867,0.4790041729467252,0.5427362062475709,-1.107867593145706,-6.086827879662953,7.538925015468276,-0.0017084110734253961,0.004688868062553475,0.002186810896297051,0.6968748504985202,0.1416099681989182,-0.31829209833479466,0.9717254032496169,-6.144905796200337,7.716357068157996,0.002351086436364218,0.004764810885527499,0.004796256435377788,0.10128261880770961,0.4466812705256336,-0.7961267081790799,0.45255848489659045,-6.059411510112886,7.738013852308651,-0.006347391788029847,0.003181692185627768,-0.004354832869946496,-0.2972517706712272,0.455761620764097,-0.4504637774064676
2.076412478623784,-6.1282143957783015,7.308491804238273,-0.0035287785781538557,0.002299758199485329,0.011292259072934097,-0.5661152055345622,0.045697097838893176,0.06851749269101344,-0.03737402186766087,7.468529772528776,6.366033055062917,-0.010180822895844942,-0.0036872341425190675,-0.010578980033145025,0.22921770382486367,0.47579266089015987,0.554272736161827,-1.1072295009247959,-6.097048358722047,7.555207265899965,-0.005286215182422514,0.0020020633203697686,0.003074149070288507,0.6990774768170679,0.1422000868945369,-0.31122162803742953,0.9655968602536351,-6.181416436057561,7.735881853123842,-0.003433971688105582,0.004131189918918092,0.005506549309605683,0.10715222032261586,0.44419983320673184,-0.7898042313789191,0.4314160786919908,-6.0715869841472205,7.7402391886695,-0.005811273058668418,0.003923280584337975,-0.0027399191400753558,-0.29257509630584866,0.4549414630667966,-0.4414577373648194
2.036112858930778,-6.1473464847708135,7.318917895518413,-0.004506802970092681,0.0010266918589181644,0.01043892187036549,-0.5646208777749888,0.05203644244932672,0.06880482430628715,-0.03168036713434882,7.453284696098447,6.355969296003239,-0.011578744559550692,-0.0019421249007592458,-0.011047601155659361,0.2309176338231264,0.4805875149444702,0.5485785778746989,-1.1019185384487895,-6.072513634684768,7.545745323446484,-0.00687394546984578,0.0005744039930567138,-0.0013620094457628378,0.7041918543652962,0.14062572238203883,-0.31534708227617286,0.9776973464275543,-6.146694078635864,7.71214471019478,-0.007368954867944957,0.0015190230700597397,0.006889651882846956,0.1091040377731833,0.4476113790067039,-0.795179762784683,0.4401945081462747,-6.062920295934523,7.742509070988041,-0.009077992268045185,0.0019244299784777214,-0.004039290858461179,-0.28940397980975213,0.458616961687289,-0.44755411818125
2.064582047922186,-6.145869192068227,7.307541827724907,-0.0046419160799608585,0.001658088167781304,0.0117535891852006,-0.5700324267132154,0.04930242840021441,0.08049402886726714,-0.02502304865625048,7.451816563760716,6.378364255304833,-0.011415150829657696,-0.00307446153174387,-0.009362142213510345,0.2204456608479567,0.47183321425770647,0.5531030172314638,-1.0921795302443367,-6.09097349762087,7.522573271000187,-0.01029974934042306,3.997230392375108e-05,0.0017923631717299373,0.6924278240926949,0.13485854184306634,-0.3152467708799219,0.9779418963579448,-6.153291835703798,7.687497281951572,-0.009142956495915365,-0.0008082813623780582,0.006569460841882787,0.09858533627255539,0.44180998754754697,-0.7917256197826767,0.4512396954968427,-6.079681432479338,7.729846929339927,-0.007999447884380036,0.0024936323510360166,-0.004367052466247038,-0.2994523626430677,0.4513475962241681,-0.4446194454228808
2.0663460510299223,-6.1427340122833956,7.327850157216835,-0.00541625375973967,0.0018622980608027973,0.011029006217372263,-0.5582428048386381,0.057151634625816586,0.0659230585947542,-0.027775664678093052,7.455921143101257,6.357357969805643,-0.011451156811814321,-0.0025292585744372156,-0.011258592662267974,0.22679703133421297,0.4701691538724536,0.5543627501319411,-1.0861284129017392,-6.080906351517182,7.493376964140704,-0.007041446040315923,0.0016082986099834075,0.0021661253985964563,0.6987946291016158,0.13712930898251932,-0.30796169712760063,0.9749246567135335,-6.162908072738922,7.6267675974948546,-0.005444465882185931,0.0014442916325848234,0.004082943783320907,0.10422763752406192,0.4434817647087638,-0.7873523212894932,0.46628622481540943,-6.047966309894991,7.732020447208579,-0.008194457572036254,0.0018008150261087548,-0.004166250633583944,-0.2945900732545811,0.4481357952646203,-0.44417381609388773
2.066387182873195,-6.158466907070783,7.293665810085721,-0.003294941662015724,-0.00022962979362324218,0.013075992987218737,-0.5641565336472514,0.04787254365112769,0.07048885439194257,-0.0409057416525106,7.44523053715975,6.378197627582326,-0.009082044691428868,-0.0037190533494416258,-0.011593737637487564,0.22896066058852624,0.4770860588765766,0.5586452814644383,-1.1077648798739412,-6.089034296045419,7.501740869670222,-0.0037509269639672918,0.0025524751867321807,0.0029084419079809104,0.700761401336465,0.13885987873829012,-0.3057940637876104,0.9652509184426737,-6.14971585364599,7.63103641609852,-0.0024313329041423856,0.00649099211832236,0.00695383229802902,0.10448557889388639,0.4446996872463635,-0.785643172687955,0.4704825723416602,-6.095630254314485,7.74594833778161,-0.006427402583417779,0.001551585208449739,-0.004420182051861035,-0.29475397295720734,0.45419611025216455,-0.4365686405443541
2.0790547164700124,-6.147584930497994,7.32894007795116,-0.0012119159119380136,0.0012594707121362442,0.010549245392333163,-0.5687667467366364,0.0549620177178885,0.07247536457998362,-0.03780971519107947,7.446699023000294,6.3636502247389926,-0.006895226081060998,-0.0032597896610363896,-0.01070360661911939,0.22508876568256939,0.469451140771562,0.5555920550779829,-1.0945952393220064,-6.093846387584255,7.519894923205306,-0.000910794438383231,0.00487182193855561,0.003439692208616701,0.6941120125107811,0.13153478640932434,-0.308842345207853,0.974710070760018,-6.16055205324853,7.662750978520398,0.0039801820060993386,0.00543774545213682,0.005325453651670285,0.10079580392093788,0.4417938241703575,-0.788316352336334,0.463366535958079,-6.041260191523686,7.739974644425548,-0.0046197393371596816,0.0035532017695558827,-0.0033328340254990744,-0.2972549136956722,0.4500992335044804,-0.4426843310480479
2.0565671321610997,-6.150774823514989,7.305674895628865,-0.003245875770410835,0.002790974141184965,0.011048009405603198,-0.5666038339227807,0.0466625964128075,0.0707194320185146,-0.02914284160414366,7.464895894551911,6.365281630869308,-0.0074865325158889814,-0.0034853797019277974,-0.010602815579926244,0.2233872990742274,0.46913429489092984,0.5516879339132873,-1.094076429473245,-6.067041304954988,7.534768493979636,-0.0006878524292729208,0.004715117854939813,0.004511422907417474,0.6944062736333748,0.13807442155628383,-0.31188298371586115,0.9773752330288993,-6.142963832998933,7.701027430021709,0.003979187916632934,0.005438751316069443,0.005325458538574434,0.10030051400150841,0.4430211454762387,-0.7919752591823526,0.449059916260927,-6.071444528329293,7.722626287228199,-0.005656840474923268,0.002368239462910699,-0.004279982673747912,-0.2987168951702234,0.4513379765407731,-0.4438909929137359
2.071015355337003,-6.154396322909603,7.307308689738932,-0.003301344144486679,0.001104870005244388,0.012530335315193077,-0.5682628576744527,0.05933925318225532,0.07494607611767903,-0.0268987224990744,7.456855268215961,6.360743299285138,-0.008797727643210023,-0.003350446515617705,-0.010191226739793566,0.22872696206901194,0.4779221017934997,0.5503287238687115,-1.0994676573677036,-6.102727642349373,7.5596494388002045,-0.004519814893879466,0.0028091254964115304,0.003956476244144028,0.6980961987160323,0.1416868530971916,-0.31316599589297817,0.9840742408658895,-6.159785386978487,7.725707178414123,-0.0016984948046336447,0.004496748949294688,0.00684004081023276,0.10203048257434753,0.4478958590795102,-0.7939304970254469,0.45413538933614117,-6.057361310170564,7.748214858219102,-0.005892291018426067,0.0022921808238578856,-0.00280526943891557,-0.29306708899181255,0.45667428944264193,-0.4448631455559373
2.0614065964496304,-6.125940053521302,7.310796319040448,-0.0031642405491438316,0.00047245172375376046,0.011217666384586236,-0.569754868317209,0.05324696801684228,0.0741712885950703,-0.034217426841427895,7.458465931776524,6.355497264340163,-0.010986533165764565,-0.0038127341373203937,-0.011082310652371507,0.2226326545610738,0.4731155348624146,0.5562596987747189,-1.0900474387190549,-6.074920337212062,7.562885077008067,-0.007230149906387376,0.0011437864302896428,0.0014598986036885922,0.6968491235278395,0.1381130573170591,-0.3084658094927488,0.9704652096692925,-6.166327624044032,7.7216157829225756,-0.005702995792346021,0.0021350283664442497,0.004944628789602104,0.09934670752838443,0.4439999331656929,-0.7878205229848546,0.4499764066538112,-6.061592755859308,7.738982189513289,-0.006846347891678139,0.002741297832271951,-0.003686059649665939,-0.2991873517231173,0.4523053217414159,-0.4416859088122485
2.0546139054331523,-6.144062929497493,7.283157825103437,-0.00373389158747219,0.0021549205458387625,0.01062384624578718,-0.5614770602577192,0.04928957729115154,0.07611926148360376,-0.025255796322033383,7.456264747241197,6.348634238398548,-0.01132654879930414,-0.003120453317598205,-0.011472521666559288,0.22090061257833613,0.479915403276899,0.5544337529607005,-1.0993591298023395,-6.083008284483304,7.536124997932939,-0.011478268524453421,-9.251844640321138e-06,0.0010594064771902454,0.6913004794702833,0.14670010067169398,-0.3086089372265022,0.9669214281158286,-6.157457254100326,7.685555916888949,-0.009604401035114873,0.001491633358883171,0.0053174571629070275,0.09816686014857998,0.45230881944881873,-0.7897609917154588,0.44638291248864786,-6.062148164071449,7.716276367828028,-0.009381943458351995,0.0021768589185346674,-0.0035723194416348385,-0.30081193289698405,0.46305036913713676,-0.4401489759987427
2.054114162528866,-6.152134642807361,7.310981634031635,-0.005544703018176491,-0.0005980008222040191,0.010524257572715894,-0.5587614605668489,0.053456838879022035,0.07151377354233136,-0.024506262120691357,7.458030769109199,6.363865109655399,-0.010909656696247235,-0.0033369111489114658,-0.010278028057672263,0.22946036474485765,0.476981722108097,0.5522989727266846,-1.0751836824541914,-6.078684711528318,7.5018697999562844,-0.0070072001515432795,0.0009880821748406215,0.00253161246085851,0.701513525050147,0.14149863824518588,-0.30828005638295025,0.9758163433324867,-6.161483763233962,7.628354433468628,-0.006325178706893819,0.0017921862320918545,0.004401760765348049,0.10694614971349906,0.4488366388628975,-0.7871129966788216,0.4614914966805309,-6.071719976759681,7.756483279865365,-0.007379437926230724,0.0020036877399284654,-0.005300964094744272,-0.2940359080732894,0.45617874382414164,-0.4424194063866822
2.075431524052449,-6.140102700371462,7.325770290254972,-0.004285766247221231,0.0011663160074039092,0.011129340485628636,-0.565120828019512,0.05008121826181377,0.0695243846787129,-0.021856962156895903,7.43413744442096,6.392851426755785,-0.010111902505757255,-0.0032195743987906344,-0.00978257539734359,0.22338986874563824,0.4679349026261889,0.5529291802998152,-1.1013646926865677,-6.089991705576812,7.4975446685363645,-0.003813350560675501,0.0038017758151957385,0.002172316080221436,0.6953603512975168,0.13512501032273389,-0.3125666701836189,0.964990346361043,-6.143484273074478,7.655969562846795,-0.0017172679957256423,0.0035143738082002033,0.007346187675733096,0.10101629271431495,0.4386206032392584,-0.7895412440109034,0.4848587741200684,-6.087133796223842,7.737586168006938,-0.006352844546996073,0.0012310542420734202,-0.003412421664269419,-0.3001789331910353,0.4510986646312423,-0.4429084123136542
2.0518779302131542,-6.155770885060826,7.296128158064566,-0.0021812517875842738,0.0017414506351750272,0.012077990078005897,-0.5656127901028748,0.04814337240079,0.06731300711541746,-0.03312218887838177,7.458189754910119,6.360319414290421,-0.006822340721827463,-0.002785032006183696,-0.00990231335597027,0.22626734709091167,0.4792724725603391,0.5586041523139083,-1.0926584811965496,-6.09796948299109,7.503068446502514,-0.00045940737743129184,0.0034966776943837203,0.0036527579940588803,0.6947042307937895,0.1447816179613815,-0.3049150253409854,0.9620964015708424,-6.157408326590977,7.654713797653413,0.0010866795516081425,0.005123437961211135,0.005683606338385638,0.10209264565574609,0.4505696991197375,-0.7822101103342756,0.4506345859066917,-6.067042164687713,7.7346733965858006,-0.005181719376616898,0.005393920914814255,-0.004612202019287788,-0.29546347548651214,0.4581130233540544,-0.4375179028438022
2.0784407717794355,-6.139525930790916,7.3187769298346455,-0.0010718408182867208,0.0006240007021976781,0.009242564545834194,-0.5656318441955593,0.04520067707276567,0.06949255435004573,-0.04525711252576894,7.457433880415686,6.37061304566233,-0.007581240852059735,-0.0018783007051173584,-0.011486987751548107,0.22288654023297472,0.47395752530714047,0.5481878987798854,-1.090537627094816,-6.080634841068234,7.535018489308205,0.0010049321349334143,0.006355217389376415,0.004685370992562469,0.6953898808849867,0.13898512362534815,-0.315317072753143,0.9757903444219407,-6.148344950916327,7.6949195469135745,0.0018758511208853083,0.00607531549165833,0.004056373287690574,0.10200940096264736,0.44447815112625755,-0.7941776567145575,0.44577401677425676,-6.074957624163764,7.738906482811218,-0.004309711579521053,0.003310723386667959,-0.003798775033917116,-0.29675679451716663,0.4557493764314995,-0.4490011709374436
2.047549047234627,-6.125249356103343,7.293235193796588,-0.003231518560302123,0.0014533550613051603,0.011606666785093884,-0.5602159012999265,0.05252661240645334,0.06515632603065676,-0.03650647539945698,7.455735381597142,6.3631771725698805,-0.00863127318542852,-0.0029155620353656965,-0.011494406083675524,0.22212849974403528,0.47726714068817666,0.5564334140243524,-1.1092238053795653,-6.07991876753711,7.548153340994029,-0.0032064609688358943,0.0035172335253722707,0.002719021401778464,0.6937096493265685,0.142555568856401,-0.3070745762404263,0.9855082514337925,-6.159093726470317,7.726693168998551,0.0005728484735661857,0.004468208616001414,0.0059450200496065295,0.09791483688694376,0.44864507824037886,-0.7863454407155214,0.4583981517640624,-6.07081759505544,7.718555326486787,-0.005263761251073432,0.003760840351542566,-0.004679559310651704,-0.29916215888838193,0.45547626495776405,-0.44117808852930035
2.0692233442306383,-6.145267363440138,7.310773748497383,-0.0032305209601012153,0.0014533440595641243,0.01160766911877128,-0.5646560660501143,0.04591578438299843,0.07145241162692162,-0.024421240913870063,7.466747702332881,6.359343774280949,-0.011921820203277972,-0.0033531412696138738,-0.011376619254713827,0.2253423421528777,0.4719406287997045,0.5438311693404442,-1.104713860781765,-6.09155173162073,7.5406699609853725,-0.006046570797441091,0.0012008525779621587,0.002185720859930254,0.6975615044199627,0.13574941170935995,-0.3179495431934461,0.9719353240444537,-6.165392328107781,7.7227708631083525,-0.0055966065658570605,0.0018276509335893383,0.00575092305738441,0.10196904247715127,0.4400867027873374,-0.7978446918492739,0.43964441887714917,-6.05495714519294,7.743715260468526,-0.008567928549531227,0.00237974477399836,-0.004708028056496185,-0.2960589264590703,0.45233938008684743,-0.4512219201585284
2.0643996351952714,-6.138866204547545,7.295460042741626,-0.004566104951318939,0.0020074946386822203,0.010837940895262476,-0.5641588875887396,0.048349279484868016,0.07244488286918603,-0.03282112642855097,7.458515962204662,6.3644430475430624,-0.011897663429181275,-0.0018142856106289555,-0.009552066511964162,0.22289601070021356,0.4719843848664591,0.5469997585896731,-1.0895989434732452,-6.074780882323018,7.5371099514924,-0.007449054117303006,0.0013054081378718232,0.00038508356374840493,0.69539007860642,0.13899745053719412,-0.3145851765800757,0.9786683541120033,-6.143001340239107,7.684699143244727,-0.007738519440639735,0.0005004792257217233,0.005485136498890603,0.10004592126527376,0.44253644131808195,-0.7939277277269704,0.4537455549355298,-6.084722710537966,7.734399009744438,-0.008074439608248548,0.0008675012708787462,-0.004434401939131228,-0.3011471773803743,0.45479082506527363,-0.4467888663488394
2.066301248597925,-6.135505883961351,7.315962116978757,-0.002881347228003186,0.000962655152448925,0.010975410389098984,-0.5578085945816422,0.047360655267929895,0.06952476730953891,-0.023868594918422515,7.456334008160462,6.357595686729642,-0.010665334632798071,-0.0024251498134644535,-0.010773940344771329,0.2223984360623885,0.4713731790571147,0.5543351822269564,-1.0990557685345121,-6.082502669456257,7.5105857789279336,-0.007644283422938266,0.0018996908199327876,0.0016123026199985925,0.6929315635392149,0.13665801567327332,-0.3096614179363363,0.9719290372937366,-6.1751283136171,7.644772009708838,-0.006477333090352661,0.00217254463802592,0.006070737256084079,0.09713674996109344,0.44279303970572,-0.7890329341061529,0.4762433717578781,-6.058915360445802,7.735199652266747,-0.006771777879242004,0.0024217608538706736,-0.002677293357267419,-0.3009156120605021,0.4501240453003777,-0.4424226979910467
2.068572409287023,-6.145571272530762,7.316498418266358,-0.005751482504815433,0.0023517890708913813,0.01168229117779718,-0.5612217903379747,0.045701561027643875,0.0641350969085957,-0.036000380482248635,7.455004918171211,6.368538005352028,-0.010666329142726779,-0.0024261702190495156,-0.010774925089633555,0.2294334973476205,0.48124139904715374,0.558820582536987,-1.100577384950281,-6.078792574619428,7.501125369910085,-0.0049294533535089455,0.0025022848900883438,0.0021775017713919283,0.7005932514927395,0.1486384351678679,-0.3052256090544803,0.9598309552561385,-6.133067723310509,7.638672710316887,-0.0030699856613270776,0.0031410767503527387,0.005456169891750038,0.10576124495410344,0.45201359718602513,-0.7827112595757825,0.46325363459656094,-6.069301043050482,7.767012611785074,-0.0073753948653524646,0.0020096587860577867,-0.00530094775901001,-0.2942196211820725,0.4622638280265138,-0.43896410962030985
2.076657543639605,-6.165290562426144,7.304491759758571,-0.002603425320499946,0.0014549323439286847,0.010725155359022543,-0.5590325413136102,0.04832349939046058,0.07270095757352071,-0.02713136587933987,7.453085655153013,6.361390066177667,-0.008687969654456335,-0.0018556613262036372,-0.010481091227810109,0.2203947055843003,0.4824399563130635,0.5595183811753274,-1.0900866492530292,-6.096689304925814,7.523368072867929,-0.0016711719400469293,0.004067695911865199,0.0025563138139506514,0.6937480651790593,0.14747472737034867,-0.30496012554652646,0.983896926897797,-6.164984657889823,7.654597360893986,-0.0009092818409362624,0.005451620736634675,0.005218810484932209,0.0979460746458803,0.451816011972366,-0.7831685309796674,0.4484053212804687,-6.062514975776119,7.7245727652300396,-0.006115176344917507,0.004179685476295083,-0.0022689241040213986,-0.30031754902485314,0.46279267911770505,-0.43844382455653524
2.076949355126022,-6.14181548081131,7.316470959741599,-0.003654677877726799,0.0011688539820202128,0.010251842321201094,-0.5609774863152581,0.050523541249665384,0.07368713796184281,-0.026591768559507234,7.455363428173705,6.3759919324556,-0.006735765656930593,-0.0028230660759297997,-0.012014829667783423,0.22824514056239661,0.4759797876849289,0.5510935153039471,-1.0885121128365707,-6.0840268585610975,7.518823766855575,-0.0012283033231885003,0.003752311335852788,0.004699809313692924,0.7029742317647418,0.14096959008236284,-0.3099807829733671,0.9713774702177002,-6.159689030285138,7.681784139476739,0.003139043404621333,0.007746366313417118,0.0046449651712644514,0.1069124365428551,0.4468889992376591,-0.7927307567584555,0.4419274834120671,-6.0907844638127635,7.736859325313996,-0.005414310974033671,0.0024552474109200964,-0.005754664354037402,-0.29041205664546677,0.45299755788500334,-0.4456297884277634
2.0625249972075563,-6.130140780487251,7.292863236937748,-0.001954843357177044,0.0005425484783753485,0.013319038764021726,-0.5651409517475651,0.04544695872057496,0.06876225375819703,-0.017872581373408553,7.453865568546385,6.368360621863662,-0.0074576429484995155,-0.002465550051425246,-0.011703984902442946,0.2209231562142141,0.4724087854389665,0.5582219168193152,-1.0935291997822116,-6.083146157179009,7.542021581357278,-0.002662002179215789,0.004481025715932597,0.0025316174535267282,0.6953833985319348,0.1379503379798322,-0.3043120842185314,0.9830397794901754,-6.143082205294662,7.7161970322375755,-0.0009290629196347364,0.004469253373841883,0.0057229613288718555,0.10203597607058243,0.44422744141395293,-0.7870979410137828,0.46420295559049973,-6.064473012960288,7.738085050513882,-0.004349116544654319,0.003930456863309048,-0.002521850734417261,-0.29747786492762973,0.45155280720719787,-0.4404775265168452
2.0590071425960006,-6.149388169973575,7.328415926103179,-0.0041286050679007705,0.0009533453092943082,0.012756416342944858,-0.5705195163126356,0.04665810798043916,0.07437214392554405,-0.0281515644485405,7.471932870034534,6.359018684704943,-0.009607407097616975,-0.0034810781772886337,-0.010701479177397106,0.22361657571103874,0.47468505071551553,0.5476888877770644,-1.1081250522536115,-6.074861143412361,7.5590944254823675,-0.0037478968814712702,0.002556400731716033,0.0029053745480986898,0.6961395356179583,0.14121718025108398,-0.3129135222542265,0.9648257433028997,-6.147812506439336,7.699347468568171,-0.004846985383200987,0.0008167937029571848,0.005131993544602864,0.10224908672314105,0.4437447289871756,-0.7941793005275204,0.4624837539413542,-6.036416858865246,7.738834733169959,-0.00791883966004033,0.002180058040932597,-0.0033592794430855892,-0.2977450657878867,0.45404745184311246,-0.4490066106904702
2.069619420332452,-6.138973236560236,7.286454622247838,-0.005891310374287763,0.0012270637803913746,0.010623879543399436,-0.5734343906828014,0.044779267280044145,0.06458818526717412,-0.042836362323730184,7.4376620060468674,6.357579081668096,-0.013292668346711906,-0.0021693339515185795,-0.009952536180849188,0.22115933483635275,0.47624569410182915,0.5540065254292669,-1.1124498060595045,-6.093185587658863,7.525974480349936,-0.009397468946944201,0.00151184222000457,0.0007001781866290241,0.6920065760008995,0.14331401317036835,-0.30635478636136065,0.9765027972648339,-6.164891120260195,7.706468132843926,-0.007872880924332913,0.0018652167223138273,0.006649971919495285,0.09497716564869317,0.44915384909838835,-0.7890183578317066,0.4631496269175974,-6.083295023108676,7.730969532705538,-0.008715468755396744,0.0010761361953070285,-0.0057841356539117626,-0.3015930750699745,0.457697966502223,-0.44237425731564284
2.0759640504376597,-6.1444313651146185,7.307948010429136,-0.00259405849723339,0.00011736200082453242,0.011279801047611332,-0.5651127702090216,0.05179016553132894,0.06953512254194354,-0.020604619651991993,7.467932656413734,6.35434268040364,-0.009609399912034312,-0.0034821191357309214,-0.010703465404025532,0.2238451322826708,0.4753086931950196,0.5557359771857463,-1.0882903626192801,-6.079559091802445,7.519697593515395,-0.007547606461834873,3.115674444971441e-05,0.002712898810229338,0.6956197352857197,0.13709223665399609,-0.3116227345352548,0.965429299731899,-6.163220159005049,7.679701306829774,-0.006846195103199258,0.0031776784139857317,0.006130150284146354,0.10153357015740791,0.44276672694848457,-0.7885623506384367,0.4626111092320405,-6.043389588865283,7.749705826030225,-0.006071711568576816,0.0035669110652728556,-0.003543826192188963,-0.29748011861589685,0.4535261224580763,-0.44388383754808414
2.058643818792732,-6.130711958079892,7.31171681917747,-0.0028763829151305384,0.0009595751485893869,0.010984403118046732,-0.5536384064472656,0.04980491904006108,0.06588796506908752,-0.04317846486875266,7.467038532465202,6.374099353440727,-0.010082993544786603,-0.0022057104034540827,-0.010881644581215015,0.22532556407818818,0.4765707643404861,0.5432645959822627,-1.0951681443633194,-6.074178232410263,7.489098497197318,-0.005407032863600534,0.0045045486930094785,0.0015968301989411416,0.6971200737874373,0.14181092892445898,-0.3207368955299343,0.9628178898149498,-6.140146614282328,7.645360235236502,-0.0037129437440397537,0.0018168731171401733,0.005417457598339779,0.10249193730589025,0.44716532754347854,-0.7995490619850786,0.44318911500484154,-6.0847716865533235,7.75023957988379,-0.005454723103536653,0.003073988104259125,-0.004477741171463223,-0.29605470188085353,0.4560289084495872,-0.455839054292759
2.0694122308204226,-6.157919375958579,7.31470993524212,-0.0025165135371500525,0.0022239418612457025,0.012731231056545143,-0.5675462489455005,0.05326720245284318,0.0692935750899007,-0.018810415357996584,7.452023778461104,6.375054800580959,-0.009899697511175913,-0.003852865722754377,-0.012112951577119504,0.2236234707993557,0.47109302201828385,0.5518995915538717,-1.0884795276112855,-6.100382604594256,7.506848490954704,-0.004484569575364445,0.0021888676319974884,0.004319963450459886,0.6960819050520513,0.13371214892424155,-0.30912458421026395,0.9759901514827666,-6.164199032562038,7.658838423187871,-0.0018097756459902654,0.004815145163909396,0.006044776436036363,0.09881548653630018,0.4386344508407569,-0.7905085316675727,0.4565762857479069,-6.068842120733214,7.747832670396736,-0.00745624785070203,0.0032451581652712634,-0.002750113174266581,-0.29678976804908136,0.44741522480646,-0.4434355932102849
2.054838053938836,-6.146160539500165,7.291193384743194,-0.0025964610355502533,0.00145184288044613,0.010734152800354911,-0.5622127113947614,0.04494664578069788,0.06852209672956051,-0.03224836292625943,7.457050370010011,6.362498258996865,-0.007095452392382348,-0.0016220493372614878,-0.009493173615547393,0.2233771068862624,0.47181989931789625,0.5516429785892081,-1.0997284914279422,-6.0840710719883315,7.528140862619163,-0.00205963007116521,0.0052562794577056485,0.005012751363518204,0.6953599782832401,0.13497562593436704,-0.30694735739953477,0.9727262284864943,-6.159695379682916,7.682228800940673,9.76308142510611e-05,0.0057817131688915994,0.00520513967697065,0.10200043020768242,0.44032452067268296,-0.7902755278621625,0.45295200498701055,-6.068902333572803,7.7254719613431275,-0.004263194156342654,0.002703915257962534,-0.005071656027678065,-0.29848175167294005,0.4486382304309053,-0.441711165287996
2.052489851369633,-6.133910054923242,7.310764057121131,-0.002596463421387868,0.001451836608516602,0.010735152777839999,-0.5582901259349001,0.04931131683433959,0.07026786959668488,-0.0388663313931517,7.468648842055288,6.34683683145701,-0.00725318083891655,-0.002575877614566959,-0.011111710409867,0.22287768551859424,0.4763950834019914,0.5479030617593629,-1.101309354189328,-6.084297852139329,7.527726049778502,-0.0015106610032673674,0.00515930946858969,0.0028929353847827314,0.6936864118463397,0.13971889727558,-0.316062075078372,0.9692532945808527,-6.154982671536501,7.705812205466181,0.00035293208048528665,0.00712567643852123,0.005808409097168322,0.1012725886340921,0.4444836144035002,-0.7953957465080829,0.44954465427955015,-6.060922074060772,7.734509123136357,-0.0072602142483469264,0.003939956292990125,-0.002948908014405972,-0.29699618222373025,0.45426724649449685,-0.4458347816095519
2.068762818756036,-6.157650438786207,7.320938212834516,-0.004555150322313698,0.002005348593521881,0.010852953909401128,-0.5597455185974707,0.0519934396754107,0.07199025813100007,-0.029860296140106768,7.4710535787294585,6.38186174309928,-0.010045946672656047,-0.002759975135456564,-0.008989041311608954,0.2221395158573766,0.4783327510879647,0.5471372899330382,-1.1062836207306355,-6.083694938277232,7.550721501964769,-0.004799135285951021,0.004221015322212048,0.0021445183974009036,0.6932310329188179,0.14390074540396194,-0.3144231421134469,0.9753248387573038,-6.150945695773697,7.725663176752341,-0.002834195556712961,0.0014749901745108633,0.005098654090189383,0.10079789709734097,0.44839450466493225,-0.7975871778458101,0.469173889479558,-6.067297804772909,7.725424088169495,-0.007483302824219521,0.0029588917352401773,-0.005033759285082621,-0.2981996043981649,0.45967445170164917,-0.45043589766088377
2.066769362722272,-6.139952853465246,7.298076940060481,-0.003925645043630806,0.0006734622393397872,0.01051509470255025,-0.5717579367323589,0.042997924397282936,0.074835243268673,-0.030777411429241508,7.449607044935343,6.374518971227273,-0.011399145622729916,-0.0020808450475074645,-0.010472896063652168,0.22802265446159573,0.46989308292240306,0.5521711265830253,-1.094378270183876,-6.079707852503615,7.551411241330472,-0.008183674271797416,0.000944757296691187,0.001793555146481372,0.699265069540078,0.13489601629323522,-0.30987748718860675,0.9814917755461678,-6.144674749811834,7.715793643157203,-0.006116374682769659,0.0011824557526767356,0.006013369781822505,0.10421273054832096,0.4422636384115251,-0.7893064336470739,0.46191785330162427,-6.062589374833103,7.725934847884493,-0.0067948041952806265,0.002139465557047825,-0.004960935000380758,-0.29332442203855785,0.4539824199386581,-0.4434129409922379
2.0659177178920105,-6.129051683821399,7.303676405613474,-0.004681896594953841,0.001299179289092377,0.012722264556632716,-0.5578133649515139,0.049276847773822824,0.0753959063407603,-0.03428546071566931,7.4737015781517,6.362766275821965,-0.009956385970302324,-0.0027959311105748112,-0.011097586793320744,0.23117099450045483,0.4741526449047173,0.5579659917858182,-1.0955288348446681,-6.085423648152832,7.513901485971929,-0.00776651094286175,0.00019276161198838917,0.0016370839121292227,0.7017514117297537,0.14054868721045669,-0.3065548787227417,0.9843642756840733,-6.160563067994541,7.644584622062381,-0.007963396635993374,0.003167981020725717,0.005343554647439386,0.10913360108228218,0.4454032312565801,-0.7844398848745585,0.45411027592476305,-6.06193645953319,7.739642421014535,-0.007410780721636334,0.0026333753328781156,-0.004026018933389699,-0.29036538899823705,0.453924970948811,-0.43732323335723144
2.060253767529373,-6.154110347926204,7.304248739058361,-0.004977892871969038,0.00038838857638823937,0.010041785591663016,-0.5639349478198189,0.042508213323046294,0.06923471012101234,-0.033374314608007126,7.4265000645332,6.3690984177891945,-0.010926537644678835,-0.00335932422989872,-0.010298684470253068,0.2243603797108049,0.47058646768532925,0.5506881383092139,-1.0997165377712694,-6.0946929663153835,7.508547953493283,-0.006458689422817158,0.0019587074454833543,0.0023360911974060106,0.6994978465257988,0.13343759516918355,-0.30936491748618705,0.9676267460215726,-6.155107559384068,7.657660123758222,-0.005067899920476722,0.0034772711471602368,0.004991389362207577,0.10225641291163197,0.4420315924376499,-0.7897869177471105,0.43794809837487175,-6.067399580126466,7.736655890547737,-0.007605807159621719,0.0019395699884613136,-0.003827222976324632,-0.2957998628442497,0.4503482892017301,-0.4451318629231094
2.0681347315338057,-6.16027730259564,7.3123030443956285,-0.0006371956880304663,0.0022307725596189807,0.010074697833801586,-0.5714927027933538,0.04859881761475595,0.077068054752893,-0.02779816114389,7.460678943927705,6.367406751781826,-0.00760018713609184,-0.0018856399866979858,-0.011502899170945982,0.2192319799778655,0.47105171669251555,0.5504276665439509,-1.0834513687391774,-6.096285184624512,7.49435936060274,-0.0026277712416882234,0.0038588433045432693,0.0028991379153703463,0.6907356948083113,0.13705606392945802,-0.3160164293527217,0.9752399434775406,-6.156358737777105,7.653713783919177,-0.0024527337287029416,0.0034909415306968307,0.006006064142626104,0.09443303923665945,0.44159063223563594,-0.7919534016362698,0.4706519785410414,-6.060345112263851,7.739573941652864,-0.0038005903709899197,0.0037700093702762406,-0.004461483854052152,-0.3043269448795827,0.4533428252452669,-0.4458052987750356
2.0613958286806326,-6.120231870080468,7.308575044662772,-0.003990915981947292,0.0016553623583431141,0.010903106121083955,-0.5626815951027452,0.046927922177251,0.06438331129070905,-0.031730843874545056,7.455812945453509,6.355853895408223,-0.009748928947253458,-0.0029061970151448456,-0.01050230785544619,0.22358682400461516,0.4770941221320009,0.5603453218619966,-1.0937877098899538,-6.084697056446072,7.524230244870448,-0.0021849103705635802,0.0035424589003640824,0.005042650256743473,0.6941982940109822,0.14259289380068618,-0.3046339906096957,0.9736370201309175,-6.156545357367082,7.653767949161603,0.0017497518337624505,0.0054043141109998,0.003766233464602718,0.09963013663313958,0.4474118067739828,-0.7829353683891808,0.45800164567034596,-6.066437174829991,7.758431528745354,-0.006906738464696774,0.0030837154795904354,-0.004691756986589605,-0.2978950797584222,0.45762652889759436,-0.4348241185523894
2.0612703301178894,-6.15472560447193,7.296839138739412,-0.0022911192943108646,0.001023031952107645,0.013974264775085784,-0.5666014799812927,0.04618586057906717,0.06876340354127114,-0.03781300770710584,7.451454872046958,6.373578054663235,-0.008437753213513604,-0.003035164546288937,-0.010915996834224145,0.22971599378379443,0.47475330343289246,0.5503834158879423,-1.116916403584284,-6.078235169996504,7.552352662627582,-0.0024370524844419465,0.004325305962115084,0.0036033310314439668,0.6985671262800489,0.13929493366091547,-0.3099513871081003,0.9831406482364367,-6.149047289856029,7.710126926169988,-0.0009518064848520639,0.0034898988612914908,0.006232126792143266,0.10396571859933636,0.4447101971001327,-0.793697172614521,0.4660508741940165,-6.069487651173245,7.74282243654712,-0.004806634176715785,0.0028743085443518443,-0.003128987740962523,-0.2945349909387302,0.45545756371716073,-0.4436423636822237
2.058733740539352,-6.142545372754148,7.316431921533369,-0.0025904991224766985,0.0014487518748455554,0.01074414786298006,-0.5651277931597477,0.04957998427133769,0.07147426825821528,-0.028863664496536552,7.449814878340012,6.366186544212684,-0.008438751518002234,-0.003035185099146163,-0.010916998315990347,0.21677116395894178,0.4738127651046417,0.5555050393081771,-1.0963230970344278,-6.076317830615419,7.551136639584467,-0.0027540515110514663,0.0021450304963859476,0.0029290369482219566,0.6894862904695421,0.13308479987760652,-0.305937786059662,0.9783611886805662,-6.155485627733398,7.702940670487741,-0.0016835836299106148,0.0054911312828560205,0.006350920751791586,0.09739334347376649,0.4418102236477712,-0.7843968429330318,0.4392239693972427,-6.05538892476018,7.738455537125976,-0.005563635879843648,0.004021216376707914,-0.0042085598068950444,-0.30261642344749956,0.4491414027497552,-0.4392463498924331
2.0549409025745384,-6.123697724298788,7.3074898822315175,-0.003627070404692692,0.0029176725818853984,0.01265593078300907,-0.5646176204132731,0.05614343949254889,0.0756667453694122,-0.030512579538243736,7.4482106551056,6.368054866454537,-0.011616547324284288,-0.001981749590314871,-0.011076005996023585,0.2297283421292569,0.46805310863368965,0.5585536901900144,-1.102353565990632,-6.075443990302771,7.5292254450876746,-0.007032325890337703,0.001624007197428045,0.002152856519786664,0.6997392464180737,0.13302180021404747,-0.3049623562262733,0.9707762682096448,-6.1498312293543265,7.71304012499878,-0.004980082860349395,0.00015284285293795237,0.004831888012605422,0.10494107153450903,0.43834799726235,-0.7846739901451276,0.4543843977357542,-6.068768852170016,7.734270176317112,-0.00874986662502502,0.001698851580993835,-0.004510217550188463,-0.29312518206187266,0.4466482375665674,-0.4419926247018984
2.065435022312226,-6.151312163683369,7.310212784985272,-0.005451227470767617,0.0015083214752767116,0.012004724627794158,-0.565619071401328,0.04595715891587513,0.06559024156443087,-0.019351798232187568,7.44947815397816,6.374505399474873,-0.012454113401706048,-0.003131274149905822,-0.010489103659301746,0.23604767233945292,0.4744683759758791,0.5611433850799081,-1.1027397327624882,-6.0767347015308175,7.528128129385558,-0.007026807896361307,0.0005642370967342909,0.00022042750804573472,0.702720738073805,0.13962185115639514,-0.30312104553407054,0.9727252308544068,-6.1607117441669095,7.665312701058005,-0.007254361225492654,0.00019039782661452612,0.00572992895921836,0.10865136337737379,0.44638308417747524,-0.7844370477319661,0.4592459994999127,-6.063411665249376,7.7280407578383095,-0.009620816926308468,0.0037880237692883944,-0.0053206138361811825,-0.2896429668511618,0.4524547768089511,-0.4373354576173981
