# sampling frequency: 40
# units are seconds/meters/radians/a.u.
seg1_acc_x,seg1_acc_y,seg1_acc_z,seg1_gyr_x,seg1_gyr_y,seg1_gyr_z,seg1_mag_x,seg1_mag_y,seg1_mag_z,seg2_acc_x,seg2_acc_y,seg2_acc_z,seg2_gyr_x,seg2_gyr_y,seg2_gyr_z,seg2_mag_x,seg2_mag_y,seg2_mag_z,seg3_acc_x,seg3_acc_y,seg3_acc_z,seg3_gyr_x,seg3_gyr_y,seg3_gyr_z,seg3_mag_x,seg3_mag_y,seg3_mag_z,seg4_acc_x,seg4_acc_y,seg4_acc_z,seg4_gyr_x,seg4_gyr_y,seg4_gyr_z,seg4_mag_x,seg4_mag_y,seg4_mag_z,seg5_acc_x,seg5_acc_y,seg5_acc_z,seg5_gyr_x,seg5_gyr_y,seg5_gyr_z,seg5_mag_x,seg5_mag_y,seg5_mag_z
0.124024,-1.341268,9.708725,0.001639,0.008042,-0.002642,-0.102051,0.301758,-0.501465,-0.277169,3.068392,9.259959,-0.027468,-0.001669,0.00752,-0.595947,-0.104248,-0.130615,-0.351596,4.091429,8.927514,-0.018144,-0.00404,0.00261,0.281494,0.056885,0.983154,-0.083543,3.717721,9.131707,-0.008095,-0.01698,0.010655,0.70752,-0.401367,-0.216064,-0.406767,3.182241,9.26548,0.004163,0.007909,-0.002959,0.454834,-0.403076,-0.597656
0.180302,-1.355955,9.750583,0.00043,-0.006875,-0.000329,-0.100098,0.30249,-0.502197,-0.247071,3.089453,9.321412,0.010408,0.008815,0.007121,-0.588135,-0.108398,-0.144287,-0.487845,4.015055,8.950674,-0.020097,0.033162,-0.001067,0.290039,0.054443,0.986328,-0.047779,3.642164,9.148883,-0.029452,0.010956,0.00983,0.714355,-0.405029,-0.213867,-0.38223,3.248789,9.279732,0.010926,-0.022264,-0.004375,0.455811,-0.402344,-0.598389
0.186571,-1.353357,9.791497,-0.000882,0.003556,0.000496,-0.092773,0.303467,-0.502441,-0.287842,3.113369,9.310068,-0.015501,0.006827,0.006429,-0.590088,-0.106201,-0.132324,-0.500667,4.053949,8.929442,0.027517,-0.017817,9.4e-05,0.282227,0.061768,0.981445,-0.145806,3.63312,9.10187,0.018578,0.01983,0.012903,0.703369,-0.399902,-0.216797,-0.310472,3.19037,9.223334,-0.032615,0.002531,0.002314,0.465088,-0.402344,-0.598633
0.148116,-1.358361,9.741216,0.001644,0.010591,-0.002601,-0.102051,0.307129,-0.503418,-0.267708,3.071354,9.274589,-0.017714,0.004498,0.009793,-0.593262,-0.101318,-0.125,-0.360248,4.126204,8.938077,0.005203,0.006975,-0.002317,0.286133,0.048828,0.973877,-0.123165,3.724727,9.150885,0.011527,-0.019589,0.009319,0.708496,-0.411377,-0.224609,-0.452435,3.158757,9.264621,0.022438,0.024536,-0.00626,0.454102,-0.396729,-0.599121
0.140134,-1.325427,9.705298,0.004467,-0.002841,0.003644,-0.095459,0.294189,-0.509277,-0.275477,3.091106,9.311258,0.003467,0.007502,0.004939,-0.584961,-0.107666,-0.135254,-0.496894,4.089232,8.957858,-0.017221,0.02443,0.001746,0.282471,0.052246,0.97583,-0.033601,3.72792,9.129128,-0.02258,0.000644,0.008497,0.705322,-0.408691,-0.222656,-0.405652,3.257478,9.296431,0.024338,-0.031437,-0.007681,0.457764,-0.410645,-0.607178
0.196285,-1.372078,9.798234,-0.003519,-0.00102,-0.003335,-0.100586,0.297852,-0.507812,-0.266068,3.099004,9.29505,-0.016058,0.007589,0.008859,-0.593506,-0.107178,-0.132568,-0.466533,4.059875,8.959435,-0.012072,-0.019158,0.004191,0.28125,0.050049,0.976562,-0.126634,3.635603,9.138826,-0.023793,0.029702,0.012522,0.705566,-0.410156,-0.220947,-0.325401,3.258113,9.199495,-0.019589,0.009081,0.001643,0.455566,-0.407959,-0.606445
0.149023,-1.34874,9.761515,0.00803,0.010225,0.001822,-0.102295,0.294922,-0.507568,-0.287134,3.10852,9.290178,-0.008003,0.009603,0.008037,-0.591797,-0.105713,-0.135742,-0.384995,4.064544,8.92385,0.000546,0.007448,0.003165,0.286621,0.055908,0.983643,-0.147746,3.638673,9.103314,0.016168,-0.015768,0.007334,0.710205,-0.405518,-0.214844,-0.436462,3.14606,9.285069,-0.025512,0.013612,0.000572,0.454346,-0.408203,-0.605225
0.154282,-1.317664,9.681806,-0.00385,-0.000599,-0.00176,-0.097412,0.300049,-0.500977,-0.252893,3.093947,9.312615,-0.017471,0.000998,0.008145,-0.591309,-0.100098,-0.137207,-0.499239,4.086056,8.959176,0.011337,0.024649,-0.006106,0.285156,0.058105,0.984375,-0.034813,3.745285,9.178809,0.01164,-0.008112,0.013868,0.706299,-0.405029,-0.213867,-0.407968,3.168811,9.262949,0.037502,-0.019007,-0.006231,0.458496,-0.403809,-0.598145
0.17663,-1.379426,9.808322,-0.003855,-0.003148,-0.0018,-0.098877,0.304443,-0.5,-0.271388,3.078307,9.294233,0.001084,0.012718,0.008937,-0.590088,-0.11084,-0.135498,-0.481117,4.113477,8.954564,0.00191,-0.016668,0.006294,0.291016,0.050537,0.978027,-0.117051,3.688905,9.118772,-0.028343,0.026167,0.00786,0.712646,-0.409424,-0.2229,-0.349332,3.30097,9.261805,0.011598,0.00049,-0.007007,0.455078,-0.4021,-0.598145
0.184598,-1.347216,9.742282,0.010046,0.006245,0.00385,-0.093994,0.295654,-0.509033,-0.275447,3.14729,9.337165,-0.006296,4.9e-05,0.003449,-0.593506,-0.103516,-0.136475,-0.379918,4.097497,8.931096,-0.016892,0.00838,0.000849,0.287598,0.059814,0.974365,-0.137385,3.649023,9.13272,-0.006881,-0.008843,0.011676,0.710205,-0.398926,-0.221924,-0.40621,3.17249,9.252737,-0.041801,0.01176,0.004437,0.462891,-0.40918,-0.605225
0.127679,-1.324616,9.706931,-0.007224,0.00287,-0.003406,-0.095947,0.307129,-0.509521,-0.239169,3.06106,9.288284,-0.038251,0.009634,0.011439,-0.594238,-0.104492,-0.136475,-0.505401,4.056632,8.970598,-0.015904,0.022123,-8.3e-05,0.278809,0.054688,0.974121,-0.062157,3.669164,9.144663,-0.000164,-0.007404,0.009056,0.702393,-0.407471,-0.223633,-0.414254,3.17678,9.263189,0.024616,-0.007971,-0.008869,0.458008,-0.398926,-0.607178
0.168726,-1.389137,9.76102,0.000417,-0.002526,-0.00053,-0.10376,0.297852,-0.510254,-0.303701,3.047479,9.265099,0.018771,0.008733,0.00527,-0.587158,-0.105957,-0.133545,-0.446552,4.060712,8.941038,0.019473,-0.017321,0.002524,0.285889,0.050781,0.989502,-0.083811,3.693914,9.143364,0.003519,0.018243,0.010791,0.705078,-0.41333,-0.21167,-0.333093,3.239308,9.225628,0.002232,-0.011995,-0.001404,0.451416,-0.404053,-0.606445
0.164395,-1.340624,9.75161,0.006039,0.005507,0.000199,-0.101074,0.297119,-0.496338,-0.232452,3.174481,9.317957,-0.003796,0.002145,0.004341,-0.588623,-0.101562,-0.135986,-0.388785,4.131188,8.942149,0.001897,0.018632,-0.004946,0.283447,0.048584,0.982666,-0.136832,3.698241,9.147488,-0.013171,-0.001039,0.013595,0.708008,-0.411621,-0.213379,-0.400353,3.213164,9.260289,-0.007819,0.020938,-0.003241,0.458252,-0.408936,-0.594482
0.161574,-1.34142,9.737994,-0.005335,0.002047,-0.002948,-0.100098,0.294434,-0.500977,-0.27157,3.070916,9.275157,-0.048551,0.012604,0.012889,-0.586426,-0.102783,-0.138916,-0.525867,4.094102,8.961776,-0.015071,0.016282,0.004167,0.281738,0.046631,0.975098,-0.090186,3.667041,9.130686,-0.016182,-0.003854,0.006329,0.705322,-0.413086,-0.222412,-0.425983,3.206397,9.27512,0.004939,-0.013704,-0.004257,0.453613,-0.409668,-0.597168
0.142521,-1.35692,9.7415,-0.000394,0.003275,0.000811,-0.099854,0.292969,-0.512939,-0.294306,3.026574,9.280204,0.013277,0.004512,0.004649,-0.592529,-0.100098,-0.135254,-0.444017,4.087946,8.940588,-0.006456,-0.021541,0.002926,0.28418,0.054932,0.977051,-0.082198,3.657817,9.152504,0.002339,0.01234,0.014218,0.706299,-0.407715,-0.220947,-0.364159,3.21652,9.216752,-0.000466,-0.006469,-0.001521,0.455078,-0.414062,-0.606934
0.152041,-1.348854,9.746567,0.002184,0.002359,-0.001601,-0.099854,0.299561,-0.508545,-0.247333,3.158316,9.307586,0.013027,0.006719,0.007087,-0.591553,-0.104736,-0.138428,-0.405423,4.066085,8.937179,-0.000563,0.018902,0.00199,0.285645,0.05542,0.977539,-0.127801,3.696167,9.128937,0.003672,-0.000358,0.007857,0.705322,-0.406738,-0.219482,-0.4041,3.185937,9.2553,-0.003407,0.011912,-0.004175,0.457031,-0.40625,-0.60498
0.164502,-1.360585,9.759662,0.00291,-0.002439,0.001612,-0.099854,0.299805,-0.508057,-0.271936,3.118911,9.296312,-0.043543,0.006632,0.008025,-0.594971,-0.109131,-0.126221,-0.520267,4.083035,8.941921,0.009654,0.015154,-0.004156,0.298584,0.056641,0.973389,-0.081654,3.708619,9.15291,-0.009528,-0.001349,0.010918,0.720703,-0.402344,-0.225586,-0.404121,3.210461,9.279108,0.010557,-0.00925,-0.002068,0.455566,-0.407715,-0.604248
0.161154,-1.347151,9.74533,0.001681,0.006992,-0.002118,-0.084717,0.302734,-0.510254,-0.259958,2.999717,9.277592,-0.010939,0.00763,0.009681,-0.586914,-0.105469,-0.135986,-0.448032,4.102851,8.956762,-0.003615,-0.014021,0.006105,0.288818,0.058105,0.97583,-0.103132,3.658889,9.131573,-0.015814,0.0121,0.007907,0.708008,-0.402588,-0.222656,-0.36687,3.241173,9.209464,0.002391,-0.001209,-0.005562,0.4729,-0.401611,-0.60791
0.144202,-1.35718,9.699453,0.002293,0.001002,-0.000273,-0.095703,0.303711,-0.51123,-0.29882,3.122016,9.314913,0.026273,0.009251,0.005056,-0.586426,-0.11792,-0.129639,-0.420409,4.08116,8.935228,-0.016244,0.011831,0.000296,0.284912,0.054443,0.983154,-0.099691,3.669018,9.139251,0.006002,-0.003037,0.013059,0.709229,-0.40332,-0.212402,-0.404563,3.198843,9.266962,-0.012689,0.009056,0.001259,0.458252,-0.403564,-0.608154
0.166565,-1.340713,9.723134,-0.003294,-0.001186,-0.00064,-0.097656,0.301758,-0.501709,-0.242072,3.163217,9.306916,-0.032511,0.002419,0.005612,-0.597412,-0.105957,-0.127441,-0.489411,4.056429,8.952449,-0.002327,0.014051,-0.000792,0.272949,0.050781,0.976074,-0.083911,3.694276,9.146945,0.001314,-0.002568,0.009531,0.697754,-0.409912,-0.2229,-0.405121,3.186967,9.2549,0.012763,-0.007904,-0.005249,0.458496,-0.403076,-0.599365
0.167941,-1.364774,9.794257,-0.000503,0.004633,-0.000517,-0.111084,0.299072,-0.508057,-0.289863,3.023603,9.267436,-0.026903,0.012642,0.011933,-0.593262,-0.106201,-0.136719,-0.457731,4.080157,8.945443,0.007273,-0.008526,0.001955,0.283447,0.058105,0.986328,-0.098698,3.667814,9.139746,-0.019605,0.015527,0.007825,0.706055,-0.403076,-0.213867,-0.356429,3.248288,9.242233,0.004095,-0.007165,-0.003473,0.448486,-0.408936,-0.604736
0.146114,-1.362748,9.720326,0.005079,0.004272,-0.000189,-0.099609,0.304443,-0.5,-0.282117,3.079771,9.293875,0.019599,0.000667,0.004989,-0.584473,-0.10498,-0.133301,-0.424261,4.117053,8.933362,0.00096,0.012224,-0.001203,0.28125,0.060791,0.975342,-0.140865,3.664312,9.123936,0.004476,-0.001944,0.012912,0.706299,-0.400879,-0.224121,-0.386468,3.187239,9.278106,-0.019152,0.011138,-0.000146,0.455811,-0.404785,-0.595703
0.156567,-1.347259,9.731837,-0.002539,-0.001585,-0.002706,-0.100586,0.304199,-0.508301,-0.242235,3.169614,9.312429,-0.012509,0.009898,0.008799,-0.592285,-0.104736,-0.140625,-0.490615,4.096323,8.959041,-0.011422,0.01342,0.00149,0.286865,0.055664,0.975342,-0.082537,3.711668,9.155411,0.000238,-0.004702,0.009397,0.709961,-0.405762,-0.221436,-0.4261,3.196056,9.262548,0.022338,-0.005281,-0.004494,0.453613,-0.401367,-0.608643
0.170172,-1.36582,9.752098,0.004366,0.003617,0.002399,-0.097656,0.302246,-0.51001,-0.307644,3.079529,9.299064,-0.026401,0.008242,0.007045,-0.589844,-0.110352,-0.133057,-0.460336,4.064099,8.929455,-0.005464,-0.010575,0.004645,0.284424,0.046631,0.981201,-0.105223,3.672535,9.119766,-0.016612,0.010154,0.010296,0.706055,-0.412109,-0.219727,-0.361775,3.268805,9.254306,-0.003064,-0.011772,-0.003677,0.46167,-0.402588,-0.604736
0.146916,-1.332391,9.746229,-0.000128,0.003159,-0.001569,-0.100586,0.293457,-0.504883,-0.245291,3.06555,9.294773,-0.004667,0.001451,0.006762,-0.593262,-0.11084,-0.135986,-0.388004,4.082487,8.945011,-0.001106,0.011457,-0.001175,0.283203,0.05127,0.981445,-0.115229,3.677575,9.127107,-0.004753,0.000588,0.010319,0.70752,-0.407471,-0.215576,-0.385203,3.165317,9.244431,-0.01665,0.016064,-0.000107,0.455322,-0.412598,-0.602539
0.159067,-1.345382,9.759162,-0.005183,-0.000364,-0.001099,-0.098389,0.299561,-0.502197,-0.277473,3.107986,9.292882,0.004275,0.013401,0.007531,-0.599365,-0.105225,-0.135254,-0.494369,4.10379,8.94611,0.004012,0.013242,-0.000518,0.291016,0.050537,0.978516,-0.079557,3.686728,9.108819,0.000624,-0.003348,0.009173,0.717529,-0.411621,-0.220459,-0.412846,3.193557,9.264576,0.016227,-0.00804,-0.00718,0.457764,-0.40625,-0.597656
0.177394,-1.351949,9.749887,0.00281,0.004019,0.000366,-0.087158,0.293945,-0.506592,-0.27167,3.128282,9.316145,-0.018681,0.002664,0.006756,-0.58374,-0.114258,-0.13208,-0.456463,4.109826,8.954011,-0.000685,-0.002821,0.0014,0.273438,0.058838,0.973633,-0.099081,3.69165,9.163067,-0.002453,0.012086,0.010121,0.696045,-0.401367,-0.224121,-0.343554,3.222828,9.219897,0.002893,-0.00944,-0.002431,0.465576,-0.408691,-0.606689
0.135852,-1.354436,9.741941,0.001253,0.004421,-0.001668,-0.111084,0.304199,-0.511719,-0.281604,3.067566,9.291087,-0.014508,0.013581,0.009664,-0.586914,-0.109131,-0.134277,-0.445174,4.089184,8.925835,-0.00694,0.004702,0.003076,0.281494,0.057861,0.981689,-0.123655,3.683433,9.1204,-0.007471,0.001439,0.008659,0.703857,-0.40332,-0.214844,-0.41038,3.220166,9.278743,-0.010074,0.019267,-0.002863,0.447266,-0.401611,-0.605469
0.1655,-1.337663,9.750683,0.003223,-0.001058,-0.000204,-0.100586,0.302002,-0.502441,-0.27175,3.097047,9.304496,0.00179,-0.000424,0.005609,-0.583008,-0.10498,-0.134766,-0.463268,4.101594,8.937077,-0.004192,0.011067,-0.001002,0.288818,0.060059,0.974121,-0.085704,3.702569,9.137325,-0.004846,-0.00865,0.010212,0.710449,-0.400635,-0.227295,-0.423013,3.18696,9.271585,0.003784,-0.011841,-0.003383,0.456299,-0.402344,-0.599121
0.140884,-1.351337,9.782947,-0.004263,0.004477,-0.001192,-0.095459,0.304688,-0.514893,-0.283834,3.104376,9.279278,-0.012743,0.011199,0.008579,-0.5896,-0.110596,-0.12915,-0.466404,4.097729,8.928508,-0.002881,-0.005389,0.002593,0.287109,0.060059,0.977051,-0.072988,3.662858,9.124761,-0.015084,0.006466,0.011247,0.70874,-0.400391,-0.221436,-0.356528,3.261117,9.25393,0.01381,-0.00987,-0.004758,0.461182,-0.399658,-0.611084
0.163465,-1.344898,9.744287,0.006013,0.004763,-7.9e-05,-0.095703,0.304199,-0.507568,-0.273339,3.092803,9.30586,-0.013697,0.002023,0.008279,-0.586426,-0.106445,-0.124023,-0.418181,4.083888,8.930179,-0.004774,0.005749,0.001608,0.287598,0.061035,0.984863,-0.092111,3.676082,9.124465,-0.001166,0.006978,0.009926,0.709717,-0.403564,-0.214844,-0.368434,3.20368,9.22291,-0.024519,0.00748,0.001228,0.458496,-0.403076,-0.606689
0.1631,-1.344448,9.744355,-0.002316,-0.001751,-1e-05,-0.09668,0.302002,-0.501709,-0.230863,3.091808,9.295648,-0.011514,0.009962,0.006477,-0.59668,-0.11084,-0.132324,-0.477582,4.082494,8.968512,-0.002364,0.017457,-0.002587,0.282715,0.046875,0.987793,-0.103749,3.683175,9.158436,0.000235,0.002581,0.010302,0.704346,-0.412842,-0.208984,-0.406657,3.173767,9.252279,0.013131,-0.001804,-0.005849,0.458984,-0.401611,-0.598633
0.164613,-1.34397,9.757951,-0.001125,0.005526,-0.002442,-0.098877,0.294678,-0.499512,-0.320097,3.0861,9.289343,-0.008239,0.009613,0.008612,-0.595947,-0.107422,-0.133057,-0.465734,4.076416,8.934575,0.010519,-0.007596,0.003545,0.282227,0.061279,0.980469,-0.113096,3.700302,9.123464,-0.001855,0.001501,0.007857,0.702881,-0.400391,-0.218018,-0.37936,3.219668,9.263388,0.007219,-0.005177,-0.004463,0.456055,-0.413818,-0.595215
0.140275,-1.346607,9.733503,0.002676,0.00463,-0.001243,-0.103027,0.306152,-0.506592,-0.263042,3.109049,9.294655,-0.002308,-0.00064,0.007278,-0.593018,-0.11377,-0.126709,-0.421271,4.111032,8.94169,-0.008232,0.011954,-0.001266,0.28418,0.05542,0.979492,-0.091239,3.694469,9.146281,-0.014281,0.000653,0.011265,0.708496,-0.405273,-0.219971,-0.38992,3.238271,9.253995,0.004364,0.008399,-0.002204,0.455566,-0.400635,-0.60083
0.161709,-1.336776,9.750868,0.001932,-0.001876,0.000982,-0.097412,0.30127,-0.508301,-0.270904,3.106465,9.302108,-0.017241,0.0128,0.008541,-0.59375,-0.114014,-0.123779,-0.495193,4.079653,8.941203,-0.01494,0.013185,0.004498,0.280273,0.050049,0.972656,-0.110636,3.665447,9.118308,-0.012661,0.006672,0.009005,0.705078,-0.408691,-0.225342,-0.39696,3.207551,9.268135,-0.010241,-0.010942,-0.0032,0.45874,-0.404297,-0.603516
0.157639,-1.363038,9.781117,-0.001932,0.001876,-0.000982,-0.10376,0.296387,-0.512939,-0.281729,3.06754,9.277225,-0.016724,0.002395,0.005556,-0.587402,-0.107422,-0.131104,-0.445882,4.078546,8.93801,0.006683,-0.008304,-0.000734,0.293457,0.056641,0.979004,-0.118493,3.662764,9.138776,0.00719,0.00024,0.010447,0.718994,-0.408936,-0.220215,-0.387747,3.17742,9.225354,-0.004067,0.004177,-0.000347,0.452881,-0.410156,-0.610107
0.159781,-1.344165,9.744449,0.001416,0.009663,0.000305,-0.0896,0.30127,-0.507324,-0.25056,3.101765,9.312965,0.002904,0.006931,0.008197,-0.595459,-0.107666,-0.131104,-0.4284,4.115563,8.919787,0.005488,0.013615,0.00055,0.282959,0.050537,0.979492,-0.088107,3.712534,9.140794,0.001215,-0.001942,0.009524,0.705078,-0.409668,-0.219238,-0.416903,3.205366,9.254556,0.014812,0.002863,-0.005879,0.465332,-0.406494,-0.603516
0.139239,-1.352434,9.740835,-0.000539,-0.003766,-0.00092,-0.100586,0.294189,-0.506348,-0.283923,3.126495,9.294837,-0.007258,0.008364,0.007089,-0.585693,-0.103027,-0.134033,-0.490317,4.111916,8.94879,-0.00534,0.00965,0.000313,0.279053,0.062744,0.979492,-0.107943,3.704883,9.147162,-0.018903,0.005957,0.011393,0.701172,-0.400879,-0.218506,-0.370438,3.240929,9.267386,0.003595,-0.007925,-0.00083,0.457764,-0.408203,-0.603027
0.193128,-1.354699,9.768317,-0.001466,0.000845,-0.000948,-0.106201,0.304932,-0.504639,-0.279482,3.088245,9.285675,-0.024395,0.004616,0.00614,-0.589844,-0.107422,-0.130371,-0.447896,4.10554,8.949641,-0.005108,-0.009481,0.00351,0.286621,0.056396,0.982666,-0.102744,3.662793,9.127448,-0.006215,0.002271,0.008796,0.710693,-0.407715,-0.215576,-0.391749,3.212643,9.239522,-0.014175,0.002922,-0.004398,0.453369,-0.399414,-0.606201
0.149968,-1.358424,9.746645,0.002766,0.005074,-0.000156,-0.09668,0.30127,-0.504639,-0.262965,3.077202,9.276277,-0.003006,0.008973,0.009568,-0.584473,-0.113525,-0.129639,-0.455215,4.084421,8.937689,-0.014351,0.016367,0.000754,0.282715,0.056396,0.976562,-0.0996,3.672825,9.148909,-0.002723,0.001539,0.010813,0.707275,-0.404053,-0.221191,-0.406989,3.187844,9.263544,0.005219,0.000501,-0.003153,0.460449,-0.405273,-0.602783
0.154816,-1.338081,9.723691,0.00149,-9.7e-05,0.00123,-0.097656,0.30249,-0.509277,-0.267022,3.12431,9.290177,-0.003238,0.005833,0.005627,-0.588379,-0.103516,-0.134033,-0.486233,4.086319,8.934659,0.009188,0.002418,0.001203,0.286621,0.05957,0.973389,-0.100054,3.682583,9.121273,0.002835,0.003597,0.010584,0.710938,-0.400635,-0.226562,-0.369563,3.21529,9.283968,0.004771,-0.008689,-0.00501,0.458496,-0.403809,-0.607422
0.162906,-1.355709,9.772607,-0.002424,-0.000393,-0.001339,-0.096436,0.304199,-0.513184,-0.275372,3.103635,9.310576,-0.019831,0.006683,0.008623,-0.591797,-0.109863,-0.142334,-0.437174,4.124267,8.928402,0.005739,0.003705,-0.00015,0.286621,0.054199,0.988525,-0.098249,3.692548,9.156477,-0.010959,0.00428,0.009153,0.710205,-0.408447,-0.210938,-0.390199,3.215079,9.229719,0.002669,0.006456,-0.001833,0.463135,-0.400635,-0.610596
0.158593,-1.357327,9.745345,0.003809,0.004206,0.001281,-0.097412,0.299561,-0.499756,-0.291753,3.082661,9.308502,-0.00586,0.006613,0.006476,-0.59082,-0.098145,-0.130615,-0.475191,4.102762,8.978604,-0.011346,0.007271,0.001278,0.292725,0.056396,0.987305,-0.107763,3.677099,9.142866,-0.011085,0.000984,0.00938,0.71582,-0.407715,-0.20874,-0.395385,3.221895,9.270357,-0.005439,-0.004294,-0.004223,0.45752,-0.409424,-0.593994
0.148466,-1.357585,9.746785,-0.001645,-4.2e-05,-0.003121,-0.090088,0.297852,-0.498291,-0.262172,3.09927,9.327928,-0.009839,0.005759,0.008246,-0.587158,-0.100586,-0.125732,-0.459873,4.082141,8.938492,-0.013637,0.002281,0.00278,0.281494,0.060303,0.973877,-0.084549,3.651346,9.117007,-0.002717,0.004125,0.010011,0.704102,-0.403564,-0.223633,-0.370287,3.179996,9.247718,0.004295,-0.002594,-0.002202,0.4646,-0.407227,-0.594727
0.169814,-1.377195,9.751927,-0.002199,0.001992,0.001398,-0.102051,0.303955,-0.512207,-0.265707,3.080176,9.282858,-0.009433,0.01126,0.007262,-0.586426,-0.104492,-0.13623,-0.470756,4.072962,8.933907,0.003796,0.006882,-0.000162,0.290527,0.065186,0.977539,-0.125268,3.690617,9.128778,0.000571,0.00592,0.010651,0.7146,-0.398926,-0.218018,-0.394072,3.236306,9.232587,-0.0002,0.000609,-0.004068,0.45459,-0.402344,-0.609375
0.140355,-1.346513,9.705084,0.005973,0.00837,-0.000558,-0.091797,0.30957,-0.506592,-0.302928,3.098222,9.31739,-0.007596,0.002091,0.006795,-0.593262,-0.103516,-0.13208,-0.440083,4.111514,8.943405,0.009259,0.001173,-0.00051,0.287842,0.061035,0.980713,-0.089928,3.6899,9.151895,-0.003397,-0.005175,0.010112,0.711426,-0.400879,-0.218262,-0.395658,3.185851,9.234387,-0.005742,-0.00185,-0.000484,0.465332,-0.394531,-0.603271
0.145303,-1.350381,9.739705,0.000392,-0.005828,-0.000852,-0.093262,0.306641,-0.50708,-0.254439,3.102484,9.313419,-0.010358,0.008216,0.006436,-0.592041,-0.094971,-0.128906,-0.452075,4.116687,8.955406,-0.015328,0.011206,0.001556,0.282471,0.057373,0.981934,-0.081973,3.668784,9.125513,-0.019766,0.004372,0.00851,0.703369,-0.403809,-0.217285,-0.409983,3.223282,9.277679,0.015649,-0.000948,-0.006319,0.462646,-0.398193,-0.60376
0.181901,-1.352715,9.783649,-0.001711,0.00171,0.001714,-0.100098,0.302246,-0.502441,-0.283678,3.094262,9.298858,-0.016098,0.007537,0.007423,-0.587891,-0.111572,-0.135254,-0.469437,4.073881,8.921412,-0.001126,0.002245,0.002723,0.291748,0.061279,0.976074,-0.125614,3.665493,9.137111,0.006635,0.005332,0.009064,0.713379,-0.399902,-0.221436,-0.374195,3.226609,9.234128,-0.015087,-0.006717,-0.000814,0.455566,-0.40332,-0.598145
0.139913,-1.359958,9.705928,-0.000761,0.010958,-0.003655,-0.092285,0.306641,-0.510498,-0.262289,3.071234,9.279122,-0.004376,0.003816,0.009417,-0.59668,-0.112061,-0.129883,-0.442267,4.098528,8.958538,-0.005753,0.003365,-0.000242,0.289551,0.058594,0.974854,-0.101097,3.703002,9.159764,-0.004076,-0.001248,0.011469,0.71167,-0.402588,-0.223389,-0.40104,3.19397,9.234609,0.007588,0.008043,-0.001418,0.463135,-0.401367,-0.605225
0.10974,-1.339945,9.715835,0.004864,-0.003567,0.002879,-0.092041,0.304688,-0.510986,-0.287056,3.135376,9.300325,0.002153,0.010669,0.006187,-0.589111,-0.108887,-0.135742,-0.461775,4.090393,8.913189,0.000508,0.005936,0.002894,0.279297,0.053223,0.978271,-0.100131,3.690964,9.097989,-0.009711,0.000415,0.007575,0.703125,-0.407471,-0.21875,-0.411884,3.222008,9.287063,0.002564,-0.004858,-0.004628,0.462891,-0.401123,-0.609619
0.205325,-1.352265,9.752303,-0.00107,-0.002432,-0.001759,-0.103271,0.298828,-0.505371,-0.271017,3.088155,9.316771,-0.036019,-0.000882,0.007691,-0.591309,-0.100586,-0.132812,-0.456436,4.113964,8.956437,0.003412,0.007672,-0.005743,0.283936,0.056396,0.984863,-0.104429,3.668101,9.146519,-0.004535,0.005329,0.012604,0.707275,-0.40918,-0.216553,-0.382429,3.210046,9.219505,0.003139,-0.002094,-0.001501,0.454346,-0.408447,-0.603027
0.147721,-1.361423,9.767945,0.004509,0.011769,-0.001466,-0.0979,0.301758,-0.500977,-0.267434,3.0503,9.278233,0.003599,0.015688,0.012557,-0.588623,-0.102051,-0.134277,-0.469966,4.101574,8.942994,-0.01447,0.00195,0.007602,0.286865,0.059326,0.978027,-0.116576,3.66283,9.11882,-0.012762,0.00856,0.007625,0.713379,-0.403564,-0.2229,-0.395424,3.236226,9.241576,-0.00139,-0.000573,-0.006334,0.45752,-0.406738,-0.599121
0.135401,-1.3301,9.704726,0.003358,0.000884,0.001449,-0.093994,0.30249,-0.506592,-0.298312,3.132616,9.32226,0.005228,0.001559,0.002829,-0.593506,-0.102783,-0.136719,-0.440307,4.083659,8.930106,0.000694,0.000679,-0.00253,0.279053,0.051758,0.980469,-0.116731,3.69288,9.112291,0.011496,-0.004995,0.013055,0.70459,-0.4104,-0.217529,-0.38199,3.159366,9.252405,-0.015598,0.006177,0.00284,0.462646,-0.401367,-0.602051
0.146403,-1.361157,9.768002,-0.009075,-0.002466,-0.003432,-0.104004,0.297119,-0.504639,-0.22667,3.092899,9.297984,-0.035142,0.006479,0.010857,-0.596436,-0.106445,-0.140137,-0.493478,4.111866,8.96702,0.000523,0.017311,0.000129,0.287354,0.057861,0.983154,-0.104074,3.716368,9.161898,-0.01373,0.004551,0.008862,0.710449,-0.402832,-0.214355,-0.425727,3.22757,9.234958,0.035295,-0.003398,-0.01127,0.454346,-0.409668,-0.602539
0.167785,-1.380653,9.773175,0.006143,0.004157,0.001535,-0.096924,0.304199,-0.50293,-0.309088,3.04744,9.268227,0.00277,0.012261,0.007011,-0.600098,-0.116455,-0.137939,-0.473397,4.109858,8.929738,-0.001362,-0.01272,0.003182,0.285156,0.055908,0.985352,-0.109757,3.670712,9.100039,-0.015404,0.003598,0.007567,0.70874,-0.405273,-0.211914,-0.363876,3.247832,9.278148,-0.021612,-0.010973,0.004572,0.459717,-0.403809,-0.601074
0.154339,-1.321866,9.708373,0.001229,0.003675,-0.001949,-0.10083,0.301758,-0.499023,-0.228013,3.127768,9.316234,-0.007281,-0.004672,0.006819,-0.587158,-0.104004,-0.12793,-0.410883,4.119155,8.941,-0.013421,0.011438,-0.000229,0.287598,0.050537,0.979248,-0.077766,3.677839,9.137421,0.001462,-0.004387,0.012841,0.713867,-0.410645,-0.217529,-0.387624,3.156209,9.240376,-0.003712,0.014085,-0.003919,0.458252,-0.403564,-0.59668
0.166823,-1.379652,9.773333,-0.000449,-0.003324,0.000166,-0.094971,0.294189,-0.504639,-0.27005,3.093906,9.272105,-0.015298,0.020379,0.010773,-0.588623,-0.109863,-0.140381,-0.52343,4.068494,8.915059,-0.007855,0.01611,0.002787,0.282227,0.061279,0.980469,-0.098147,3.671782,9.14313,-0.005874,0.012039,0.006173,0.705322,-0.401855,-0.217529,-0.412887,3.223837,9.246426,0.016983,-0.017391,-0.006932,0.461914,-0.412598,-0.598877
0.169951,-1.33133,9.748871,0.008526,0.008158,0.002392,-0.099854,0.306885,-0.50415,-0.295353,3.098606,9.319225,-0.005591,-0.002495,0.003256,-0.593262,-0.11084,-0.128906,-0.448217,4.091412,8.939188,0.015277,-0.01919,-0.000576,0.282471,0.054932,0.969238,-0.119899,3.696274,9.142113,0.004709,0.001989,0.013257,0.709473,-0.409424,-0.230713,-0.325905,3.215237,9.229627,-0.014442,0.005676,0.002139,0.458496,-0.399902,-0.600342
0.142518,-1.328668,9.703498,-0.008714,0.000412,-0.004686,-0.098145,0.299561,-0.515381,-0.225548,3.085687,9.308171,-0.016424,0.009233,0.011919,-0.581055,-0.105713,-0.134277,-0.428117,4.1308,8.930307,-0.009544,0.02504,0.001566,0.280762,0.052734,0.983887,-0.096793,3.700965,9.123273,-0.014232,-0.009385,0.007811,0.703369,-0.409668,-0.215088,-0.453129,3.193912,9.284752,0.01477,0.013493,-0.008003,0.458008,-0.40625,-0.612549
0.168733,-1.385428,9.794187,-0.001183,-0.002177,0.002512,-0.101807,0.295898,-0.502686,-0.301081,3.103612,9.288261,0.001611,0.008292,0.004107,-0.584717,-0.10498,-0.133545,-0.538158,4.087647,8.943692,-0.009302,0.004381,-0.000161,0.2854,0.053223,0.972168,-0.093581,3.688594,9.124516,-0.01185,0.011496,0.011079,0.710449,-0.408936,-0.225342,-0.377721,3.238357,9.264096,-0.003268,-0.029474,0.00101,0.457031,-0.408936,-0.599854
0.168155,-1.339748,9.742313,0.002298,0.006108,-0.000189,-0.094727,0.297852,-0.511475,-0.262062,3.115708,9.317348,-0.018284,0.000932,0.008386,-0.585693,-0.116211,-0.13208,-0.417634,4.101923,8.947669,-0.003764,-0.013069,0.0046,0.287354,0.049316,0.976807,-0.126423,3.668549,9.143407,0.000753,0.004606,0.010658,0.710693,-0.411865,-0.22168,-0.347017,3.199642,9.213525,-0.011344,0.018016,-0.004455,0.461182,-0.409912,-0.610107
0.144819,-1.355801,9.718667,0.002272,0.002807,-0.000511,-0.095215,0.293457,-0.511475,-0.276279,3.068286,9.301817,-0.012722,0.01125,0.008563,-0.588623,-0.106445,-0.132568,-0.465292,4.08654,8.912831,-0.001751,0.0237,-0.001132,0.284424,0.055176,0.976318,-0.09864,3.70648,9.124824,0.00155,-0.004556,0.009523,0.707031,-0.407471,-0.2229,-0.447218,3.184946,9.284848,0.005636,0.002838,-0.001465,0.460938,-0.410889,-0.604736
0.169063,-1.3375,9.756164,0.004221,-0.003425,0.000673,-0.097412,0.298096,-0.511475,-0.287991,3.114317,9.293768,-0.003501,0.002302,0.005128,-0.586914,-0.108887,-0.128906,-0.526645,4.110929,8.952954,0.013894,0.000679,-0.001313,0.279297,0.052979,0.981934,-0.10462,3.704237,9.131399,-0.004688,0.003263,0.011454,0.704346,-0.409668,-0.218262,-0.368766,3.233438,9.244871,0.013641,-0.017142,-0.006357,0.459229,-0.406006,-0.607666
0.161386,-1.357849,9.765609,-0.001257,0.006138,-0.004053,-0.10376,0.297852,-0.50293,-0.258937,3.091596,9.296441,-0.013054,0.01071,0.011204,-0.593262,-0.10376,-0.136475,-0.435739,4.128927,8.95311,-0.01577,-0.004306,0.004883,0.286133,0.064941,0.980713,-0.116806,3.667089,9.124655,-0.026519,0.008041,0.007555,0.71167,-0.399902,-0.21875,-0.379844,3.250448,9.245018,-0.00195,0.009546,-0.002343,0.452637,-0.409668,-0.604004
0.144805,-1.339709,9.731743,0.003512,0.001024,0.003341,-0.095947,0.30957,-0.504883,-0.285482,3.097319,9.284996,-0.007863,0.004577,0.004399,-0.590088,-0.108643,-0.129395,-0.468496,4.084449,8.913622,-0.013594,0.015196,0.000272,0.284668,0.061279,0.975586,-0.115727,3.6653,9.111676,0.008844,-0.001459,0.012543,0.709717,-0.400635,-0.222168,-0.404042,3.180197,9.281115,-0.024314,-0.003004,0.001315,0.461426,-0.397705,-0.601562
0.158175,-1.337947,9.75758,-0.008159,-0.000175,-0.003566,-0.0979,0.305908,-0.511719,-0.223657,3.086986,9.32327,-0.018382,0.005112,0.009349,-0.59375,-0.10083,-0.125244,-0.484349,4.100567,8.933421,0.008538,0.001745,-0.000892,0.286377,0.062744,0.975586,-0.097313,3.72271,9.161286,0.007751,0.000247,0.010233,0.711426,-0.401855,-0.220947,-0.397652,3.162777,9.219031,0.025018,-0.001508,-0.006669,0.460449,-0.400391,-0.611816
0.157092,-1.374235,9.739005,0.003718,0.003765,0.000197,-0.094238,0.304199,-0.509766,-0.296436,3.097169,9.276955,0.005814,0.010962,0.007093,-0.588135,-0.105469,-0.130859,-0.433238,4.114752,8.924406,0.005738,0.000921,0.002513,0.281006,0.060303,0.986328,-0.109834,3.697332,9.12616,-0.021893,0.00743,0.009139,0.707031,-0.406494,-0.212646,-0.389906,3.291968,9.259981,0.00556,-0.001618,-0.00409,0.459717,-0.403809,-0.606934
0.162607,-1.317467,9.73465,0.006138,0.001607,0.001497,-0.100586,0.302979,-0.497314,-0.24926,3.127254,9.315816,-0.01802,5.2e-05,0.005137,-0.585205,-0.103027,-0.131836,-0.45635,4.126244,8.947881,-0.007384,0.015353,-0.000921,0.294189,0.052002,0.977051,-0.099312,3.677059,9.148546,-0.004048,8.4e-05,0.012035,0.719238,-0.407715,-0.219482,-0.382444,3.187366,9.235031,-0.022374,0.003562,0.001528,0.455078,-0.399902,-0.595215
0.160669,-1.363692,9.772944,-0.004423,-0.000766,-0.003169,-0.088379,0.298828,-0.507324,-0.268734,3.052582,9.293647,-0.021859,0.012525,0.009937,-0.59082,-0.101318,-0.137695,-0.485659,4.102405,8.942691,-0.016471,0.002728,0.003234,0.287354,0.052734,0.97583,-0.116357,3.691566,9.134152,-0.004349,0.004505,0.009289,0.70752,-0.410889,-0.220215,-0.423099,3.205522,9.241351,0.018566,-0.002155,-0.008409,0.469482,-0.407715,-0.603516
0.156117,-1.344295,9.751309,0.005295,0.004114,0.002514,-0.098633,0.296875,-0.506836,-0.290487,3.106987,9.318424,0.010854,0.005068,0.003634,-0.588379,-0.105469,-0.139404,-0.436635,4.084193,8.914094,0.007136,-0.010362,0.003144,0.2854,0.053467,0.974121,-0.095579,3.697342,9.128563,0.006405,5.4e-05,0.01009,0.709961,-0.410156,-0.223389,-0.358716,3.216616,9.253632,-0.009106,-0.008468,-7.5e-05,0.456787,-0.411377,-0.60498
0.151329,-1.346341,9.723993,-0.00733,0.004227,-0.004745,-0.098145,0.297607,-0.512207,-0.234676,3.112341,9.307699,-0.020956,0.003826,0.009695,-0.598145,-0.10791,-0.140625,-0.453706,4.125652,8.936184,0.002793,0.023577,-0.004287,0.287598,0.056885,0.972656,-0.098032,3.726299,9.163645,-0.012043,0.001669,0.012319,0.711182,-0.40625,-0.225342,-0.40027,3.199824,9.223588,0.011193,0.012162,-0.004885,0.460205,-0.409668,-0.606445
0.149959,-1.378304,9.775099,0.005758,0.00053,0.002509,-0.094727,0.298828,-0.513916,-0.302755,3.068346,9.264074,-0.008615,0.013675,0.008778,-0.589844,-0.109375,-0.137207,-0.515114,4.107817,8.948219,-0.004804,-0.00069,0.002838,0.280762,0.061035,0.979248,-0.115621,3.667488,9.11459,-0.017876,0.009232,0.008198,0.706787,-0.402588,-0.217773,-0.397862,3.249731,9.261951,-0.003761,-0.013028,-0.001785,0.463379,-0.404297,-0.608643
0.162727,-1.336616,9.742835,0.003758,0.000159,0.00068,-0.100098,0.304932,-0.507324,-0.255682,3.119219,9.332867,-0.006576,-0.001233,0.004764,-0.588623,-0.103027,-0.134277,-0.40201,4.11271,8.925708,-0.009946,-0.008921,0.003405,0.277832,0.053223,0.98584,-0.101858,3.669739,9.116077,0.005803,-0.0052,0.011899,0.704346,-0.411133,-0.216064,-0.362507,3.177316,9.236701,-0.00982,0.003676,-0.000661,0.456055,-0.400635,-0.600586
0.152045,-1.344834,9.737745,-0.006752,0.004389,-0.003343,-0.102783,0.296387,-0.501221,-0.231041,3.065468,9.28662,-0.020895,0.012189,0.011065,-0.587891,-0.102783,-0.137939,-0.485106,4.077988,8.950116,-0.008559,0.02809,-0.000376,0.278809,0.053223,0.981201,-0.093336,3.712935,9.15159,-0.000644,0.004298,0.008569,0.704346,-0.406494,-0.217285,-0.418524,3.209102,9.262217,0.015476,0.001356,-0.007419,0.45166,-0.413818,-0.597412
0.153404,-1.365607,9.745685,0.001937,0.003229,0.001065,-0.103027,0.298584,-0.505859,-0.29283,3.087697,9.29571,0.004633,0.005682,0.004976,-0.591064,-0.106934,-0.130371,-0.509751,4.095486,8.928984,0.010533,-0.00914,-0.001342,0.290039,0.056641,0.981689,-0.109698,3.687521,9.15754,-0.008869,0.012518,0.010573,0.715576,-0.404053,-0.216309,-0.36429,3.225662,9.253517,-0.005523,-0.012309,-0.000394,0.453125,-0.406982,-0.602539
0.140183,-1.352881,9.732693,0.001295,0.003372,-0.001143,-0.092041,0.301025,-0.501953,-0.258656,3.131842,9.292769,-0.011614,0.004664,0.008224,-0.585205,-0.098145,-0.126953,-0.414322,4.130547,8.932809,-0.001391,0.001423,0.002406,0.287842,0.048584,0.979248,-0.125446,3.671094,9.136263,-0.0083,-0.006469,0.010669,0.712891,-0.413086,-0.220215,-0.394807,3.189649,9.273076,-0.003526,0.017288,-0.002826,0.464844,-0.405518,-0.599121
0.17419,-1.355597,9.763123,0.001355,-0.002039,-0.000419,-0.09375,0.292969,-0.506104,-0.276824,3.074787,9.286939,-0.025045,0.007448,0.007586,-0.590332,-0.112305,-0.130371,-0.491638,4.11107,8.939323,-0.012947,0.02359,-0.001795,0.28125,0.047363,0.977539,-0.07646,3.682704,9.133118,-0.001076,-0.002245,0.010378,0.708984,-0.417725,-0.219482,-0.439949,3.218107,9.269866,0.007523,-0.012522,-0.001916,0.462646,-0.411621,-0.603271
0.154434,-1.356326,9.765933,0.001297,0.005925,-0.001102,-0.099609,0.292725,-0.51123,-0.261222,3.085984,9.277912,0.0016,0.006978,0.004911,-0.591309,-0.103271,-0.136475,-0.48863,4.088771,8.945909,-0.002193,-0.012434,0.004219,0.28418,0.059326,0.981445,-0.105872,3.704109,9.152779,-0.009565,0.015093,0.011364,0.709229,-0.402832,-0.219727,-0.343719,3.218093,9.205361,0.000556,-0.00876,-0.003819,0.45874,-0.415771,-0.60498
0.149313,-1.336715,9.744333,0.001337,0.002318,-0.00062,-0.097412,0.302246,-0.506836,-0.280828,3.137612,9.318279,0.00384,0.00994,0.00907,-0.587158,-0.108643,-0.127441,-0.430761,4.089081,8.90835,-0.001098,0.006555,0.000345,0.282471,0.053955,0.975098,-0.120178,3.678243,9.131516,-0.007868,6.9e-05,0.008858,0.708984,-0.40918,-0.221924,-0.408125,3.191964,9.271107,-0.011317,0.018329,-0.00166,0.458008,-0.401855,-0.603027
0.169869,-1.342481,9.748747,-0.004561,-0.00126,0.000819,-0.101074,0.296875,-0.51001,-0.275064,3.095405,9.295665,-0.035372,0.001251,0.004942,-0.593506,-0.099365,-0.12915,-0.498799,4.130302,8.933916,0.006877,0.017139,-0.003347,0.28833,0.050049,0.979004,-0.091388,3.705628,9.154571,0.006876,-0.009025,0.011685,0.711182,-0.412109,-0.221924,-0.428807,3.189848,9.257467,0.00878,-0.010188,-0.003638,0.457275,-0.409668,-0.605225
0.151938,-1.372103,9.75294,-0.00406,0.004668,-0.004382,-0.092773,0.292236,-0.50708,-0.266025,3.043793,9.276237,-0.002314,0.009788,0.009128,-0.577393,-0.104492,-0.133301,-0.466453,4.143219,8.941475,-0.011072,-0.008824,0.004985,0.288086,0.061279,0.978516,-0.083765,3.685476,9.127758,-0.022183,0.011379,0.009705,0.712646,-0.404541,-0.220459,-0.361009,3.266819,9.229799,0.017725,-0.011726,-0.005502,0.463623,-0.412598,-0.604004
0.156827,-1.351515,9.730023,0.010361,0.000737,0.002215,-0.094482,0.304443,-0.508057,-0.28556,3.135629,9.304305,0.013045,0.005666,0.004562,-0.588135,-0.10791,-0.12915,-0.426823,4.105324,8.922447,-0.014868,0.004906,0.003122,0.281006,0.059082,0.973877,-0.117543,3.653248,9.098627,-0.005311,0.003076,0.009721,0.707764,-0.408203,-0.226074,-0.368854,3.209104,9.269993,-0.032327,0.009833,0.002566,0.460938,-0.404785,-0.605225
0.156238,-1.329349,9.735814,-0.001531,0.00115,-0.001754,-0.100342,0.30127,-0.511719,-0.24084,3.108095,9.280976,-0.041907,0.004871,0.009984,-0.596436,-0.111816,-0.138916,-0.494203,4.094157,8.933884,0.002673,0.019639,-0.004243,0.282227,0.058105,0.983643,-0.113395,3.705179,9.161817,0.008796,-0.002849,0.011968,0.709717,-0.405518,-0.214844,-0.423937,3.155787,9.242951,0.013399,-0.001239,-0.005768,0.455322,-0.404541,-0.608643
0.151511,-1.355327,9.766118,0.003651,0.004072,-0.000606,-0.098145,0.30127,-0.503906,-0.299183,3.036757,9.24652,-0.000628,0.012871,0.008241,-0.58374,-0.112305,-0.126465,-0.470318,4.113622,8.930672,0.009329,-0.010588,0.004618,0.277588,0.050781,0.976318,-0.091927,3.690575,9.121458,-0.008735,0.007774,0.007481,0.700928,-0.4104,-0.21875,-0.393407,3.254261,9.242511,0.016947,-0.009213,-0.005913,0.458008,-0.405029,-0.599121
0.151808,-1.323392,9.71502,-0.002247,0.000494,0.000832,-0.103027,0.295166,-0.508789,-0.262501,3.137961,9.306268,0.008599,-0.001718,0.003234,-0.5896,-0.099365,-0.134766,-0.421641,4.137164,8.930408,-0.008419,0.007143,-0.000671,0.291748,0.060791,0.980225,-0.105768,3.704931,9.156276,-0.010484,-0.001438,0.011881,0.713867,-0.405273,-0.219727,-0.397393,3.227709,9.237307,-0.013749,0.009632,0.000595,0.453613,-0.407959,-0.606445
0.141826,-1.378054,9.761705,-0.008267,-0.001371,-0.004939,-0.091064,0.300049,-0.508301,-0.247487,3.092635,9.292678,-0.03003,0.011292,0.010538,-0.59082,-0.103271,-0.130127,-0.516199,4.103428,8.936088,-0.016462,0.016279,0.001588,0.275635,0.059326,0.988525,-0.106474,3.661633,9.128816,-0.011303,0.004272,0.009931,0.699707,-0.404297,-0.210938,-0.417241,3.185931,9.277978,0.001435,-0.008439,-0.004429,0.465088,-0.402832,-0.60498
0.169362,-1.36305,9.756752,0.005426,0.006059,0.004168,-0.106689,0.302246,-0.5,-0.305361,3.082081,9.304938,-0.006511,0.007132,0.006138,-0.592529,-0.111084,-0.128906,-0.466213,4.101967,8.93338,0.005442,-0.01712,0.002422,0.280762,0.056641,0.973633,-0.112367,3.679782,9.142769,0.006727,0.004122,0.012396,0.707764,-0.410889,-0.2229,-0.36527,3.200374,9.238971,-0.002427,-0.006239,-0.00088,0.450439,-0.402832,-0.594238
0.14823,-1.324998,9.7013,0.002098,0.004474,-0.002642,-0.099854,0.29834,-0.511475,-0.238513,3.09702,9.278012,-0.001653,0.002374,0.00867,-0.588623,-0.10376,-0.126465,-0.414924,4.115395,8.924862,0.002244,0.017635,-0.002532,0.28125,0.060547,0.986816,-0.105854,3.711923,9.143587,-0.00451,-0.001393,0.010299,0.706787,-0.403564,-0.213135,-0.411582,3.203424,9.261225,0.011848,0.012002,-0.006258,0.458008,-0.406982,-0.60498
0.160092,-1.361036,9.77203,0.003821,-0.002699,0.001446,-0.100342,0.305908,-0.501221,-0.290682,3.115583,9.296343,-0.00995,0.011159,0.00703,-0.591064,-0.104736,-0.134033,-0.522641,4.114057,8.943907,-0.000946,0.012036,0.000585,0.279053,0.061035,0.972656,-0.102835,3.700402,9.144448,-0.013952,0.005256,0.010216,0.704102,-0.402588,-0.224854,-0.407696,3.243393,9.277915,-0.001163,-0.014844,-0.003269,0.45166,-0.401611,-0.597656
0.159587,-1.339204,9.777771,0.002228,0.003864,-0.001032,-0.10083,0.301758,-0.513916,-0.272931,3.081718,9.315807,-0.01948,0.002642,0.006978,-0.582031,-0.10791,-0.131348,-0.447811,4.131258,8.938448,-0.005141,-0.013169,0.002075,0.289795,0.060303,0.989014,-0.114126,3.664867,9.123277,-0.00613,0.004947,0.009934,0.712891,-0.404785,-0.208984,-0.361984,3.204477,9.219635,-0.00965,0.003835,-0.002698,0.455811,-0.405518,-0.613525
0.141284,-1.3435,9.724538,-0.003461,0.005581,-0.002699,-0.093994,0.304688,-0.498047,-0.265314,3.075335,9.29688,-0.004817,0.009936,0.010075,-0.587891,-0.111572,-0.12915,-0.435452,4.099658,8.924635,-0.013999,0.014743,0.002236,0.288086,0.054443,0.977051,-0.099987,3.688178,9.145585,0.001425,-0.0027,0.008143,0.713379,-0.413818,-0.218506,-0.413424,3.201126,9.270968,0.004427,0.004381,-0.003395,0.464355,-0.40625,-0.594238
0.163044,-1.356041,9.73614,-0.002694,-0.002833,0.000997,-0.093262,0.296143,-0.505859,-0.275937,3.121852,9.318038,-0.001909,0.002641,0.004423,-0.588379,-0.103027,-0.129395,-0.494958,4.094365,8.93182,0.009185,0.007339,-0.000277,0.279297,0.056152,0.975342,-0.09773,3.709074,9.152802,0.001574,0.002194,0.013761,0.702881,-0.408203,-0.224854,-0.394538,3.204804,9.244019,0.006266,-0.011036,-0.003162,0.462891,-0.409668,-0.603027
0.177402,-1.367655,9.762834,0.001053,0.002789,-0.00412,-0.10083,0.299805,-0.511963,-0.256561,3.10331,9.282217,-0.020843,0.007939,0.008674,-0.58252,-0.101807,-0.130371,-0.452107,4.153411,8.94208,0.000858,-0.00371,0.000747,0.290039,0.063965,0.985352,-0.101612,3.695856,9.146299,-0.020459,0.00824,0.007901,0.715088,-0.400879,-0.214111,-0.379633,3.229515,9.21998,0.002295,0.004181,-0.004202,0.456543,-0.407471,-0.609131
0.142082,-1.363613,9.732584,0.007292,0.007044,0.004389,-0.091064,0.305176,-0.501221,-0.290866,3.090474,9.290144,-0.004913,0.007471,0.00544,-0.591797,-0.112793,-0.131836,-0.460361,4.110654,8.948195,-0.012055,0.011559,0.002252,0.280762,0.059326,0.986572,-0.121309,3.66752,9.117987,-0.005081,-0.001462,0.010512,0.703125,-0.403809,-0.214111,-0.408593,3.204543,9.291904,-0.012651,-0.000504,7.7e-05,0.46582,-0.400635,-0.5979
0.140789,-1.320613,9.743974,-0.000578,-0.002717,-0.001444,-0.101807,0.302002,-0.500732,-0.245145,3.102766,9.312796,-0.009155,0.004411,0.005884,-0.58252,-0.106934,-0.13501,-0.495805,4.10502,8.927842,-0.006647,0.00278,0.001369,0.283203,0.052734,0.987793,-0.092395,3.695122,9.127285,0.005178,0.000527,0.010523,0.708252,-0.409912,-0.212158,-0.393924,3.168195,9.248266,0.012471,-0.00297,-0.004646,0.454346,-0.402344,-0.598877
0.177536,-1.36517,9.776738,-0.001551,0.002955,-0.001996,-0.100342,0.296143,-0.501221,-0.282044,3.096224,9.275046,-0.009919,0.012195,0.011068,-0.592773,-0.107666,-0.126953,-0.452887,4.126387,8.940442,0.00607,0.000492,0.001125,0.290039,0.060303,0.97998,-0.111669,3.71014,9.140131,-0.006311,0.007482,0.008565,0.713623,-0.404785,-0.2229,-0.398546,3.263832,9.242223,0.002985,-0.002521,-0.002937,0.458008,-0.411377,-0.597412
0.138868,-1.335278,9.731131,0.003608,0.005129,-0.001128,-0.093262,0.302002,-0.509277,-0.257811,3.107011,9.317796,-0.007106,0.002151,0.005602,-0.59082,-0.10791,-0.128662,-0.460476,4.111829,8.957849,-0.003754,0.008181,-0.001206,0.2854,0.0625,0.988037,-0.104284,3.679565,9.141043,-0.013598,0.001427,0.011581,0.708496,-0.401611,-0.211914,-0.384259,3.18814,9.252743,-0.010307,0.002637,-0.001497,0.463867,-0.40332,-0.604004
0.142307,-1.362066,9.746349,-0.005051,-0.003534,0.000459,-0.097656,0.30542,-0.499512,-0.263131,3.095831,9.299053,-0.017717,0.009393,0.008551,-0.595215,-0.112305,-0.131104,-0.488763,4.107977,8.902672,-0.007351,0.007034,0.002378,0.288086,0.062744,0.987061,-0.098139,3.669052,9.100453,-0.002532,-0.000557,0.008857,0.713135,-0.400146,-0.214844,-0.407158,3.206468,9.282272,0.006428,7e-05,-0.004532,0.456787,-0.399658,-0.596436
0.193659,-1.365107,9.760362,0.003608,0.005129,-0.001127,-0.092285,0.303955,-0.500488,-0.281113,3.057991,9.279871,-0.008127,0.005496,0.007615,-0.592773,-0.105469,-0.131836,-0.467149,4.13048,8.95277,0.000625,0.001927,-0.00081,0.282959,0.060791,0.979248,-0.100509,3.719191,9.156377,0.005896,0.003878,0.010093,0.705811,-0.404541,-0.219482,-0.391814,3.221485,9.196473,0.001873,-0.008826,-0.003077,0.464355,-0.401367,-0.598145
0.128238,-1.327429,9.73909,0.007831,0.004259,-0.000409,-0.098877,0.303955,-0.50708,-0.250326,3.132454,9.304016,0.00708,0.008498,0.007212,-0.594971,-0.105225,-0.128174,-0.461296,4.107368,8.937574,-0.013594,0.005361,0.003275,0.281738,0.052979,0.968994,-0.120033,3.682237,9.155074,-0.020229,0.007056,0.009842,0.703857,-0.413086,-0.231201,-0.369117,3.236376,9.252847,0.000645,0.00501,-0.00417,0.458252,-0.401367,-0.605225
0.172273,-1.328993,9.768269,-0.000253,-0.006796,0.00254,-0.101318,0.296387,-0.517334,-0.284627,3.120037,9.311766,-0.029413,0.006304,0.005703,-0.586182,-0.108398,-0.135742,-0.481493,4.113137,8.908996,0.006858,0.00575,-0.000573,0.287354,0.063477,0.983398,-0.107877,3.673468,9.121811,0.005067,-0.00477,0.010161,0.711426,-0.400146,-0.218506,-0.418238,3.185823,9.287006,-0.010741,0.000567,0.000293,0.45459,-0.410645,-0.616455
0.194496,-1.362807,9.774228,-0.007412,0.00889,-0.005756,-0.095459,0.302734,-0.504639,-0.240724,3.011569,9.283809,-0.019682,0.004994,0.010785,-0.590332,-0.10498,-0.138672,-0.481674,4.134692,8.96502,-0.001552,0.010756,-0.002386,0.282227,0.055908,0.981689,-0.094286,3.716944,9.179007,-0.007804,0.007345,0.009788,0.708496,-0.408691,-0.218994,-0.414541,3.216758,9.201714,0.021173,-0.009121,-0.007097,0.460693,-0.400146,-0.603027
0.126638,-1.35612,9.727013,0.00529,0.004119,0.00252,-0.102295,0.30127,-0.504639,-0.30173,3.115648,9.297195,0.029698,0.013897,0.005779,-0.592285,-0.106689,-0.130615,-0.470158,4.10931,8.906604,-0.013293,-0.009249,0.007276,0.279297,0.064209,0.989014,-0.119421,3.668079,9.094249,-0.011062,0.00692,0.00971,0.704102,-0.401123,-0.211914,-0.352285,3.235462,9.285418,-0.017472,0.000726,-0.001354,0.458496,-0.406738,-0.602295
0.153886,-1.326485,9.721396,-0.00098,-0.004545,-0.000715,-0.101074,0.307373,-0.498535,-0.251583,3.158452,9.340101,-0.039372,-0.006388,0.00578,-0.589111,-0.107422,-0.131592,-0.448173,4.12725,8.926355,0.002334,0.014254,-0.005375,0.276855,0.057861,0.977051,-0.11777,3.708337,9.136695,0.00856,-0.00679,0.01355,0.702148,-0.406738,-0.220947,-0.432564,3.151891,9.24912,-0.000179,0.011867,-0.000602,0.455566,-0.398926,-0.596191
0.189552,-1.381745,9.810938,-0.001617,0.00326,-0.002801,-0.103516,0.301758,-0.508545,-0.256558,3.000378,9.256959,-0.025133,0.014825,0.013047,-0.57959,-0.111084,-0.129395,-0.535679,4.105046,8.957455,-0.005459,0.011558,0.002872,0.28125,0.056641,0.983643,-0.096238,3.702134,9.159475,-0.022777,0.011241,0.007966,0.704834,-0.407471,-0.216309,-0.410868,3.256995,9.218289,0.027609,-0.021081,-0.008985,0.452637,-0.404297,-0.604736
0.136307,-1.33952,9.73871,0.011382,0.006787,0.0035,-0.102295,0.297607,-0.504395,-0.309787,3.12478,9.323028,0.033212,0.003463,0.002034,-0.594238,-0.108154,-0.130127,-0.44342,4.104638,8.910873,-8.2e-05,-0.019392,0.003719,0.286621,0.055908,0.98584,-0.122224,3.652532,9.088681,-0.000842,0.002463,0.012676,0.709229,-0.408691,-0.213135,-0.330844,3.22729,9.277472,-0.034135,0.007745,0.004302,0.45459,-0.408936,-0.599854
0.154074,-1.331536,9.728827,-0.00731,-0.005243,-0.004633,-0.0979,0.298828,-0.502197,-0.217781,3.153672,9.3091,-0.035483,0.001742,0.009555,-0.596191,-0.107178,-0.134033,-0.448208,4.151508,8.917194,-0.004048,0.033562,-0.004181,0.286865,0.062988,0.977783,-0.100286,3.719087,9.16029,0.006989,-0.005784,0.011459,0.712891,-0.401855,-0.22168,-0.467624,3.15093,9.242898,0.016117,0.012147,-0.008123,0.458496,-0.408203,-0.599609
0.167848,-1.375158,9.806634,0.0034,0.002387,0.002017,-0.095215,0.304688,-0.509277,-0.302291,3.051322,9.244718,-0.016101,0.016671,0.008653,-0.58252,-0.099854,-0.130127,-0.557758,4.099684,8.94306,-0.005245,-0.002696,0.004532,0.27832,0.058838,0.977783,-0.09724,3.687878,9.126048,-0.02277,0.014584,0.009119,0.703369,-0.404297,-0.222168,-0.377682,3.29375,9.229495,0.016429,-0.031893,-0.003922,0.46167,-0.401611,-0.60498
0.15022,-1.325813,9.707988,0.002206,0.005671,-0.001272,-0.101807,0.302002,-0.509766,-0.263747,3.105347,9.333892,0.005435,-0.004506,0.004142,-0.598389,-0.099121,-0.133789,-0.391686,4.11838,8.91258,0.001725,-0.019453,0.003389,0.288086,0.058838,0.97876,-0.147501,3.662317,9.109312,0.000597,-0.002594,0.013034,0.712402,-0.408447,-0.220215,-0.339953,3.171608,9.276953,-0.032922,0.026189,0.000444,0.455078,-0.402344,-0.604736
0.167808,-1.365221,9.749787,-0.013736,-0.002379,-0.003958,-0.09375,0.298096,-0.508789,-0.236949,3.087977,9.291192,-0.022259,0.014052,0.01163,-0.594971,-0.103271,-0.133545,-0.490746,4.111389,8.94178,-0.008466,0.04539,-0.005236,0.282227,0.057373,0.981201,-0.084899,3.718658,9.149202,0.00032,-0.001499,0.009145,0.705811,-0.40625,-0.217285,-0.494905,3.19201,9.274722,0.026826,-0.000769,-0.00857,0.463135,-0.40918,-0.606934
0.182543,-1.369877,9.782873,0.008937,0.003086,0.001836,-0.099854,0.300781,-0.50415,-0.328113,3.109217,9.297613,0.000516,0.006662,0.004478,-0.597656,-0.113525,-0.129395,-0.567298,4.115735,8.928806,0.004487,-0.0208,0.003503,0.283447,0.056152,0.974609,-0.119306,3.688607,9.132846,-0.009512,0.011739,0.01022,0.70752,-0.4104,-0.226074,-0.323621,3.261121,9.213218,-0.003695,-0.030508,0.000199,0.455566,-0.407227,-0.601807
0.128702,-1.334384,9.704288,0.005877,0.007943,-0.001634,-0.098633,0.296631,-0.513672,-0.249934,3.113673,9.296998,-0.018144,0.00051,0.00976,-0.592285,-0.108154,-0.126465,-0.361198,4.130056,8.920767,-0.008746,-0.004446,0.002612,0.288574,0.057861,0.980713,-0.124059,3.675251,9.140043,-0.008626,-0.002549,0.011215,0.712158,-0.408203,-0.220459,-0.385424,3.187815,9.261836,-0.010963,0.036762,-0.002119,0.45874,-0.408447,-0.611328
0.166095,-1.363277,9.750089,-2e-06,-0.00511,-8.1e-05,-0.094727,0.298096,-0.508057,-0.276657,3.079884,9.26837,-0.012004,0.012145,0.00809,-0.594727,-0.107666,-0.12915,-0.540774,4.098177,8.938005,-0.007022,0.039295,-0.002923,0.281006,0.063477,0.979492,-0.104813,3.719441,9.128662,0.001303,-0.001333,0.010083,0.707031,-0.400146,-0.217041,-0.469063,3.19839,9.299992,0.00743,-0.019746,-0.004188,0.462402,-0.405762,-0.603271
0.16948,-1.340303,9.783027,0.000425,0.005133,-0.000407,-0.099854,0.304688,-0.50708,-0.283548,3.116073,9.322158,6.8e-05,0.001146,0.005419,-0.589844,-0.110596,-0.123535,-0.515469,4.133265,8.961276,0.007924,-0.027929,0.002328,0.273682,0.05835,0.976562,-0.115439,3.695845,9.155462,-0.007595,0.011979,0.010153,0.700195,-0.404541,-0.218506,-0.313675,3.219824,9.198185,0.008684,-0.011647,-0.002442,0.456787,-0.402588,-0.602783
0.140419,-1.359771,9.718295,-0.001127,0.005534,-0.002444,-0.108154,0.298584,-0.507324,-0.268728,3.111621,9.29613,-0.011734,0.010973,0.009675,-0.588623,-0.10376,-0.12915,-0.403511,4.13208,8.899378,-0.01357,0.006896,0.003539,0.28125,0.058838,0.986572,-0.123105,3.681823,9.100237,-0.012076,0.000819,0.008401,0.706299,-0.405762,-0.212402,-0.422623,3.23394,9.272836,-0.014226,0.024756,-0.003058,0.446533,-0.405762,-0.604492
0.158761,-1.345227,9.714737,-0.001185,-0.004735,0.002469,-0.098877,0.299072,-0.501465,-0.280231,3.076719,9.312788,-0.019141,0.001047,0.002414,-0.591797,-0.108887,-0.133545,-0.534282,4.113786,8.930288,-0.002091,0.028238,-0.005291,0.282715,0.058105,0.981201,-0.099656,3.697041,9.130046,0.006776,-0.002518,0.012037,0.706299,-0.405762,-0.220215,-0.438666,3.160953,9.248983,7.7e-05,-0.019101,-0.001673,0.457031,-0.40625,-0.593018
0.179675,-1.367901,9.783202,-0.0009,0.003918,-0.005387,-0.099854,0.300781,-0.506836,-0.258615,3.071593,9.280473,-0.001723,0.013462,0.010474,-0.589355,-0.106445,-0.132812,-0.489878,4.147986,8.938198,0.001877,-0.02386,0.00666,0.278809,0.060303,0.98291,-0.116449,3.701692,9.143282,-0.016495,0.010696,0.006964,0.706787,-0.403564,-0.2146,-0.354087,3.250377,9.216364,0.021858,-0.003778,-0.008472,0.459473,-0.406006,-0.601562
0.132079,-1.35137,9.739844,0.010847,0.005572,0.002623,-0.101807,0.301514,-0.503174,-0.310337,3.13052,9.31571,0.002283,0.003063,0.005557,-0.593994,-0.093506,-0.131836,-0.40494,4.119625,8.914253,-0.010115,0.008387,0.002258,0.281982,0.050781,0.987793,-0.118128,3.658668,9.115581,-0.004096,-0.002558,0.012805,0.706787,-0.415039,-0.212158,-0.40894,3.231742,9.274782,-0.028618,0.011562,0.000886,0.455078,-0.404785,-0.597168
0.149456,-1.322213,9.735604,-0.006135,-0.004169,-0.001546,-0.098389,0.294434,-0.497803,-0.235314,3.081162,9.294691,-0.035825,0.001536,0.007321,-0.592285,-0.099854,-0.133057,-0.539933,4.12241,8.939081,-0.001706,0.028081,-0.00349,0.274658,0.055908,0.97998,-0.107446,3.721326,9.159107,0.002853,-0.00111,0.010806,0.701172,-0.407471,-0.222412,-0.42628,3.157051,9.260492,0.013273,-0.008188,-0.004571,0.458984,-0.414795,-0.596924
0.150395,-1.382343,9.78823,-0.001106,0.003729,-0.002203,-0.105469,0.299072,-0.508789,-0.293385,3.050333,9.276487,0.00226,0.017686,0.008469,-0.589111,-0.0979,-0.130371,-0.501539,4.127885,8.947679,0.001181,-0.021755,0.006536,0.279785,0.056396,0.981934,-0.111774,3.688537,9.13111,-0.016644,0.010741,0.008332,0.705322,-0.408691,-0.219727,-0.382747,3.26545,9.233891,0.012723,-0.007913,-0.004559,0.450928,-0.408203,-0.606934
0.14797,-1.329926,9.729142,0.00518,0.005483,0.001194,-0.101318,0.300049,-0.505859,-0.272852,3.154914,9.334444,0.006408,-0.003569,0.0045,-0.589111,-0.110352,-0.135254,-0.380535,4.138842,8.921557,-0.006323,0.009457,-0.000421,0.286377,0.055176,0.985352,-0.113844,3.665916,9.138192,0.000183,-0.003967,0.013243,0.710938,-0.409668,-0.216064,-0.379267,3.192461,9.273375,-0.024076,0.011146,0.002407,0.455078,-0.410156,-0.603027
0.152012,-1.349498,9.750783,-0.007709,-0.004519,-0.003866,-0.09668,0.295898,-0.502197,-0.237612,3.092825,9.284222,-0.036477,0.012083,0.01233,-0.595215,-0.105225,-0.129395,-0.54264,4.120243,8.939916,-0.007895,0.024525,-0.000537,0.278076,0.060547,0.981445,-0.088096,3.701995,9.161628,-0.004167,0.003178,0.009284,0.706543,-0.405273,-0.218994,-0.437523,3.185577,9.27279,0.018746,-0.005769,-0.007477,0.46167,-0.411377,-0.599365
0.170628,-1.38029,9.799192,0.006666,0.002832,0.002386,-0.101562,0.301758,-0.507568,-0.330288,3.056102,9.285927,0.00219,0.008425,0.004397,-0.592285,-0.109375,-0.126221,-0.497283,4.104079,8.932699,0.007544,-0.021955,0.003072,0.285156,0.062744,0.98291,-0.117914,3.683226,9.138902,-0.006444,0.007513,0.009934,0.709717,-0.401367,-0.216553,-0.364636,3.253975,9.245009,-0.000461,-0.011968,-0.001498,0.455811,-0.405029,-0.600342
0.130607,-1.318519,9.688882,0.004475,0.008486,-0.001778,-0.095703,0.304688,-0.504395,-0.255254,3.131915,9.300117,-0.001081,0.000423,0.008397,-0.589355,-0.109131,-0.132568,-0.407693,4.141407,8.906171,-0.01104,0.016146,0.000577,0.278809,0.050293,0.982178,-0.111932,3.693501,9.119313,-0.005429,-0.002232,0.009343,0.704834,-0.415283,-0.219238,-0.383312,3.190167,9.252083,-0.010073,0.015468,-0.000585,0.45752,-0.400879,-0.601074
0.148474,-1.349025,9.737347,-0.003225,-0.004055,0.000114,-0.102783,0.291992,-0.503906,-0.283568,3.103031,9.284242,-0.021537,0.014013,0.008504,-0.594238,-0.105713,-0.135742,-0.555742,4.110187,8.935472,-0.003516,0.018262,-0.000136,0.283203,0.061035,0.988037,-0.102526,3.68476,9.127024,-0.002171,0.002769,0.009216,0.70874,-0.406006,-0.212891,-0.441387,3.207784,9.275303,0.011142,-0.008389,-0.005374,0.453125,-0.413818,-0.601562
0.181084,-1.345821,9.760555,0.001336,0.004876,-0.000577,-0.096924,0.301025,-0.499756,-0.282437,3.072696,9.300771,-0.010304,0.001514,0.00696,-0.592773,-0.105469,-0.126953,-0.458413,4.14744,8.949231,0.00636,-0.01997,0.002591,0.287354,0.056152,0.983887,-0.111892,3.711417,9.155123,-0.008041,0.005938,0.008631,0.713379,-0.409668,-0.216553,-0.361644,3.233445,9.20191,2.8e-05,-0.009845,-0.003966,0.460449,-0.403564,-0.598389
0.138811,-1.356119,9.745932,-0.000618,0.006003,-0.001845,-0.09375,0.296387,-0.504395,-0.263357,3.098522,9.295181,0.000658,0.009237,0.010508,-0.589844,-0.101562,-0.12793,-0.447133,4.136703,8.907375,-0.014929,0.017594,0.002045,0.280029,0.061035,0.983643,-0.11484,3.678173,9.113643,-0.012635,-0.000491,0.009975,0.70459,-0.405273,-0.213867,-0.396363,3.216966,9.273925,-0.004194,0.013364,-0.00197,0.4646,-0.410889,-0.602051
0.164217,-1.348962,9.720998,0.000977,-0.003119,0.000593,-0.100342,0.299316,-0.502441,-0.279274,3.117948,9.309667,-0.014912,0.005018,0.00463,-0.5979,-0.10791,-0.131592,-0.533291,4.12666,8.933719,0.00561,0.011778,-0.001968,0.283691,0.054688,0.973145,-0.119796,3.696699,9.127535,0.011455,0.001988,0.012057,0.707764,-0.412354,-0.226318,-0.421812,3.185781,9.264965,-0.00271,-0.009827,-0.004082,0.453125,-0.406494,-0.599365
0.161521,-1.374004,9.764963,0.001163,0.006543,-0.00271,-0.098389,0.296875,-0.51709,-0.252148,3.076343,9.295989,-0.014967,0.010213,0.009666,-0.594238,-0.106201,-0.137695,-0.463109,4.132518,8.954835,-0.006643,-0.009247,0.003245,0.28125,0.056152,0.978027,-0.112718,3.707302,9.18411,-0.021112,0.006269,0.008886,0.705811,-0.408447,-0.2229,-0.388787,3.238309,9.197869,0.018948,-0.003916,-0.006552,0.456055,-0.4104,-0.610352
0.13198,-1.346491,9.781175,0.004439,-0.001034,0.003418,-0.100586,0.297119,-0.509033,-0.301895,3.108153,9.317831,0.003295,0.00532,0.005143,-0.591553,-0.104492,-0.135986,-0.464276,4.105514,8.868783,-0.013056,0.008556,0.004159,0.282227,0.058838,0.984619,-0.120446,3.652028,9.086803,-0.00767,0.00011,0.009411,0.70874,-0.405029,-0.216309,-0.388758,3.220598,9.325847,-0.025723,0.003746,0.002114,0.456055,-0.408447,-0.605225
0.181426,-1.333975,9.717531,-0.01091,0.002397,-0.00331,-0.097656,0.298584,-0.503418,-0.245636,3.089964,9.278478,-0.032979,0.001692,0.008527,-0.595459,-0.10083,-0.134277,-0.487041,4.137882,8.948488,0.01266,0.016565,-0.005679,0.2771,0.061523,0.975098,-0.09627,3.719328,9.130907,0.01827,-0.003621,0.014367,0.701416,-0.405029,-0.224854,-0.435897,3.151524,9.227208,0.010345,0.003701,-0.005292,0.460693,-0.404785,-0.600586
0.148532,-1.397222,9.746975,0.00619,0.006776,-0.003486,-0.102295,0.305908,-0.513428,-0.28136,3.061116,9.268997,0.013424,0.014956,0.009549,-0.587402,-0.104736,-0.128906,-0.490467,4.139616,8.969763,-0.006003,-0.008586,0.00536,0.280029,0.059326,0.980225,-0.096969,3.708124,9.172528,-0.025811,0.013416,0.00572,0.705566,-0.405273,-0.219971,-0.380516,3.280657,9.235811,0.02162,-0.0177,-0.006073,0.452393,-0.404053,-0.608154
0.136843,-1.314646,9.701583,0.01664,-5.3e-05,0.005589,-0.102539,0.300537,-0.509033,-0.289741,3.186241,9.354326,-0.000313,-0.002644,0.002132,-0.586914,-0.107666,-0.13208,-0.426358,4.126362,8.903831,-0.01381,0.001787,0.000936,0.285156,0.061768,0.977295,-0.109209,3.661393,9.102929,-0.006058,-0.005406,0.013648,0.709717,-0.399414,-0.2229,-0.366856,3.202731,9.25614,-0.035271,0.012341,0.004832,0.454834,-0.400879,-0.604248
0.167863,-1.336155,9.768799,-0.013818,-0.005389,-0.005094,-0.097168,0.30542,-0.511475,-0.220784,3.04801,9.27933,-0.060236,0.006413,0.011794,-0.592285,-0.106934,-0.140137,-0.514655,4.11649,8.952183,-0.002724,0.023537,-0.001829,0.274658,0.064697,0.98877,-0.102198,3.713242,9.139024,0.007644,0.002009,0.008881,0.700195,-0.402344,-0.212646,-0.454906,3.185623,9.249524,0.020561,0.001797,-0.009218,0.460449,-0.401855,-0.607178
0.161265,-1.385992,9.779592,0.000661,0.013389,0.002694,-0.106934,0.304443,-0.497803,-0.327585,3.03051,9.25202,0.03278,0.015952,0.007112,-0.595947,-0.107422,-0.130127,-0.503992,4.137945,8.952272,0.007791,-0.014051,0.003014,0.290771,0.056396,0.977783,-0.122733,3.697877,9.171906,-0.008438,0.009167,0.008637,0.715332,-0.409668,-0.222656,-0.357922,3.249292,9.194652,0.002289,-0.020203,-0.001705,0.449951,-0.402344,-0.595947
0.111003,-1.32575,9.670464,0.002563,0.003448,-0.002603,-0.092285,0.29834,-0.509033,-0.251152,3.229429,9.360556,0.005708,-0.004403,0.004949,-0.587158,-0.104492,-0.130127,-0.40175,4.146215,8.910911,-0.007807,0.00631,0.001146,0.282471,0.056152,0.974365,-0.117009,3.68737,9.131344,-0.008968,-0.004558,0.011409,0.707764,-0.409668,-0.225586,-0.387411,3.198421,9.292278,-0.011611,0.023256,-0.001754,0.466064,-0.411133,-0.605713
0.189306,-1.377347,9.781948,-0.008294,-0.008347,0.000284,-0.096924,0.300293,-0.513184,-0.26117,3.085433,9.286342,-0.063552,0.013243,0.012494,-0.589844,-0.101562,-0.135498,-0.544657,4.116832,8.927376,-0.008546,0.026034,-0.001521,0.283203,0.053711,0.981445,-0.101548,3.689516,9.119228,-0.004733,0.003106,0.009497,0.709229,-0.4104,-0.218018,-0.456839,3.19739,9.270534,0.011535,-0.010185,-0.003515,0.460938,-0.408936,-0.608887
0.168019,-1.350671,9.783074,0.010183,0.010081,0.00022,-0.098389,0.294434,-0.50708,-0.310343,2.987796,9.259489,0.012286,0.003295,0.004513,-0.59375,-0.105957,-0.125977,-0.495066,4.120116,8.955198,0.004805,-0.024046,0.004745,0.282959,0.058838,0.977539,-0.119631,3.693916,9.146224,-0.00496,0.008377,0.010662,0.708008,-0.406738,-0.220459,-0.324624,3.236977,9.198276,-0.002778,-0.015381,-0.00339,0.461914,-0.409912,-0.602783
0.141606,-1.328559,9.687474,0.002585,0.006755,-0.00228,-0.099365,0.30127,-0.509277,-0.232801,3.183184,9.325999,0.021003,0.007771,0.008714,-0.587402,-0.109619,-0.127441,-0.418938,4.128703,8.889307,-0.016307,0.014735,0.002166,0.283203,0.057861,0.976318,-0.118011,3.672553,9.09816,-0.011421,-0.001011,0.009537,0.708252,-0.411133,-0.223877,-0.410656,3.193283,9.297644,-0.006101,0.025999,-0.001868,0.459717,-0.407227,-0.60498
0.161217,-1.344682,9.748757,-0.003855,-0.009382,0.003703,-0.096924,0.29834,-0.510986,-0.301278,3.123087,9.293303,-0.048066,0.004078,0.005709,-0.593018,-0.112061,-0.139648,-0.535179,4.121823,8.911686,0.012586,0.022761,-0.005461,0.276611,0.068115,0.978271,-0.102624,3.716257,9.141712,0.011567,-0.000678,0.011478,0.703125,-0.398438,-0.219727,-0.447644,3.19252,9.2513,0.00546,-0.01815,-0.003382,0.458984,-0.407715,-0.605225
0.179017,-1.383249,9.790714,-0.000942,0.010088,-0.005829,-0.104248,0.310547,-0.506836,-0.247802,3.005046,9.261302,-0.011029,0.008416,0.009497,-0.589111,-0.105469,-0.128906,-0.489921,4.146988,8.933136,-0.005141,-0.019406,0.006478,0.284424,0.059326,0.972168,-0.120932,3.700183,9.147578,-0.024148,0.010508,0.00917,0.710449,-0.40625,-0.22583,-0.351442,3.254611,9.205958,0.016824,-0.006566,-0.004219,0.453369,-0.396484,-0.604492
0.12397,-1.342786,9.704601,0.004352,0.001077,0.002373,-0.097168,0.301758,-0.512451,-0.300559,3.129665,9.328006,0.023095,0.009307,0.004733,-0.591064,-0.101074,-0.131104,-0.405598,4.116869,8.910152,-0.018841,0.010437,0.003598,0.281494,0.059082,0.986572,-0.122135,3.636267,9.085172,-0.006752,-0.004406,0.008603,0.706543,-0.408447,-0.214111,-0.387314,3.222874,9.316091,-0.031072,0.016231,0.000677,0.460693,-0.404785,-0.612061
0.169151,-1.352205,9.740907,-0.008976,-0.002038,-0.002367,-0.099121,0.299072,-0.500732,-0.225696,3.142706,9.324864,-0.038483,-0.001062,0.006946,-0.587158,-0.111084,-0.134766,-0.532777,4.120553,8.90035,0.005158,0.023086,-0.005061,0.2771,0.062988,0.980469,-0.092595,3.734731,9.144409,0.016147,0.000635,0.013656,0.702393,-0.406982,-0.218506,-0.429917,3.144438,9.226666,0.016375,-0.011676,-0.005558,0.456787,-0.408447,-0.5979
0.178784,-1.39012,9.79791,0.006383,0.005863,-0.001069,-0.103271,0.300781,-0.51001,-0.288388,3.042161,9.268427,-0.00808,0.018075,0.010034,-0.591064,-0.103271,-0.130859,-0.491868,4.134115,8.948127,0.004846,-0.018848,0.006433,0.285156,0.062256,0.983154,-0.128297,3.704999,9.141513,-0.022934,0.011241,0.007375,0.71167,-0.406494,-0.21875,-0.361819,3.282127,9.2586,0.018598,-0.00864,-0.005774,0.452637,-0.406494,-0.607178
0.136332,-1.307421,9.679608,0.01133,0.007856,0.002991,-0.094238,0.301514,-0.508789,-0.293415,3.136121,9.327379,0.008933,-0.005856,0.003077,-0.592529,-0.104004,-0.132568,-0.394822,4.149867,8.90603,-0.007929,0.007302,-0.00034,0.285645,0.057617,0.988037,-0.124068,3.673323,9.093743,-0.001151,-0.006165,0.012501,0.70874,-0.408447,-0.210938,-0.395189,3.193977,9.289636,-0.033612,0.016997,0.00479,0.461914,-0.404297,-0.603271
0.178494,-1.349253,9.753463,-0.014216,-0.007222,-0.004372,-0.097412,0.297363,-0.499512,-0.221997,3.096147,9.303225,-0.035376,0.013692,0.010564,-0.5896,-0.107422,-0.130859,-0.537445,4.110451,8.936139,-0.010217,0.027919,-0.002364,0.279297,0.062988,0.975098,-0.084213,3.702505,9.145815,-0.001912,0.004144,0.010372,0.706543,-0.403809,-0.221924,-0.450714,3.177938,9.258143,0.025672,-0.008457,-0.008203,0.459961,-0.410889,-0.600098
0.158009,-1.383251,9.807143,0.004285,0.009053,0.001692,-0.099609,0.305176,-0.51001,-0.322827,3.061018,9.281539,0.005011,0.010595,0.006185,-0.593506,-0.109863,-0.128662,-0.506331,4.116363,8.90448,0.006267,-0.028646,0.007331,0.284668,0.052002,0.979492,-0.116874,3.693883,9.122871,-0.005038,0.010269,0.009301,0.709229,-0.41333,-0.221924,-0.358694,3.261414,9.215572,-0.002607,-0.01631,-0.002118,0.456299,-0.401611,-0.607422
0.135159,-1.321999,9.680334,0.001715,0.005959,-0.001586,-0.098633,0.293701,-0.510254,-0.255944,3.139399,9.316413,-0.00765,-0.002565,0.007763,-0.593018,-0.107666,-0.129395,-0.389428,4.152194,8.903454,-0.008821,0.016596,-0.001739,0.275635,0.053711,0.979004,-0.116264,3.692708,9.123355,-0.005528,-0.007435,0.010897,0.702148,-0.412842,-0.218018,-0.387908,3.187395,9.27994,-0.014673,0.028165,-0.00128,0.458496,-0.413086,-0.604492
0.15375,-1.370327,9.792716,-0.007085,-0.007974,-0.001987,-0.106445,0.296631,-0.506592,-0.265408,3.097812,9.27714,-0.024459,0.016856,0.008999,-0.596191,-0.0979,-0.136475,-0.567532,4.124074,8.928484,-0.001224,0.025443,-0.000473,0.286133,0.062256,0.978271,-0.082379,3.699733,9.133306,-0.004613,0.006301,0.007347,0.713135,-0.403809,-0.218994,-0.449295,3.204367,9.272294,0.019341,-0.018324,-0.008312,0.450439,-0.410889,-0.602295
0.191185,-1.361535,9.780143,0.008888,0.006708,0.001364,-0.095459,0.305908,-0.508545,-0.298342,3.080359,9.300651,-0.00038,0.000332,0.005288,-0.584717,-0.10083,-0.135742,-0.465697,4.136433,8.917865,0.002389,-0.030233,0.003602,0.278809,0.056396,0.980225,-0.116827,3.689619,9.138247,-0.009912,0.006523,0.012583,0.703613,-0.409912,-0.219238,-0.327957,3.235593,9.216666,-0.007892,-0.007308,0.002204,0.460449,-0.402832,-0.602295
0.113873,-1.329508,9.676737,0.002095,0.009597,-0.002556,-0.102539,0.297119,-0.508789,-0.247476,3.119772,9.301901,-0.007568,0.011299,0.009433,-0.593506,-0.097168,-0.133057,-0.406526,4.129681,8.925745,-0.017148,0.022151,0.002822,0.2854,0.058105,0.982422,-0.106515,3.680234,9.132533,-0.005541,-0.004931,0.008168,0.712402,-0.406982,-0.216064,-0.433209,3.203167,9.264971,-0.008311,0.021333,-0.005289,0.455811,-0.408203,-0.606201
0.166701,-1.355661,9.762176,-0.001247,-0.009549,0.001581,-0.094727,0.300293,-0.503418,-0.282435,3.109106,9.279854,-0.011876,0.00594,0.006567,-0.59375,-0.102539,-0.134277,-0.574731,4.114829,8.911915,0.000992,0.01509,-0.003812,0.2771,0.054443,0.985596,-0.106358,3.709696,9.140317,0.001251,0.004673,0.013767,0.702148,-0.4104,-0.214355,-0.429643,3.181833,9.262148,0.008103,-0.019633,-0.002075,0.46167,-0.405518,-0.600586
0.172418,-1.360848,9.796624,-0.003714,0.003895,-8.4e-05,-0.103516,0.297119,-0.501709,-0.268377,3.083709,9.29611,-0.016099,0.007633,0.005917,-0.590576,-0.103027,-0.134033,-0.447935,4.150269,8.929235,0.009727,-0.022218,0.004553,0.282715,0.05542,0.977539,-0.107334,3.708263,9.154534,-0.011127,0.004233,0.00854,0.706299,-0.410156,-0.220947,-0.357015,3.238401,9.222291,0.009499,0.000398,-0.008487,0.451904,-0.410645,-0.599854
0.141382,-1.352913,9.730222,0.002454,0.009926,-0.003847,-0.098633,0.294922,-0.509521,-0.295899,3.094114,9.297619,-0.003201,0.006868,0.009678,-0.590576,-0.106445,-0.13501,-0.432043,4.145729,8.90524,-0.017201,0.024048,0.000754,0.27832,0.05957,0.981201,-0.110031,3.67502,9.113012,-0.01106,-0.002252,0.0101,0.70459,-0.407471,-0.220703,-0.423622,3.235328,9.281338,-0.01568,0.008517,0.000383,0.455078,-0.409668,-0.60376
0.150602,-1.352228,9.728909,-0.001291,-0.005937,0.001098,-0.103516,0.298828,-0.508789,-0.252184,3.111873,9.275558,-0.009846,0.004858,0.004129,-0.597412,-0.098389,-0.132568,-0.549896,4.097434,8.920984,-0.004188,0.006199,0.000492,0.279785,0.057129,0.98999,-0.10985,3.694036,9.148399,0.004251,0.004935,0.011333,0.704346,-0.408447,-0.212891,-0.409197,3.183721,9.275852,0.004998,-0.01368,-0.004224,0.453857,-0.4104,-0.60791
0.180727,-1.381068,9.789748,0.004049,0.003356,-0.001367,-0.101807,0.29834,-0.501953,-0.293901,3.099087,9.28952,-0.014476,0.01118,0.011155,-0.5979,-0.104736,-0.132812,-0.446805,4.136755,8.922445,0.008276,-0.013952,0.003378,0.282715,0.067383,0.980225,-0.10752,3.714876,9.142138,-0.003957,0.004459,0.008494,0.708008,-0.401367,-0.220215,-0.378198,3.234731,9.21821,0.011169,0.002618,-0.005393,0.455566,-0.407471,-0.596191
0.139626,-1.329659,9.736151,0.00967,0.007063,-0.000413,-0.098145,0.307617,-0.509277,-0.279852,3.096561,9.306318,-0.004279,6.8e-05,0.004938,-0.586914,-0.101562,-0.131104,-0.448311,4.146381,8.908789,-0.010436,0.021536,-0.002031,0.282715,0.061279,0.986816,-0.111932,3.681758,9.127833,-0.01134,-0.004163,0.012249,0.709473,-0.404785,-0.211426,-0.420752,3.213271,9.287772,-0.009126,0.0038,0.000768,0.457275,-0.400635,-0.60498
0.139647,-1.322098,9.74261,-0.007869,-0.003215,-0.000127,-0.097168,0.302979,-0.499512,-0.257834,3.112564,9.304203,-0.013387,0.012677,0.009465,-0.583496,-0.101562,-0.133301,-0.534312,4.13571,8.93513,-0.004599,0.005715,0.002473,0.287109,0.060547,0.989502,-0.108447,3.690708,9.149759,-0.003518,0.007887,0.010813,0.713867,-0.409424,-0.214355,-0.403643,3.213656,9.270907,0.00419,-0.008451,-0.0043,0.459229,-0.405762,-0.595215
0.168598,-1.367079,9.790413,-0.001423,0.002347,-0.000389,-0.09375,0.300537,-0.501709,-0.288457,3.109761,9.302002,-0.00787,0.005558,0.00701,-0.583984,-0.107178,-0.130127,-0.450462,4.143996,8.90979,-0.002038,-0.011287,0.002163,0.27832,0.056885,0.981201,-0.115217,3.698587,9.115202,-0.003874,0.002556,0.009855,0.705322,-0.408447,-0.217285,-0.384571,3.216482,9.244246,-0.001469,-0.00037,-0.00217,0.463867,-0.406494,-0.598389
0.156435,-1.34424,9.72052,0.000844,0.007721,-0.000852,-0.101562,0.298584,-0.506104,-0.250897,3.103651,9.315072,-0.008637,0.003308,0.006845,-0.598145,-0.103027,-0.129639,-0.455162,4.127261,8.905967,-0.006224,0.017749,0.001812,0.291016,0.061523,0.98291,-0.111482,3.708541,9.136728,-0.002108,-0.002492,0.009409,0.716797,-0.406494,-0.216553,-0.401959,3.203032,9.249491,-0.003299,0.002742,-0.00324,0.455322,-0.410156,-0.604248
0.135658,-1.360023,9.710351,-0.001082,-0.003191,-0.002045,-0.088867,0.303467,-0.503174,-0.275092,3.084035,9.289458,-0.01634,0.009844,0.008367,-0.591064,-0.112793,-0.13208,-0.53071,4.12545,8.937158,-0.001316,0.005133,-0.000829,0.289062,0.059326,0.983154,-0.115182,3.696244,9.129795,-0.009936,0.009761,0.011803,0.714355,-0.409424,-0.217529,-0.40364,3.214061,9.270766,0.009677,-0.002981,-0.004083,0.465576,-0.404053,-0.5979
0.17446,-1.374164,9.769112,0.007043,0.001361,0.001343,-0.093262,0.300537,-0.505615,-0.289422,3.099321,9.290942,-0.000778,0.003055,0.006266,-0.593506,-0.106689,-0.129639,-0.458801,4.150239,8.909365,0.002618,-0.008116,0.002793,0.276611,0.054443,0.983887,-0.12736,3.681508,9.143093,-0.004545,-0.00019,0.008905,0.704102,-0.413818,-0.216797,-0.40209,3.240278,9.245017,-0.007225,-0.006383,-0.002465,0.464111,-0.407227,-0.602783
0.156513,-1.319778,9.740142,0.007207,0.007722,-0.002281,-0.101807,0.293213,-0.505371,-0.261179,3.11995,9.295364,-0.012995,0.006551,0.008751,-0.587402,-0.102051,-0.125732,-0.468766,4.130979,8.918441,-0.015193,0.016817,0.001699,0.280273,0.062744,0.974121,-0.103032,3.706415,9.131984,-0.004178,-0.002689,0.010838,0.706299,-0.404541,-0.228271,-0.41247,3.194261,9.26629,-0.000653,0.006755,-0.001947,0.454834,-0.412598,-0.602051
0.138879,-1.340837,9.750897,-0.005663,-0.002652,-0.001478,-0.10083,0.303467,-0.514893,-0.276144,3.073432,9.278439,-0.016239,0.006991,0.006578,-0.584961,-0.104736,-0.130371,-0.527179,4.114362,8.93956,-0.003488,0.002816,0.003536,0.29248,0.057373,0.979492,-0.107677,3.694112,9.138679,-0.004862,0.008966,0.009302,0.719727,-0.411133,-0.221924,-0.403094,3.214048,9.270794,0.006773,-0.008895,-0.00562,0.456543,-0.403809,-0.611084
0.171704,-1.359659,9.768438,-0.004118,0.004622,0.000684,-0.086914,0.299805,-0.510986,-0.292076,3.092371,9.293175,-0.002003,0.007709,0.008093,-0.595459,-0.099854,-0.131104,-0.447886,4.148637,8.938461,0.009537,-0.005144,0.000264,0.282959,0.061523,0.992676,-0.122626,3.699839,9.12426,-0.002757,0.002151,0.012735,0.709961,-0.403076,-0.20752,-0.388296,3.214197,9.222964,-0.005465,-0.001334,-0.000394,0.469971,-0.409668,-0.605225
0.136377,-1.357298,9.737829,-0.000748,0.00662,-0.003455,-0.100098,0.306885,-0.495117,-0.271607,3.113207,9.303965,-0.006405,0.007426,0.008887,-0.592773,-0.104004,-0.130615,-0.47545,4.150332,8.913137,-0.00923,0.016131,0.000235,0.283203,0.060791,0.987549,-0.098468,3.694069,9.119458,-0.009462,-0.004751,0.008288,0.706787,-0.405273,-0.214355,-0.417836,3.214523,9.278435,0.003759,0.00429,-0.005501,0.457275,-0.401123,-0.594727
0.144275,-1.349799,9.729342,0.005157,-0.002933,0.000797,-0.096436,0.300781,-0.499512,-0.275454,3.097464,9.30105,-0.017693,0.007343,0.006581,-0.597656,-0.098145,-0.128662,-0.5229,4.128034,8.922546,-0.008606,0.001054,0.00282,0.279785,0.061279,0.982666,-0.100152,3.691475,9.147761,-0.007214,0.009367,0.010158,0.708984,-0.405762,-0.216797,-0.38996,3.224911,9.244349,0.001903,-0.010181,-0.003233,0.458984,-0.406738,-0.596191
0.161415,-1.344723,9.782752,0.001673,0.001902,-0.00219,-0.098145,0.301514,-0.504395,-0.270542,3.077927,9.278496,-0.010124,0.00575,0.007353,-0.595947,-0.107666,-0.128174,-0.459488,4.123861,8.917545,-0.001041,-0.002418,0.002784,0.284668,0.056885,0.97583,-0.131713,3.683246,9.111067,-0.001544,0.004134,0.009582,0.709473,-0.408691,-0.222656,-0.387985,3.21401,9.223043,-0.006589,0.003029,-0.003342,0.457764,-0.405273,-0.60376
0.145195,-1.347327,9.743228,0.004153,0.007113,4.4e-05,-0.098145,0.296631,-0.510254,-0.286754,3.119691,9.293876,0.000652,0.008205,0.006502,-0.592285,-0.105469,-0.13501,-0.490356,4.139923,8.93096,-0.001854,0.012744,-0.000701,0.284912,0.054688,0.978516,-0.108241,3.698341,9.1409,-0.000378,-0.00556,0.009543,0.712646,-0.414062,-0.218994,-0.416564,3.203748,9.257053,0.002714,0.003801,-0.002856,0.459717,-0.408691,-0.605713
0.150962,-1.341421,9.720996,-0.005197,-0.001127,-0.001403,-0.094971,0.29541,-0.509033,-0.257066,3.112685,9.313676,-0.020531,0.006069,0.007461,-0.597656,-0.10791,-0.140625,-0.513533,4.147063,8.923779,-0.002545,0.0028,0.001055,0.281738,0.057373,0.982666,-0.092962,3.700785,9.128678,-0.010108,0.006466,0.012004,0.709473,-0.411133,-0.217285,-0.391569,3.235399,9.265815,0.008087,-0.008955,-0.004884,0.460449,-0.412354,-0.604248
0.167911,-1.366874,9.762091,-0.005135,0.001126,-0.000557,-0.097656,0.29834,-0.503418,-0.271074,3.083928,9.284534,-0.011609,0.008189,0.007865,-0.59082,-0.100098,-0.134277,-0.477177,4.148876,8.92395,-0.003202,-0.000662,0.001581,0.280029,0.060791,0.981445,-0.13455,3.688833,9.13999,-0.006229,0.005464,0.007986,0.705566,-0.407715,-0.217041,-0.383587,3.217516,9.243928,-0.005702,0.000898,-0.000817,0.457764,-0.411621,-0.600586
0.150959,-1.356275,9.721672,0.006401,0.006621,-0.000781,-0.101562,0.300781,-0.50415,-0.276952,3.11708,9.29628,0.000469,0.006218,0.007949,-0.59375,-0.11377,-0.137207,-0.475289,4.146468,8.902943,-0.010313,0.008509,0.001326,0.286133,0.062988,0.979248,-0.099998,3.696021,9.13623,-0.003769,-0.002599,0.011987,0.71167,-0.405518,-0.219971,-0.419526,3.188978,9.263969,-0.004514,0.00318,-0.001861,0.456787,-0.408203,-0.599365
0.150707,-1.348214,9.728205,-0.000509,-0.000469,-0.0006,-0.096924,0.303467,-0.509521,-0.264336,3.096463,9.325313,-0.018491,0.007196,0.006911,-0.590576,-0.111084,-0.135986,-0.506537,4.125145,8.918268,-0.000518,0.004184,0.001913,0.278076,0.060303,0.98999,-0.095787,3.686326,9.122619,-0.001465,0.003483,0.00958,0.707764,-0.405273,-0.209961,-0.393029,3.221652,9.26341,0.010477,-0.006844,-0.003837,0.460938,-0.406006,-0.606201
0.166523,-1.358318,9.768714,0.003244,0.002254,0.000132,-0.10083,0.302734,-0.498779,-0.271034,3.068414,9.289494,-0.011285,0.006235,0.008161,-0.589111,-0.106689,-0.134521,-0.48788,4.151516,8.91484,0.004628,0.001642,0.000358,0.287109,0.060059,0.982422,-0.121123,3.699303,9.128453,-0.007182,0.006121,0.010934,0.715576,-0.40918,-0.218506,-0.393399,3.235327,9.234813,-3.2e-05,-0.001683,-0.002957,0.45459,-0.405762,-0.594482
0.161788,-1.338516,9.747092,0.001291,0.003381,-0.001138,-0.094238,0.297852,-0.504639,-0.277023,3.101538,9.301265,-1e-06,0.00871,0.006174,-0.591797,-0.104248,-0.12793,-0.488818,4.150889,8.91508,-0.010425,0.008227,0.002764,0.280762,0.060547,0.978271,-0.11956,3.687496,9.142929,-0.010164,-0.000191,0.009667,0.707031,-0.405762,-0.21875,-0.421328,3.212933,9.256925,-0.005871,0.001825,-0.002084,0.463867,-0.409668,-0.604736
0.139083,-1.355674,9.723193,-0.005114,0.001877,-0.000276,-0.097656,0.300781,-0.509277,-0.271101,3.121451,9.296459,-0.020276,0.004897,0.009028,-0.583252,-0.101074,-0.137451,-0.485866,4.128475,8.921588,-0.005377,0.003248,0.001513,0.281982,0.052002,0.983154,-0.097292,3.691883,9.124302,0.00102,0.002513,0.010665,0.708984,-0.415283,-0.214844,-0.400422,3.204012,9.249218,0.001349,-0.003049,-0.003067,0.456787,-0.407959,-0.603516
0.162569,-1.367412,9.748547,-0.002441,0.001409,-0.001589,-0.101562,0.293701,-0.504883,-0.272804,3.079825,9.279404,-0.006882,0.006516,0.007371,-0.592529,-0.106934,-0.135498,-0.479152,4.13282,8.918158,-0.000937,0.004973,0.000972,0.280762,0.059082,0.980713,-0.116309,3.706631,9.137427,-0.006819,0.006131,0.010144,0.70874,-0.406006,-0.216797,-0.401046,3.229393,9.232693,0.007476,-0.001877,-0.004041,0.456787,-0.411133,-0.600098
0.15267,-1.360222,9.756362,0.005639,0.004462,0.00124,-0.098877,0.301025,-0.505371,-0.283039,3.126071,9.301412,0.000361,0.006868,0.007853,-0.592285,-0.10083,-0.134766,-0.493212,4.135376,8.920901,-0.001266,0.003241,0.001234,0.287354,0.062256,0.983398,-0.118974,3.694395,9.116838,-0.008249,3.8e-05,0.009603,0.713135,-0.405762,-0.2146,-0.407508,3.22299,9.270763,-0.008441,0.000908,-0.00093,0.45752,-0.406982,-0.601074
0.158637,-1.35352,9.734242,-0.000149,-0.00014,-0.001891,-0.093994,0.302002,-0.503662,-0.268626,3.101049,9.31743,-0.023702,0.003365,0.00829,-0.596436,-0.102539,-0.130615,-0.469524,4.153061,8.918881,-0.002279,0.008582,-0.000134,0.283203,0.063721,0.985352,-0.099642,3.697442,9.139609,-0.002734,0.001405,0.010786,0.708496,-0.402832,-0.216553,-0.423272,3.199116,9.254523,0.003019,0.000264,-0.003278,0.464844,-0.405762,-0.5979
0.1524,-1.352059,9.762909,0.001334,0.002325,-0.000615,-0.099121,0.301025,-0.500732,-0.264006,3.083223,9.265482,-0.001736,0.011133,0.007265,-0.587646,-0.105225,-0.130615,-0.51131,4.133958,8.915037,-0.00549,0.002965,0.002952,0.278564,0.061768,0.980225,-0.120201,3.691443,9.145275,-0.006094,0.006155,0.008565,0.705322,-0.404297,-0.21875,-0.388918,3.237925,9.256018,0.007032,-0.006988,-0.005374,0.457764,-0.405273,-0.599365
0.147235,-1.33949,9.734877,0.004112,0.003054,-0.000559,-0.103271,0.301514,-0.507812,-0.274338,3.128123,9.31676,-0.004344,0.004254,0.005944,-0.587402,-0.10498,-0.131592,-0.456425,4.134601,8.900109,-0.004252,-0.001806,0.00144,0.280273,0.063477,0.979492,-0.133593,3.697435,9.117176,-0.003281,-0.000643,0.010413,0.705322,-0.401855,-0.221924,-0.407505,3.211176,9.25872,-0.010117,0.004451,-0.000565,0.453369,-0.402832,-0.603027
0.15064,-1.366333,9.750137,-0.006257,-0.001011,-0.003127,-0.099609,0.304688,-0.508057,-0.258902,3.099992,9.290531,-0.025399,0.007119,0.008599,-0.593018,-0.102295,-0.128906,-0.484264,4.139366,8.905764,-0.003146,0.014464,0.000257,0.281006,0.058838,0.984131,-0.106874,3.702568,9.133485,-0.005012,0.001162,0.011637,0.710205,-0.407227,-0.216309,-0.427998,3.197244,9.233056,0.00982,-8.7e-05,-0.005785,0.45752,-0.401611,-0.605225
0.163236,-1.372086,9.769598,-0.000406,0.003286,0.00081,-0.0979,0.300049,-0.503662,-0.277124,3.062633,9.27047,-0.002293,0.007578,0.007293,-0.592529,-0.103271,-0.128906,-0.50974,4.147842,8.920043,0.002461,-0.001557,0.000664,0.286133,0.057861,0.986084,-0.121332,3.697723,9.146681,-0.006245,0.007446,0.008571,0.710693,-0.407715,-0.212402,-0.394915,3.234108,9.244202,-0.003144,-0.009182,-0.001945,0.459961,-0.406738,-0.599365
0.153754,-1.340489,9.71983,0.004069,0.004111,-0.001081,-0.09375,0.298828,-0.502441,-0.276911,3.12103,9.319062,-0.00249,0.003384,0.006845,-0.602539,-0.109131,-0.131592,-0.449353,4.144898,8.936622,-0.008727,0.00205,0.00133,0.283936,0.067627,0.985107,-0.118024,3.69747,9.105947,-0.006283,-0.000912,0.012842,0.709229,-0.401367,-0.215332,-0.400348,3.204872,9.248923,-0.003042,0.010139,-0.003007,0.46167,-0.411133,-0.599121
0.157894,-1.351612,9.748078,0.002313,-0.000797,-2e-05,-0.096924,0.306396,-0.503418,-0.267792,3.111309,9.286947,-0.02113,0.010145,0.008221,-0.596436,-0.109375,-0.133789,-0.505008,4.12798,8.93567,-0.004469,0.014649,0.000936,0.28418,0.059082,0.988281,-0.108451,3.688576,9.113618,-0.001081,0.000241,0.009564,0.709717,-0.406982,-0.209229,-0.417692,3.215861,9.277978,0.004226,-0.00567,-0.004642,0.459961,-0.400879,-0.599609
0.159861,-1.342905,9.768223,0.001226,0.003688,-0.001943,-0.094971,0.299561,-0.497803,-0.262297,3.068263,9.292669,-0.009881,0.002373,0.007027,-0.593262,-0.108154,-0.126709,-0.50529,4.150406,8.917323,0.001525,-0.002418,-0.000915,0.278564,0.053955,0.979248,-0.119165,3.714591,9.169358,-0.007384,0.006067,0.010357,0.703125,-0.413574,-0.217773,-0.379913,3.233604,9.23658,0.002083,-0.005611,-0.001975,0.460449,-0.406494,-0.595459
0.156681,-1.351246,9.748148,-0.001807,0.003826,0.000661,-0.100342,0.29248,-0.506836,-0.266675,3.119915,9.292233,0.002483,0.009417,0.007929,-0.585205,-0.113525,-0.130859,-0.47315,4.136321,8.913326,-0.007807,0.005064,0.004044,0.286377,0.064209,0.978027,-0.125671,3.671532,9.106202,-0.010548,0.00304,0.009677,0.709473,-0.400391,-0.224365,-0.404462,3.238754,9.263502,-0.002467,0.007144,-0.00335,0.45752,-0.412109,-0.602295
0.160764,-1.346601,9.712216,-0.001953,0.001127,-0.001271,-0.095459,0.305176,-0.51001,-0.280697,3.113282,9.292762,-0.021046,0.003883,0.006683,-0.592041,-0.104736,-0.13623,-0.491163,4.14906,8.92426,0.000135,0.008926,-0.001531,0.278076,0.067627,0.983887,-0.105326,3.695277,9.150077,0.006181,-0.004709,0.011656,0.70459,-0.401855,-0.214844,-0.422247,3.188998,9.232903,-0.007345,-0.00514,-0.000937,0.460449,-0.401855,-0.606689
0.140799,-1.372353,9.772409,-0.000721,-0.000304,-0.003296,-0.101562,0.307861,-0.501953,-0.256346,3.080632,9.275941,-0.007203,0.007279,0.009222,-0.595459,-0.11084,-0.133301,-0.507646,4.148141,8.918243,-0.00694,-0.000818,0.003651,0.281494,0.063232,0.983398,-0.099982,3.705532,9.144258,-0.015423,0.009648,0.009259,0.708984,-0.400879,-0.220459,-0.390456,3.236805,9.265371,0.019118,-0.004801,-0.005288,0.453857,-0.397949,-0.595703
0.175457,-1.342345,9.752007,0.01092,0.00348,0.003693,-0.0979,0.30249,-0.506104,-0.303301,3.1259,9.301584,-0.002071,0.008683,0.003195,-0.59082,-0.108643,-0.136719,-0.486008,4.135327,8.895557,-0.005035,0.002832,0.00011,0.276611,0.059814,0.986328,-0.126818,3.677543,9.107725,-0.002449,0.002054,0.009998,0.700684,-0.405762,-0.216064,-0.40771,3.223825,9.270464,-0.019503,0.006333,-3.8e-05,0.458252,-0.403809,-0.599365
0.132009,-1.324823,9.735648,-0.007151,0.002557,-0.002636,-0.104736,0.300049,-0.503662,-0.239709,3.084968,9.284158,-0.02636,0.00291,0.009844,-0.589355,-0.106934,-0.132812,-0.499735,4.154176,8.924337,-0.00069,0.014188,-0.001998,0.2854,0.05249,0.986816,-0.108808,3.710901,9.151655,-0.00065,-0.002916,0.011488,0.712402,-0.413574,-0.214355,-0.422503,3.189259,9.232801,0.011146,-0.001504,-0.005216,0.451416,-0.40625,-0.59668
0.15608,-1.378246,9.749896,0.003751,0.002726,0.000734,-0.096191,0.294434,-0.501465,-0.293486,3.086748,9.285211,0.008983,0.014324,0.00774,-0.593994,-0.106201,-0.12793,-0.517393,4.126607,8.906085,-0.00655,-0.003137,0.004313,0.284424,0.063721,0.980957,-0.114349,3.688352,9.109691,-0.013198,0.00855,0.007825,0.711914,-0.402344,-0.218506,-0.402517,3.253089,9.265718,0.004479,-0.009263,-0.004383,0.46167,-0.411133,-0.602051
0.162726,-1.336078,9.746173,-0.000849,-4.8e-05,0.000974,-0.098145,0.303955,-0.506104,-0.290644,3.137023,9.307674,-0.019178,-0.001275,0.00517,-0.586182,-0.106201,-0.142578,-0.450649,4.152106,8.92241,-0.001698,0.00035,-0.001123,0.283447,0.054443,0.982666,-0.130772,3.693092,9.122956,0.002479,-0.003219,0.010998,0.708252,-0.414551,-0.218994,-0.402244,3.191876,9.246241,-0.013997,0.009086,-0.000157,0.46167,-0.402832,-0.60376
0.157553,-1.370095,9.769971,-0.00308,0.00411,-0.003758,-0.095459,0.296387,-0.509033,-0.231099,3.065189,9.269653,-0.020381,0.013303,0.011045,-0.594727,-0.108643,-0.132324,-0.517501,4.141077,8.932956,-0.010267,0.018699,0.001502,0.281982,0.057129,0.984863,-0.09803,3.699219,9.146835,-0.013236,0.003967,0.008013,0.707031,-0.413574,-0.213135,-0.437309,3.202718,9.252078,0.017606,-0.006586,-0.006944,0.458496,-0.409668,-0.602295
0.154818,-1.349299,9.762007,0.008209,-0.000115,0.004401,-0.098633,0.296875,-0.500732,-0.310651,3.119671,9.289189,0.015499,0.007225,0.003002,-0.599854,-0.114014,-0.126953,-0.506319,4.120781,8.904708,0.002787,-0.0119,0.002277,0.287109,0.057373,0.984619,-0.125667,3.671293,9.123881,-0.001065,0.005539,0.011321,0.7146,-0.410156,-0.21582,-0.35694,3.239269,9.231008,-0.013257,-0.005831,0.000795,0.458984,-0.415771,-0.597412
0.160758,-1.342536,9.7399,-0.002147,0.004603,-0.003645,-0.092529,0.296387,-0.505127,-0.244287,3.135465,9.306612,-0.02946,0.00164,0.011274,-0.580811,-0.105225,-0.135498,-0.43383,4.175957,8.920156,-0.00195,0.010321,-0.000394,0.281982,0.060547,0.988037,-0.121482,3.711822,9.139281,-0.001355,-0.003674,0.011118,0.706055,-0.405762,-0.210205,-0.422338,3.189962,9.232566,0.006722,0.014404,-0.004825,0.465332,-0.411621,-0.599854
0.164921,-1.375828,9.762413,-0.0003,0.001925,0.002137,-0.101318,0.30127,-0.499756,-0.27821,3.057879,9.281552,-0.007566,0.014634,0.007804,-0.594238,-0.102295,-0.136963,-0.551805,4.138498,8.921158,-0.011974,0.014092,0.001882,0.290527,0.060059,0.987305,-0.110248,3.702539,9.119878,-0.016101,0.005654,0.009662,0.716553,-0.40625,-0.213623,-0.431741,3.256012,9.271295,0.004887,-0.017919,-0.002678,0.456299,-0.404541,-0.597412
0.158445,-1.328618,9.739124,0.004048,0.003361,-0.001361,-0.089111,0.30127,-0.503906,-0.272689,3.121665,9.307797,0.002509,-0.00039,0.005276,-0.588867,-0.11084,-0.128174,-0.478557,4.142223,8.921692,0.00194,-0.015283,0.001898,0.285156,0.064209,0.976562,-0.126587,3.676705,9.125655,-0.000781,0.004935,0.011894,0.712646,-0.404785,-0.2229,-0.346867,3.209886,9.228008,-0.012278,0.006956,-0.001032,0.467773,-0.405518,-0.597168
0.141675,-1.363909,9.750611,-0.006386,0.002159,-0.004698,-0.095215,0.30127,-0.510986,-0.260028,3.103479,9.278385,-0.023557,0.010595,0.011869,-0.589355,-0.105469,-0.131348,-0.466256,4.148754,8.905607,-0.007363,0.019161,0.000468,0.276855,0.063721,0.986328,-0.124195,3.696608,9.133513,-0.003683,-0.002735,0.008665,0.701416,-0.404785,-0.2146,-0.441141,3.199317,9.271154,0.009313,0.007106,-0.006299,0.463867,-0.403809,-0.607178
0.151296,-1.355963,9.75573,0.006848,0.001928,0.004817,-0.102539,0.30249,-0.503174,-0.293198,3.085814,9.301534,-0.00335,0.006409,0.004167,-0.591064,-0.105957,-0.129395,-0.53104,4.14155,8.924668,0.00319,0.002813,-0.000436,0.272217,0.060547,0.975586,-0.090215,3.703404,9.143511,-0.004157,0.001867,0.010634,0.699463,-0.405518,-0.225342,-0.366948,3.232527,9.238101,0.001502,-0.019105,-0.00159,0.453125,-0.404297,-0.599121
0.148137,-1.342402,9.741357,-0.000807,0.00181,-0.004342,-0.109131,0.30127,-0.514404,-0.243314,3.10572,9.316094,-0.011978,0.005457,0.008573,-0.589111,-0.108887,-0.129395,-0.461726,4.166789,8.919119,-0.005747,-0.004969,0.002992,0.287598,0.061523,0.981934,-0.108655,3.697216,9.122056,-0.014338,0.005913,0.010966,0.713135,-0.406006,-0.217529,-0.390842,3.225887,9.252999,-0.000721,0.013287,-0.004586,0.450439,-0.404053,-0.609131
0.150245,-1.362425,9.749443,0.001973,-0.000375,0.001554,-0.094238,0.300537,-0.503906,-0.277993,3.095646,9.293666,-0.007475,0.010572,0.008157,-0.593262,-0.093262,-0.128174,-0.487155,4.137416,8.93543,-0.006973,0.016844,0.001129,0.2854,0.057373,0.985107,-0.132721,3.679688,9.120445,-0.001222,-0.001729,0.010338,0.711426,-0.407227,-0.214844,-0.439206,3.213085,9.273571,-0.007356,-0.003784,-0.000769,0.461426,-0.405518,-0.602051
0.145921,-1.342847,9.72777,0.000845,0.002608,-0.000932,-0.095459,0.299561,-0.503418,-0.252604,3.102426,9.294777,-0.011859,0.00051,0.006261,-0.593018,-0.103516,-0.12915,-0.52036,4.136329,8.922995,-4.4e-05,0.000622,0.000859,0.278809,0.057373,0.982422,-0.100167,3.716492,9.151772,-0.001676,0.000887,0.011719,0.703857,-0.41333,-0.216064,-0.388307,3.20438,9.210225,0.008562,-0.006554,-0.003882,0.462646,-0.407227,-0.601318
0.140597,-1.355531,9.757196,-0.002925,-0.00087,-0.001949,-0.103271,0.297119,-0.505371,-0.279444,3.091355,9.29505,-0.006636,0.010845,0.009201,-0.583984,-0.105713,-0.130859,-0.466355,4.151265,8.924907,-0.004616,0.000769,0.003967,0.275146,0.053711,0.98584,-0.115535,3.701505,9.116321,-0.014458,0.007743,0.007669,0.70166,-0.416016,-0.216064,-0.398592,3.244438,9.27466,0.00275,0.00522,-0.003369,0.455811,-0.413086,-0.602051
0.165647,-1.355584,9.725962,0.004407,0.003338,0.003227,-0.10498,0.293457,-0.502686,-0.280533,3.111424,9.29676,-0.008691,0.001028,0.003537,-0.589111,-0.109863,-0.128174,-0.485457,4.14765,8.909752,-5e-05,0.009016,-0.002427,0.290039,0.061523,0.989014,-0.120322,3.688958,9.123047,0.003099,-0.00184,0.011367,0.717285,-0.407715,-0.209961,-0.404362,3.190681,9.255596,-0.015202,-0.002836,0.001082,0.451904,-0.411865,-0.596924
0.150643,-1.361121,9.763176,-0.003628,0.002137,-0.004923,-0.092285,0.300781,-0.500977,-0.24739,3.074069,9.289358,-0.018648,0.009695,0.012088,-0.592285,-0.10498,-0.139893,-0.514343,4.165863,8.932429,-0.009637,0.002731,1.4e-05,0.29126,0.06665,0.984375,-0.112754,3.709185,9.152371,-0.012817,0.004062,0.009162,0.720703,-0.401123,-0.215332,-0.405229,3.215701,9.239183,0.020883,-4e-06,-0.00669,0.465576,-0.405273,-0.598633
0.148292,-1.361728,9.74957,0.006295,0.002517,0.003695,-0.084717,0.307373,-0.502441,-0.30573,3.110596,9.301832,0.003639,0.006717,0.005247,-0.586426,-0.103516,-0.135254,-0.475305,4.129524,8.912875,-0.002904,-0.001736,0.003953,0.282715,0.065186,0.976318,-0.13334,3.69329,9.095707,-0.003391,0.00521,0.010229,0.710938,-0.401611,-0.224365,-0.404682,3.240452,9.262899,-0.012393,-0.004151,0.000352,0.471436,-0.400635,-0.602051
0.154058,-1.334088,9.733025,-0.002056,-7.1e-05,-0.002641,-0.095703,0.304443,-0.51001,-0.237946,3.122425,9.306231,-0.018474,0.001777,0.006597,-0.591064,-0.101318,-0.136719,-0.47825,4.152583,8.916351,-0.002384,0.01455,-0.003116,0.278809,0.0625,0.988525,-0.119686,3.705211,9.159595,-0.000182,-0.000248,0.011863,0.705078,-0.406982,-0.209473,-0.408835,3.188302,9.234315,0.000335,0.005828,-0.004081,0.460693,-0.401855,-0.610107
0.142075,-1.381193,9.772662,0.000357,0.00289,-0.00125,-0.101074,0.297363,-0.498535,-0.286758,3.068521,9.265518,-0.01011,0.013506,0.009484,-0.589844,-0.099365,-0.129883,-0.518914,4.146469,8.907565,-0.004546,0.001677,0.003385,0.282959,0.06665,0.986816,-0.108663,3.696525,9.13994,-0.012017,0.003445,0.007579,0.711426,-0.399902,-0.210693,-0.412681,3.234472,9.26078,0.009678,-0.00846,-0.004068,0.454346,-0.406494,-0.594971
0.15298,-1.333843,9.733076,0.003282,0.003761,0.0007,-0.095703,0.305908,-0.502441,-0.283763,3.116879,9.317533,-0.002042,-0.000116,0.004571,-0.590576,-0.103271,-0.133545,-0.46469,4.161507,8.909483,0.000923,-0.002826,0.000164,0.282959,0.065918,0.980957,-0.111263,3.684882,9.119106,0.001148,0.001897,0.012604,0.708252,-0.402588,-0.214844,-0.379229,3.198252,9.240429,-0.013198,-0.000286,0.000105,0.463623,-0.401855,-0.59668
0.136733,-1.361538,9.751013,-0.00352,0.000774,-0.003596,-0.096924,0.303223,-0.50415,-0.258096,3.103691,9.288163,-0.014894,0.010476,0.010978,-0.587402,-0.093506,-0.12793,-0.50218,4.148151,8.923497,-0.010225,0.018095,0.000638,0.276611,0.062988,0.983154,-0.118485,3.711948,9.133674,-0.010543,0.003038,0.009669,0.703369,-0.404053,-0.214844,-0.431142,3.207478,9.263576,0.012075,0.00438,-0.006519,0.459473,-0.404053,-0.599854
0.16777,-1.351231,9.767215,0.006679,0.001038,0.002645,-0.101807,0.302734,-0.506348,-0.301994,3.09653,9.285538,-0.008274,0.00943,0.004452,-0.59375,-0.106201,-0.138184,-0.516658,4.149924,8.926538,0.000895,-0.005637,0.002805,0.280273,0.05127,0.985596,-0.106542,3.693099,9.127746,-0.003662,0.002562,0.010424,0.706787,-0.41626,-0.211914,-0.393696,3.237058,9.234194,-0.006776,-0.012278,-0.001095,0.451904,-0.401611,-0.602051
0.153688,-1.353158,9.741286,-0.002679,0.005943,-0.004487,-0.101074,0.289551,-0.501953,-0.241719,3.084943,9.295678,-0.016359,0.003125,0.008814,-0.588379,-0.108887,-0.128906,-0.456541,4.157289,8.929432,-0.003124,0.003934,0.002407,0.28418,0.0625,0.986084,-0.124566,3.677876,9.133172,-0.004002,0.001825,0.009266,0.711182,-0.403076,-0.212891,-0.396971,3.197637,9.217374,0.001901,0.007672,-0.003104,0.456299,-0.41626,-0.5979
0.136956,-1.359761,9.764813,0.002313,-0.000797,-1.8e-05,-0.097656,0.301025,-0.501221,-0.28853,3.109711,9.29107,0.003873,0.014325,0.005466,-0.587402,-0.105469,-0.129395,-0.517011,4.134853,8.910126,-0.007287,0.012969,0.00025,0.287109,0.057129,0.982422,-0.12162,3.697388,9.127623,-0.007428,0.004715,0.00977,0.712158,-0.411621,-0.215576,-0.42125,3.227185,9.268123,0.003299,-0.006046,-0.00335,0.459717,-0.406006,-0.599854
0.155533,-1.336995,9.767868,0.002349,0.003268,0.000586,-0.094727,0.293945,-0.505127,-0.276893,3.132712,9.32228,-0.018302,0.00037,0.005397,-0.587402,-0.105957,-0.135254,-0.488636,4.168116,8.912706,0.001845,-0.005653,0.000329,0.280518,0.062012,0.981934,-0.11329,3.718181,9.143135,-0.000673,0.0003,0.010712,0.70459,-0.405518,-0.216064,-0.383108,3.208037,9.231092,-0.00277,-0.001675,-0.003066,0.462646,-0.412842,-0.599365
0.145484,-1.358723,9.763589,-0.003016,0.003804,-0.002955,-0.101318,0.302979,-0.502197,-0.262261,3.043851,9.276516,-0.01759,0.009888,0.011169,-0.584229,-0.106445,-0.125488,-0.464402,4.148761,8.912514,-0.010121,0.012142,0.003619,0.27832,0.05835,0.977295,-0.111402,3.687056,9.122225,-0.014368,0.003857,0.008428,0.708008,-0.410645,-0.21875,-0.425513,3.22495,9.246801,0.005625,0.002602,-0.004944,0.456543,-0.404053,-0.600342
0.148949,-1.339719,9.726916,0.004369,-0.000725,0.002623,-0.101562,0.297852,-0.508789,-0.299017,3.124575,9.300876,0.010473,0.005342,0.00297,-0.590088,-0.106201,-0.126953,-0.515901,4.148021,8.915493,-0.000335,0.005386,-0.000104,0.281982,0.061768,0.979248,-0.120779,3.693346,9.129271,0.001289,0.003838,0.011829,0.708496,-0.407471,-0.221436,-0.395476,3.197322,9.257527,-0.010767,-0.007753,0.000668,0.455322,-0.409668,-0.605957
0.153323,-1.3515,9.755081,-0.003563,0.001831,-0.004119,-0.0979,0.300537,-0.51001,-0.260537,3.114397,9.300952,-0.025796,0.006554,0.009756,-0.591797,-0.105713,-0.12793,-0.477739,4.153396,8.924521,0.000702,0.001565,0.001541,0.278809,0.061768,0.989746,-0.104841,3.716503,9.138227,-0.003997,-0.001424,0.010031,0.703369,-0.405029,-0.210693,-0.417617,3.218238,9.23718,0.012058,0.005743,-0.006355,0.458252,-0.405762,-0.605713
