# sampling frequency: 40
# units are seconds/meters/radians/a.u.
seg1_acc_x,seg1_acc_y,seg1_acc_z,seg1_gyr_x,seg1_gyr_y,seg1_gyr_z,seg1_mag_x,seg1_mag_y,seg1_mag_z,seg2_acc_x,seg2_acc_y,seg2_acc_z,seg2_gyr_x,seg2_gyr_y,seg2_gyr_z,seg2_mag_x,seg2_mag_y,seg2_mag_z,seg3_acc_x,seg3_acc_y,seg3_acc_z,seg3_gyr_x,seg3_gyr_y,seg3_gyr_z,seg3_mag_x,seg3_mag_y,seg3_mag_z,seg4_acc_x,seg4_acc_y,seg4_acc_z,seg4_gyr_x,seg4_gyr_y,seg4_gyr_z,seg4_mag_x,seg4_mag_y,seg4_mag_z,seg5_acc_x,seg5_acc_y,seg5_acc_z,seg5_gyr_x,seg5_gyr_y,seg5_gyr_z,seg5_mag_x,seg5_mag_y,seg5_mag_z
2.176481642336103,-6.227000038406398,7.233153258861287,-0.00204267474738027,0.0019030121631774704,0.010192117571104326,-0.5609444420517351,-0.030788657428457218,0.18123916901713263,0.04294031464891866,7.65858784141938,6.131095973582789,-0.008767467172573982,-0.0017080531410056125,-0.009358021951531126,0.3580214901030751,0.40678989145444244,0.5231137712619088,-1.7067151437825603,-5.729444197978802,7.704082861706922,-0.004903847909890156,0.0026814486730035777,0.001538484218545418,0.7045215294235837,0.08924331328825286,-0.3621411027417205,1.9537098552653736,-5.7746460199532486,7.792119628754301,-0.0031447768621509493,0.006233148826677862,0.005390796526652108,0.0009594086853200023,0.3992703802300639,-0.8154741155762792,0.34974561997043585,-6.132443049067888,7.685223734902026,-0.007072444780284497,0.0005159971956159515,-0.006303033136827303,-0.3020844810169927,0.44206488144256456,-0.42685446935093163
2.193049257995656,-6.175761630478939,7.262099558839291,-0.0016490213834576867,0.002343493583693643,0.010421429906691596,-0.5657965627903896,-0.025384030809731974,0.17685097526005153,0.01360811535764847,7.671922444069058,6.0928429083080635,-0.009304430026973067,-0.0035989774597139164,-0.013283408189076818,0.35853371970473613,0.40690869159786835,0.5301910625065238,-1.7217519616540005,-5.75062420437498,7.687780436538898,-0.003861359919708836,0.0033056901786712497,0.0036289729970203164,0.7030043223896688,0.0903540709791082,-0.3697157968060669,1.9374133558209279,-5.788751181451162,7.792209205396917,-0.003548755589820121,0.005154414543110034,0.005484019555170844,-0.004982071475416365,0.4024634612727567,-0.8219825461055521,0.3576009068009538,-6.122037827010514,7.723626013424882,-0.0030009486229703674,0.0032976277550028736,-0.004220845952143594,-0.3057715726973602,0.4467768886548492,-0.43559400188831277
2.1425856171207323,-6.14865305462996,7.268402028282836,-0.0026474603677521915,0.003521736797017222,0.013418685238640793,-0.5733819093762931,-0.028518769172006287,0.18295273251282787,0.02327389206623042,7.675205477950598,6.088676816956148,-0.010898382126092157,-0.0035854316692067447,-0.010661801197692833,0.36214959276646086,0.40867819142996537,0.5184286755742,-1.7384918865673455,-5.719602957508082,7.678071123395401,-0.004518892764796731,0.00245185831679963,0.0019531392614476418,0.705025052631457,0.09216926515549388,-0.3621906512000379,1.9375499806180196,-5.76228836633387,7.788093231182614,-0.002810015646628716,0.00024534151984424425,0.004568750551774776,-0.001455667675799797,0.4051291736297315,-0.8139659600571196,0.31801915382225004,-6.123862985124769,7.6939413055773915,-0.008308383643413025,0.005026982556448616,-0.003660051449232407,-0.3042278599716757,0.44598564467185736,-0.4251115211714243
2.1563584625383023,-6.19020129540467,7.238350169993698,-0.003186676622640589,-0.00017956613663492872,0.011641495484055731,-0.5701890529765665,-0.024863807832634283,0.16977233287478877,0.045174447622445706,7.671852366573859,6.1333788231798545,-0.009829600603209669,-0.002028124079769916,-0.011397373850955206,0.3531602706752666,0.40688043689235265,0.5294778218744017,-1.7188652790563876,-5.745343014179364,7.6914122144366175,-0.005401481250073232,0.002781190992330641,0.0029510062638507272,0.7069360512474956,0.0971440850938416,-0.3713174570416518,1.9308177013751202,-5.7860144711093655,7.770643151888298,-0.00205105857501032,0.0028860638392647193,0.004799918878227551,-0.00015712528639762538,0.40539714273251326,-0.8266796002212458,0.3291892381839811,-6.101693545008513,7.676531807558104,-0.00665365562555266,0.0021153385012417083,-0.001254622987879588,-0.3028182983107643,0.44967930287042174,-0.43633924823598486
2.162965876323627,-6.191499361866736,7.242915665753148,-0.001929463270675411,0.0022999118315672235,0.009562447963473143,-0.5724324521369756,-0.032916837821486356,0.1800196172567958,0.007787872628550749,7.654837372163185,6.087237175122696,-0.008578621811860747,-0.0036294628312407602,-0.010487987097899618,0.35804021273448255,0.4031648212584349,0.5253711078644321,-1.7255584657815441,-5.739091581160896,7.7047176993085715,-0.00507087697366452,0.003673605634451985,0.0013552798089256652,0.7004130841022347,0.09635249948959887,-0.3617310178772381,1.962114548079661,-5.793379803781607,7.785051484997291,-0.0028125420919524287,0.0054396232830804265,0.005471909220661941,-0.008781422785260076,0.4058705683873695,-0.8141124076230383,0.35072082661613335,-6.1424264652312806,7.6975168200602235,-0.007176492387855752,-0.002129397621152822,-0.006478162685366673,-0.31253171739621244,0.4463161182497435,-0.42577497055704794
2.1667960485128135,-6.153552854087423,7.234570703359239,-0.0031857871633566696,0.001978800399227763,0.012390419449308724,-0.5655844579066284,-0.03075650376377145,0.1758691428525608,0.017317966122495122,7.6799301569160905,6.084162256531723,-0.011779063957839885,-0.003914394489507053,-0.012003526942429638,0.36195504586848937,0.39999895330872637,0.5251661452876252,-1.7161827925222248,-5.737595623051211,7.673222804146522,-0.004904145808683381,0.0012405721935406272,0.002518106534638086,0.7047379836483362,0.09111858487454044,-0.3670547747949053,1.9315597621646199,-5.776795685051643,7.798988737618824,-0.002593008560301575,0.00326107719650831,0.006147874439561713,-0.0020381954877287355,0.4007489336884805,-0.8208033890626303,0.361949830087488,-6.145001773905708,7.73142733557196,-0.005690159189895544,0.00554722397611224,-0.0035663947555609698,-0.30720383212603203,0.446529400159618,-0.4314330881216373
2.1636487497764385,-6.167687119348883,7.25432175584215,-0.0038364477751075695,0.0021953309045063497,0.01274074545262527,-0.5738654390572421,-0.027534250422070163,0.1766067061278634,0.034097600216587726,7.642456796114866,6.108049277922631,-0.01016591212678731,-0.002378614098990498,-0.010637305231990022,0.36612917060906336,0.39715060696625387,0.5293496613642588,-1.7075518522759918,-5.72484631608711,7.6827754169514595,-0.005237183146849359,0.003225911743507441,0.002153674095460551,0.7086419210784689,0.08843457671350123,-0.36557899915711906,1.939891654261961,-5.788937329147977,7.771582509590944,-0.003734214928811995,0.0018961371914984087,0.006252219095365593,0.002328402029371516,0.3965974948362308,-0.8225778745034512,0.3212595600972734,-6.094456248201079,7.701151014356095,-0.007731879430995284,0.004759212763130398,-0.0014618048227478082,-0.30382697563717237,0.4423442834483674,-0.43123418269974784
2.150324699287517,-6.19551214862418,7.21290865759537,-0.0052774146540672875,0.0015309144836125029,0.012634447412249629,-0.5670862711928546,-0.03734766645526554,0.18587357873008892,0.025104085317066982,7.679449729314815,6.126657651978852,-0.008543359345099392,-0.002754295936826971,-0.011095698760910974,0.36192198635689854,0.41717958528154353,0.5304972912322893,-1.7352158415006511,-5.750609646810369,7.683566092752226,-0.005237183146849359,0.003225911743507441,0.002153674095460551,0.7133006899909251,0.08458771480967539,-0.36018235300295764,1.9375073722534382,-5.773549870506361,7.788366033858998,-0.004286470754880467,-0.00032706775901845855,0.0045910200553433795,0.0014323013202198961,0.3963417479004415,-0.8164630722152416,0.3235241293156223,-6.134091047979498,7.681383116016109,-0.007427596959534168,0.0007589459095430432,-0.005160059448601988,-0.3008976028001163,0.4388798073909367,-0.4271214457243253
2.167755761888754,-6.170715833823365,7.258177219256754,-0.001520275178308252,0.0012806563759596755,0.010487456299262165,-0.5721550232033388,-0.02755064279003094,0.1836863452356844,0.024719938489199525,7.671011241238711,6.09398613754802,-0.010385651941289797,-0.0032500962816900403,-0.010739124774120468,0.367795195225236,0.4006634722891402,0.5200074029006125,-1.729190054032817,-5.739875721972234,7.679693323592858,-0.004686211964163594,0.002003154394389305,0.002750557016163964,0.7068141473461065,0.10125749462370243,-0.3581946703147985,1.9443213416606244,-5.798013737250951,7.772353895031819,-0.0029292714430164605,0.004052610941183827,0.00606481058010268,-0.00044794508543966917,0.4126937926064347,-0.8122554028618816,0.3590641659480927,-6.111193584595309,7.681486206910036,-0.005188402996150006,0.0031731110904867055,-0.005555451498930748,-0.3021399723288772,0.4559582000379964,-0.4209371141883498
2.1792700088638894,-6.163953033658817,7.23502688648312,-0.004513542565611529,0.0017112836467236688,0.011654451801301896,-0.5695016059960444,-0.032938038953007634,0.18441300176195935,0.04029171835231022,7.664709746455815,6.108583359043769,-0.00997607019959795,-0.004300037360049589,-0.011768273708359757,0.3658408392912203,0.4066017438638015,0.5250434001790814,-1.7076772753651919,-5.725148161525649,7.693872782196415,-0.002429531256514864,0.003190472438860044,0.0022474446579374874,0.7130291377282796,0.09105448657968943,-0.36833933597726876,1.9274904082741136,-5.78170617417384,7.788040676946057,-0.0007971651976411601,0.005635026323766898,0.004099719865810815,0.007974095831162788,0.39780716613404743,-0.8204524329381161,0.3578427287456257,-6.126651093604316,7.699662870173597,-0.00642239569900808,0.0008829378106515972,-0.004206761261099123,-0.2972742714164404,0.44303327234583917,-0.43690038731084
2.161092074168447,-6.190560994220258,7.2414588841486225,-0.0008511963130360733,0.0017617437498605607,0.011581748952403563,-0.5689870449002369,-0.028298518749402896,0.18051103044491656,0.018521544270261737,7.671753484024522,6.110656440687242,-0.008248353120456107,-0.003284271851511238,-0.011264949631739725,0.3610214124325069,0.3994573436474702,0.5368989971822862,-1.7262029364031761,-5.734490289677241,7.683437713164302,-0.007494876880680113,0.0020375836675709203,0.002655809921868464,0.7101352807746055,0.09114273800434365,-0.36367853941254735,1.9522639160025996,-5.781996985683226,7.800740144080257,-0.0034949649153430454,0.0020721118009880577,0.007169500604974325,0.0033820151486684217,0.40220103607657187,-0.8172093905496108,0.35049535123550635,-6.133237527722606,7.709045288749274,-0.005582580067689734,0.004797009896007326,-0.0040374112801944105,-0.30085226206034976,0.4459725588593914,-0.4302665207352035
2.1448324190188752,-6.173211197812064,7.247563671205613,-0.0011120872727036722,0.0002614077108684874,0.011411464844908781,-0.5633548546451567,-0.025397348280198764,0.17562946431925597,0.028677221001971533,7.653350892553134,6.105279889910188,-0.010902412743042697,-0.003594724137433582,-0.010678635809694637,0.359984090230843,0.4033741953186781,0.5229196330466865,-1.7328971478418915,-5.728337857010633,7.6966797403314935,-0.003917724165553616,0.004423722173579965,0.0016196692543893553,0.7067864726486831,0.08791889486487213,-0.35237054809897456,1.930415154060595,-5.804109425655865,7.7911442410452105,-0.003528526718936495,0.002313657576474659,0.0048212015942680365,0.001573546442097078,0.3965659696715985,-0.8057205469807875,0.34269531441770784,-6.098334660416744,7.684668151212839,-0.006137217758892012,0.0034118207160273445,-0.00460262713910514,-0.3027611823082446,0.4415538786625322,-0.41952672102547606
2.1478963168829046,-6.157018857325288,7.239556475102164,-0.0033725510075162555,0.003791873440301922,0.010212072733506845,-0.5677604578580402,-0.02732908655750185,0.17977964378027106,0.036288608878624146,7.673019679952037,6.125247729323801,-0.007666706674653825,-0.0024305598610597614,-0.009766874450233486,0.36464902095566937,0.3990544342158837,0.5266377878776957,-1.724325260389381,-5.750757784017454,7.697486969859173,-0.0031478138753667667,0.003964541461172071,0.002448979340193803,0.7064409308266246,0.08892402433190555,-0.36630165532717823,1.944138179026248,-5.778154840534554,7.788687143779599,-0.0026430230869950782,0.003743333967321449,0.006564500115828201,-0.0015428372940408178,0.3958635300138718,-0.8198432535534097,0.3407197559223365,-6.1086036357883335,7.686707854732724,-0.0066374807419783905,0.002387349136751304,-0.0032607121153390398,-0.30334431169720955,0.44111539843887637,-0.43051021574296866
2.1777873341131846,-6.194108098570068,7.2791503293200295,-0.0043827736145948745,0.0006524381347937676,0.011716481337136922,-0.568962163771912,-0.024150333392038596,0.18246772361718494,0.036833581422463665,7.655496878993552,6.102607023118037,-0.009618904681004143,-0.0011649992351628318,-0.01131538768756186,0.3631596027140149,0.40537285683674845,0.5250729483058634,-1.7203044551358142,-5.7447628934903125,7.70192593524319,-0.006280269390618755,-0.0002790984530415167,0.002021414463875967,0.7110750637058192,0.08236866008374918,-0.3623287932565847,1.9303238606911184,-5.795033600424268,7.769421081194807,-0.004486273575024297,0.004206997087097831,0.004157372958875481,0.004628993719065602,0.39682400708575966,-0.8147949409897866,0.34498156616108977,-6.133167122022195,7.713524060477158,-0.006565941321307571,0.0030190673795179395,-0.0033596826819026304,-0.3011152372241813,0.44009610085661405,-0.42540653859482463
2.164891838804098,-6.1648254415977615,7.240885047126172,-0.0029448176653546565,0.001314868723466967,0.01182677822392318,-0.5668169925944931,-0.03319831477678878,0.18490022181467367,0.015639928865976097,7.674828793346422,6.11631314805429,-0.01171520066073212,-0.0034104949479658387,-0.01045587493654554,0.36046810098207266,0.4085585787517542,0.5262505336773777,-1.7136197540892506,-5.709899302588097,7.665877851267464,-0.004635299420217446,0.003757909152290607,0.0028008029363134957,0.7067189172672016,0.0928548202517547,-0.3646558667698744,1.9486328198580185,-5.773607953253493,7.787721872394596,-0.004096234247521263,0.00033216253681793233,0.005924916036415081,-0.0027679300622502345,0.4007492548912324,-0.8205497902700923,0.3449552756784296,-6.13432817361882,7.712601419701722,-0.005795198498914007,0.002901835062538227,-0.003740516091130823,-0.3020848407098303,0.4440278987566232,-0.4292884241359116
2.165388696492226,-6.157410443980652,7.236619553159935,-0.0029468233256881044,0.0013138796482837398,0.011827777752266328,-0.5636157895232233,-0.02833172653362457,0.182218904830804,0.043122872427583184,7.651413253560328,6.12390322148709,-0.01112317002585199,-0.004467308616838465,-0.010786434457127556,0.3636727419710716,0.40103659091035915,0.5285615553227833,-1.719753289959092,-5.741846576903859,7.6919396592348095,-0.006175721105376693,0.001793517754531663,0.003101443033941553,0.7048066713439591,0.09946793787567046,-0.3640120594840371,1.9382473333798178,-5.779718511290752,7.747112764104898,-0.0041432205749830295,0.0008164121885637132,0.006343506002629926,-0.0003127089600908732,0.40709365321020796,-0.8200816969998008,0.3395595674265632,-6.095767221296411,7.701228262600474,-0.006944945297133678,0.004913982782880612,-0.0038467274441236054,-0.30349470930944106,0.45039530258998217,-0.43047047276213524
2.155687214579595,-6.19342906381894,7.227869425638367,-0.0042685503565867726,0.001051331868409887,0.011086813300301791,-0.5657933847706142,-0.02489734530486383,0.1783164090250309,0.03879751975094449,7.655931957132712,6.094033862484133,-0.008147200505460092,-0.0018969519549078705,-0.010310150881757359,0.37003536050356667,0.40013643140869815,0.5319731828349129,-1.7170342397860987,-5.754758660298778,7.685039875357081,-0.00524020424299235,0.0032219285722739164,0.002153759681786697,0.7100978962045562,0.08551326671083524,-0.3645675891015339,1.9338603524533284,-5.791689373143972,7.767787998247266,-0.0038890334626615745,0.005943954554801714,0.005400004442289885,0.0026564498208751907,0.3943864868870122,-0.8159938762884619,0.33848761456613036,-6.1226998918998214,7.685708656251305,-0.008302868725884057,0.0016313618531854045,-0.0043082139483442495,-0.3006721345810508,0.4386414768976305,-0.4290783694985567
2.1606097445260866,-6.181607137462607,7.236007961265332,-0.0015313022374443491,0.001275711551195067,0.01049845414790889,-0.5687682854154398,-0.0321963138807143,0.16976550703271664,0.005245360436988249,7.680048381504326,6.103129337617357,-0.007554169517205309,-0.0029527461909133637,-0.01063973058105198,0.3651208696796243,0.409877300298335,0.5313404813126357,-1.7116300576733552,-5.738330641667764,7.638001578358238,-0.0028167923703624805,0.0019762131758332977,0.002813474049272641,0.7147835670555944,0.08654771811721296,-0.35924829056097674,1.9374838270658916,-5.754593688472918,7.792476366855132,-0.0029333006628319554,0.004049619144717582,0.006062857494957839,0.00952844266343219,0.3955948943070737,-0.8133964876230934,0.35205325747239324,-6.127367859329975,7.683215754004769,-0.00484535356153758,0.002666115206999906,-0.004693336506867895,-0.2947514522580633,0.4412501858499787,-0.424965002941562
2.1724065302238214,-6.147393038700655,7.272988064322368,0.0006755248964011683,0.002118485372438134,0.009624754378222224,-0.5745966815274762,-0.027537542805995463,0.18515185607446666,-0.0012273177340409898,7.6789055469985845,6.096495483489719,-0.012265599017393197,-0.003391151204695755,-0.012567613904453526,0.36145339615521005,0.406123901789604,0.5265315506017212,-1.7298121573072887,-5.717280654476178,7.680120834253088,-0.002597853262861397,0.0027397898125435397,0.0030459012143736752,0.7123667719487722,0.09675265277097744,-0.36329529477694145,1.9246433359350263,-5.801141323215523,7.75795980226091,-0.00044167446462640633,0.0020017366969224035,0.00351997696917056,0.007561068055573187,0.40561076011564523,-0.8153044675121482,0.34868458901717747,-6.109692047323169,7.736385019306623,-0.0033408728054254346,0.0038145804411894267,-0.00507994517250569,-0.29759965605100974,0.45056317009941876,-0.4263680241543483
2.14406696832006,-6.16926019543807,7.258330353678334,-0.004781547375762237,0.0023683506587660517,0.012245092439441347,-0.5772786066810998,-0.026783058344693744,0.1788050735299,0.04077256053285923,7.6669523339283,6.140994188379435,-0.01047097395779779,-0.001861113966339051,-0.010494817015051679,0.3580028562662188,0.4106629707957681,0.5210963585138771,-1.7305267188308444,-5.723063021600919,7.722944059753554,-0.0018884030060419014,0.005346402468439965,0.0047740041613126985,0.7066869106862442,0.0896507948153281,-0.36655893838741976,1.9338861174268032,-5.753790532337967,7.802284993648711,0.002369258197321721,0.0045943072382361675,0.00473021147467157,-0.0010687263714939492,0.3978183567522487,-0.8210658018166895,0.3257947478562202,-6.1276954523047,7.700780824473751,-0.00873605238935351,0.004637206541772022,-0.0024141031749735893,-0.3033484949065013,0.44209943196857643,-0.4322151704383158
2.161022425374563,-6.189680233447971,7.204009667768203,-0.0038574785175358546,0.0021894361759462245,0.01276174450136843,-0.5660472570621322,-0.026856051764265875,0.18637071836013194,0.04814457511842618,7.654492510504536,6.104006151256619,-0.010106049879266067,-0.0018777758579943808,-0.009092589216769873,0.35583317426416855,0.40533873933519055,0.5243664908298816,-1.7140307463037803,-5.747854361874222,7.701302349866402,-0.005511781592008777,0.0021414693261491437,0.0008905267021013581,0.7069442351590017,0.09691916059627562,-0.37009282689585793,1.9679460487769198,-5.8075015325421475,7.834140968009761,-0.002508593524969393,0.0074818711107302064,0.0062119356249805404,-8.315976430933215e-05,0.40563028044158794,-0.8210636258703293,0.34171089770633245,-6.098480294589532,7.64398291008751,-0.007460576396406228,0.0021468477198346323,-0.004788013857668656,-0.3042586506168955,0.44992687021616085,-0.43364027571972125
2.1734961724015633,-6.1823147776759395,7.256910708045088,-0.005102824883594297,0.0009295531796434602,0.008500874019392687,-0.5680509820429789,-0.03538785529215164,0.18465452205356128,0.014586710094948295,7.678288221749824,6.113485015924757,-0.009248638528280829,-0.003095449961842756,-0.011756725390470218,0.3687802332479083,0.4096281364321579,0.5303549435696209,-1.7228794651213049,-5.741334062060652,7.679332022089387,-0.008978284620411297,-0.00011585693786996642,9.652173244078511e-05,0.7044884004391339,0.09183276721282929,-0.36828516205482,1.9466366126931032,-5.787521887258164,7.828410736503445,-0.00764993385787803,0.0026476732173923673,0.0056280012885565785,-0.003012179084687102,0.40050551950103347,-0.820547056298034,0.3523817961547187,-6.168325870853731,7.697054690645789,-0.007547475719316333,-0.00022753815609177688,-0.006971244770760294,-0.30796110896648765,0.4453229197082237,-0.4328969360329016
2.1710167241594536,-6.148415161210931,7.259847431549269,-0.0011067078421994978,0.0009520925992355105,0.01286707998865691,-0.5685081416146349,-0.029760066702426882,0.17342962696650557,0.008241181776212672,7.676992036020987,6.107049296391365,-0.012635182422164604,-0.004623950276442057,-0.011208723343878823,0.3585040824727354,0.40800309584242617,0.5226039401940807,-1.7292379554161847,-5.732791678765665,7.670792864823507,-0.005679100791375641,0.0016927654037388184,0.0016879444568176803,0.7126615273139875,0.09854385935698641,-0.3579537073498824,1.9119650684065728,-5.782199941068126,7.763014249888815,-0.006338694988045599,-0.0028779537585095255,0.005712115196002833,0.008062874520239618,0.40853780808640605,-0.8145733269997402,0.3574517009509273,-6.125646733946,7.704739464498588,-0.0029499325122991885,0.007062912226442895,-0.0016575328215283297,-0.2970962972718933,0.4512861713448638,-0.4253931174210803
2.1467088897693363,-6.166361782459845,7.257266397258402,-0.006601731188976449,0.001964092457181283,0.013356104227211587,-0.5724081135497078,-0.028765258348499516,0.17929031244216465,0.03884104852881446,7.62583471384865,6.145046813005989,-0.009661214848035872,-0.0020495504674727595,-0.0107294995009727,0.3587584256771573,0.41127447794878796,0.5284086849471719,-1.729994140395232,-5.7010331158730025,7.7005439561861815,-0.004138376295419915,0.005096064744871484,0.0004097130136869999,0.704506253618297,0.09307644828823025,-0.36683947721825183,1.945784256542139,-5.76390877654953,7.713752503874237,-0.0028200837133213674,0.00024236201762810065,0.004563876477543055,-0.0035153061392236605,0.40417087193029927,-0.8219984927369691,0.31224122592850767,-6.087874774234238,7.664479846768408,-0.010130999007139204,0.002736519688753291,-0.0025015355504989433,-0.30570748483097326,0.4499334934942466,-0.43167526438328957
2.158625797531536,-6.204081163335194,7.210539323759545,-0.003764690546316088,0.001887727107297612,0.010690455764786272,-0.5718918604669789,-0.02412979061898978,0.1788063385965419,0.02297240371331942,7.684261251426585,6.09002996348356,-0.006642249501363575,-0.0017497609242709841,-0.009913684898640349,0.36316259142964114,0.40439599541853827,0.5250891296899576,-1.7282678582477378,-5.767902573358344,7.6736093367984255,-0.004857264931060619,0.002989349480698008,0.0025684769945902228,0.706042997350297,0.09635248067913117,-0.3598214339385387,1.952149923389995,-5.787040568425729,7.757346067839325,-0.0025095825304624836,0.007479870263590359,0.006212944822115694,0.00045501466522700727,0.407575665089673,-0.8174046036164495,0.3348570553441672,-6.150874553000708,7.683646482498695,-0.008783945120333887,0.0008808747827796155,-0.004973404642699548,-0.30567155933762735,0.4508972655533819,-0.4284974258447609
2.156640471829544,-6.17810601549997,7.2701119066714455,4.026001391138333e-05,0.0030286470689328197,0.011424696103753679,-0.5672866175990663,-0.029774009344950933,0.18099736828621973,0.02575448684647606,7.648510495832483,6.087361547307061,-0.00732910780251772,-0.003994135848920829,-0.012386492386444169,0.35902751440461467,0.40446041541933625,0.5297418826449936,-1.7166003582166547,-5.731197398842239,7.686469271859182,-0.0005074685091951533,0.003478445293629337,0.0033431984762205135,0.706455084228419,0.09088436869293119,-0.3658442685462011,1.924662672004359,-5.80286610635566,7.787004767852831,0.0031049920294984944,0.010068787853451989,0.005625223609682419,0.0016456429437528494,0.4004976666525749,-0.8191430697296685,0.36584094028326064,-6.1350799587679345,7.723195195095984,-0.0041431201543922274,0.0019201343120866842,-0.0049752119160711445,-0.30307033048176907,0.44428777450570006,-0.4307443126977342
2.1631596534294766,-6.140348452549628,7.238262216981936,-0.0027223995206946414,0.0021076872180689652,0.010572438954210627,-0.5683123687509746,-0.03806562244364031,0.17708418546452565,0.02029445152616518,7.6941819860894265,6.104672812859033,-0.012934211689961376,-0.004101200822602473,-0.0110523407824746,0.3587893103358396,0.40201092510340536,0.5292942287454462,-1.7242106720358277,-5.718433941720237,7.6571368470383705,-0.0002885269456924426,0.004241037662294965,0.0035766411266165703,0.703809603781712,0.09266864130327115,-0.3619439660633054,1.9111361515989687,-5.760163160304328,7.839688492998834,3.58343422201411e-05,0.0023496850736732045,0.005355545346131895,-0.0010057021724138755,0.3997623817771333,-0.8164244606685996,0.3518990657112885,-6.127022436032629,7.708090507122066,-0.0037750115696214394,0.006822422615915746,-0.003182818137918914,-0.305743253223434,0.4425906775992811,-0.4270662436245229
2.1564428737030403,-6.18487284751238,7.262109912139066,-0.004109961623076374,0.0013847716954869939,0.014042079361982596,-0.5668114842065712,-0.03196993840358578,0.17660131211861002,0.024942658699182187,7.6609689266297,6.124382156744647,-0.010075791874540222,-0.0010056898388370282,-0.009704233254049966,0.36216769347209765,0.4033160407858076,0.5190055619007965,-1.7314449754749774,-5.736029168489913,7.702911363165512,-0.005513799881172098,0.0021394648588217977,0.0008895734867076382,0.7050213862269725,0.08829807688122715,-0.35993190643741907,1.9469033604978099,-5.786814966133076,7.817359631168158,-0.005059529377003765,-0.002965759462704796,0.00435204001505189,-0.001472854777075339,0.398295608081653,-0.8147120166928139,0.3249884714184876,-6.085018684283483,7.692638184940456,-0.007334654053672627,0.003139279413915374,-0.0029788535838994935,-0.3064948900573634,0.4406451515871243,-0.42706814254575926
2.161065603635154,-6.191425787314788,7.230150114002646,-0.00589424002319618,0.0022069774569881055,0.00880117435648781,-0.5709374871214407,-0.027547176713333912,0.17172309472106304,0.02578853008539515,7.677750131576655,6.114373717149672,-0.008554454925030033,-0.0027639243012448824,-0.011131506339782474,0.3636833367233639,0.40034514886613093,0.531014329395277,-1.7294992216951515,-5.735319332250293,7.7152580612561446,-0.008490797023237504,0.0017241801781273062,0.0015912676153098974,0.706920117898993,0.09131634219037396,-0.3692731359368623,1.9581300570615137,-5.758344103728004,7.783904431345441,-0.005604010236815252,0.0025995356675976747,0.006603146566490658,0.0018324892440191812,0.4009939016457262,-0.8235399486558671,0.3362267896054191,-6.12987220862655,7.694486837513304,-0.008705960323248205,-0.001885012715687155,-0.005726553842558869,-0.30288541141928793,0.44382469916265677,-0.43733903234052396
2.171344958548638,-6.16258816015001,7.2304247192973605,-0.0019419937421406327,0.0008283180625670507,0.010283139136115576,-0.5763414064582044,-0.03363143992358107,0.18636678110770022,0.04371462796942163,7.65553395243578,6.104359105872499,-0.009698514070971323,-0.0029320041099144024,-0.010138662520994391,0.3614429402391297,0.40954141696610613,0.5264749406008675,-1.718627751160719,-5.748280383749655,7.6639960199248645,-0.007607506085776184,-4.306600491586078e-05,0.001570968641984592,0.712588967287908,0.08487372355016314,-0.3577399175801932,1.9340916734413707,-5.80839359375284,7.77764552295942,-0.007819205288258408,0.006936199412000763,0.00754068507345533,0.002163384778263309,0.39267849295016305,-0.8162357307394047,0.3506633221748742,-6.140107712127008,7.707836350780206,-0.006796339579383071,0.002783802596265117,-0.0046938229010838,-0.3001601995283274,0.4391154119657101,-0.4268825149831032
2.1643532570020185,-6.171794428575135,7.257781952439028,-0.002439456645425974,0.000685602650812995,0.012134114276711145,-0.5682620645225404,-0.02927003322161679,0.1695240118737921,0.008683434027365464,7.654217308730355,6.091178950245686,-0.009734160782027624,-0.002565038940320792,-0.012310933193883936,0.3699920619339544,0.40735823236804636,0.5257487544967098,-1.7077937368939375,-5.728207644363903,7.643627775783093,-0.004358631635095344,0.002889601733583678,0.0011559472699116864,0.7079615048983835,0.09409948465376074,-0.36273163250523477,1.9126583084477153,-5.773367518328809,7.77959569409007,-0.002706381454189942,0.0016283814761363857,0.003969012747849599,0.0033499833951736863,0.4022057571217177,-0.8196501758081907,0.36485452666288776,-6.119235472922237,7.719850900782526,-0.005760588893010304,0.004921470429595827,-0.0034614082995711713,-0.3037592207571829,0.4474628764910563,-0.42926041661949055
2.162267562533187,-6.181866272836821,7.23752539242132,-0.0028486437168690456,0.0017048536497313767,0.011214105938831686,-0.5638232396937877,-0.02172817635390092,0.17074982838801206,0.012925496587251076,7.677445770329672,6.124217200804199,-0.008671014397807843,-0.0022469315703890947,-0.010269551929417265,0.35899591560262406,0.41173886209848287,0.5269349648594979,-1.7229567941907453,-5.716670662159726,7.657820717304646,-0.004368772466101373,0.004827412632818785,0.004065246168676153,0.7162437818306392,0.0937751984552303,-0.36498821449551744,1.9296652680549304,-5.750060499172977,7.75782468409999,-0.00291960685623786,-0.003982400184114888,0.0044920051846108295,0.007762543365502344,0.40195417189913285,-0.818244442055295,0.33072548650369443,-6.124682629159628,7.6827360609372874,-0.006313233094904727,0.0035372693840886272,-0.004028636517953556,-0.2955011331655128,0.44519268857242544,-0.43177877464455483
2.154579186317938,-6.1651661419844475,7.248223852202354,-0.003641938337270485,0.0008259252768372486,0.010756484304111675,-0.570229275194076,-0.03195042747067688,0.17733402767681083,0.038731054970803674,7.651405365436995,6.109566332347398,-0.008007073139999118,-0.002791474788804105,-0.009031622735376834,0.3683311799042571,0.4018886168843587,0.5348803939630943,-1.7163285806553283,-5.7494015949339285,7.710113655623882,-0.0023806169585231752,0.004938316984815145,0.0023028146374118176,0.7033466291220021,0.09827790362897101,-0.36251693868564483,1.9548261548952905,-5.822654410855939,7.750986510442279,3.0041923580126168e-05,0.004946735150432431,0.003252459197946045,-0.0017313786888049926,0.40830862473635376,-0.8166424282706253,0.32159013290483274,-6.104239560840195,7.677395698373684,-0.006095134474405581,0.002035836021601716,-0.0049766981455641335,-0.30491445730038386,0.45308575463223666,-0.42825055329275297
2.162617031932221,-6.188946952905258,7.229091006260634,-0.0037757058067267027,0.0018847822469378961,0.010701455393668565,-0.5736479569010333,-0.032428612640043736,0.1878323038843752,0.016497207600494616,7.680138949504596,6.112918723545311,-0.009952917721999707,-0.0034366009849148434,-0.012417755493227692,0.36681201786521966,0.4043462990612576,0.5214149352254017,-1.7107552705455138,-5.735281383102302,7.6850363700201765,-0.0014986394020387306,0.001730168558887861,0.003260145963065596,0.7104360312397925,0.09053134629344865,-0.35585815238033863,1.938673012716441,-5.762506960516629,7.830469799525144,-0.0005144137987508975,0.010511026415066738,0.005505563653743725,0.005173542473872014,0.3958379812615836,-0.8104086079281396,0.36198809472074245,-6.151868272117278,7.689549756223001,-0.006539242580901082,-9.95724998979577e-05,-0.006018955040984623,-0.2981448141320666,0.44249939452089504,-0.4234668831571092
2.1623586557036054,-6.176083103751067,7.2851555484924475,0.0014517352020510647,0.0029824973629116814,0.010101366213703503,-0.5716921621433777,-0.031700618623021676,0.18050855036742045,0.028915681636140635,7.679789950350765,6.096016578822922,-0.012870690833487197,-0.0023529374819952938,-0.012270706241883974,0.3622058349552359,0.404987197086716,0.5314315150169643,-1.7282842800507559,-5.7227122954081935,7.664402297365876,-0.004912227123733233,0.0012295703288889655,0.0025153404324614603,0.712302063094674,0.0898604737649234,-0.36684984415945243,1.9230160682914301,-5.777762658395009,7.821091925591477,-0.00417957280372365,0.0036512038886619877,0.006997523229099936,0.004787293432325233,0.3975684886797019,-0.8213871583221461,0.35028418832780195,-6.129279979988024,7.720803942547857,-0.0034167442246278512,0.006588430763826103,-0.004322780120910848,-0.29945623954130174,0.4413302514238226,-0.4329833653755858
2.1511265956861867,-6.159500625482129,7.243676605156999,-0.004671809983913138,0.001303613983627359,0.012324121025691881,-0.5668132227818378,-0.032212628251057,0.17513609554236936,0.017501303428390496,7.641772696249446,6.113469200366006,-0.012767121584967282,-0.0022126600724526897,-0.008530850006795111,0.3607299357919945,0.40245213328774865,0.526106817542449,-1.7357392590638796,-5.738029229982962,7.688165654960001,-0.0057952099431989755,0.004436724318954685,0.0015580324232325265,0.707506345480082,0.0939257095005167,-0.3583297208636811,1.9390961735309962,-5.783550086271779,7.793279276184137,-0.004492084720943326,-0.0035843002641282535,0.00534748506088962,-0.00045609746760926634,0.40243934587581126,-0.8120311088863216,0.32650421512188776,-6.09471405937386,7.684895176940817,-0.009358254481490897,0.002620271356856526,-0.0028833813615428685,-0.304713532402324,0.4472165445310033,-0.42632347571960777
2.152047958629493,-6.196424940680741,7.215840493351645,-0.004672815457484005,0.0013026181179277723,0.012326120344177436,-0.564350113606927,-0.02856748656256315,0.17782384278927968,0.028761904397143392,7.670034652307559,6.132276969866717,-0.009404535583594139,-0.0034631320396069335,-0.010316892067534658,0.35655510150670217,0.4075214335322701,0.5233507009409167,-1.7126441439017235,-5.74087565988499,7.704123176398482,-0.008931716772787368,0.00019498107835409125,0.0011224682043571162,0.7054736351216324,0.09232781357123492,-0.3675684224065299,1.9539517605294963,-5.773244908458738,7.782547322113624,-0.007660024847452885,0.0026476975759330396,0.0056211331493572275,0.0011344474464289878,0.399768501785638,-0.8208469217655979,0.33698246038201823,-6.134451391442426,7.670458612206051,-0.009480134944527803,0.0016328033061387584,-0.004693554281885443,-0.3045438550313244,0.4450435619525511,-0.43268215524475406
2.1754576340466576,-6.18963046123222,7.250149783972214,-0.0011906783983685893,0.002464399344753907,0.008615443332831743,-0.5714471257228436,-0.031456321582396835,0.1785557172694436,0.011318730842641124,7.701261141660767,6.099094416619242,-0.004098476407096511,-0.002819187015763467,-0.0114868941281194,0.35778629557983177,0.408069675405351,0.5267558883076988,-1.7156117562597493,-5.741500255455225,7.6679104599957295,-0.006505986256199326,0.0003911623606591544,0.0008045289564391345,0.7037742859857276,0.09308042142850959,-0.3668338559170491,1.9458016969658902,-5.811414960542329,7.766390025778994,-0.005660828003224935,0.005680845526331335,0.00491570314643446,-0.0035113645501424276,0.3990424668531547,-0.8212753995005238,0.3505265730162516,-6.133647530699376,7.717323681573938,-0.00523204052660081,0.0008943856522576286,-0.0038264751708383554,-0.308695693009468,0.44606730131634403,-0.43410886478711563
2.1695177528170624,-6.167547313443088,7.297656700212922,0.0018538941237450004,0.0019582823992037516,0.01102737156456209,-0.5661032374895868,-0.03612844680376742,0.18025946239894286,0.015883684606699686,7.636737730665036,6.060861647525074,-0.013407396458001385,-0.005487623488037164,-0.013454088139725961,0.35876870400413513,0.4073609444816496,0.5279854472390423,-1.7448567991724775,-5.7145799314419685,7.6757408447279065,0.0012506038577004177,0.004758636804506321,0.004260724087981137,0.7035761699302663,0.09607226272975013,-0.36297239147246857,1.9051547236485522,-5.754134776042147,7.763766963872627,0.003696478817756562,0.004013239218013944,0.0029575153979095143,-0.004909158383627268,0.4046500680310697,-0.8166078010357328,0.3476499823375191,-6.126833465976077,7.737329431072862,0.00020815005823422364,0.0038340920678662125,-0.003925966832307996,-0.3083769446998974,0.44848137619589756,-0.42799720723854057
2.1408191949159248,-6.133411059204012,7.209641950159762,-0.008344077737072037,0.001266205510204867,0.012404837537171762,-0.5728618834492086,-0.02315226685814443,0.1846664104144405,0.05171463355932998,7.651033200711364,6.177320759763268,-0.010745392664185713,-0.001720758322234054,-0.008189873704088855,0.3639351068531385,0.39642021660734145,0.5298583490469724,-1.716840455292882,-5.7231824795192106,7.678318901398931,-0.002714952546460422,0.005479817083368215,0.0029200588013418394,0.7048000211567732,0.09220867400108476,-0.359747148022571,1.953025160996466,-5.793138227466289,7.8051009905107875,-0.000922915749049678,0.004240025673674123,0.004691724076151577,-0.00024173076585583785,0.40464079944928594,-0.8144718788634016,0.3217355467493704,-6.101340834749459,7.639027907247993,-0.010919513442437112,0.004513657906559445,-0.0037507375918595844,-0.30400502951316893,0.4464843331453572,-0.42828541663176317
2.1739216575937363,-6.2327614913833145,7.238155648261727,-0.003916483319474197,0.002941673416180669,0.010654426165721754,-0.5721656038335878,-0.02925743572702308,0.18124282504536526,1.340585619198642e-05,7.694170881913924,6.074480095123961,-0.0042140321035132365,-0.0023011582792729058,-0.010622960039663783,0.366622105695207,0.401635460844493,0.5346454059475721,-1.7100553598625228,-5.753374756117943,7.7088777316413735,-0.005735770304018525,0.0013728737233184279,0.0006552165743943207,0.7091276423265463,0.08094111319435007,-0.3605821465120717,1.975228079260899,-5.819566841210797,7.8311278102374935,-0.0042101184231760295,0.003895744476687475,0.004650190516010372,0.0014453081366571172,0.39072392828834085,-0.815008980186303,0.36526349264724467,-6.120217092004381,7.678398713182819,-0.006015136015185155,-0.0007270634606676626,-0.005731851571960357,-0.30142249795846204,0.4352229296144594,-0.4271323085348242
2.1391170771513917,-6.157466425780316,7.2612978778447355,-0.00041227868851766354,0.0011840428967444317,0.008325143043916013,-0.5699850799565352,-0.03195273770730038,0.17831097616509933,0.030580671565898547,7.6677923470146485,6.068363753276099,-0.013271551019162067,-0.0044721218988413,-0.010317933720841709,0.3626776710230157,0.40366667805527723,0.5253469132869616,-1.7450907409204324,-5.714135072104929,7.687415494719612,-0.0036459940231427113,-0.0007682708140366628,0.0029087276495930437,0.7109115519076763,0.08905247587765033,-0.35657088822740385,1.9111828575674021,-5.752089865240746,7.794198492478182,-0.001921884973337085,0.004018568632319036,0.006547567891713886,0.005385789143765061,0.3990169043469728,-0.8130914808972344,0.3321214695093558,-6.161462629978563,7.724478747400993,-0.0037492597159946165,0.003705776073249715,-0.0058380742781288675,-0.29892288839128306,0.4398310422089731,-0.4256696574048718
2.1629629168577402,-6.129457171379931,7.219245957013057,-0.0032303652711393317,0.0004983741720104156,0.013135109302921305,-0.5709337051449721,-0.027062101954776888,0.17611752815158224,0.059284416341068666,7.666530704484634,6.143699197464132,-0.014333095825696219,-9.961833795516087e-05,-0.009283616441783485,0.3624645208673481,0.40406771386256646,0.5348643594933981,-1.707973956357103,-5.725875544912063,7.667214383786191,-0.005349499321946599,0.0025832013419539836,9.325680361248434e-05,0.709139281940482,0.08772668064997716,-0.36386255972148934,1.9424201987914214,-5.803770539509395,7.794697674200707,-0.006545589057910403,0.0016561322001152664,0.005271560586838111,0.0021314380714499963,0.3985441434272739,-0.8191532236508431,0.33312806273971884,-6.070085179925348,7.6536066389461075,-0.006660084574073757,0.005512935943695444,-0.000598444439272011,-0.3011319820202284,0.4440302309442995,-0.432225365551492
2.1881876672701046,-6.245783345843801,7.279119145613926,-0.009925770259623485,0.001667685446402811,0.012245518282417866,-0.5651240116213445,-0.03589269622716488,0.18416547422235002,0.004205814114612762,7.651495441175389,6.1298339212317074,-0.0063463792125989515,-0.002936639764157316,-0.014720716143770383,0.36170653120190677,0.40369206801618346,0.5270590618779847,-1.6977202727071894,-5.732976120799834,7.700520574587144,-0.006567128303346792,0.004892931891594834,0.0007297844555727881,0.70872590010578,0.09295082590586226,-0.3578359096732328,1.9670012336141605,-5.745872205785409,7.77833565183093,-0.005643130114295809,-0.002347178140366727,0.0033448060168733795,0.001774323442097079,0.40096677933956043,-0.8093779919718493,0.3655865715967183,-6.154490244886123,7.742549563165787,-0.011685787973123554,-0.0039050178845566434,-0.006970512159697709,-0.29959555536018156,0.4447150455856813,-0.42442281372370855
2.1523844120342823,-6.171941043605083,7.225450252094455,-0.0012919932574127803,0.0012955008346068537,0.011396423299015041,-0.5733709299730954,-0.026813717017802465,0.18734925188662235,0.008936574485163865,7.755567959258977,5.966045504235701,-0.022991388929237834,-0.0014169632381142714,-0.008176988705284651,0.3651310914828806,0.40348668612962896,0.5287599869682374,-1.7576006877894481,-5.618720809611412,7.785954522820932,-0.004114467642971296,-0.0041904299539415385,0.012170140624333466,0.7086851103489193,0.09021188636988758,-0.3612113898485575,1.9879737256673256,-5.389950814756337,7.948289767950579,0.0006063704687039781,0.0017133246819862771,0.011464365197811013,0.0021963252437925025,0.3992666976053666,-0.8142692480044473,0.35016455658850437,-6.198085274972228,7.697794450889333,-0.004425759488590547,0.007931105507723121,-0.0009827794129481442,-0.30502160971128267,0.44406139258138505,-0.4302402029945818
2.118890921133536,-6.09232175428979,7.284676083403178,-0.004922424794825131,0.0026532995149885085,0.014365376076631357,-0.5695280385790669,-0.03682917233639365,0.16780853190257353,-0.02916090304406445,7.59819138327705,6.232511233899225,-0.046199734608652336,-0.0055566856684808935,-0.006313673373860153,0.35190315315392906,0.4131419464095255,0.524494640851812,-1.757157305658164,-5.650340810344419,7.964483306693255,-0.045199110942167595,-0.022507856590826086,0.01875876015957432,0.7106360333427897,0.08947319103783974,-0.36097097837129744,2.129235761563732,-5.834018860223727,7.914709263187053,-0.04641525549092383,0.007005448039847293,0.040092155061473865,0.0061321684361697985,0.4004792191390647,-0.8121213616258566,0.29797952799028715,-6.020537308954646,7.663340352740888,-0.006671408938096675,0.003776240193540619,-0.0028836544143451214,-0.29816532947219926,0.4422645293093502,-0.42566578230286944
2.1512458021037264,-6.046436240178444,7.244714359814944,-0.03421751528890517,0.0008557377628056223,0.019254757498728715,-0.5733856415316662,-0.029004061416994617,0.17880229898029534,0.1494421242380618,7.619190704898122,6.1839059011453505,-0.0073338240770702634,-0.01587316740771887,-0.013070705790167413,0.36170398988202307,0.4059089917337519,0.5282434996231513,-1.8218444389318815,-6.11695128865225,7.648492604563958,-0.051823407756287146,-0.04372249657456445,-0.021460062437299587,0.6971969087315562,0.10111499171816507,-0.3705706654809544,1.9132581947890974,-6.496558994347338,7.539993046555617,-0.05451647903369894,0.060573444247530875,0.008892321561860702,-0.006878695546687364,0.4127129386355734,-0.8185195300903731,0.32221559034816216,-6.060879510821215,7.6946602097000465,-0.04082762967757851,-0.006284325874020227,-0.004239899670939138,-0.31101062701153803,0.4570690921334715,-0.4320901138410529
2.194996392131561,-6.5569723558967965,7.161499331662375,-0.0070717026409955535,-0.001335064703281225,0.01096425852465132,-0.5682543506174959,-0.02855184336659325,0.18612565738945738,0.01742633556001692,7.76624473083244,5.898016758733084,-0.034547770089553544,0.021077147224720143,-0.008100210040907689,0.3658264916383327,0.403806877173048,0.5184968305181237,-1.5887885861336064,-5.311351863564031,7.833914674428901,-0.019402869931770393,-0.057165650571986436,0.020219229636470996,0.7065037454597456,0.09581239801053067,-0.36299106891605853,2.0874500226775536,-4.609316127189948,8.020217524708736,-0.01583556735863367,0.06690839742160856,0.02776564809080208,0.00512803435895706,0.4068324544856818,-0.8147821315117121,0.3579366612189855,-6.270229271913316,7.632464491330359,-0.011320581291253073,0.001001271294746581,-0.005171077646143731,-0.3024851709734906,0.45012227333721605,-0.42608571229257935
2.2342158484558947,-5.858868827825115,7.3598176526453205,-0.0020350089075586043,0.005263961576512429,0.004648109429344141,-0.5672933721269294,-0.030996945883357635,0.1831932805338706,-0.09316409121537693,7.5975626270400225,6.321938541895732,-0.08252811368415026,-0.04601962695603845,-0.0004008922087404415,0.3653900120238827,0.39389799225871386,0.5247674401615835,-1.7162367298914825,-5.886775750181858,7.9943145048755255,-0.08104119021328253,-0.088980491676844,0.013719925647089135,0.7056728354316187,0.09271924267923559,-0.3736800008842974,2.253097629780712,-6.309713120603177,7.470336784659354,-0.087196088963079,0.1164465808720627,0.05847658030997516,0.007918628006546316,0.4026991262562347,-0.8250816509588362,0.4416053706606232,-6.121258400335935,7.828954699411693,-0.0030612249363730255,-0.0039041893872209434,-0.011352535977377006,-0.3011939785809863,0.4430796290485008,-0.4385770696899227
2.121451170413195,-5.968078552262917,7.147509245957913,-0.023284314890802127,0.0014047202937368059,0.04681102595502831,-0.5777897000431234,-0.030439932716102215,0.17636091735505535,0.21962979705037416,7.451585212293897,6.347383746112452,0.03656996437360696,-0.01752180474586032,-0.028509876221426582,0.3570748871033684,0.4054475890627222,0.530708344656783,-1.7019653764611218,-6.2490569084863,6.919110537763304,-0.09232921119740113,-0.05380523444831233,-0.031393868885943976,0.705424687062949,0.08522593137733062,-0.368922489757682,1.103518510341668,-6.99895127574781,7.1908083898233865,-0.08887573258997625,0.1574321691927256,0.02481092825486471,0.0109417893898763,0.3953568642064065,-0.8173218397986345,0.3540498724205078,-6.153397349512863,7.711695553364454,-0.03141139025383531,0.02370261118811159,0.0225303168905026,-0.2982730182516143,0.4361841891097655,-0.4313053662577461
2.147664898850958,-6.855486552543172,7.253744957604192,0.004182969675398455,-0.0019037520673427233,0.010157453261560461,-0.573611554601911,-0.02607615572984286,0.18271095649558583,-0.10394726156350542,7.752939861025976,6.003032755398971,0.07134528763155226,0.04410545007276574,-0.0040487430950659035,0.3648682117564914,0.39967881503405045,0.5200337441931989,-1.4145934233895914,-5.375457471488457,6.75523443126542,0.08027719720264245,0.03218657973876468,0.015619193161242238,0.701396617829569,0.09636242327894216,-0.3607626610599434,1.2593366370581374,-4.896042025505662,7.951541764115969,0.09470135583774045,0.009514627380222117,-0.01951702319282296,0.004701492911602212,0.4073130091928448,-0.8101361961304232,0.162952251195697,-6.072621806637974,7.5163721175010485,0.00013034451981870158,0.006607929300553402,-0.0031607856088385804,-0.307388370371973,0.44772847956067463,-0.42556734850708333
2.0520492952542653,-6.162319669710461,7.210520308654503,0.05849224219393613,-0.0014691245691167978,-0.029174264911499246,-0.5658186707754352,-0.02904478897030441,0.17440571577958744,0.2305672207144593,7.6494408257968205,5.954449025283439,0.033612282096172424,-0.0007881730382358714,-0.02402343225996496,0.3629222903776505,0.4054044909776898,0.5270265161025208,-1.7611115343742234,-5.946787848352006,7.365866430782803,0.11485542981149034,0.1449001530284469,0.022379945110533307,0.7061773846151985,0.08912742564938683,-0.3689891893824955,1.4180498804563006,-6.475270596457989,7.834830473818464,0.12769609185785513,-0.1564471807873367,-0.03990276678282608,0.0076690245594717155,0.39561893488986616,-0.8248470484549932,0.3660934923438234,-6.309625324845426,7.683725192558215,0.06330199287325726,-0.014189199223494512,-0.02831203457312928,-0.30072371443108464,0.4411208264320166,-0.4383450504256961
2.475549936890144,-5.762150967520107,7.318411566865197,0.00011696446969663915,0.0027120121533337664,0.00937639735682093,-0.5687246237046797,-0.025124708828472685,0.17904880518801278,-0.07654666187065504,7.911116124182122,5.969100686092344,-0.04562312033008379,-0.027016940827105887,-0.03505210655140935,0.3678449442584582,0.4021432485917611,0.5356099428581931,-1.5286804058159937,-5.671538778265294,8.07150443093766,0.10568028546129617,0.12463792062906684,0.002097097298980505,0.7086745346870241,0.09139845634264615,-0.3634271492793449,2.4557598101399387,-5.379660799766948,8.151984117681492,0.11105758188950132,-0.1783530918849223,-0.057988388199234915,0.004336002188936433,0.3997608194315748,-0.8186917590775012,0.7555628287769864,-6.110957732504199,8.236491867798005,-0.03812150760935063,0.051062956523014735,0.0021080974168495165,-0.3013078550175065,0.4471882636529612,-0.4278166303473942
2.0834180017107733,-6.025992808463976,7.2627714387755535,-0.024995189349797175,-0.007251269650170488,0.04785466031462665,-0.5657877268389546,-0.02392092681107567,0.17782827798443032,-0.33941959100449215,7.504639876339742,6.442618739326406,-0.04993142646430345,-0.014961054788509488,0.002645239470269974,0.3638767319873318,0.4057982518091553,0.5211568828412928,-1.9258439768016293,-5.535586645725384,8.835508378444995,-0.020783904113048545,0.024675552361197183,0.00977700319573538,0.7111787848260716,0.08813139581529132,-0.35289604032768734,2.729885351228069,-5.406035653883046,8.24275391014294,-0.02215494948100566,-0.08429602355038039,0.019976449536586796,0.004689327016059754,0.3963260361733391,-0.8101572878264229,0.17585973957828233,-6.132764871236493,7.502924969649111,-0.01985264741067378,0.05382554982567045,0.050627555557736896,-0.2971462781027919,0.4449324553845869,-0.4237099996555437
1.7779254726490785,-6.43762580509073,7.215453891865673,-0.039212463566959684,0.004916496733502384,0.020131397265945556,-0.5694225886375365,-0.01950940799283193,0.183448954671582,0.18292454581352502,7.7187325246047225,6.200284953252884,0.0036821024321752284,0.0010666577143996132,0.011305337633139536,0.36125040152982246,0.3971561838244666,0.5305874461476907,-2.2181945010030337,-6.161424649548135,8.01673302149944,-0.07270646469226485,-0.06068449325529493,-0.026417162760230463,0.7110932595351562,0.09568821760983062,-0.3693737301776084,1.9059133673918176,-6.3448059305288504,7.934035593061964,-0.07829963585698783,0.05085714204325088,0.018067428645374813,0.0027795353248066534,0.4029505607704631,-0.8259898073845388,-0.14581449779080102,-5.796375723970477,7.109287326234941,-0.05226206772429798,0.0005677366168375926,-0.009975788806645437,-0.30088005525217326,0.4472137481228304,-0.4351443488124129
2.135214162168879,-6.403741676607508,7.070191080412926,0.009808116933862493,-0.008679392306307236,-0.023169748626277638,-0.5631284867968687,-0.028577518565826455,0.18099758573663025,0.21868313694806732,7.683700192974782,5.554496659836503,-0.03694088986811284,0.011456505765185913,-0.009244741662384075,0.35338500891851754,0.40901715168702274,0.5257781115332726,-1.5494232101122638,-5.506476821045242,7.579171505767493,-0.06696246105280498,-0.07596656089693539,-0.015257728017099521,0.7084436227968781,0.08804697395632097,-0.35922245018034366,1.7968245094814546,-5.23378046295838,8.023140730448263,-0.0856552154149167,0.05169125128055503,0.027984437072679013,0.003925127951854682,0.39413408381635356,-0.8123486918637864,0.29634875880366457,-6.049017129456387,7.7082404751688784,0.011409589144287378,-0.05584855344173042,-0.04323928610678883,-0.3018644129732306,0.43839456041485964,-0.4254074452980212
2.708395479988633,-5.764268297386497,7.523611221875643,0.003370002842111553,-0.010011576936936765,0.009569392200132459,-0.5726605523765309,-0.03022966371258618,0.1802660591143836,0.11888520973234333,7.570131834585496,6.399308383293397,-0.0923324822187483,-0.03466319480402101,-0.04853343193411136,0.3602380456223183,0.4078815959690936,0.5296810318691029,-1.3386986989151128,-5.6652785288158,7.108577801975277,-0.06847167712455546,-0.03355977707311061,-0.012956021787329193,0.6988944803767546,0.09649400105040377,-0.3688025085993736,1.8786435266633905,-6.082469051161839,7.570415825688648,-0.08775200364863771,-0.04032038010297269,0.025237754119597854,-0.0056767980695628575,0.4100279855860252,-0.8197616039916383,1.0857796171085268,-6.733216759639279,8.588769406223186,0.01316796649829916,0.028438071991775036,-0.004969370753957815,-0.3118230822662433,0.4504929317091731,-0.4338198006719541
2.2115081730434163,-5.931690215996793,7.375605387350185,-0.12880516937103165,0.005303871389343169,0.05627505112912076,-0.5755728203748424,-0.027280825527865753,0.17733928094268248,-0.3623890922520823,7.857843955093864,5.990885107596501,-0.04929281129192022,-0.047126972731726634,-0.0327549374153308,0.3633965595082621,0.4043481696836112,0.5221587017967542,-1.6443001706540246,-6.074638806922068,7.492067665537237,-0.04887968137638018,-0.00020053729839794582,-0.02896480532189892,0.7011463263888996,0.10118136009877883,-0.3649865132260532,1.8952099532789015,-6.117011584190585,7.568386448653489,-0.06419520048649743,-0.10976561774952714,0.0028293498481252685,-0.003867811247497718,0.41074449571501964,-0.8122142924893454,0.36956437777116397,-4.8509388569557155,7.646539767109617,-0.1791257920087462,0.12121971838800825,-0.021102575960563762,-0.3064087016544906,0.4491896462555191,-0.4270333945820291
1.7008964034533045,-5.7931103464524725,6.944067987581483,-0.16513717412033882,-0.046732519904888484,-0.01247894117656237,-0.5648627428229003,-0.03271488142650345,0.17708825042288906,-0.030200874790331424,7.935716046705391,5.8099235626079855,-0.09416331401906972,-0.06327317572666422,-0.08731557194114196,0.35926481050966336,0.4039287056616302,0.5270634987494163,-2.0356865407591362,-5.885996689748753,8.056830795220217,-0.03939988246607554,-0.0045075315297025175,-0.027564016147291943,0.7057156158372427,0.09618627707872597,-0.3705599300021466,1.695385875265852,-6.076570920060907,7.802642440982362,-0.04926395350243417,-0.05032346521479631,0.0015062646132703058,0.001164443107445635,0.4066011796868273,-0.819124949071587,-0.22010845581118227,-5.988872556567107,7.336464448064872,-0.19165630578379964,0.12863368896330205,-0.10032224201541326,-0.29766812210272736,0.44937060753545716,-0.4332086998469097
2.5584308292041262,-6.296672850545711,8.267078600893997,-0.2242861651114186,-0.06347377291499418,0.03908323559467942,-0.5667856060437826,-0.027826105448861212,0.1834410032493578,0.4120356683597159,7.131304303265216,6.535215981520686,-0.11089752423101817,-0.043288921796517665,-0.036078148318971597,0.36047759720109646,0.4071180656581115,0.5277395876887783,-1.6645325101256865,-5.332691596357048,7.620779151020426,-0.051983956133864945,-0.029775757333698923,-0.044930885745521204,0.6994416956916891,0.10023281163505846,-0.3637372970725787,2.094281544454239,-5.332910411865045,8.210843172523377,-0.06405452919630804,-0.04106218026835794,-0.014061105292550702,-0.005580406383311309,0.4102578179832792,-0.8124367799861079,0.49192820631708123,-6.69433956786427,8.099631874716252,-0.2722832968836552,0.021987615670819954,-0.04400710771318193,-0.30417632173316406,0.4520943501003547,-0.4263076477524425
2.10440879814013,-6.831761396429461,5.967903399378345,-0.08960953321075478,-0.025676690143222453,0.05490543325609572,-0.5709057394550638,-0.022677102448938107,0.1861314351440593,-0.03149669593022715,7.746278916923858,6.471709261437077,-0.035469349727472094,0.001660943954729995,-0.040017845770225074,0.3612246883054588,0.40223389838003043,0.5275729507135744,-1.4306443368653805,-5.931003753604471,7.98739010541608,-0.12913406147577022,-0.024607998839395077,-0.03382886350281846,0.7011294610364753,0.10259665989653231,-0.36818293983124323,2.4563258072394802,-5.523024229684984,8.25119314438481,-0.15716955162850738,-0.11627898212075773,0.03580269903030296,-0.003139048292609062,0.4136736422467785,-0.8127072338155364,0.5325773091946658,-6.993909880569866,6.840699642811483,-0.10753900229990666,0.06573350572746967,0.009606480370946514,-0.30389987121889644,0.45551070758819084,-0.42653975253151233
2.0017081795605933,-6.985604572059183,7.31301280541584,0.02146135461049388,-0.02296931037726824,0.007070147457822268,-0.5694973814053459,-0.03220461702575179,0.1839256544223198,-0.46297908713828295,10.731609939792602,4.603100443284965,-0.10379494344155962,0.045667611384910836,0.019360222296249643,0.36804543340993207,0.3994555092210921,0.5207586732095907,-1.7981098409925769,-4.770209846689093,8.422217519461787,-0.15162787972421546,-0.1291779487639302,0.04309926642626619,0.6996694188145183,0.1014066256498329,-0.3666878190328509,2.424410128735175,-3.633247772808143,8.111860641580817,-0.22558541288299752,-0.06609810153500814,0.10352148896666476,-0.0026107496333919507,0.4153764432273734,-0.8097806155713586,-0.17582904966520152,-6.453183522218525,7.919989841017231,0.04498720426381418,0.016543260665617024,0.001465183973195092,-0.2997803229306126,0.45278516305562,-0.42707292220569687
2.4689455363192865,-5.327427891770987,8.766111005772776,-0.04084587333287172,-0.109108299668003,0.045300106691179565,-0.566300537071949,-0.02856706440560087,0.1902762466186162,-0.45381782817767324,6.614484600962524,6.288228551274257,-0.26858900827898596,0.06775358412877622,0.15611386715924902,0.35705467215975095,0.39791828039978744,0.5183804300150315,-1.8016518540853046,-5.601563993254144,10.072554936638454,-0.362305061969847,-0.08354270764983629,0.014507747570153422,0.706520666634987,0.10429912178715278,-0.3667861317894699,2.643495092782984,-6.849993869003117,8.120510098070316,-0.4044359960992105,0.07300579739055492,0.1959756050293216,0.005490986914494903,0.41877957836094615,-0.8067060773668021,0.8069281976820026,-6.534642146813165,7.342661075144876,-0.005779730826630751,0.03807454785571381,0.024591501848294124,-0.2905373179382069,0.4478010902393369,-0.4252164460080707
1.219921755050495,-6.226935635995375,6.356519264761997,-0.24480908548409666,-0.13536988228645305,0.12772537940124548,-0.5645632650616111,-0.02344175003091137,0.18075845630138931,0.06494485398902936,5.945631337866904,7.576193015995063,-0.16940092038212085,0.033087263199004104,0.05994209305396488,0.35388074487454657,0.38403638774988264,0.5064126419552121,-2.364411110813651,-6.396147147652609,8.202669986732511,-0.624306140748209,-0.07844134961905819,-0.21352945037398996,0.6920400404902871,0.11847930076542296,-0.35493006500483765,2.1834298368812473,-7.622847675095833,8.789021317327759,-0.7084104406012482,0.23881916874249282,0.10305799529046794,0.006175385278619314,0.43413357007442005,-0.7930121580468354,-1.030245676357603,-6.064734909548958,7.429972049180377,-0.23578495261019217,-0.08589382610245311,0.07770160831083857,-0.29848513912825314,0.45224440896986806,-0.4173203916142633
2.4808790089909145,-6.968076143667873,6.773849364341439,0.107216091701001,-0.11510639722937478,0.07284653987140313,-0.5635100964560297,-0.010762744184300947,0.19200054723812507,0.2883034958041144,6.83810931672529,6.256215615442928,0.013451275065661062,-0.11958057445766104,-0.1859498899206012,0.3504150231474282,0.4016259158753989,0.5075981676748197,-1.7836942215730485,-7.473376441657088,6.148099011984905,-0.4648047453804694,-0.29879198033726456,-0.20202344438439007,0.686834958291292,0.1185911784354145,-0.36514695218678594,1.4079570060612279,-7.052867699100049,8.355152582042727,-0.5671324945080053,0.1492720526167205,0.044433744009686554,0.0070893057595712745,0.435118954575103,-0.7979056755690591,0.8299659256050921,-7.301679718831651,6.997851505924231,0.1533961498289624,-0.050684932717969144,0.12460897708040722,-0.299416939199395,0.44302800509640455,-0.43029052951902846
2.706862489924291,-6.3391020905117506,7.891659317657563,0.20820777707014793,-0.13234076713468385,0.10910757241690867,-0.5545220469276876,-0.018378896917950343,0.18637592109821202,0.2309947117355019,8.346536618495684,6.348935244628258,-0.17496255675406222,0.053063226419105415,-0.35714065152832475,0.3423536051577205,0.4100026953671812,0.5135907935050609,-1.2209096822045769,-6.303932505195622,6.668995867385596,-0.2433754347027841,-0.4460766686899639,-0.09902682044625626,0.6751545161369712,0.13394612013939283,-0.3709116189895589,2.0980377447105623,-6.452654965060405,7.483459236952928,-0.37724910084742574,-0.02650228676731972,0.045814183086807264,0.0067332557059267325,0.4558553769881865,-0.789559163551128,0.7027691023398984,-6.110306192771307,8.221736591356596,0.18789828201096212,-0.11963385388534119,0.17891678206045897,-0.29706681348076697,0.45740601788506835,-0.42927413030825384
2.4441305942553764,-6.567578091406505,7.7173962413609525,-0.01710628770670787,-0.2354119501955017,0.03221667473601143,-0.5608385936218924,-0.013219327556225091,0.19175281200853153,-0.4870348146801812,7.683744760243797,6.552026427460701,-0.34726606959092615,-0.0015540235310431954,-0.36567892260388074,0.34529273630589524,0.4006417510024579,0.508120086266103,-1.1161721052546822,-5.544996153514742,7.89977347620247,-0.2607640593586244,-0.5624640726471772,-0.16571581766977678,0.6649527740430236,0.14835431222001044,-0.3742316291125262,2.3971778323450663,-6.795674001997544,5.825361516688306,-0.3526405821543873,0.1189999475396752,-0.058955546035715185,0.0036982136719053652,0.46536090179510176,-0.7797350880222632,0.6575524577901212,-6.946050156917557,8.200001250600744,-0.01079053412650529,0.00018062109222140624,0.23785445406862948,-0.29820410117166496,0.46081176448120026,-0.4233904077764661
2.6125222508522605,-6.371784491349526,7.558407310113255,-0.14216693950265308,-0.21307473675598426,0.20293819160231272,-0.5507491521138338,-0.00010366530440761255,0.20079644616476094,-0.9228380126740576,7.706967251315807,7.12213695305352,-0.44782428080440806,-0.01743350167291574,-0.6126619135293422,0.3250539309946796,0.40045428942024874,0.5152734945258002,-2.0306197265731227,-6.715146101097455,8.64776922538372,-0.40101597144889944,-0.6115343614078552,-0.1520906654150152,0.6622312800152559,0.14853669922374552,-0.3790970844085591,2.5546921815820385,-5.9371318641856154,6.349171106610803,-0.44631094345042316,0.4990655969911742,-0.009465942807558875,0.020555696773579858,0.46924724806521323,-0.7792157363634135,0.3529145116394186,-7.035498757107113,7.570711726713519,-0.16913019916723812,-0.04083699337413181,0.1604575722950197,-0.2899620803836584,0.45584967075228466,-0.4244557420693169
1.9380433738593696,-7.954244021905602,7.406025458701569,-0.3411532499931008,-0.5596298356043841,0.2532949449684199,-0.5401854844306722,0.011317253238481612,0.19177046534734202,-0.20356201481708575,8.515528947417415,6.444857791625867,-0.4133901698635109,0.09690226075441037,-0.7934815338720251,0.31259113479797845,0.39738618422187394,0.5092631408381044,-2.4857666841655823,-6.713280271305529,9.33025209510758,-0.4026374811524352,-1.0100743612866576,-0.13688729799573512,0.6341504939427514,0.1583395413960398,-0.3863570706272323,2.2960611337855616,-7.327916847362191,7.499327282131426,-0.43671540352209065,1.0645717297603348,0.01795027653341182,0.027343253122742363,0.48142017106843304,-0.7653640435656135,1.8003989136483198,-7.620325603134667,6.527136302911579,-0.3850771307397528,0.23737845675046487,0.14647318112544352,-0.29151758445529463,0.4616778898832463,-0.4129432942043051
3.042776474420174,-6.598471734995776,7.386501331944845,-0.2169107482550828,-0.909519714444137,0.21700769127815592,-0.5301790296627952,0.010270774261575601,0.20348649431322147,0.497377563264495,9.724272867646917,7.041648711493146,-0.5325926874640065,0.0966290675752293,-0.598007986482128,0.3040410330922578,0.3851979255787739,0.49728568576322596,-1.1611758881721999,-6.413755966933663,9.572390514475856,-0.4634662328721055,-1.297357050606709,-0.1974069093152535,0.6189768085004567,0.16921201756206788,-0.3988617347617638,1.8363626518885738,-7.470460846271301,7.426228505181296,-0.5163644101430376,1.5537014653903376,-0.06192655794204664,0.05233442371513208,0.4877289327416989,-0.7593312551910716,1.0875535036513833,-6.835951006257079,8.081518072085558,-0.22239890666110845,0.5734782676264919,0.14923367686303693,-0.2802932734086953,0.46279503745737605,-0.4152289514023128
3.5129902309670693,-7.321397039458062,7.530838011105647,-0.355266828338918,-0.7986407803452479,0.28020379849948374,-0.5201180055909879,0.018999049664650575,0.20520122056384868,-0.08540650779838656,9.78396262469779,7.677735434687069,-0.4266822299165747,0.14623385607386297,-0.2178821723046382,0.2937880335438132,0.36436263239610406,0.4795965470829005,0.7514548979154382,-6.633167023140912,9.516022671570505,-0.4568549827625991,-1.2813088453385033,-0.18518566057958477,0.5967019930720906,0.17839131335370176,-0.4127500752098491,1.7038127227668802,-6.543313733047306,9.146780398581855,-0.47202926020420627,1.740361322464119,-0.05801498522805533,0.07880520649078127,0.493789751394908,-0.7520982568157569,0.015951080900470274,-7.3052080746100545,9.728879782967882,-0.40320050881797437,0.5558169939038006,0.1287906224678996,-0.2698066394985662,0.4624495696583599,-0.41629256657462493
3.0802644578210425,-7.8858256094935655,7.771627371271018,-0.25787124659912536,-0.5684587556816691,0.25155606977026296,-0.5022907985700763,0.019876331052363087,0.19909535992014468,-0.2356411003692028,9.292292691002443,8.51357170645989,-0.2549213172318682,0.1712559879740034,0.15532364839205007,0.28125024092431977,0.3475540275843735,0.4401173755805292,0.9364150429768797,-7.246049496301927,8.93245450100353,-0.45927197831169025,-0.9777158812857728,-0.13058832716307728,0.5718603994391063,0.18758107641668878,-0.41123631511662756,0.6870707391800626,-7.3480686276191385,11.088106821191568,-0.4898559254703439,1.3831575739581954,-0.0774916243581974,0.09708143507803332,0.4998429690847021,-0.7367000226888683,-0.8657116860590187,-7.405329509024558,10.012007260015094,-0.30323328118903486,0.549574307367637,0.13297277071909752,-0.2617243555039116,0.46014739463473936,-0.4105092617590053
2.997087580710958,-8.498748920661468,7.940249103488986,-0.17522540139031195,-0.28874598684386005,0.20060949201662784,-0.48617117530344556,0.021003561667881886,0.19762807266765,-0.6597850675029779,9.32139531491968,7.908039524097835,-0.06774337091676287,0.20269268618213993,0.40303341901894735,0.27267219784115454,0.30624646760642554,0.3949268475516204,1.0090873968768854,-8.221635680627877,7.9432350663718765,-0.325194988496713,-0.5828902827079716,-0.07211586393605476,0.545554330907002,0.2076500919158393,-0.417204990034823,0.4232279828600663,-7.698790331952125,11.97001533508699,-0.35316546428498186,0.6596293081342977,-0.06648370994191752,0.10181236858527701,0.5166730485109865,-0.7311140620145529,-1.6098240608449157,-7.67448776222934,9.993996754379696,-0.21956542309757002,0.4801880025557678,0.0978791305411269,-0.2570703185862734,0.4635276848242069,-0.4127305576880183
3.030135178712984,-8.088231630856932,8.452604479472136,-0.026306348646667647,-0.03783349143699537,0.13032970342391934,-0.46539532235600856,0.025783075366520365,0.17516708132463488,-1.3033774401636562,9.354065181559335,6.577128519505587,-0.38337872585294946,0.31803299095617626,0.472196230391389,0.2662756253222124,0.27056779395417163,0.35012362161390603,0.5360599897492275,-7.419502514284498,7.781333952129163,-0.11966134196844376,-0.22945505057393648,-0.009325970106289973,0.5216121523835969,0.20363812823840613,-0.41646844132336086,0.09307603715092944,-7.166895934197138,11.82076530437902,-0.12265549822306338,-0.21525464431944555,0.0015273518131353244,0.09403809805087675,0.507641441908126,-0.7273671830694676,-1.5426372184877315,-7.558994265249282,9.428803180167826,-0.06493293946713888,0.30507768992799555,0.08294475420033927,-0.254072233376785,0.4478808181566527,-0.4150172055761784
2.7047872514768376,-7.517657372530778,8.700034588449807,-0.3647895237131631,0.014751598233592015,0.18052670861586737,-0.44437159212138955,0.031297094871413744,0.15050969314336912,-1.6663562687545972,8.86894568089546,6.6876015832830555,-0.8332252772005454,0.5969565800724281,0.34076169217109065,0.26159057611466646,0.23267732690612922,0.3041300222352525,-0.4814434514691441,-6.144287443103097,8.615640897620798,-0.4514899650611776,-0.038513444443850506,-0.06979194372652942,0.5047080610526451,0.22342294870119261,-0.40614620123071915,0.06324224053667817,-7.672977312236234,10.33311812999101,-0.43205099664494717,-0.7758582115880276,-0.015775404037147688,0.079826422254717,0.5210580236347904,-0.7137255433279783,-0.9830759974864238,-7.749124108932245,8.488339228101816,-0.4017961424293726,0.16714957276259448,-0.003444244932838932,-0.24232963994090306,0.4448058365628115,-0.40853514343538394
2.4292490016934796,-8.835268666277639,8.73524742710347,-0.801852047525692,-0.19789120775433672,0.26412444852074135,-0.42155703897049446,0.05021626069222936,0.13880289323180203,-1.4491429444375055,8.475308905043443,7.954549138911916,-0.8482031670633694,0.9596139998368569,0.17144947913533828,0.2354164896416568,0.1986601786714113,0.2600990689718874,-1.3129749890621363,-6.471672863636635,9.060105467731074,-0.9754286146352551,-0.12404601813040808,-0.3396355211969698,0.4884877611130638,0.24189919851822747,-0.4011806745145952,0.0769802954971317,-9.34245485834536,8.71006619663079,-0.9520931649735931,-0.8131707178228504,-0.16097714648370562,0.07388996947720233,0.5378888662625878,-0.7023840932505563,-0.3664356471009441,-8.479338242815343,7.44400801267166,-0.8372282784632431,0.1611515185401595,-0.09574842529605772,-0.22542198008439332,0.4450950800340833,-0.40159152785048186
2.8559979614509583,-9.973003419479419,8.449844066091739,-0.831678322812642,-0.46856582872065144,0.18296624213192988,-0.39147509865084756,0.06007230886626203,0.11146152459385077,-0.8174854166285,7.651567125520808,8.903255516766043,-0.38623158810875713,1.2097043632969846,0.10507496257541388,0.21461655199358015,0.16194927233800718,0.2146301571857433,-0.924897394087038,-7.679942225262684,8.555853910716992,-1.0294317110791602,-0.22602980041578774,-0.5450119528419826,0.45746708161900407,0.2652289107118517,-0.387629639251949,0.4914262740280696,-9.40277581425428,7.146220434714746,-1.0700362697030013,-0.5734217860181773,-0.4192184800039344,0.05773917717922463,0.5530156684605073,-0.6877366115075193,-0.5595854604494348,-8.676544061596287,7.250067038908039,-0.831329835968601,0.0985664073263708,-0.18356028312571018,-0.2263672012294667,0.44165367605736466,-0.39354170271847244
3.562415439329893,-9.934783136818071,7.5364645116794176,-0.45840063955242394,-0.5608256795496389,-0.0011572871789576793,-0.369192260897754,0.07242357857890076,0.0760679691330757,-0.8077727532820845,7.883437762151349,9.194521240640766,0.23840019949843919,1.2417907538368567,0.14438372504335772,0.20651288629807835,0.11710426961105214,0.16217058968166506,0.16789532687044187,-8.765761037162466,7.829752151184701,-0.5213844505155949,-0.24839627491107943,-0.575587847113584,0.4346839026956138,0.28403820758029075,-0.37919983193151063,1.421854685444258,-8.773164477643292,6.084045255287892,-0.5662446549941837,-0.2970531555470425,-0.5165254762662362,0.04451478824968322,0.5593483800642297,-0.6726575015144095,-0.5193180696902125,-8.607838352822961,7.682432679592402,-0.42898912694805996,-0.14546469238234855,-0.209505767141265,-0.22075171083002876,0.4335001718158791,-0.3836112396296786
3.8225617761737323,-8.674858621633431,6.812078109277713,0.1327088866757802,-0.49495594109880364,-0.17948834513770678,-0.3403008885738333,0.08716812520763237,0.05166120212157365,-1.5146414431087902,8.851227924270525,10.06029685754968,0.19520985120175313,1.0551013596946277,0.22174060224130626,0.18227667083057522,0.07583496390119872,0.10750966925363512,0.9452286249960217,-9.438161577321223,7.982313201605253,0.17288870255035804,-0.22077439008130004,-0.4580615735560928,0.41438519410180225,0.28238612351039977,-0.38243497468717597,2.118990450177751,-8.1460583264571,6.493720070377723,0.12900697096918323,-0.06997756054705233,-0.4841708145202888,0.043493366853251524,0.5500776518442414,-0.6753472648129213,-0.05201339537912088,-8.395597814818828,7.587653919230597,0.1720086806419841,-0.3930117720743093,-0.1164205589396266,-0.21054595907973825,0.4117033937730251,-0.392574892019302
3.666002750185712,-7.917593241952716,7.0386731502731035,0.11739891836552838,-0.5035379571713622,-0.17029586470697247,-0.32286485021158956,0.10540135067062895,0.02384188228003368,-1.561875081722628,8.283483853435618,10.489159039990735,-0.24356977119194162,0.7193786369306258,0.19156107199360736,0.1829282121377043,0.037546717743349695,0.05124892487461837,0.9563002372653584,-9.815921427513272,8.051918206587919,0.1697636367321066,-0.16268801557899976,-0.3061231474920779,0.373640284262882,0.29424866859032084,-0.3871873885417451,2.022511717396114,-7.879615132025546,7.0033272510845475,0.14415411058470032,0.05716465927758155,-0.3214783677671205,0.022212518914637013,0.5520602395797177,-0.6784824505944508,0.1875438283771706,-8.148867149647767,7.06770697395981,0.1591801635838425,-0.5596309849511547,-0.10812020277922901,-0.2211758374833774,0.403042731940125,-0.39789474048894785
4.2065185800127916,-8.060601677835134,7.420860476105356,-0.33788100389011716,-0.5803590244252649,-0.05956733068856909,-0.3038024416745449,0.10970991877306611,-0.006432182241821793,-1.6975843324523674,8.076594732293156,9.56612212014339,-0.5874837962648431,0.4966546543583437,0.04759982302952886,0.17608330057057311,-0.01552969536036041,0.002829044394773489,1.0021238731924786,-9.956889776399027,7.608360642295702,-0.1881228238633897,-0.17960694498348787,-0.07756325666423772,0.3575411294776047,0.30281523964831586,-0.3913466396171197,2.2260548394531052,-7.0464908696013255,6.996242969583143,-0.1319640331308136,0.16458427057023084,-0.03997651719090329,0.02691318345116036,0.5569297109548493,-0.6741403346998844,0.5462452991218663,-8.251728736679281,7.216114090470272,-0.30979723828001715,-0.7733339353233751,-0.2117451720638188,-0.20926155425950915,0.3977937511673221,-0.39752636824759835
4.171282031376639,-8.502876449222967,7.445321464864013,-0.7426757529539584,-0.6538429432098658,0.006313850800533901,-0.28270804980462294,0.12743559674001717,-0.037670702889415146,-2.1441771898659066,7.702031735061591,10.061179237641076,-0.5993426579682608,0.44744191973109165,0.012914040068683397,0.1680282324264438,-0.07376438303280211,-0.04721143891510871,0.7497629112797141,-8.682740822575566,7.094957736025153,-0.4978273427737833,-0.2355563557306835,0.10511532922782367,0.3278291329784319,0.31012446801071475,-0.38683528662943967,1.6587481209788195,-7.233177541689567,6.534394695843211,-0.4397461973118453,0.262693355790429,0.23244303487593415,0.03072571550337597,0.5571475546718672,-0.6627139376970762,0.5887004223074682,-8.120059861867027,7.253171280986687,-0.7336870679701093,-1.0412265849007982,-0.32306166814904697,-0.2140752459840384,0.39388236337415783,-0.3843184994372003
3.4456482604383023,-9.176935550482492,6.429592389220804,-0.7308176057700304,-0.689924917952879,-0.10448377800536092,-0.27477199277180964,0.14938584068280536,-0.06426376934712219,-2.260670767190255,7.571865838215492,9.340200960823788,-0.4777965113832782,0.2357538124991308,0.04383367467020732,0.15920846939365263,-0.10639231685772141,-0.0842428166016342,0.7450722636525958,-9.590466078715986,6.45760095120236,-0.5807074808357877,-0.14974779643945313,0.27918892486250485,0.302675546002108,0.31410931688680743,-0.390364696021847,1.104618309049728,-8.12180215352128,5.945247719346371,-0.5584237726390407,0.27695257893454195,0.3226778847056105,0.02981599790611827,0.5561626971756096,-0.6575764528450008,0.5439254486182341,-8.256425532113736,6.7481198399796405,-0.6737303024010385,-1.2620517583913975,-0.38986026809202673,-0.22372961556832513,0.3790778510114462,-0.3823475451931047
3.6216596241605146,-7.591233760636591,6.281383784406009,-0.6726970523293081,-0.7896257659137818,-0.15369153305089303,-0.2670945717253347,0.16840038965522286,-0.08280339632424018,-1.9184230461502974,6.893173776333773,8.679921707362274,-0.28155225432151826,-0.0937151363261202,-0.03299985675495898,0.16970873374386033,-0.1556459825913295,-0.12619349651719405,0.7725936219394169,-10.176843734960933,6.7508377118339835,-0.37547037098504704,-0.02465905413747083,0.45798992769644664,0.27787873649391065,0.32749522467205355,-0.3859852901284568,1.1950518336568752,-8.288978339604945,7.167128178443187,-0.3322075642068932,0.21486856064684554,0.4786280324639122,0.026374179087770303,0.5666339420906066,-0.6416406340034158,1.2774779013383988,-7.925969554539291,6.022096927000616,-0.6102862482003062,-1.3517272660860902,-0.4013489793023257,-0.2350292498839534,0.3822950911932439,-0.3649066424943995
4.17187511621122,-6.96088271164543,6.316490309171968,-0.4642287648843471,-0.9026957285976228,-0.1647908872861619,-0.26216310646106633,0.17742074949608266,-0.10110637071882202,-1.6864055181827038,6.464288117850146,10.004520015358274,-0.10264813856261523,-0.3758878495139597,-0.21866044634181314,0.1579412178215163,-0.19134077968318555,-0.17097806790722306,0.675454595532903,-10.028887273413947,5.620301784897874,-0.1823369266963361,0.06167591216172935,0.5859035597740925,0.27805959863460594,0.32301954089252605,-0.39104466099762003,0.8241656904337632,-9.505878412105027,6.961765464577247,-0.14517703184194747,0.005669579506928221,0.6027980647072257,0.04147030462145411,0.5578328354932552,-0.6440529653515762,1.7737133025376328,-7.27193351643822,6.029082022038555,-0.41815102045678215,-1.5535314234484114,-0.31890204083747076,-0.22729982986718106,0.3721980261086533,-0.362814939627867
5.035139982972528,-7.835754104277026,6.349193251293911,-0.32843654551841195,-0.9871141945464358,-0.19413987163865473,-0.2608459000035553,0.1947735691072401,-0.13063218479211935,-1.4557586118033363,5.860931482811844,9.91590811448777,-0.17319773524298848,-0.7287848164003796,-0.5397564565764494,0.1654797718330846,-0.22440755806783103,-0.2080591741430868,0.4062580145986764,-10.660600702941272,5.77397688582561,0.04747098989605671,0.050703134074926326,0.6927238525771063,0.25231799159120116,0.3251165065307826,-0.40626083633621657,0.7284974930959257,-9.71226755068348,7.78041870973662,0.02141576801050648,-0.24451265119167104,0.5836014123429967,0.03137593994306223,0.5581004140755764,-0.65051255391757,2.511641870581873,-7.824722203187097,6.43113700486507,-0.2868983101566752,-1.801246663043656,-0.267082816488328,-0.24715576432631706,0.36630431559957244,-0.36511739683477534
5.710999331426218,-7.18852951499011,6.652288273559432,-0.49518457843156555,-0.9794575955460167,-0.14780398023317248,-0.2621903453311067,0.21554211190136596,-0.1398914023600237,-1.55953075924694,7.051112906656272,8.395350985756464,-0.4645529553996032,-0.9934728042856152,-0.8949704046566956,0.1612821531046677,-0.245707190348521,-0.24016640955378873,-0.2941180284056869,-10.268904368162284,5.152817039518513,-0.03557921981390369,-0.11688646030188082,0.7979542184120157,0.25150711579057144,0.3254446904786223,-0.4167592527754864,0.3831353625720852,-8.846025086330597,7.64971155413343,0.04978133223348674,-0.4910756267805847,0.8351834526480485,0.03375898344338816,0.5522453417235104,-0.6544614966150051,2.9881244043270416,-7.841777947653305,7.004788722460763,-0.49624535193465097,-2.1533900234864887,-0.30443801285830135,-0.25127125593196153,0.3631387940441805,-0.3570403853746981
5.490994196355224,-7.480449921564704,6.212010811490662,-0.8556039469967875,-0.9537781932264113,-0.07893747025513947,-0.26500021057682505,0.23632560087337579,-0.1562293103488468,-1.3156463663752582,7.059546242332287,7.032382236061524,-0.9283093257318517,-1.0426762745326825,-1.0021308802710958,0.17149049392600407,-0.2657144495368292,-0.2706361400817618,-0.35675251631979243,-9.223853308097606,5.516514274354624,-0.1932559663444686,-0.21694257921605026,0.9132382253833626,0.23073235521633945,0.3327546755008495,-0.4247701934854249,-0.2978300178063532,-8.400266590512096,7.1999690067480655,-0.07379427278385275,-0.7444298994062639,0.9250339614496768,0.02694039719548908,0.5529833769932648,-0.6531504777285811,3.4582293754400273,-8.175864360121372,6.291142831757904,-0.8686308109722821,-2.5466621199339547,-0.3150435467981093,-0.2722939444155687,0.36913194762262214,-0.3377990234398864
4.687919916686855,-6.847175657948921,4.817401665307396,-1.5037222370510104,-0.9647705046634701,0.0015021014273410768,-0.2595438313155999,0.2506954842738983,-0.1537766150124753,-1.204890352129031,6.038210659794642,6.884062238044462,-1.0712586162032591,-0.8922887967181957,-0.971130464349396,0.16483436050123818,-0.27496300960066133,-0.2970748679365094,-0.21496228925032868,-7.325779853717604,5.853992140482984,-0.6267482702992082,-0.13681242288929693,0.82962914671925,0.23317204875189196,0.333221749077903,-0.42528449565944487,-0.3799402317520526,-9.03535650514011,7.86323853538976,-0.5040655152904656,-1.078478824686343,0.8940623524498283,0.023560102882828254,0.5549348756196696,-0.6504161053196118,3.829039798742968,-7.377427670541183,5.0567497704864435,-1.5448492017938988,-2.7903344831332326,-0.37047956386736036,-0.2803310507681269,0.3747257173630156,-0.3125617276939249
4.1781373935510695,-7.471236031156915,3.9474701428305905,-1.7824302260740545,-0.9221363266470654,-0.08749702638634219,-0.2676687251493288,0.2807791412426758,-0.15960714376856255,-1.3502744667142432,5.399228661432872,6.9658973046166395,-0.9180894732500517,-0.7141233760310453,-0.8886786475146484,0.17967701071329797,-0.28928144975227105,-0.32399223243059033,-0.19799983808376181,-7.425410379741324,5.635286065732742,-0.8231596521278138,0.006099350175087214,0.6380260552181691,0.2146951371458706,0.3443460480458481,-0.4228721797649052,-0.26653975686679227,-9.387491411360111,7.268599087390195,-0.6985039645110285,-1.4938658618301142,0.7452463735745012,-0.0004793069498807735,0.5610460705394474,-0.6408109863954372,3.644459030741569,-6.810815335814674,4.509820843372704,-1.8250887870623271,-2.9606277093065447,-0.44013025307474957,-0.3075902717371386,0.3799909602260835,-0.2788675476066233
3.6970938797011716,-7.2447325506027624,3.5019120694520476,-1.8865790334687422,-0.780439366872694,-0.26840153655390103,-0.27852490676647346,0.30256525224086184,-0.1525055053470231,-1.5743943166735959,4.891509455073552,7.9046191984004475,-0.6913415278674491,-0.6156630133006102,-0.7780807260795719,0.17912729607248198,-0.29576942422745445,-0.34707913304594024,-0.45510339154438295,-7.317572202774206,5.955037735122176,-0.635014970948631,0.08930235102354464,0.49670640303279445,0.21794646236289564,0.3522120874860923,-0.41838141458983114,0.07966632417057691,-8.475320486754113,6.3580181250061845,-0.46323154663809374,-1.7119445392374908,0.5997154567819766,-0.012806325075998198,0.5678785273977638,-0.6318462234093,3.6183710394649893,-6.411366323021746,4.225727568753418,-1.9265072703805068,-3.177986273689943,-0.5316939896391136,-0.32032216417730286,0.3894656228093253,-0.23550881846443322
3.4439587352544954,-7.600798286362089,2.5410669792267138,-1.8829693521562354,-0.6695345142020444,-0.4719405050020181,-0.2918013368306011,0.32802826886770775,-0.14491209517679654,-1.6920647381104452,5.246676727740734,8.207225210240974,-0.7168744883723174,-0.6292836054979422,-0.6627920872071712,0.17442021617698505,-0.30478838845257716,-0.3747495138919525,-0.8161337261179834,-7.768575361214129,5.908755129146624,-0.38642237927959,0.10257915055434738,0.4472929703197327,0.210368993158807,0.35923701964131843,-0.4245360812481936,0.007963942846407751,-8.0178994908389,6.306199153476651,-0.23312101081128697,-1.7828774025880796,0.5131850557694623,-0.03820924022731536,0.5696173560908386,-0.6327295911646095,4.291936254664603,-6.732692611623613,3.723431362547909,-1.9519336189350402,-3.126186336472884,-0.6141766934835684,-0.33977425042066906,0.3929373470391543,-0.20042114876904504
3.6860576596834544,-6.9334279086855215,2.258262280531349,-2.097749555324538,-0.639172988097391,-0.6369966567764335,-0.29032472868437215,0.3294715432898315,-0.1302621041076889,-1.8866185363720434,5.384787286883123,7.682306124216888,-0.8410891100483407,-0.721444009027842,-0.6198844050384918,0.18340203588997508,-0.3099632348121601,-0.3939852515122793,-1.0586554229808196,-7.968753348315602,5.8480145526365765,-0.41062529113758234,0.14830554794079714,0.46447733942804537,0.2025255864031438,0.3654971022754114,-0.43287508657734064,0.0020381406898188764,-7.458813536084393,6.191587138286093,-0.23469260840058134,-1.8722543174499324,0.5540434128190852,-0.06609573054130587,0.5674585042994402,-0.6365191625005906,4.843526351471485,-6.798388691937027,3.66284546668899,-2.174823851299891,-2.801297443841919,-0.6902910172759307,-0.3582443984163359,0.3963962184436681,-0.16460856729793072
4.2258316525428565,-6.505316977279683,2.6788418341861164,-2.3793711090040706,-0.5948316052641734,-0.7192396651635588,-0.3089533341276842,0.3576385752743919,-0.10850518499173507,-1.997544747204897,5.119059869504321,7.22775657175043,-0.8376683450510152,-0.8350127849893083,-0.5338536459900715,0.17083326624210782,-0.306112986426701,-0.4245274116013941,-1.038333270502077,-8.351813225616667,5.324719424439566,-0.6863104780398205,0.18973662829675464,0.4180053437078674,0.2096682018382586,0.3704133503189811,-0.42836752394104183,-0.3546077421027119,-8.56915055806808,6.421419943045413,-0.49421592115882756,-1.990825879671171,0.6210545492995275,-0.07969389892921638,0.5742998356566975,-0.6314440440040194,5.019724170484105,-7.572701020979546,3.361191490196147,-2.469848941375196,-2.4787004521708114,-0.6635279829223785,-0.3620158477253936,0.39796449066711925,-0.1206242189642068
3.603762340870679,-6.829199898951477,1.4812136614801445,-2.5212696544497475,-0.5502888870420583,-0.7662160086652233,-0.3321348975935432,0.35922557675700695,-0.09189703017030686,-1.718099224431001,4.637255674129553,6.882895479427887,-0.5501173496695849,-0.8818151750992962,-0.31893150780709795,0.16421576831489706,-0.30997228047607833,-0.43518432685036756,-0.9314242453932261,-6.969600599449693,4.773755414735776,-0.5703204372402766,0.39092775279210856,0.4090058268533246,0.20136840906981449,0.38156883202914216,-0.4360472329078676,-1.002234478736524,-7.006396128947401,6.788939149023475,-0.31725159038546835,-2.3563494129005154,0.5932809659067848,-0.12194795636358544,0.5816737676923044,-0.6330724514061438,4.510473423906814,-7.163767295523648,1.7396296106833016,-2.643451631153038,-2.2916454678578893,-0.5948919492695609,-0.3823874771368343,0.4085327088844453,-0.08720862087238891
3.012219281696103,-7.428778225383396,-0.15521866542631296,-2.1075160469578536,-0.632102102135354,-0.8281444399754242,-0.34005505508169104,0.3814694673054629,-0.06917057667154797,-0.5323556770119412,4.439131017286992,6.67049575425603,-0.22873463093867463,-1.0311106982814167,-0.07473138775613336,0.15687202141952195,-0.3187605937768669,-0.4484434412953013,-0.6153451562243304,-6.440357045957172,4.780590793640475,-0.2819669568655944,0.646097564769965,0.49856034399787247,0.20605297099800066,0.38646788194196907,-0.4334736131821468,-1.0941260976763858,-6.184742857149715,7.054344463398993,0.022886239373744385,-2.8432880227053317,0.5749341612791259,-0.15723491837378542,0.5797425491087449,-0.62406734502847,4.019267002114487,-8.594841594306164,0.3323096773301555,-2.2459159088410554,-1.8886514163498052,-0.5882348252666889,-0.39013862441924657,0.4064967055370896,-0.047600724372121324
3.669225367931717,-7.372856319703158,-0.9728943126437483,-1.283814157476424,-0.8246911332374506,-0.7008722360741857,-0.34659359500092646,0.3900393637978602,-0.05475759690211236,0.4099421646493008,4.686013424926123,6.409652404772337,-0.1301210222370356,-1.0853890529943164,0.14484404429968809,0.13999506632997596,-0.32887013927663267,-0.4660426487119327,-0.34105668870567124,-6.513470733213315,4.251014322618511,-0.0270186663083416,0.9562282769499832,0.6318646832132531,0.22090970783894176,0.3846249731551374,-0.43697873966238127,-0.9901693589024372,-6.78552268197655,5.860529334000173,0.3290435469416821,-3.374697663171523,0.551142773607437,-0.1967286136617477,0.5763588538402901,-0.6191612060341263,4.599466003963197,-9.48463267595613,0.8384822968888833,-1.4046234426592714,-1.1490938966090105,-0.5339881474180274,-0.3912194350557483,0.4052110641710075,-0.029042395442881952
4.02000086392062,-6.8188965912763075,-1.1854742592873297,-0.7550766791170913,-0.8888917287147619,-0.5051243388196487,-0.3563403451421585,0.39301908906029953,-0.045963947145340585,0.6474679689994384,4.524308403039313,6.377368633982561,-0.07293958385289497,-1.171058176194434,0.5233602898697346,0.12655412194837867,-0.3351673456977503,-0.4751715856391243,0.019473708097867366,-6.96927256091549,6.2985056779992945,-0.017831571784928495,1.0144479571460396,0.5964040094733649,0.22724706218449778,0.3826377838553997,-0.43699694916182585,1.9151370815548778,-8.55508402286273,5.179146386090305,0.3767229580428182,-3.5937817703831807,0.4812222324602204,-0.24154508859194623,0.5697994214658215,-0.610284012178202,4.737687433214899,-9.462140156094256,1.731801110403902,-0.8347769371312137,-0.2929329876116369,-0.4225855737347765,-0.40073153509652126,0.4021127010614294,-0.024093910335747287
3.2215301276767687,-7.388550333341682,-1.3685150541449713,-0.19203970710995338,-0.8206259891994696,-0.23559134189633382,-0.3721664536092803,0.4001888771743079,-0.0418033232513649,0.3473899083737141,4.028019917665636,6.750014032560897,0.0670132198898963,-1.0977893555171736,0.9602135222465767,0.10923872873346714,-0.34900273353541716,-0.4817199623230312,0.10308774183782207,-6.597893416588122,5.9971229465059235,0.004816285533309959,1.045255744438198,0.5838558192829889,0.24557599995669263,0.38378588747337355,-0.4354479106776671,1.6788566882950788,-7.303237860588469,4.398056382888244,0.4786761667459523,-3.652701781480756,0.34941681248290374,-0.2838594114758401,0.5656708425563345,-0.5970405670046184,3.6733634380065086,-10.166113855853665,2.3793607701702455,-0.21005936497505687,0.4779399355600771,-0.24737089911528642,-0.39663399234317964,0.4074953541618698,-0.03704478100087468
3.1271108405343724,-8.474675723160004,-1.317877858640878,0.5680811585961294,-0.6193007538729646,-0.0781750324237676,-0.38068672302332685,0.4046400831335637,-0.04838961876708153,-0.5083308132353775,3.6721628183081974,6.779966979172632,0.09772767549975615,-0.7332082723183406,1.345329416938234,0.08700731005437252,-0.3503782670036264,-0.4869928231397643,-1.0334172214758144,-5.630474784263152,5.811606231175596,-0.12038682577451441,1.145659961054304,0.5448490122033696,0.26343460901636734,0.38472974212746347,-0.43145066401957144,1.1580116507283695,-5.573593833427526,5.355474579829691,0.4475509777953771,-3.7989687464719784,0.41873545812783497,-0.32554738353371404,0.5629854273964235,-0.5733026266533402,3.6888762958739707,-8.892861280077204,3.0131424065730346,0.6058330325955585,1.188246902341111,-0.15156019840915608,-0.3943183249894761,0.41195165397797284,-0.05779818962827832
2.6218280429253813,-9.66889888068536,-0.38232775270501584,0.8180203665242922,-0.39941098113904083,-0.11787908674150598,-0.3777861352831682,0.39999258590861225,-0.05816035759818891,-0.011121398959210195,4.064851551633889,5.851717176388804,0.25885417585609566,-0.31747222074471604,1.7135257107298623,0.06165702012663242,-0.3661177241642053,-0.48908650288361766,-2.2561363842142335,-4.8523286778842305,5.294935378560913,-0.41728217978914134,1.204568355246378,0.414113318426802,0.27892241816208446,0.39500547073705644,-0.4248941601945262,0.06743235299294947,-4.946320768029071,6.580706558423353,0.24198863782766805,-4.079336368413856,0.581549002090419,-0.3686507898202257,0.5693299092482867,-0.5465993871769904,2.885876154015513,-9.299023287164173,3.0786486563846562,0.8909146488772941,1.7587057483880086,-0.17579781384539922,-0.39253177666405653,0.42502018600052927,-0.09389316621583625
3.0519036273343896,-8.343281624071347,0.5345893885549727,1.1085582456643657,-0.0849467537745334,-0.1477841288052024,-0.37998807579064686,0.399777001196439,-0.07549410740120042,0.470536664918168,4.164456286838975,4.624605022479219,0.29533539044291923,0.12137348348473377,2.05103027777693,0.04436581161399251,-0.38231384079392683,-0.4907121336193224,-1.8842974857266372,-4.099160272434363,4.07431736536283,-0.5054878439296145,1.3830629413030762,0.31103270262059846,0.29048628031849894,0.3972959993128634,-0.4150081546882129,-1.1414290473174906,-5.356445621966168,3.3121769606132685,0.19591918185878968,-4.321889757702745,0.6283305456755162,-0.41187544175346996,0.5707727809871791,-0.5101381782503106,2.976232509607118,-9.23243412325701,4.275855473095683,1.2050944304793383,2.0681447810377653,-0.15211148373128616,-0.39504743977504303,0.4252033425435058,-0.1326913855795234
3.6776540787741183,-8.32682664410064,1.066860509295276,1.1294715554284114,0.3327680271291867,-0.10590405648828577,-0.3866461235126464,0.389086266133461,-0.08917428270507681,0.6174357899393884,4.041014972746648,4.346191084947064,0.44273030120917534,0.7525904597521689,2.3865237763756415,0.039767277068705684,-0.3952608877332493,-0.49023775656803964,-1.6764063668649225,-4.755134129880808,4.814796146072483,-0.5831806040379289,1.5706726850189154,0.09218274787847627,0.30916005604712804,0.39888472604880576,-0.40077173964104024,1.192563623814604,-6.55563408171486,0.30549558831303325,0.01626875116616587,-4.158325284439656,0.551159543530129,-0.4458097974824465,0.5675637909696887,-0.47234175973840764,3.1620482826685645,-9.243720752943798,5.534379650622635,1.1997996273076021,2.293075027943504,-0.04920631179471111,-0.38616254623955876,0.4240816221593535,-0.1789139773312078
4.1298561961931375,-8.400543622185591,1.2679145538150982,1.3724542190987823,0.8896828620565602,-0.1388952843900722,-0.3997826366979142,0.39822321114878184,-0.11870446866995503,-0.3392360567229821,5.0112328346551775,5.1600731099619,0.5746460012414959,1.3828997918809562,2.6950184361257654,0.0075718293395453376,-0.4088363256513508,-0.4930769759767286,-2.3216256757910974,-4.815983461362844,5.32740288662319,-0.6247402885939161,1.6462484012990513,-0.4038285378906595,0.33443947086270565,0.4081963071519788,-0.3901255929230494,3.6229916573447625,-6.510403260377215,-1.2957588232205768,-0.3845693573139466,-3.667353942340441,0.5593437864016751,-0.4606718220803492,0.5711668749752312,-0.4330743114064834,3.202546697068732,-8.45084642060829,5.701127004255582,1.4449941254051566,2.3376981351048265,0.01925573125074176,-0.3665503400935143,0.4213859894053536,-0.22523021740033064
4.260206018334648,-8.624525238858334,1.329310320740357,1.476924038679331,1.3804705823186263,-0.2403322002874498,-0.3903717795543639,0.38062112286197963,-0.154366094541013,-0.6864309269329228,5.518794593406582,4.249805502623771,0.6800858503942598,1.9114667216277563,3.1428668305827334,-0.0016553641637939744,-0.40936140346521943,-0.478874655696531,-4.5237514286208285,-4.293974045213819,4.923498083397423,-0.4647302386972705,1.6699502476635173,-0.7805095364663619,0.3201729197316533,0.4206245205769805,-0.3809292687178207,4.108316516317742,-5.865165138334812,-1.9760423611134548,-0.6998348242529874,-2.889610467961073,0.46793798556814853,-0.49508883287421157,0.579434329704338,-0.3957374035763306,3.851335874387865,-8.401939808181195,5.390617668783252,1.5598612192288621,2.3662454642313215,-0.022608099644670275,-0.3689168301363446,0.42185931958954276,-0.27574895431460755
4.2998922008027565,-7.15715438214878,1.1440940631478382,1.630929462888778,1.7594099753084036,-0.3247959181526211,-0.38115109011202364,0.3722968797931491,-0.1895314116807594,-1.1067598327903598,4.215265639242989,4.785163026819385,0.6139586160004377,2.240138892195178,3.441184893942839,-0.02039584124628588,-0.4212739361935684,-0.47226413705450215,-5.93374817895203,-4.838979919180089,2.64815256841564,-0.14611530387830804,2.0320577390128705,-1.0813929543211631,0.33486286637899326,0.44309817084005326,-0.35966257251574485,2.880544914150825,-6.780476232621119,-3.9568995933073565,-0.9990148159637902,-1.5916580126527986,0.2590578867048411,-0.4967928091952019,0.5991422487067644,-0.3597857642355257,4.351811073486997,-8.171426068459224,5.7159350587135735,1.7429082220791252,2.570714151469314,-0.04840030985837357,-0.3481745783931795,0.43183595453746226,-0.3188477581000853
4.836213291067547,-5.518296448064336,1.6016525219032791,1.7247629218593226,2.0795320558601404,-0.2752977199040918,-0.3673472133022433,0.3549230951662737,-0.23666973584230924,-1.432066750903108,3.092920859437213,6.915272932550239,0.36964712463925437,2.102912607690569,3.4202063841307857,-0.03820957866962396,-0.4267381291147342,-0.47455393196511003,-6.965886822386456,-5.905051045105371,0.32574985130416906,0.22419075340479805,2.4192241178434846,-1.4823076496325596,0.3325748798053211,0.4482488671597961,-0.3433646653230871,3.035562349405042,-7.723708573069167,-5.067297747019846,-1.467583552102634,0.2450083493324919,0.07829695274519342,-0.4980175832119128,0.6047253492758131,-0.34193432377140975,5.108147127674616,-8.23113883178471,5.55498796784848,1.8447906803505167,2.831633062551016,0.05903703665352121,-0.3301416949899621,0.4216067495428079,-0.36982248268338547
5.244194375607206,-4.773880035487801,2.64983718310498,1.5922563150949403,2.30917613851507,-0.07003388778950535,-0.34936762712185354,0.3416734424882248,-0.2823392360113828,-2.2218826274331214,1.9739366777724103,6.963735066047223,0.15473306283263127,1.7025637128976645,2.9990896186062117,-0.054079797561705015,-0.4329860175606204,-0.4802568802627185,-5.954380893369114,-6.2959390272457725,-0.3790134904794169,0.5702631441499407,2.476000799140136,-1.447159411741026,0.33488128041377935,0.4547363678291312,-0.33371728281285773,2.719629256281364,-7.809514309840892,-5.873488826255635,-1.5236315036674841,2.1633019989729254,-0.23262581821179082,-0.4944580293513808,0.6137708913295404,-0.35050929334967773,5.917237769406388,-8.625058361403008,4.780952838797886,1.648146753867132,2.9281609611478228,0.2541060513193099,-0.301542099071865,0.4173715934353106,-0.41988109124441814
3.5417561749941697,-4.81544271740926,2.9871438897710965,1.3126532171264174,2.118098322080736,0.21632800775543573,-0.33668559129625963,0.3409033420436424,-0.3236025291618769,-2.285099417922132,0.8155655044281107,6.818195031667607,0.10099347585589649,1.3570870010245901,2.3068969538524318,-0.06385551087253019,-0.4231536033749175,-0.47452554773482025,-3.7271897914939816,-6.484976828460981,-0.124737875327366,0.784770864960012,2.1625153705543814,-1.1445607622227665,0.3433979790242197,0.4536674410772762,-0.336696181162599,1.8955689802089122,-7.862128758633139,-5.370908732358471,-1.203093006150601,3.7737618397963617,-0.548206082725544,-0.47533815298486426,0.6077052680982977,-0.3815366526724711,5.822839574361578,-8.492065161530126,2.7892497243611856,1.3037945024010036,3.1787351890569324,0.48474103860216305,-0.2583561223004168,0.4086025548865534,-0.4720324130227427
1.9989158578862711,-5.413585573210593,2.8253506993389186,1.0492385540123987,1.5297808882944293,0.46229750628040034,-0.30648569284488214,0.32902097936744773,-0.340464293771723,-1.523342742819238,-0.5117192061044363,7.4413135587005605,0.2740872960332836,1.1160764449268714,1.637915871926443,-0.06384990944938805,-0.43080549847766014,-0.4795264699458412,-1.4622488316864712,-6.683698007589473,2.899132002419528,1.0362563773507432,1.3968465965826269,-0.9083071745353806,0.3479078590040538,0.4620881399492958,-0.3275841353399388,3.8851019451756392,-8.870363628316309,-2.6510058708417823,-1.1228597862887995,4.557414144056159,-0.8988981535682122,-0.4517208947192855,0.6143176380874114,-0.40576190997025885,5.404289081804094,-8.315705027630436,1.1967050279885,0.979151900135325,3.7108238586160276,0.6844909372354322,-0.20191229975909344,0.4157364661768074,-0.5051828419283599
2.413087096472849,-5.867537864558982,2.748805475005798,1.1401096627542766,1.05315408723282,0.5827721666484565,-0.3001588276869094,0.32632121112751816,-0.3658590026443109,-0.5153010872870477,-0.6429290307780745,8.178717149698757,0.7399241329941847,0.8545064443312718,1.0723592715965724,-0.07848068547599732,-0.4297765095432834,-0.4736335983510984,0.6158922149805995,-6.259272780949537,2.584844113223761,1.3035591899339367,0.4451974725703629,-0.6618883611529509,0.3479868177099318,0.4484702655242309,-0.33958118996455106,2.0943867974504498,-7.633727209579289,-0.7004490814570613,-0.8187128439608521,4.518482138991918,-1.2556589704304881,-0.4287933184254764,0.604599491755364,-0.44392692754081,4.0249071400039105,-7.372486061816643,2.9315844430472864,1.0088204260303413,4.175987116108228,0.8881080072086084,-0.13201402912630714,0.405175232975505,-0.54315541319781
3.451139482149279,-5.721879009348993,4.195680956637644,1.250628115422348,1.1251494212215747,0.5771087702555754,-0.2867944947763796,0.31600101828453175,-0.38027493624363434,0.7451031605336639,0.9157764749250025,7.551373905232523,0.9556306286415319,0.6721879558340935,0.680476316678085,-0.07546538440898914,-0.4407493027093253,-0.4585669126302584,2.301100349189675,-7.001401523392768,1.1465411784046744,1.5090064873510054,-0.13264089995074088,-0.2250562590505703,0.33214905873332023,0.4440210841488439,-0.364050563979586,-0.690969025774613,-7.193515105848473,-1.2780409714867957,-0.24281718384258316,4.324135647997459,-1.49094367454889,-0.423009795678845,0.5988157964894341,-0.4864977522768902,2.0340556467617628,-6.330292659634509,5.919382173712055,1.0542762094696658,4.2577096412107025,1.0088078453559421,-0.0717139638157194,0.4083691762671514,-0.5775749192777729
4.614913435769212,-5.881408141014327,4.915549438282684,1.2201446464343377,1.5253694840698588,0.5870997299778612,-0.2700391557697045,0.3017673597008219,-0.40885605637727807,1.2716071727277287,1.335750766079146,6.63671357619932,0.959633818496733,0.6026484776584001,0.3828814607413004,-0.07250188479532592,-0.4398305891761888,-0.4478487474662087,1.4556110969158136,-7.350370579075072,2.8670283597314024,1.6305897344534823,-0.4264257056072369,-0.025369078802581206,0.335819367979034,0.4208255523285732,-0.37836848183155186,0.5430751559740111,-7.403941032045505,4.701528481977934,0.09774446663552813,3.7925329169506172,-1.599647372835394,-0.39952903034023607,0.5756583495945359,-0.5185914873419017,0.813274437031094,-6.646877070636495,7.092634653882052,0.9230065620868435,3.906179961163468,1.060924660424383,0.006815419642749341,0.3915444417710659,-0.5975776148403467
4.829879437331201,-5.633860853271559,5.110979275458717,1.0664303551942156,1.9742292363192449,0.665800234685052,-0.23152821733909376,0.29154890905826014,-0.43011303670514306,0.89369296308865,1.1708727594776183,6.668620225239558,0.63778089847192,0.6515735926039166,0.009548874256984332,-0.06903328295358835,-0.44750175398487285,-0.43992035268911145,1.7998164804489531,-7.4606086671083585,2.6431184740372466,1.5566537868501344,-0.5775546541452138,-0.014480499519658331,0.32974718003761516,0.4143924826008866,-0.4014175124507083,1.1591501944493383,-6.813066027311977,4.872527937312669,0.2787368392061331,2.7799462629786302,-1.500801134813511,-0.386203800065336,0.5673921564057874,-0.5444196057071095,0.5357536655616861,-6.6164624222178485,7.127637879170514,0.6787545151980436,3.3861087734474196,1.0818418413828703,0.0702528836196916,0.3941135777894981,-0.6061453892475627
4.4888638326414085,-6.260960760501691,5.620486160813582,0.5656402832933274,2.311786634405997,0.8297694346477446,-0.1970970842760649,0.2933153397515451,-0.4486735002931524,-0.34324959117981524,1.2837507377406552,7.570478705728075,0.4607786628679133,0.6876664749184747,-0.42636683025870653,-0.048502632651414204,-0.448815969986749,-0.4345970863544021,1.9806817318842165,-7.4735206566040935,2.653840378183486,1.2461892839524753,-0.7596145493526205,-0.2860641818103616,0.31271794975994793,0.4008303000539675,-0.41572397178606524,2.9063976342789406,-7.557478765229265,1.7002460607272385,0.08989282678133215,2.1027559464277754,-1.212859447060495,-0.37934296815123386,0.5552077454637765,-0.56015958631201,0.1613282122924911,-6.7961631272786835,6.648029433100391,0.12337925716192184,2.8025046662431117,0.9574927978579033,0.1229815164619597,0.3930934646009583,-0.6060937300968654
3.5778574138608694,-6.462668792982413,5.70339641915605,0.0561802740688436,2.583404134974015,0.9756186225788804,-0.15315236982898048,0.29380484269198776,-0.4674800446869401,-0.3668781987370112,2.8974250492606815,8.156912512270022,0.6226741490743267,0.581465019721033,-0.6236001874930619,-0.04627117842507894,-0.4503765180051995,-0.42603263558871485,1.160907776784794,-6.7643719723485445,2.8260139742145722,0.9972295972309667,-1.0186889883967531,-0.3990261781033458,0.30492638853840937,0.38714060055771676,-0.43498490817123003,3.033500918512148,-6.023564004587272,2.218174411581626,-0.022516224736945558,1.779832269450131,-1.0840085906954755,-0.3629631244961095,0.5410600364115887,-0.5760282875634773,-1.2865780119075323,-6.288148143372973,6.770061577468634,-0.4205705523414337,2.166584632086569,0.7858278235806676,0.1723553390488066,0.3962473311613518,-0.603557090019558
3.7329210593124342,-6.564470208094689,5.872842088904231,0.11011814220096364,2.982408738876487,0.9141642314909115,-0.10941676957063538,0.2996537631612263,-0.4706577627969629,0.0988507995332268,3.6228036447506464,8.24174394491858,0.5277363790844221,0.5071100945482356,-0.8101656655105439,-0.027658013945409374,-0.45276366147316466,-0.41140569208994804,-0.2420558289543012,-7.441964285503562,4.018071826472084,0.8388753133830633,-1.161669454156913,-0.21922168874052303,0.27965444163967035,0.38170883384292137,-0.4474008894978655,3.2988922760639685,-4.956901765356584,3.9968483083454975,0.129497842355624,1.484686347857709,-0.8642488761654105,-0.35883669361255427,0.5303510815166655,-0.5956358729125646,-1.390735074830069,-5.788712447090941,6.813443308411894,-0.3473926223521879,1.386423039068692,0.7913247821304487,0.19561058013971228,0.4013797975332585,-0.6025057662135407
3.4780241766159152,-5.97219405320455,6.744766417662839,-0.04171680919780425,3.3149671798099467,0.8705826375820066,-0.05301674234656439,0.30055162610924985,-0.4814104830225902,-0.43724711924560267,4.129995274944963,8.617274206584453,0.4056394569794912,0.3393063483995559,-1.0371532608477603,-0.009539535898029134,-0.45518365321947,-0.3987307904258555,0.3006913504310081,-7.764004918108634,6.416333741480871,0.4686053632336174,-1.3844139300687346,-0.2302340453046228,0.2639616477860502,0.3703049707433054,-0.4480783158577002,6.89539653790879,-6.233008873686239,3.555928718453461,0.025841676183335674,1.3323527914169155,-0.47149873077834314,-0.3424688874487757,0.5269130319052144,-0.5946372191917121,-0.7926956610246536,-5.628806680087226,6.626454637933629,-0.43141505831513,0.4447339731979233,0.7207135129498695,0.21672870917494255,0.4062589612808491,-0.5938696181615698
2.572069721402724,-6.3014094310258235,6.503306856735204,-0.4285136986600715,3.462003463353211,0.896633685528285,-0.006108976366015049,0.30564208408755233,-0.47702152172347223,-0.8951016985793414,3.992482939023823,8.02054494675749,0.40523341614517217,0.2745410115569488,-1.3076412631630288,0.008833962263749644,-0.45432516163613623,-0.37976219399648165,-0.40893084642221383,-6.93761918454396,6.669575127253384,0.21075400288188972,-1.7560284545558313,-0.08828419856644454,0.24730124142455506,0.36737791305875545,-0.4535191542288676,6.172528576414158,-5.1667034860808645,4.256905441092913,-0.012272371058564133,1.4183343955242307,-0.2913604423914064,-0.322790984024559,0.5217778689806823,-0.601741997060563,0.09840196552896793,-5.697282272688775,5.7068761387301254,-0.7847452572124041,-0.4473878795775065,0.6142154775278625,0.22247499642158897,0.4149697122828686,-0.5887534569190124
1.6327068712255128,-6.92755273115087,7.454639952895251,-0.5097829285175252,3.575344507531691,0.7847492578544204,0.05228167194430892,0.3123738294832658,-0.47263244211296707,-0.7744345886202862,5.039527883204953,8.043868812214576,0.16007103538869907,0.4581850150068726,-1.8594405810565018,0.03444285442370657,-0.4471894464157095,-0.38118931579670307,-0.6289474465468503,-6.676780857651029,5.585808760280645,-0.021038340643002213,-2.101284524372759,0.09882512401478699,0.22428118645012932,0.3574567712176952,-0.4556270386051981,5.3895855607013905,-4.043768511362843,4.433357873308042,0.011243813090104736,1.5195483890573251,-0.014120887276757256,-0.3040211771116736,0.5171218449647855,-0.6037064796429211,0.20641893275983814,-5.4664832963657455,5.783396808222014,-0.7919316237703404,-1.3150231879051435,0.5835950522385066,0.21354188138651872,0.421389919507088,-0.584259250540987
0.11931970763435272,-7.090749825863752,8.113215775174492,-0.8917258253500735,3.471938369704308,0.621307006659127,0.10776632671685721,0.32252860726132637,-0.45456871234723656,-0.44659257257097945,5.686858041573239,9.124662327512302,-0.018320878108875012,0.6046125235867785,-2.4564311442815465,0.07032187176939408,-0.4431600751097596,-0.38040179424992354,-1.357970296472557,-6.609489310467712,6.552442551712476,-0.6487309282982888,-2.629784370779863,0.028474625848269285,0.19257096426835743,0.3707226714948371,-0.46120360179587294,5.221412028057198,-4.397302499967851,6.423954073503101,-0.4841929014735607,1.6582466056574807,0.45455790830108556,-0.27680406048541456,0.529075532868362,-0.6145394670912891,1.1499902172712697,-5.2375372655859875,4.169036991566929,-1.0597076344056249,-2.1070610522816793,0.46775117100126573,0.1902785381431691,0.44264053759840055,-0.5888621844835152
-0.5010254527563645,-7.0939720291713275,7.390600266049715,-1.191901217790034,2.9145004233609937,0.42680335106606493,0.14006618694679063,0.3340385713362826,-0.4335690394421653,-0.12805775243001702,4.312338475546098,9.718418604639817,-0.04384366007376178,0.7247362668019814,-3.1474105091910496,0.10617275360059036,-0.4179667585180427,-0.3697105033533514,-1.3049197932823688,-6.950325158443388,7.231162251184923,-1.0988097915484998,-3.2100066480033216,0.040892479890825215,0.15860714214765637,0.36891605071185946,-0.4633540848346088,4.4418577215760155,-6.229756310051853,6.633107009600754,-0.8967669738798312,1.8649177843839049,0.6942686689647151,-0.24045197426998305,0.5383178708281281,-0.6174398732392801,1.7990509733190625,-5.144659526718716,1.8080340524489849,-1.2727882758044398,-2.498421702911959,0.38702407785209997,0.16304364432520238,0.4539027948365143,-0.589080756271802
-0.057202019050862446,-7.575413569322476,8.144091832008982,-1.3401607634600508,2.1525016303472513,0.1603983136806579,0.17409437503059536,0.34895452796301235,-0.4115896831357871,-0.8159310333107523,4.168094904463183,10.834092461865854,0.4005763161224518,0.7164425051760253,-4.005871231141594,0.1550229417250983,-0.40334254915561957,-0.3508303769309941,-1.0885771916958924,-7.637271627901289,5.8984538381105835,-1.329616094856551,-3.840840783547449,0.07708500751138407,0.1116900223321871,0.3944486382352839,-0.45484176214455696,2.814828472588904,-7.852958768574509,4.547401662372761,-1.1539545434216678,2.361728666437685,0.6964156363860344,-0.20595925856498182,0.5683048831456563,-0.6149042802982957,2.189004815069066,-5.01265735799197,1.6534531751780597,-1.4217063202107554,-2.7394693681824727,0.29541120276440935,0.12068640162223628,0.4838381128928405,-0.5805512616520364
0.3981820075214337,-7.455916849283659,8.397913467571765,-1.1670781843070106,1.3849034007208436,-0.07946731678176636,0.1947439259810885,0.3722552450478704,-0.39375112319182315,-1.9120265252835513,6.352339774163893,10.879018832485379,1.4115878399569435,0.09535911371551012,-4.563163641729396,0.2066085020352705,-0.39986684620635593,-0.3273791974831695,-1.4018340352064773,-9.072233102097183,5.238461646917139,-1.1327673784362118,-4.591621686865981,0.23518270560302273,0.06325814814064533,0.40636373691693767,-0.4431748284128037,-0.8392874199986374,-8.716948145467326,5.770749007725059,-1.0054423960738479,2.9633072404784637,0.5554848942493302,-0.16167059879245319,0.5806948183509113,-0.6086249380427093,2.5590439139642975,-6.0706938840842275,1.4133403203109483,-1.2773216159671166,-3.0677688023256855,0.15123088695561643,0.08116714764256891,0.5027495003009662,-0.5698937305969406
1.0648209937483772,-6.2415513368016455,7.593924423799022,-0.3515584250794101,0.6908981516247673,-0.052672415467346925,0.20320936736479334,0.3585276391693818,-0.3876610850947384,-3.70930893505125,8.182445851242116,9.90165002674674,2.1704797471543604,-0.9377608641689564,-4.5673262571652185,0.24644879400770947,-0.38391944355955077,-0.30067603904879164,-0.3371893919001789,-12.657168520177523,4.976179027656268,-0.5411121764993934,-4.993636622875474,0.6617919741103836,0.01859104145623745,0.39768869346183666,-0.43536759135377745,-3.4582400424474273,-8.14687534581385,7.893775249392566,-0.5227602536304733,3.119688646875652,0.5760632126818752,-0.11017929336463383,0.5757579812200542,-0.6102873214167878,3.548549760105073,-7.056662843386003,1.5154157245599629,-0.46639125491599365,-3.375607058293676,-0.012382320937515737,0.038659634523951644,0.4977937040635491,-0.5666350016846525
1.20894599181204,-4.626284221280006,6.58999732462421,0.45383685976762767,0.3761876387655531,0.14684370507194516,0.20616746863929228,0.3636464031063847,-0.39791113083156554,-6.41998764276878,10.427002682892507,9.54805349039581,1.8326651338734226,-1.807920296910455,-4.0690026137949245,0.2659880289302294,-0.3719290398289284,-0.28800082070671745,0.9121440514873072,-13.973256631335698,3.4257461022390863,0.5446508464094101,-4.842515020668567,1.0492919508024536,-0.021446883799391418,0.39742188850301335,-0.43480852307653056,-4.404135769107973,-9.226630340444569,10.847229172195378,0.45103740968933714,2.381806707348965,1.010945808606581,-0.06406525900335613,0.5801062934250548,-0.6130812836382115,4.408251521280959,-6.044841173084666,2.5767445634999455,0.40083945104657404,-3.817056103271281,-0.08057633968569342,-0.018496449112346998,0.4974022012075811,-0.5688532430768831
-0.7378413705195945,-4.787485709050601,5.890565851638197,0.38107430544540327,0.4937383761299671,0.19583435998273271,0.21396394162649005,0.3606621019294903,-0.3886383788967038,-8.657122235519028,10.718962712984466,10.409054878814493,0.2365187174545177,-2.275792146496484,-3.6345678850772067,0.2861696996520394,-0.3472460726514796,-0.2904323155542181,1.4557306480790695,-12.964920620191496,3.685861995332118,1.6267548396072642,-4.1110060024209645,1.3578678635965102,-0.05848849743954892,0.37287216605518453,-0.4402419183932611,-4.30607068380244,-8.34682998369034,17.583305503273667,1.3519811387811251,0.3868155085944715,1.59681237757881,-0.05176465906321803,0.5600927574363783,-0.6230482811471217,4.077043854760349,-4.617562772821331,3.255885177748357,0.32762778988223273,-4.531469475200083,0.03465051660170422,-0.08975731336885545,0.4895196396868921,-0.5551160362542416
-3.483180804613581,-5.097044503701398,5.964756517822405,-0.7296100827409329,0.43490272008838476,-0.2097984671643078,0.21033856976131662,0.36653489562231006,-0.37886639992206483,-8.638607265262976,9.3888417750361,9.239477807652534,-1.0034579533628292,-2.3105478798575567,-3.4977888767233556,0.2986382785215639,-0.30817238453463053,-0.32188905899535736,0.7222602852478661,-10.672073171202262,5.091443037831566,0.8936504501674809,-3.0642865039025464,1.6838913533138553,-0.07827873424131354,0.36111331168995214,-0.4338009189096921,-4.875204831243485,-10.479226839423367,14.093075670820019,0.46056467681874635,-2.0628725658576803,1.812014975403237,-0.0539465299642694,0.5542328447719241,-0.6213218313401151,2.1246829203259363,-2.023842741681918,3.454503532606483,-0.8314668329509671,-4.997616573197755,0.3463802321446888,-0.15162425483700623,0.4968220230158617,-0.5162459181287046
-3.7054024925307525,-6.14466232242226,5.2784878238003134,-1.7809917957037373,-0.009422426557299954,-0.9796731566694827,0.20728150279408702,0.38557647873483625,-0.35663279393638103,-7.019434976894247,7.61928321261254,7.761621261161896,-1.369551679018542,-2.126224275686456,-3.4331622407912934,0.3104168484349342,-0.27533874572925315,-0.3466470664190954,1.3685351228890208,-9.883906544620869,7.6194175785817695,-0.04463707815923529,-2.18384208641873,1.8150343068726535,-0.0891947604755129,0.3688008313130806,-0.4299294796039189,-4.6782051725316505,-10.407952331970268,10.698542787513578,-0.40325251000559675,-3.5628703633776633,1.7628499074374717,-0.08323175635788206,0.5654949887739756,-0.621159743240902,1.7705387848495169,-2.334660873727182,3.1910795936837784,-2.094014553035296,-5.014294452029066,0.655363612651718,-0.21215527130367856,0.5287154087456875,-0.46385616308823907
-1.8405497549278804,-6.966455026851938,4.5152582351592345,-2.0890451234557506,-0.43270129829540144,-1.676595832703941,0.17963654280160543,0.4164789202149726,-0.33169659431452936,-5.907717355140414,6.154461726672633,6.870107350846526,-1.0972725339560228,-1.8103207014714875,-3.3520840349883105,0.3194575261887282,-0.23607585074706758,-0.38078059519023066,2.4139699010016966,-9.41621910146558,8.63239651652538,-0.5122258558102284,-1.660778893606512,1.7454742496778948,-0.09296812536242938,0.3722278648051387,-0.4150583760848623,-3.3190024886696263,-11.112243435962654,7.776897632394213,-0.7353505941449727,-4.127866969816796,1.643534593033911,-0.11423038238310146,0.5730613684167306,-0.6024256852541684,3.019669267680252,-3.1254506311320074,1.5714294246745355,-2.733164793521297,-4.890282048441669,0.6624124330610387,-0.25418306813847885,0.5561554414506196,-0.3828276585274056
-0.33175667895013916,-7.092168872909164,3.352143622729691,-2.0558706321168607,-0.7926800045498001,-2.2567537116281313,0.1305141688911033,0.4487344311919346,-0.3116388053284048,-5.9415087264187605,5.3069387796195,7.840903834253065,-0.9410322225087554,-1.522918960558367,-3.2710552826532995,0.33932811050479744,-0.20304808812192007,-0.3953140545139737,3.22408880850364,-10.35890170635125,8.405524676345003,0.3422338792837038,-1.4646162010070451,1.4698298006637087,-0.10184162215372125,0.37041449598079157,-0.4247286762974627,-1.0241324431906722,-12.525800179591513,5.583406579470862,0.20223556819484742,-3.978303169314994,1.50829359007495,-0.15015209675069477,0.5745708628214373,-0.6048816031141954,3.3713387819788814,-5.45030085194774,0.4128440608618356,-3.1225781809030875,-4.638441648219007,0.6081337395567757,-0.2923373696444557,0.5840634147183934,-0.3064672266488716
0.6730073530362956,-6.873275444873033,2.971295413935224,-2.2984753752783744,-1.0709561005508743,-2.7529164208747425,0.10158561312540815,0.4686486963419707,-0.27597013330595443,-6.629867205589917,4.488011330917138,7.768175555839397,-1.1201705273438112,-1.3216552976041291,-3.236572652778743,0.35232636548501944,-0.1687257593977035,-0.41887973787805105,2.7132444956131647,-8.717384444913263,7.939662312075694,1.410189292932367,-1.3677823519645427,1.230174496764282,-0.09949920516865393,0.35184877674800613,-0.42445727615478324,-0.12520474975409038,-11.817147603543603,4.589385631108882,1.3949538188819788,-3.514812479458644,1.38366573211248,-0.16432871077190422,0.5584732236615632,-0.6047266922619716,3.605229630774668,-6.800979174266663,0.349232709388009,-3.5843200039074623,-4.089022719880527,0.8483623879420028,-0.29206131426446263,0.6041723576533151,-0.208725915544164
1.0613715281997333,-6.830511619621368,2.1745858997881493,-2.7622703491716964,-1.293808931188163,-3.327043598177159,0.02970340532004878,0.4915078362160076,-0.24639406846888823,-6.271124929904562,3.3993812330477655,5.873808931969031,-0.7989616459620601,-1.0127769711321748,-3.0402890079293337,0.3478168815014194,-0.13957154482630904,-0.4269176189997611,3.710241863104387,-7.084795794474864,7.923246723773592,1.1774103816882258,-1.140930610855472,1.1053047664018942,-0.09890863046398338,0.3402086400201783,-0.4347798924644054,1.44353240746466,-10.503045822306893,5.21624775162482,1.2225241440762007,-3.1302399461815598,1.1546410606855355,-0.18808494111941707,0.5445918541259268,-0.6090811842519768,2.4762145590357316,-6.156383443768222,-2.147995684638357,-4.203844224094313,-3.5266575308243904,1.2265396129446864,-0.28112105919030006,0.6168507637577746,-0.11159105748299902
1.888521573414092,-6.8725345503540165,0.9978030596810532,-3.269050916536423,-1.3947770827643027,-3.8909723537844463,-0.037271520797899305,0.517241563857927,-0.18703143094201521,-4.031690124235458,2.661609025519276,5.141474436292143,0.5896477103270963,-0.6810124663336714,-2.6698344069820403,0.3557642798051162,-0.11456171444290932,-0.43688173177491435,5.238592221811388,-3.8997370226396932,7.696269471851706,-1.1339915326666499,-0.8518144835831681,0.7085314897668861,-0.1152895831350404,0.348951718623429,-0.412080632671937,3.3738568179037207,-10.203934957144691,6.456247867398611,-1.0298227670818108,-3.0349991088843784,0.7480236652486265,-0.226732460238727,0.5550730712294855,-0.578033033728143,2.219726605557567,-9.009342102361085,-1.6382203579045207,-4.810733438225984,-3.0844067127087667,1.6843500253226742,-0.2662426395195129,0.618923624614025,0.0023141562869182742
