# sampling frequency: 40
# units are seconds/meters/radians/a.u.
seg1_acc_x,seg1_acc_y,seg1_acc_z,seg1_gyr_x,seg1_gyr_y,seg1_gyr_z,seg1_mag_x,seg1_mag_y,seg1_mag_z,seg2_acc_x,seg2_acc_y,seg2_acc_z,seg2_gyr_x,seg2_gyr_y,seg2_gyr_z,seg2_mag_x,seg2_mag_y,seg2_mag_z,seg3_acc_x,seg3_acc_y,seg3_acc_z,seg3_gyr_x,seg3_gyr_y,seg3_gyr_z,seg3_mag_x,seg3_mag_y,seg3_mag_z,seg4_acc_x,seg4_acc_y,seg4_acc_z,seg4_gyr_x,seg4_gyr_y,seg4_gyr_z,seg4_mag_x,seg4_mag_y,seg4_mag_z,seg5_acc_x,seg5_acc_y,seg5_acc_z,seg5_gyr_x,seg5_gyr_y,seg5_gyr_z,seg5_mag_x,seg5_mag_y,seg5_mag_z
2.470758863454805,-9.401482664925183,-0.038019427399783624,-0.12393290501736437,-0.13048320102175473,-0.3644363285034483,-0.36272716052640885,0.8139763760294214,0.050918001683676085,-5.769648202895637,0.33265115390208466,7.052236729392793,0.04566546337743042,0.19905495612103144,0.1027542818143303,0.4984323787064775,-0.1269346773722544,-0.8639417745898182,-0.597083058388123,-7.898554097627884,3.8409614073298948,0.23720605190793217,0.12294101045775016,-0.03763202989314758,-0.07453132111464825,0.9281703143800115,-0.36729724007895254,-3.4394973168435787,-8.497629233693296,1.0896918710056964,0.13031150199240712,0.016470395892009455,0.20518992742491857,0.2267202953428187,1.0817946619133152,-0.37783870066540354,1.4691120654829917,-9.322130901345808,1.526934819303,0.07431533883841139,-0.37027618450074,-0.3708709595221848,-0.2419837878503553,0.8656035054899709,-0.21696591763470185
2.212127410799446,-9.217919876468748,-0.12873348373328172,-0.10134820589574851,-0.050841437200148484,-0.37198043706374706,-0.37545618646560713,0.8081428841338635,0.05967614583319076,-6.022653962851522,0.6829769438749644,7.822908175615515,0.033780851912493005,0.21772936316892016,0.07472757059561536,0.49726439753185586,-0.13440966835393234,-0.8579527168342475,-0.3511965827802828,-8.301697709137844,4.478086864498937,0.0900289746012951,0.15463375117551081,-0.020789737820125956,-0.07941600834259183,0.9238256375388226,-0.3642958690870887,-4.1070836016684185,-9.458811271304016,1.2707974377513658,0.05193961403563485,0.005579835194961001,0.08649981013289194,0.22354218144465132,1.0769349221636317,-0.38032042740612654,1.4955017980289131,-9.344293553239968,1.4987223149977627,0.09004004280698626,-0.42471973730391593,-0.36383756515897137,-0.2554381665413619,0.8582845353787368,-0.2089484504816761
2.2767907826276166,-9.451614685474306,-0.1647814161104355,-0.09308576086572103,-0.012949418319636965,-0.36249350287588994,-0.38355392822698386,0.797903796980798,0.06624012242044232,-6.158728111862239,1.0339531583058414,7.874551612176034,-0.07886277347694645,0.1462371335519649,0.09219823004281923,0.5016971177282855,-0.13917164686125869,-0.8522647711281137,0.043879002768449096,-8.769749161079584,4.497005367149893,-0.13686765705508117,0.13322208628407645,0.03977923155832427,-0.07693374085116506,0.9224565155460352,-0.35477101302151637,-3.9003362180122876,-9.828321816073311,1.1886005940306619,-0.09317890155427178,0.10977823532161601,-0.09775853957486899,0.2203362192948514,1.0739552987333074,-0.371559756889122,1.7755936462575894,-9.766041401981738,1.300016504711469,0.0756867236645323,-0.4324744213764293,-0.33727818215540045,-0.2625384492196318,0.8526754166031485,-0.20531683356217553
2.512068199172563,-9.632829749404655,-0.26849071435632726,-0.13762999792634245,-0.0029430132550842102,-0.2915742519184013,-0.39211932200999994,0.789630107586359,0.06426074672436599,-5.994009693162571,0.5450731142482548,7.354269292574134,-0.07943814424888315,0.10718686682635108,0.09656586786356612,0.5004912337194289,-0.14211611375242472,-0.8527004814493256,-0.41991845200374667,-9.355521432519705,4.166620677518678,-0.1603101688547285,0.13111096010360263,-0.00137929310879072,-0.07352222881648628,0.9219453489663285,-0.35575779484392317,-3.7916355386972858,-9.504227107121539,1.1783681606971965,-0.06541640280520665,0.1915905866620764,-0.13577998544891784,0.21886647956480623,1.0724915433611204,-0.37108546759310046,1.9784337091538675,-10.261021236168919,1.318351297736354,-0.0025728875564448783,-0.4181335181569444,-0.3417739708949735,-0.27282781038944304,0.8429375442699929,-0.20366068074907273
2.698845108783868,-9.7273757452472,-0.2639803272119398,-0.04892047528105312,0.022590719739114216,-0.2446593920718039,-0.3911427326872203,0.7986423353444336,0.07819016685340303,-6.098452948905712,0.253132290098424,7.357562812953672,0.09005708893213239,0.13585436095800624,0.05649103202953326,0.5107223184200689,-0.13433184581238078,-0.8433293714571244,-0.8360588891006574,-9.302606295913197,4.226866304245491,0.018983429514574157,0.14737371407566915,-0.11722174090333287,-0.06954993857453845,0.9291045818216823,-0.34730992196629606,-4.121698545261072,-8.885495843817559,1.2671858017227078,0.11158077241510773,0.18066918202677942,-0.021237677039223923,0.2271481915415377,1.0799579006938875,-0.3583178912798804,2.0799958165703036,-10.459418536574354,1.2803998268825378,0.05246131309408659,-0.4406917944733763,-0.2635434849551013,-0.27474692237512505,0.8521533049889551,-0.19091527837969866
2.684197612308474,-9.826130683760852,-0.14486294684631973,0.05032747109991686,0.06310686456746196,-0.1720728449063101,-0.39651460617640727,0.7906176378728104,0.06596295001124747,-6.127296987035988,0.6070535737970437,7.592422111484644,0.1978138696049489,0.1387898078437547,0.00936238754858653,0.5144490163946511,-0.14704633977388695,-0.8455632019137769,-0.5661242452915602,-8.906860566104944,4.313915962884625,0.14291644595216355,0.14676229392462045,-0.16587580028257776,-0.073518121531187,0.925344328436754,-0.3575043132921035,-4.049697256839508,-8.817339583858788,1.163500414887981,0.20758574155143558,0.16314493156422016,0.06970417854366066,0.22718424014858443,1.0749386956930274,-0.37495176069313696,1.9420285247112121,-10.857595128847453,1.3981033934208953,0.12868424158664743,-0.47885159217139295,-0.17883718169103244,-0.2811171958031755,0.8461283187787149,-0.20120214348128754
2.7040230281353166,-9.674003978873172,0.22807706608512884,0.13695435994745217,0.0968116882335413,-0.07097516339364997,-0.3989574008874149,0.7889179167805784,0.06424727369897433,-6.272420667228045,1.1567324326125725,7.665738583779563,0.19681349979191118,0.09622296309234481,-0.022269702251907705,0.5108275206956872,-0.15361993973249102,-0.8432471558247221,-0.08406782522915307,-8.790704902950006,4.410620070339543,0.1389371530712954,0.1434630513469309,-0.15201247742758256,-0.07966967742411914,0.9172671864975528,-0.361292325856778,-3.8744953697623017,-8.700560003500927,1.0738306816050733,0.192916743204117,0.23202460958456142,0.0727037994031167,0.2264377116547391,1.069323934827203,-0.3747463206106668,1.9267518450713137,-10.508318290759314,1.5828653480661385,0.16212420681837267,-0.5364563105861158,-0.09673415654176347,-0.28919878689605677,0.8390564403829924,-0.19733347363706757
2.7391207459614217,-9.67173670607328,0.4682050367163112,0.11968085896532853,0.1064571841072628,-0.023313357100029544,-0.403078413783159,0.7972343534204047,0.06156439626441506,-6.632024079115611,1.116904538568291,7.535513900190701,0.18439466353246342,0.053329383750233064,-0.0655804934151154,0.5095694923223829,-0.14576509410216199,-0.8404476068011003,-0.19341818713241835,-8.8915762762101,4.498996022601724,0.17957064702097708,0.1539426945648782,-0.1276744731243183,-0.08405538410732472,0.92408117338362,-0.36476450321477566,-3.9532681245646906,-8.394536714447222,1.4976965619335019,0.18928955072984516,0.31086334786207154,0.1180508502065024,0.22621805182530447,1.075693515650334,-0.3781237247465286,1.9689123585284158,-10.290596598005568,1.6643855201125497,0.09999498042776814,-0.5796357533936262,-0.012613102078936185,-0.29648912178338416,0.8485875442453215,-0.1941074139048073
2.5876499498078904,-9.604468974318294,0.38078618870768904,0.15984529011755672,0.14108895900911655,-0.008503020460869214,-0.3996586216676543,0.7925961496651225,0.053264689473737574,-6.458860656334573,0.8477412603937022,7.234851402264765,0.2553561582517688,0.04541405051119268,-0.12181290949264971,0.5184181325854796,-0.1577280695543604,-0.8431923424576618,-0.45458402928981145,-8.769101569480958,4.3279692984828575,0.28532770412688324,0.20985766830685082,-0.14279864188602626,-0.07949668570005698,0.9168612409866848,-0.37593874368181673,-3.946621118502494,-8.291324575125381,1.7418402634128123,0.2397648418447115,0.26764991316288134,0.20801006266063807,0.24136182801263442,1.0676598386805092,-0.3869214803201146,1.8025152412480219,-9.932253708338715,1.867653405837238,0.15263105954032163,-0.6250711794500687,0.06403181933616187,-0.28942680375235535,0.8434429257011502,-0.1956005579245101
2.454539819506391,-9.223179013678893,0.30823099855755826,0.14720660309376993,0.19679632392404828,0.03679353700820781,-0.40111435124302136,0.7899263412403541,0.04398055896095192,-6.168382923249125,0.6760275440829568,7.203660337561991,0.3035290696019165,0.029059324587642023,-0.17180733790238698,0.5152759158233672,-0.1633511602880559,-0.8426016255876416,-0.57710842248679,-8.472403014796205,4.355677507170722,0.36923929816003054,0.24042189075323836,-0.16015565208548208,-0.0856860904106295,0.9108745666715622,-0.38951626458857275,-4.218401181040256,-8.3593123723426,1.678114719911632,0.29294740174819006,0.20083597138273013,0.27713946805307205,0.24406260018236983,1.0652576291093836,-0.39400946867109093,1.699061264287805,-9.896421956771846,1.9428722086246064,0.11784579805997968,-0.6187313172465067,0.09131327406247884,-0.29528409289781726,0.8441908686474109,-0.1946203818099306
2.4055321861785854,-9.247225227246673,0.15799469799521063,0.16557223795161582,0.25759395143858893,0.11461665755005868,-0.394746892836918,0.796987916901736,0.044001334550561905,-6.060671007331955,1.0468623029518271,7.478694824043449,0.2809041160963211,-0.04662806127744624,-0.19157795197425842,0.5213851306164966,-0.16199451861634653,-0.8365327836070007,-0.1101774094329466,-8.52246237098092,4.519191429516447,0.36161694294129454,0.22562332736409194,-0.13808785961462486,-0.07884436785833768,0.9118309313387889,-0.38907150044799726,-4.167461822378373,-8.659609766262633,1.8364305500896425,0.2689135834374498,0.17246329429740612,0.27759030440726135,0.2601661112396744,1.063256469350867,-0.39226707082669354,1.8537093074773958,-10.130691360416487,1.842227663414174,0.10580729827840236,-0.5790447442803756,0.16311363375665386,-0.29161315171214097,0.8465812969183775,-0.18777131877235614
2.4700362258302913,-9.285547493517598,0.18381092222478276,0.14893131003565674,0.2925606707429326,0.19872528593137925,-0.39521671201536046,0.7955410390992077,0.031791580107326016,-6.092830557711923,1.2207869731404515,7.438918939588963,0.2104919781456244,-0.12621057746613984,-0.1805569639836844,0.5126097611753552,-0.16780567692217274,-0.8452071479823374,0.049711061477053335,-8.311508861087999,4.670670393956791,0.28692037892948136,0.2073687348837089,-0.10030584369164589,-0.08846206056087991,0.9058352544248062,-0.40458564997101654,-4.1690592664781825,-8.763581738319997,1.905919344293101,0.2080923117285237,0.19139329066648403,0.227446824929111,0.25676369081081696,1.0572279954995238,-0.40257022021166167,1.9828681516581372,-10.100770866831178,1.5950919757939794,0.05468468154920981,-0.5254486141088197,0.22474617870162378,-0.29527608731659066,0.8463771865513472,-0.19265544722231784
2.342946874567625,-9.350062567121444,0.15799449856609582,0.1383148395637911,0.3242930447771863,0.2649397721097846,-0.3917713051889443,0.804077977733794,0.030343883816733756,-6.170391690613052,1.0310616594835569,7.452054943200662,0.13401527176773204,-0.18425038069899674,-0.17204009605698234,0.5086809055594822,-0.16162445001705367,-0.839443503952988,-0.22662865960837048,-8.242851165725652,4.638397027414685,0.17723475270378636,0.2100257584478108,-0.05867198550798797,-0.0867396346147563,0.9082815991762216,-0.4036437262918674,-4.251298074977767,-8.773790266975997,2.041030913691314,0.12199854088491449,0.17734773551749916,0.14319089366914017,0.26188485147660867,1.0598742034298636,-0.39838821698060645,1.893203396042789,-10.088654761789051,1.5335123982049126,0.03647789690544194,-0.4967719575421415,0.288663560485394,-0.29061477306249384,0.8523977418604596,-0.18041555142233356
2.2654187388709115,-9.204684143696863,0.18411918704222974,0.12178599506348266,0.3376822383111038,0.32744079838132617,-0.37856860939831016,0.8052704501189474,0.022069641285201492,-6.056433903513756,1.001764284932634,7.389087934046226,0.09168101070548836,-0.24486033215284525,-0.18155138377610464,0.5103852490867713,-0.16242263138513166,-0.8438289474476235,-0.26091243848937157,-8.546813768809052,4.765753501841399,0.1028353070666354,0.21097300785390324,-0.0383587803584484,-0.08116009534251117,0.9064851270610971,-0.40975412271510003,-4.470298802343167,-8.978184193716338,2.1410756251611893,0.07383962574904701,0.12183702087336976,0.08334578237645103,0.27044312042602964,1.061099239952113,-0.40201773872713636,2.0010812062142325,-10.035723633020792,1.2740941548257465,0.008969632390584391,-0.4560671659279644,0.3501735464797596,-0.2793768784386355,0.8545565841991642,-0.1808919726431794
2.2978227702613387,-9.148233508714199,0.24671345717698107,0.15133372872068088,0.31311763506140927,0.39088662145825037,-0.3717249574080932,0.8057440384742792,0.01866480905636945,-5.902706562376482,1.2731337098914908,7.287338300610214,0.10678638278924384,-0.3077286265404199,-0.19234349515472546,0.5016203405748179,-0.16839900505997563,-0.8478608500352014,0.08929507557816414,-8.668204620177228,4.8337996490780055,0.07611107540281675,0.18385555123976902,-0.06275943493489573,-0.08189912039949858,0.9016292817702826,-0.4075000307744684,-4.307589052489485,-9.342820952227482,2.062569779353145,0.08389069684047173,0.10730317534462076,0.047540534184857805,0.27212623976887745,1.0537508897473686,-0.3988864783505208,2.157735034649902,-9.801078577391472,1.2445741033664377,0.027075222163070362,-0.3918943672811525,0.421948789020807,-0.27644862872979664,0.8540433313497919,-0.17820877209992952
2.204770091058845,-9.216658598029014,0.4070809747436541,0.19931405134062083,0.2662526328148296,0.4302735489306308,-0.3629063200422053,0.8096374301744304,0.008675985648271774,-6.026943356599526,1.3058850937019704,7.184232646193595,0.1571778450194919,-0.34182457987580334,-0.1947991927030478,0.49550444366644697,-0.16624388804455664,-0.8483744789440768,0.07365902583096604,-8.61566656862508,4.767359045375095,0.050743086004154614,0.18640085020848288,-0.12760064445499358,-0.08706166753334896,0.903018929333853,-0.4160362105839521,-4.149848525487869,-9.416088225701449,2.1610009031654007,0.13652810610491328,0.1202324804685461,0.0009816709154423673,0.26897399499158714,1.0562355629686884,-0.4044945737355247,2.0843741291832494,-9.688062200131517,1.138498070775901,0.06361297768737012,-0.32256269109132446,0.4741325546855742,-0.2683695328170637,0.8601196143501428,-0.17866481281358304
2.135298333447987,-9.473306866869681,0.45825342216946374,0.22918130803134637,0.2078659904193463,0.4596083701598845,-0.35261233174509454,0.8186504119788547,0.0011374625878798322,-6.149282381021188,1.2892339521553948,7.507797155294566,0.2044435132280993,-0.37337880684728225,-0.22051328374329712,0.4896159776650075,-0.16244085848434076,-0.8525780668537101,-0.02789622755672233,-8.727372963721633,4.825926673480525,0.05434977443970406,0.20912083640811838,-0.1796834711411216,-0.08655203375987097,0.9074242798066745,-0.41486600477789004,-4.243039536213406,-9.03913608180094,2.168970871657399,0.18381837119157549,0.0821157933483112,-0.019547004687512075,0.2704477897453708,1.0591668726764143,-0.4052043387819386,2.002512696846236,-9.886776492658262,1.0667361490184115,0.09179719615207813,-0.274474795653068,0.5159686105567115,-0.2568769805142516,0.8651995305067286,-0.17766030925003265
2.099588205160287,-9.615210398615472,0.40575419438707644,0.24858543663283303,0.15565721670998992,0.4861959169060997,-0.33646506516274405,0.8222823528994183,-0.011767246671458042,-6.085982943152762,1.3729518764373996,7.673489761929424,0.22524214545836663,-0.4075268066837401,-0.2290927892371682,0.48498148333285274,-0.16575151280359074,-0.8591057074124157,0.1769504927757548,-8.712227504743725,4.9756552820340545,0.06177444480280715,0.23231477369199863,-0.20918816268790258,-0.08537197479028924,0.9053890984934995,-0.42193078424018127,-4.25720865408773,-9.099113071388139,2.0885630709430374,0.2133929002823855,0.08117659840647921,-0.02530914872580791,0.2753629443971976,1.0582562378835922,-0.4171594040692018,1.8153049837934412,-9.723016470764039,1.0101978983491,0.09798313232432243,-0.23798070449116016,0.5277644200642986,-0.2436931560887136,0.8651835740693866,-0.1835196825875744
1.9865827677095946,-9.80498932483474,0.44610068176379936,0.28412598275498907,0.15398091670937109,0.4795420081565883,-0.33525176160272696,0.821786421495397,-0.008347647935676996,-6.14512456223493,1.1624441287996343,7.763845590207485,0.2452956593360545,-0.40687584453765646,-0.2122348185870055,0.4691580945930469,-0.1720927457053995,-0.8535951407379253,0.049220420132328885,-8.611655684144573,4.8822041933840135,0.056048201856259035,0.26244907557624303,-0.2429045141611319,-0.09659771628519967,0.8981763524152957,-0.41544927192430914,-4.154645866502596,-9.007998059254644,2.2736627958825415,0.2443807698002526,0.08565064152768628,-0.04359943155285092,0.2645928673424994,1.0519056323747584,-0.41283647301411525,1.512269456874361,-9.58212162788355,1.0670015694061603,0.13041257177313806,-0.26638793244842546,0.5091959625403262,-0.24100540182302907,0.865866928300315,-0.1761918934255988
1.752439543848501,-10.093807716904037,0.3893900892043919,0.3662614022642242,0.19946334586354306,0.4385272333884918,-0.3229834415132923,0.8327577247179028,-0.024424048085679908,-6.241723742436733,1.1156888648727963,7.914784278350954,0.28675701783584956,-0.3739880174477504,-0.17642839846915628,0.4701136380568478,-0.17175284145457542,-0.8626371101466912,0.1271547211536928,-8.632846443867683,4.61704204503386,0.07104620379258396,0.3562945553144832,-0.26577782646209847,-0.0946362327916986,0.9076305331962852,-0.4209340088610356,-3.766654571022107,-8.70714723414666,2.597674599748102,0.26940628115404164,-0.010772051970664484,-0.04726191418140762,0.2687999343813325,1.0580939375790699,-0.42743359864312375,1.2505224608102739,-9.80036277691083,1.1817268023746743,0.23264655585034233,-0.3325523720958091,0.4950319070882442,-0.22901512396318724,0.8734338828417155,-0.18396398438055828
1.6129289134981986,-10.080295687031468,0.5077785791093824,0.4454892819733404,0.23721302158642157,0.4030341872158211,-0.3178467239580348,0.8271461117855343,-0.038581868788555934,-6.179600337969975,1.2860347792506859,7.846782586605673,0.33565832824966496,-0.3438902295424463,-0.11895008648960179,0.4565057427036501,-0.18559243140687826,-0.8679912045620463,0.2818411733447301,-8.8770537337446,4.9208945517875815,0.1316423284004971,0.45975558074145906,-0.3088246005119724,-0.10252598701073824,0.896587873612308,-0.42858737130348806,-3.970130292889183,-9.091299739109866,2.4762104956878246,0.33398977784442263,-0.0943699586005996,-0.012554432490334009,0.26049640085983616,1.0447487151722468,-0.43730929507273386,1.239766270928668,-9.86294561190015,1.2984389014001412,0.31752913692737544,-0.33924326908201247,0.4753078945091333,-0.2280550975296618,0.8688366329886459,-0.1922891566331536
1.4735390528297776,-9.75767921323206,0.5245516143169506,0.5235035855728478,0.2330373760335393,0.3850580310054249,-0.2977885112086309,0.8278461724398041,-0.058808185739004315,-5.894468330799847,1.3792589300228428,7.876312648457012,0.3945536335632774,-0.335820671781524,-0.07270114656056652,0.4596889841124707,-0.18984052764599305,-0.8747623436446814,0.16103474318852073,-8.763953603706797,4.727137351726926,0.1886830186681607,0.5360771111728073,-0.3635357829923872,-0.09258601058187715,0.894212226992476,-0.4415497661721598,-3.8614914313916375,-9.00071304419308,2.4840948150985502,0.4091755425622962,-0.13410237662736896,0.0007935267744600333,0.27275430975639564,1.0453220085850872,-0.45460474332209827,1.3643135593120843,-10.125469982493845,1.1409831073317016,0.4138676645580459,-0.2933981514465582,0.4885512817248679,-0.20363972338054936,0.8693234128817802,-0.20815711073866114
1.473169752776304,-9.594311887609212,0.6891334774893811,0.5939168799333727,0.1783466410679295,0.42580209048922585,-0.28849746181860225,0.8292911957385052,-0.06416027915170354,-5.578290390989924,1.5050905746437153,7.814541814242479,0.42389293274337975,-0.3750733108956123,-0.04936713987076738,0.4516902344463799,-0.19782821782173535,-0.8680180380143322,0.21006193171328746,-8.744603856238747,4.504004848114656,0.23662070149527178,0.6065610341585824,-0.39245334643923807,-0.09552123341748588,0.8908212523691614,-0.44003332065406225,-3.6551765174464768,-8.803442444803686,2.535785221697361,0.4570167708525187,-0.20435077330253074,0.02149506909023773,0.26665348968222513,1.042428309565099,-0.4580591521578207,1.4139198715618944,-10.126048321311835,1.3153017916836263,0.47982476650893663,-0.17990145866484777,0.5356160263630136,-0.19557384441544692,0.8717098498300578,-0.203505168540803
1.5604375664757353,-9.74075008126,0.806689672249226,0.7178346586329156,0.14445236856532334,0.44312709186556565,-0.2760161509877535,0.8278136788240932,-0.08245030577036555,-5.439377478047556,1.6351166275974272,7.749768984960871,0.5027859834388554,-0.3811835857179858,-0.012736236516411373,0.44442994871728264,-0.2098375049087493,-0.8682889435210056,0.40277145819255267,-8.636481417589692,4.932603292090739,0.31806393725338444,0.6643434561851234,-0.4548040512307253,-0.09900435958160779,0.8846308081844749,-0.4489822234874319,-3.855557408735891,-9.05184119848713,2.2665197959543364,0.5443893869460719,-0.21479586915818855,0.048015380900899,0.2669340645089468,1.040565050118496,-0.47198678052740517,1.2942288243683575,-9.915685795322062,1.403175433686884,0.6060920976314609,-0.08234069116668327,0.5736149446945125,-0.18361571407064467,0.870777188581513,-0.21962366734348882
1.5986396486186596,-9.781162933101063,1.0266273963781658,0.8240958996350588,0.1691551604192877,0.44910401074607215,-0.27645133924984067,0.8358934077710093,-0.09904175424001123,-5.2164528387783875,1.712912246315725,7.983074045186636,0.5561269250829561,-0.34915757155440774,0.04913925456297268,0.42812083507778087,-0.217695881394983,-0.8656810922418053,0.3089519211432473,-8.099585979948708,5.128024082553653,0.350382881312625,0.6709773040492376,-0.5046922956216784,-0.10953780688835317,0.8870089222842175,-0.45823661234702845,-4.143866280978587,-8.484045681548544,2.5096870909583924,0.6038217499517966,-0.13579653498156702,0.04104159281935838,0.2598896887816686,1.0387186661763719,-0.4859353755086641,1.0268611052128973,-10.096121734033966,1.6631617734525739,0.7072624191974393,-0.08296663783069663,0.6001773984781965,-0.18092101413584674,0.8732625660260345,-0.2293763186352999
1.4634991536586104,-9.408591783912726,1.3300922084609406,0.8916091054120147,0.23731060971222548,0.4827467351214285,-0.26225092978200665,0.8305206629893018,-0.1295406648673842,-5.032218496642271,1.7420295190881072,8.04851499278041,0.5258800333552084,-0.357797374601556,0.1018580999801135,0.4189100254629195,-0.23328244578937452,-0.8746777121970032,0.13961076001393014,-8.01070758896693,5.00304149827142,0.29149619623511586,0.666303957338127,-0.47279671838752235,-0.11283890313031503,0.8758329112616584,-0.4764092314820057,-4.16053398255746,-8.27944196257363,3.04140657253934,0.5494649772467816,-0.135934767146781,-0.006790904574817317,0.25701687161082437,1.031324446032278,-0.5118712528210586,0.8568821378265705,-9.934428220099543,1.8682968886396525,0.7712805179786735,-0.14927275886725555,0.6398969489227989,-0.16482627263039065,0.8684740635616719,-0.25747905469464727
1.0718299211182833,-9.14183718123333,1.4358343486257228,0.8973508933792937,0.2579796201569326,0.5264709738818163,-0.2485478855717842,0.8302593486652772,-0.1468498812042594,-5.077828060971448,1.8237211393416748,7.784396436839997,0.4840816804503956,-0.39602088154810233,0.1262397028837794,0.41167083697230294,-0.24638819881681834,-0.867603974530043,-0.035912899444097535,-7.826007067275771,5.236597688922569,0.2283597183050891,0.6535202006649635,-0.44345680329029363,-0.11259070726507409,0.8731767204457005,-0.47369601859656935,-4.438510090031964,-8.228244056352725,2.9960526987255283,0.48819069161408446,-0.17428607211828911,-0.05447315019291959,0.25602597267831795,1.0227955663525496,-0.5138824725291653,0.8082809896253385,-9.629327449316532,1.7700865917450013,0.7783696184277237,-0.15185111341127414,0.6804014017603405,-0.15335770415430014,0.8667779521020091,-0.26749861301952477
0.9222265362512915,-9.071752529236916,1.7329855195167025,0.8505081679438841,0.21112236643771395,0.5765058119216819,-0.23682582796904494,0.8221869632512055,-0.16124277477312687,-5.062615694057327,2.0126621573273233,7.68581189626483,0.4139275327825258,-0.4383093526113676,0.13146628036106772,0.3995583711398892,-0.26302402277176967,-0.8655884686882065,-0.010551826209943872,-7.541169221136208,5.281174577115735,0.11040186997387343,0.6351781024901332,-0.4120341851209749,-0.11753211464666402,0.8614387361785311,-0.47696153424235216,-4.3314220892014035,-8.483203169521705,3.050323524693089,0.39524328647502527,-0.17605450707106757,-0.14121923458716407,0.2469938363297652,1.0167457749350624,-0.5190748294878158,0.7397999140030065,-9.532693080041305,1.9868410637851126,0.7281182739000274,-0.06313661844265121,0.7069996508121285,-0.14094239234868777,0.8570214700438286,-0.2775620790038576
1.0642566850981785,-9.510802421576294,1.9014100382196302,0.7969063775831949,0.17310893383415502,0.6077955661684545,-0.2162753249387732,0.825568453977751,-0.17902373264015642,-4.960797249014637,2.131437735535108,7.910867317333719,0.3539513102326743,-0.43946387035424733,0.1360825124210985,0.3949477909358715,-0.2676709569735051,-0.8645233646054704,0.07646660309931952,-7.851471196934236,5.214769132629699,-0.03520036495226121,0.6454650420941486,-0.4139614160614812,-0.1123920443747803,0.864112913941215,-0.47628249529379046,-4.206985338305652,-8.816087692202386,3.310664032718951,0.31957412238725136,-0.22151447007220695,-0.2610788210005694,0.2472649218992168,1.0185064297617834,-0.5271198324831651,0.6676302614689077,-9.658810250986747,2.0631395175821967,0.6700717063412651,-0.002737052086274475,0.722693667493899,-0.1211561882137205,0.8601914151540151,-0.2899963009709856
0.9766016263243665,-9.734429590185723,2.1358550284371414,0.797121190792468,0.1767072597679684,0.6124956007171753,-0.21061301043306588,0.8275343799919666,-0.2017158631779681,-4.919028371506384,2.0556307025581213,8.29658029240317,0.34013165104174997,-0.4018948661031193,0.14538232625931186,0.37933324546536523,-0.2709916983218937,-0.8680988074656759,-0.1129383116252782,-8.106704765105246,5.311349182944772,-0.09804630170824236,0.645836159832166,-0.4222112382345797,-0.12190243744346951,0.8721638413599067,-0.4799877575487447,-4.266265102728872,-8.253696079519052,3.00742049163791,0.28328942643295546,-0.23256929094851592,-0.32292247829779774,0.2277752730354339,1.0237448113967436,-0.5373961913233847,0.4133909565274037,-9.797489029775202,2.3156099354247694,0.673730838656546,-0.02833840220090888,0.724074220646507,-0.11114296966074251,0.8612264473030705,-0.30732507322007235
0.7800713628128715,-9.698086637115846,2.3396113919604997,0.8108026259645329,0.20679066684942163,0.6211194401175906,-0.19106958098992774,0.8194469558454338,-0.22122142634018319,-4.923154309686003,2.0694346317265095,8.726929926872227,0.3252716934934976,-0.40941752859834957,0.14602834223975758,0.37207752336871047,-0.284751149192474,-0.8707813654978912,-0.22781131268713428,-8.513475933450303,5.069912351290527,-0.08188479609189206,0.6575418362823858,-0.37744509508983864,-0.11997200412928483,0.865567842658778,-0.47968045093607053,-4.0466172048266715,-7.786694958637181,2.9632163097178874,0.24538179767071688,-0.23756978810679671,-0.29257921633085815,0.22119897743756375,1.0199095133186515,-0.5459852046463233,0.18942443070517193,-9.822356987418896,2.5513164022786743,0.6962833577634263,-0.08910939899754303,0.7236739453945992,-0.09554313773948561,0.8544229425287296,-0.32371960086846935
0.5690763638452611,-9.37232198365877,2.5554674863142366,0.8091998694224333,0.22136464762822444,0.6271062574461753,-0.17812010201908343,0.814055077895045,-0.23487661636272664,-4.835223546959729,2.2010621376406214,8.746369480627553,0.31660245499464734,-0.47213105112656656,0.1433135426241557,0.35945713626528203,-0.29619298304781727,-0.8647014338875575,-0.21835105782614952,-8.897903872294464,5.152350937110494,0.03740700665004303,0.6736033119740288,-0.3167623993423192,-0.11949647777849548,0.8602088447608649,-0.47840271104866433,-4.005723539018443,-7.747403817190876,2.653375011346267,0.264645703024551,-0.21942089415861746,-0.16958998052147412,0.21533592042756172,1.0126266842751643,-0.5504434224091528,0.10200499891671723,-9.48820950350682,2.6400226380121983,0.7009541953724732,-0.10441607347107289,0.7343966813137245,-0.08165130896353166,0.8478337454395235,-0.3335218379080015
0.3884463136928703,-9.09292580690831,2.6817724751395824,0.8519705335535757,0.19582520932020192,0.6476200003930814,-0.15660835722910432,0.808165265058517,-0.25925875067950616,-4.640251568926448,2.4568212770033946,8.33043183208128,0.3546649088979146,-0.543985677226392,0.13094759050084756,0.35069161127584136,-0.30370872793823933,-0.8731028428409169,-0.0026777854356272654,-8.622085770154817,5.200022174418198,0.1960681983242498,0.6708748996729534,-0.29331724511301266,-0.11223865344615253,0.8585776295944196,-0.49111643355789064,-3.767974113311556,-8.174916749420474,2.7041255126294694,0.3411501995555992,-0.1315097367813035,-0.0432764911226298,0.2173278523633464,1.0110098209092884,-0.5653415531314713,0.08107658322733804,-9.37002507742458,2.7454480902016187,0.7404212900921392,-0.08336129904103148,0.7458549073583172,-0.06435140557679384,0.8386030301881183,-0.3535916631378587
0.2922633347505392,-8.995926908316044,2.64927353276193,0.876994368406303,0.15062058493893277,0.6723628710594329,-0.14801800417218822,0.8074417981453589,-0.28512297152574656,-4.273454178987196,2.55632199172362,7.865264498896847,0.3923170314663646,-0.5716664048547381,0.14393730693561757,0.3290055602597662,-0.31471752924040136,-0.8816635693999012,0.13090926330092603,-7.932681558803276,5.235183918283045,0.267982688510335,0.6723989232493196,-0.313614726001392,-0.11723789064576343,0.8510652299095125,-0.5098102438809959,-3.6726801097674717,-8.3919902570248,2.9743735663040423,0.40041001304302526,-0.03218898738771664,-0.014138062556013473,0.20540081932683255,1.0074752289610631,-0.5807801837930763,0.05740682881465698,-9.280939856633708,2.774025985010113,0.7621833115272949,-0.012593069689593315,0.7736363576177632,-0.057535345013125766,0.8333495812091546,-0.37974376168114643
0.10485423274149021,-8.899139276333743,2.6937009909541447,0.8691716673342932,0.1101340620997169,0.6971124933055931,-0.1304432893274722,0.7959369669927263,-0.30146253750151014,-4.114115320361708,2.2190720848419443,8.020983583235369,0.37829046923241766,-0.5554018407648449,0.14988167526732227,0.32055335007579616,-0.3295583803918364,-0.8757791667873208,-0.504535868412774,-7.437427166226196,5.003413681981086,0.19668653390215224,0.6606365421385255,-0.32940722541378764,-0.1126247187999201,0.8432422092604698,-0.5092572706037302,-4.057573991025303,-8.12545197557991,3.5016841725530417,0.372773389033386,0.0019942754928107104,-0.07101829969678665,0.20905281242984264,0.9994299805906147,-0.5837509321892488,-0.10457543847315084,-9.134548874673126,2.984885734222516,0.7577715230886732,0.1021097081946288,0.797637393229079,-0.03266553878346125,0.8245142426055997,-0.38784937108818507
-0.12237090023657193,-9.176065814559768,2.9460621746874045,0.7636613571125349,0.086742526102004,0.7101646877791691,-0.11427793430106092,0.80226211787699,-0.31997976356702484,-4.1517502225088725,2.4216750671951237,8.414764966716067,0.28168478368547234,-0.5362578668901886,0.13492552996543425,0.30781424165319793,-0.32309872410946366,-0.8795263098738453,-0.4131406019085652,-7.460797066575482,4.818649836277201,0.030178943390668032,0.6838418310387291,-0.2934396972930231,-0.10967175095197552,0.8563599499227902,-0.5142990044131567,-3.792221945976123,-8.17964748113568,4.000538697916673,0.2298927935622435,-0.1427716927269063,-0.17543797545868325,0.20227258203608725,1.0109859648433046,-0.5939497454417391,-0.4727941786909793,-9.071633211845123,3.1649405844885075,0.6583132870741653,0.2011299097199131,0.796167090615825,-0.016279559271304273,0.8323650694757487,-0.405873134759575
-0.17924166310769912,-9.504532268543073,3.1740358314201274,0.6672359977993003,0.09269032520560984,0.6818031982002214,-0.09280841415497494,0.7902504336565106,-0.33045381459250184,-3.9510457146030538,2.7162278447180355,8.57405752398357,0.20720551050841085,-0.48060919989601913,0.1611542224183317,0.3013009085354742,-0.33499211674082796,-0.8732076895803182,0.0035725069695915247,-7.875741774690433,5.076108980124336,-0.09830038940256536,0.7433348602803261,-0.2761755591545565,-0.10186009239624205,0.8495495998725981,-0.5093781633465824,-3.475072524279502,-8.403696126512937,3.6534622990718155,0.12223543241518914,-0.26231497906798856,-0.25745914866796343,0.20005727275665577,1.0063357213840844,-0.5913012140436913,-0.7249146251318667,-8.891820481386896,3.435521581488674,0.5687041379543362,0.24624512620511882,0.757798552703712,0.0061466499353049035,0.822790652765624,-0.41105268843554754
-0.12688945917894376,-9.595990361473607,3.264687559039143,0.6658075761757868,0.12917377234576444,0.6120193258124194,-0.08227307472666065,0.7900027114934266,-0.35118683899465125,-3.6037064763298154,2.524728982354142,8.698635217468805,0.22881529794614774,-0.3789398166022144,0.21119121460964185,0.28568506133957366,-0.34036914462677453,-0.8828521111009714,-0.20824314152938,-8.260967625307051,5.091134768145676,-0.10031234293571721,0.7610026134178661,-0.294578515331524,-0.10335456567635806,0.8516668890560244,-0.5172078526206701,-3.6011302333280013,-8.57048322265523,3.2823004834174223,0.12738033133491658,-0.2297288773652335,-0.2776495014861658,0.18422137293950258,1.0076603415437515,-0.601836451269957,-0.8098661331355365,-8.822149201662263,3.5537170142576042,0.5722563084883737,0.24278650644986133,0.6919906893218511,0.01613944312232888,0.8182231030785097,-0.43085400584568745
-0.242369973122284,-9.391951879902681,3.4774914739270355,0.7007700505215835,0.17344455833729425,0.5579943349256856,-0.07154227330290278,0.7841157012974359,-0.35434871371642257,-3.4899200340708236,2.4064003411177257,8.531199574575231,0.304342305966425,-0.293333492922808,0.21890564981914898,0.2776836987562184,-0.3440251569781735,-0.8654377714782321,-0.4702220196974029,-8.431028766227271,4.955509035164292,-0.011263254286944968,0.7406190623815928,-0.3411640292599411,-0.10158920869857045,0.8515472097573118,-0.5052511278765591,-3.710018090078215,-8.495563187551298,3.6588195956565888,0.221403287340188,-0.23962261378106506,-0.2556795935945782,0.17663959540661295,1.0103209600556609,-0.5952488432385199,-0.9894676607198339,-8.985858247864481,3.495423392497182,0.6089768959027377,0.19788173083696378,0.645070909227531,0.03125233447810444,0.811806993269474,-0.4284471378005051
-0.25173597632439343,-9.191587601559442,3.480465996579734,0.7752137917524091,0.2036916207114002,0.5297988717747667,-0.055178133543842114,0.7726219992627066,-0.3758175012807632,-3.2348433684921476,2.5860270856400667,8.678071220292061,0.39885112325482736,-0.23642087898330372,0.22236619924378015,0.27286262826328855,-0.35808987545372634,-0.8725155778831603,-0.3231890270544839,-8.373041637000233,4.925984453381075,0.10465061340077157,0.7131041523778319,-0.37188559533589943,-0.09898771726509134,0.8467440282062989,-0.5193717839983385,-3.4465215013504262,-8.28752149886376,3.5730439273009402,0.31808543581186616,-0.25341120764748865,-0.21419680531935245,0.17080902008121995,1.0016549289620098,-0.6121682526389332,-0.9708634621501693,-8.97098097072819,3.6119438525957865,0.6848215932821275,0.1606974428384261,0.6217749290062436,0.047816658809321566,0.8016152541940189,-0.4509642214275668
-0.3864607095567207,-9.337737550791296,3.7175672115407816,0.7292560332154809,0.23563567244976866,0.4981704861410064,-0.05124927243920824,0.7679971411263458,-0.39559128492575724,-3.1864097474004933,3.062692441390197,9.013799709017029,0.39046945220362433,-0.1964634250376963,0.23793068913500637,0.25778042512035726,-0.3689498888169116,-0.8744988580214135,-0.017459804852985993,-8.166079017606869,5.102044908352956,0.12679469604126103,0.6792780218690145,-0.35501845663926085,-0.10513075942792169,0.8471603051232145,-0.5278925663282734,-3.200916823306697,-8.238906523185374,3.7396840975235652,0.31952256063564566,-0.22537109547339754,-0.1916682360015892,0.1559583904452503,1.0027554754079908,-0.6261201943652843,-1.108577762367799,-8.878014939324512,3.7871227803171856,0.6533790149810048,0.129186337189344,0.5937843965077333,0.05219173954113963,0.7965721249483906,-0.469303021879122
-0.6291088977875752,-9.474660999205383,3.8725729047674458,0.6727140464335961,0.24800132516378579,0.44713943334260264,-0.03096471357189365,0.7642990621214723,-0.4131368365053503,-3.207456323732361,3.2938226179070185,8.794023635783363,0.36291723825218475,-0.10430259894908737,0.29187834882511043,0.2614705594045601,-0.3737997463308811,-0.8736916727522561,0.10092815168426408,-8.150743260622821,5.496985947186173,0.09196547010208306,0.6615259558800661,-0.3480350310757061,-0.09613151503195541,0.8487449679193062,-0.5362546722307572,-3.1732579592634145,-8.540208266427518,3.754069807067455,0.2840600211386938,-0.15665180548838767,-0.2110170457164851,0.157462118759657,1.005026050811243,-0.6378194354301824,-1.2992417490730663,-8.829443871797483,3.9000918348008726,0.6036254589318877,0.12639199560678002,0.5340840479192426,0.06950500770859197,0.7909780750820903,-0.48471497482010995
-0.8129402738366067,-9.0393386821882,3.949255446826977,0.6762919970131342,0.23301723790607437,0.4120296424331758,-0.009748125179993546,0.7556928799544855,-0.41335394596467895,-3.286852663565105,2.961098956505296,8.742164119428166,0.3813867158847534,-0.031006456622611492,0.3143551217259749,0.26668164611882655,-0.3822486065496342,-0.8552448110337858,-0.520703339718804,-8.282236732400598,5.34011632279756,0.08521990257172124,0.6078895704609034,-0.3608419057475514,-0.08437036371386998,0.8475886838195659,-0.5265315613729202,-3.614098367138989,-8.49933406811697,3.9038072877413583,0.2813462626765423,-0.04813945473958396,-0.23451763779365847,0.16134927921527722,1.0052151233425841,-0.6307268463281581,-1.4227439030824791,-8.753986668572189,3.920985915648134,0.6110324995739108,0.15246657689559082,0.4863532169968648,0.08975296279121063,0.7864959786658346,-0.48205364908137616
-1.0184789662807876,-8.743909014711825,4.090811356290816,0.6203620825949445,0.2101245352445576,0.4023494672268398,-0.007551661495948861,0.7408234210440421,-0.43656209638635873,-3.3602551924707775,3.124589835487712,8.900449382108581,0.3604294279604603,-0.027830578538415245,0.2965648328229638,0.25260860185670175,-0.3999838076343207,-0.8597997468930502,-0.41817410977947966,-8.452338594497782,5.07362067894363,0.08523656365555757,0.5661197021418305,-0.33914014784604496,-0.09349733573842119,0.8372367833238692,-0.5383378949185329,-3.338059122349275,-8.175915280939304,4.275782562740182,0.26604316854103083,-0.07453544174393681,-0.22152854479431056,0.14501167503873466,0.9936401843415299,-0.6472073428586784,-1.594336638857791,-8.638654693433935,4.141804826454825,0.5597594914901636,0.20756030288830055,0.46699671854584845,0.09067027809731143,0.7702398094029355,-0.5014294730774069
-1.0525274799343962,-8.664378441098892,4.2947476390969355,0.5917662060363029,0.1923269918595447,0.3947890451287353,-0.0056012568825864395,0.7383799146865215,-0.4390026638459734,-3.268458938603495,3.667906153380874,8.779189474996006,0.3452136935668556,-0.054223306060052705,0.326089079821522,0.24142743047857365,-0.40524933045499084,-0.8499209325391952,0.08049492343579048,-8.528930284581927,5.465103794681975,0.11164929121182401,0.5613855600260812,-0.3015348309285354,-0.09690064985006726,0.8397045126579893,-0.5371276494925984,-2.944285921949111,-8.318262987864648,4.24382046997848,0.26180667344965175,-0.08622743260094898,-0.17941950799530187,0.13450306217048416,0.9938830234208876,-0.643328905832404,-1.7371464753112456,-8.541028480423046,4.304940029716689,0.5361031687059497,0.26212647876232764,0.4596281070203421,0.09871111074659741,0.7660779367594677,-0.5046263056356952
-1.1137940539132858,-8.634779673062035,4.38203842376857,0.6199696550370427,0.2007572701948906,0.3855896560375367,0.016140744721496455,0.7312605483093914,-0.45728294148708826,-3.098761101376099,3.5865445017893816,8.451396946393462,0.382401295662925,-0.04680514697126619,0.3840484813891527,0.24489449213606007,-0.4140100377807379,-0.849290948717348,0.03989103611719082,-8.30660414786937,5.591252673845001,0.16163406374288936,0.5298543368907864,-0.30956199285601027,-0.08668015677822835,0.8371688996275396,-0.5422760664267935,-2.942696942761208,-8.473837786198683,4.016249259957386,0.3017039541106705,0.009769842615886096,-0.16050160304260894,0.13844229983143033,0.9958919029624674,-0.6533147936065583,-1.9254058820450322,-8.434217001346015,4.479081102441131,0.5633459653095654,0.2810973810795222,0.45239289323735815,0.11871037969599861,0.7604674870247561,-0.5188173704394297
-1.1752298938395123,-8.535625322443828,4.699485940418237,0.59898381871554,0.2195543181697321,0.3714962610484435,0.027322815701838893,0.7080486316826462,-0.46779028977786163,-3.174720527294618,3.392063834586319,8.801405709472878,0.38908083182235687,-0.02785439718219423,0.40085711429390825,0.2442898635834688,-0.43642586580412296,-0.8462228085087826,-0.5729801798692569,-8.305393545543295,5.099465892332626,0.1825044296714853,0.48821196461728006,-0.2998953316722712,-0.0858018421498664,0.8209621477926049,-0.550403655514244,-3.2872508125293187,-8.073315847551077,4.313655159728695,0.31547930497714816,0.06738105722174989,-0.14391788629567495,0.1406296188214427,0.9783757626598429,-0.6636763701533349,-2.0111364427799514,-8.335215399658171,4.553594617344927,0.542219825496167,0.2696730755358389,0.4372897781471091,0.13352503490751294,0.7392207402688604,-0.5277224257034238
-1.453298710386381,-8.40533967631255,4.817161187880817,0.57922780369273,0.20250482190342092,0.3657680385943531,0.03151554819550685,0.7124516249080557,-0.484133968369095,-3.3524230228660032,3.6899704879731527,8.820213067914695,0.3842662867529417,-0.06321277178726938,0.3673518906853163,0.22964917761032255,-0.4379786977083846,-0.8466567178458871,-0.43665117985168955,-8.629221869665535,5.21274804098099,0.22054882254165115,0.47532407094373275,-0.25424346452754415,-0.09094127595019146,0.8284580686308547,-0.5587630742738688,-3.1664381890084026,-8.157641440374569,4.522897099202979,0.31645415341264477,-0.00692866996774353,-0.09467081221455949,0.13310354403379263,0.9855332093952912,-0.6729298343435676,-2.170069331892414,-8.41912233689819,4.632768282609112,0.5226210695484823,0.2860914824137018,0.4306963833541338,0.1369560962385029,0.7429483616896168,-0.5418623885635766
-1.528574821904518,-8.094332257305158,4.86830811141558,0.6319569917322341,0.17739054074919822,0.3839716096945869,0.03861961402049434,0.710985272728337,-0.4990158464440988,-3.243177944388267,3.9239483660663512,8.362005585158904,0.4297995888832955,-0.11097480349761515,0.3724248256352091,0.22187849842782273,-0.4437922819445173,-0.8414149850816139,-0.22326062421822604,-8.438136297309905,5.4831578926006435,0.3040803630932519,0.47571793582753297,-0.2397916323416381,-0.09269903696604159,0.8290781406524795,-0.569504249996254,-2.9437621191409478,-8.389071942927968,4.2997431202416685,0.370011165373272,-0.015565771318769482,-0.046999536501596544,0.1267746215917198,0.982430912117072,-0.6817573877033487,-2.3011393331444867,-8.371517047371881,4.777214642562895,0.5734532201080974,0.33237300026737754,0.4536389796467185,0.14694724344052923,0.7378476194313178,-0.5533654864072813
-1.5359508957838295,-7.908136595408073,4.95860828362379,0.7079411863832759,0.17202440484041978,0.4127313117556494,0.04860344499683392,0.6965639651464739,-0.5080490846599979,-3.0677096363361582,3.847371566251535,7.981009717094103,0.5193335553594778,-0.12616050488738337,0.3868736147312773,0.21392094544192358,-0.458838120871339,-0.8333297543820766,-0.30469090683110955,-8.236545365851697,5.379063648339029,0.40465603704747743,0.45937393113142216,-0.2689684901598959,-0.08984305284696598,0.8204237047408443,-0.5784564065946934,-2.9335228902859667,-8.496284061456763,4.286062862092674,0.47555982726251844,0.03544230061447435,-0.019901330287115045,0.1272833398351345,0.9783479758460858,-0.6922806707060947,-2.3794861807157934,-8.252943378105702,4.897922310133739,0.6449794031105218,0.3607995254644865,0.4970543370254366,0.16082225290646923,0.7266115440480649,-0.5617280063804675
-1.592574897612322,-7.865813951674675,5.163393254679634,0.7776010229007799,0.18823545883903162,0.44631216553587266,0.06177385972038156,0.6833591056794011,-0.5214699176618877,-3.023914686863762,3.741451202621316,8.36238123959959,0.5929850602466337,-0.1595251949267083,0.3754984542736388,0.20964672527715417,-0.4764822941903969,-0.8213010861320112,-0.6903071838326826,-8.315900598595213,5.210777085813472,0.46181936372734783,0.4362667832090319,-0.29812416233158817,-0.08870891302600344,0.8088403225878502,-0.5878571477763347,-3.27547324454271,-8.481134762698524,4.751747974408735,0.5462865560482446,0.014817124799504982,-0.019121588104128076,0.12971934104903357,0.9654590813070306,-0.7009024757750459,-2.5709320616719427,-8.162090948403893,5.114535155955961,0.7050872981488789,0.37615492775988035,0.5473187901151149,0.1802909547785724,0.7094962101387191,-0.5701226269547853
-1.735135854215356,-8.009047062935078,5.483234039433694,0.7657381746526933,0.22204918804668858,0.46472591991986817,0.0695630888158998,0.663585751620151,-0.5402800944113252,-2.9312586390464794,4.163899930666114,8.569168238400803,0.5717476826801865,-0.20053693317374682,0.3486264638364463,0.199256404231622,-0.49606321437632345,-0.8207041822510193,-0.4686526937689665,-8.18792813591138,5.452750286904478,0.4321711595617793,0.41405963396613804,-0.27698953587970593,-0.08954977281262533,0.7962478792953886,-0.6008986011365006,-3.1204195188970947,-8.275029688998375,4.883511206808633,0.5037931337258775,-0.06826441873531593,-0.027949937734983107,0.12851975603503565,0.9548204896974957,-0.7166003239829922,-2.851931015359597,-7.98427223920655,5.3542312737527125,0.6875795415328162,0.3653205049309667,0.5671063497735728,0.19243559775791536,0.6924460130092938,-0.5855958869135668
-1.7522518965558385,-7.796829611324726,5.587886831907693,0.7577113867703321,0.2721063822375829,0.47114758123347567,0.08909525227178539,0.659143291352986,-0.5473299587013117,-2.7198043192550387,4.3979672217777805,8.134265617098992,0.586854911525402,-0.20618061771601306,0.3599111990307551,0.19516489009587817,-0.5019733483258314,-0.8078989423166845,-0.18395046533098672,-8.111671232906623,5.694776308163704,0.4576316132077606,0.4051791290415704,-0.27774982820872646,-0.08542719894527029,0.7944728446858326,-0.6055381528220711,-2.796022429120791,-8.311599787310659,4.592088041938208,0.5272812523588375,-0.06592205204569285,-0.02255702883761187,0.13048412575056798,0.9545989128770113,-0.720746213553799,-2.9010598606052125,-7.881673000482235,5.497896850809374,0.6741508315895588,0.3215546423177397,0.5745763371885556,0.20780224947270406,0.6885081923069168,-0.5900126283812457
-1.9002438062209956,-7.534998053898673,5.71810017275458,0.7982167676368056,0.31638253687438966,0.4957769735207308,0.09763131480174489,0.6469301226216025,-0.5617340288213639,-2.753746413819541,4.318083617422328,8.01990868006955,0.6505145569867562,-0.21350190479387096,0.3587941080504434,0.18060021065806892,-0.5143653736941933,-0.7996017336810208,-0.551721838613265,-7.924813346900643,5.684163534188793,0.5170827504699382,0.37118489505401786,-0.29774608572940364,-0.08797146193536358,0.7850469969007215,-0.619827359530953,-3.1335992415721465,-8.047614985402062,4.855756591527385,0.5936724525211015,-0.024329527010788048,-0.01135295653174854,0.12294087742956328,0.9469027136588621,-0.7359552173463627,-2.9974332920687514,-7.863314855368399,5.571192365528364,0.7115547089588814,0.2960661847522917,0.607837466975065,0.22119188629672493,0.6780201652445718,-0.6008121036490696
-2.2135910793367457,-7.36667387782191,5.923877785081584,0.7906791253723204,0.3389810208506393,0.5301932852503138,0.11420542109579025,0.6300524973624942,-0.5736883318611399,-2.856037909084016,4.60259029358267,8.1696973078213,0.6618023373026796,-0.2466902526713869,0.32425422788706654,0.17363740021604698,-0.5315445460820546,-0.7880647426167694,-0.6437794536444721,-7.859628970315053,5.579105941883838,0.5354428766828025,0.3471249672436344,-0.2934151176844011,-0.08755702884103116,0.7749472948320864,-0.6277758646316074,-3.153616320131165,-7.959814960657008,5.110170870477546,0.6086744481828814,-0.06125471801689169,-0.007497190936344299,0.12294374469857129,0.9350080867276767,-0.7465306234826151,-3.2490795079421444,-7.592584791018212,5.646175544779082,0.7017811525606356,0.2975217953375439,0.642895061233006,0.236992370974989,0.6592224544536922,-0.6116568663921815
-2.503397853539595,-7.367742777608497,6.103390681276774,0.7289556602499752,0.35211581019293975,0.5471948778293638,0.1312669858148266,0.6134148836484239,-0.5844204279862921,-2.837300208746927,4.921289214612501,8.333729572146035,0.6115211083619556,-0.2739779869047366,0.3014479926295635,0.1671538367719681,-0.5490520349055642,-0.7816498689499471,-0.5426416751454873,-7.688819571572393,5.691571749271954,0.4903344612503496,0.37049672995750615,-0.26789732509139424,-0.08692444287660728,0.7630948729621788,-0.6396124217668286,-3.0897791919169078,-7.809036328212336,5.460119299068776,0.5542285173618761,-0.17094838270451937,-0.015585517365997302,0.12294816050814826,0.9228742133047619,-0.7578395953747595,-3.6236574614720847,-7.268245366420488,5.762860132514305,0.6428764964628703,0.29490368546726076,0.6496717964876204,0.25011502630206034,0.6423671790200224,-0.6185849530127437
-2.7331830100140104,-7.365301975168147,6.320502405585884,0.6683913687887632,0.3892350328155434,0.541999392703319,0.14251966555987874,0.6141297896181503,-0.5956298730220528,-2.748170635136669,5.084561342909087,8.089078047124103,0.5747579707825621,-0.27085130144589564,0.30460968479675127,0.15278338462691332,-0.5531886394375903,-0.7761795887841502,-0.47259539012866086,-7.704918540825508,5.896058148177429,0.45882527274770846,0.4173084230460913,-0.2547062519703345,-0.08819858212220426,0.7653988932337901,-0.6525715878577016,-3.0082471420897923,-8.061323370067182,5.443446139856466,0.5197950770943728,-0.27841281434806514,-0.026894885689381243,0.1129865595371381,0.9237321807534576,-0.7737320924709161,-3.9351898196028436,-7.035310198584728,5.9082694507192075,0.5778836796612655,0.2558463025124662,0.6325008390910287,0.26035196202063093,0.6377468915782343,-0.628864420121943
-2.8713380285317314,-7.337368741609713,6.383874795530862,0.6551117516085652,0.42242427543287325,0.5167326324235482,0.15392864665648862,0.5882239532044833,-0.6005242555209506,-2.5648723184633395,5.0816346087483035,7.882363035552915,0.6020182266832078,-0.21783004778507437,0.29709094943326375,0.14365078271265388,-0.5742364184718073,-0.7616422234794453,-0.5472435060615928,-7.492752404420461,5.883483739260168,0.4635622387463804,0.4413528086655411,-0.2919539849659225,-0.08681696750137037,0.7480123877084597,-0.6567823327629596,-3.0521727417629334,-8.291048717079876,5.680684736891716,0.5470273837681789,-0.36572100185429784,-0.06541778003287892,0.10491374166378778,0.9067134049261873,-0.7819229092143698,-3.9978055263812755,-6.924311446486016,5.958393584478964,0.5689822742666285,0.1976420346998839,0.6024455773819449,0.27102117710200374,0.6177002876440224,-0.6311707794287821
-3.0717792036168823,-7.209960435832835,6.543827998095078,0.6353405485300437,0.44627907041691084,0.48464692809751836,0.17223380688217538,0.5776902261050361,-0.613932223730426,-2.5317471313626987,5.144711688688696,7.838713794382638,0.5963158981271489,-0.14774812057636202,0.2579508265444492,0.13663514951766598,-0.5847132839001171,-0.7580320559389465,-0.7544975585844826,-7.293959772381679,5.822296683685216,0.43314605634586445,0.45821455521331145,-0.3271623125112249,-0.08276190881365718,0.7409979611446985,-0.6716176851356133,-3.1438813155502463,-7.993300933207271,5.8343749220397925,0.5333306163957071,-0.49604072061659005,-0.12395691185306784,0.09395394977149196,0.8982978429396977,-0.7978784277308305,-4.139517910970483,-6.712251853080861,6.09344750073422,0.5601704557765177,0.1616563530573812,0.5702902742948678,0.2824576830451285,0.6074739894068695,-0.6439228288396681
-3.355474225728836,-7.145473992418545,6.567940046051932,0.6547399819487423,0.4362563322193697,0.4478915679026158,0.18683018008401367,0.5586073950479407,-0.6158829697925808,-2.5367821479165027,5.531210695257432,7.751656262079668,0.6239490270534294,-0.06766291423941174,0.20879087376058592,0.13555068804871698,-0.6034822506440015,-0.741351888982668,-0.5762424670614582,-7.403815292799105,6.170415293905833,0.44466401149007195,0.47165024135282346,-0.36555494224997226,-0.08186869065866861,0.7250674095049715,-0.6768181720148958,-2.912236886509717,-8.046638308587102,5.6849357090096175,0.5572528467311426,-0.5876559639381573,-0.1725655193512091,0.08296274138644869,0.8854404667375496,-0.8067826685986973,-4.238212933345313,-6.569907652044612,6.089986077503312,0.5890782103674347,0.18510597323386407,0.525469866854841,0.29532836765610004,0.5884213181126732,-0.6506188741053611
-3.4751670494611955,-6.930758541344713,6.634622591542754,0.6835276738238409,0.39930800254108484,0.40283479429986935,0.195628151913656,0.5510346370580985,-0.6327225964544788,-2.4843854762581765,5.806984262953419,7.91115131098513,0.6836928334017081,-0.005177015512507617,0.1845391469703044,0.12608445908870955,-0.6117550312236284,-0.7365531418797185,-0.4712777919695292,-7.421471587911615,6.329074361918808,0.5130869013781646,0.4978704797135926,-0.3929347628422699,-0.08415273868235477,0.7214858494670174,-0.6923939773013017,-2.7064306007923316,-7.686603748097298,5.683034984903526,0.6280241754889282,-0.6163777876101557,-0.1875955614274004,0.06395765317528367,0.8775542067320002,-0.8264199948986474,-4.3395810774256764,-6.31306252625546,6.121642729206518,0.6199707842899893,0.2412728600031755,0.48160960519257046,0.3016433549820766,0.5794269481565375,-0.6621421193151498
-3.5267212193764985,-6.964751794452762,6.721592416697666,0.7134047354272867,0.38155404136904997,0.33499465221831276,0.2097571467940412,0.538302758444243,-0.6358870350511496,-2.287136892780833,5.870516390738026,7.779175652910084,0.7325805339531604,0.054150040886809345,0.17285222702603356,0.12715874421118115,-0.6231716141335387,-0.7190249017473842,-0.3604278677459141,-7.171442568249823,6.267125081046612,0.5751862759791161,0.5353716603631179,-0.3903081928237153,-0.07933765367727005,0.7135642891427467,-0.7006315192540171,-2.4586026132081247,-7.283968684892944,6.0223680622381535,0.6843320590726737,-0.6566098838441623,-0.17997630319992186,0.05054043322814571,0.86959267295677,-0.8362764856451552,-4.478875976377095,-6.240867568844752,6.148323370382848,0.6645057077578652,0.2615355906464708,0.4549858768175342,0.3125822088813827,0.5664842397192259,-0.6688048630950334
-3.551520973996427,-6.781133346502763,6.910720526816773,0.7147184774535094,0.365234253599049,0.2907859625970328,0.2189967593270207,0.5207067588461024,-0.6427287177668739,-2.242657074785019,6.1137470824515825,7.676504399267187,0.7386060894036491,0.12975007212581563,0.14620719395841741,0.1263108438534275,-0.6415010433426815,-0.7052820899954048,-0.4830213753075574,-6.924755391392653,6.4503567002583955,0.5833972652564124,0.5585908384047453,-0.39238395368646617,-0.07627539639534033,0.6992540637790088,-0.7131857345770987,-2.4785674613638395,-7.53430401131699,6.324563559294754,0.6833322066245294,-0.7263152242139815,-0.19630669768412204,0.03590214555450032,0.8565345752676966,-0.8505636573640859,-4.511124243516704,-6.171412419927276,6.3145945412313855,0.6712192528638219,0.26179499138619927,0.38506115098777843,0.3215601366624726,0.5513360416964839,-0.6727935475174126
-3.6108046483558103,-6.463250262691795,6.86668942217154,0.6337369707951489,0.3451263909382658,0.2622873191107722,0.2365765049795512,0.5131035117402837,-0.6556452475732963,-2.2498547839517227,6.152184587769792,7.504480970500451,0.6448253532715127,0.1821829175004429,0.10608574784246821,0.1346619816162174,-0.6484269828072953,-0.6988330071459284,-0.5086185377642377,-6.912669881269975,6.789753758196795,0.4886583915375141,0.5425361037063818,-0.3897747102635926,-0.06610003935761552,0.6925016278570018,-0.7243910052687873,-2.329038434696647,-7.263777607685466,6.263154867758821,0.5801143186271376,-0.7392126457104404,-0.24574957577693335,0.0230049036032872,0.8515578530154249,-0.8691885133548208,-4.588054091583445,-5.911269221286262,6.4368371257355195,0.5981165234540112,0.2724832614533232,0.3263605901147489,0.338859261386958,0.5418227830385345,-0.685785806384663
-3.5052784158202357,-6.187157985859731,6.834654240097222,0.5806290007864865,0.3668109572213197,0.2330846134026556,0.24311673863632918,0.4942883919192286,-0.6571224418171532,-2.1822694452051272,6.31044525026909,7.382112742034924,0.6108414491958909,0.2176293170024782,0.10496472950138425,0.13405923875421075,-0.6662330093651853,-0.6831462783517529,-0.36093433617785875,-6.814828172607382,7.055729090853374,0.4750496136468063,0.5129654366670798,-0.3734852501076477,-0.06594453399540443,0.6753474588496905,-0.7300625403123998,-1.95402903085163,-6.8759831690596815,6.3265776733473365,0.5624598971634129,-0.6778880262410013,-0.24834068725845615,0.003202793118026028,0.8330862716373959,-0.8749804403851243,-4.613931082430478,-5.833398827717209,6.536778041806484,0.5469571535470619,0.26206448090342244,0.29170511532970317,0.341475264567427,0.5225118185830869,-0.6832049654054053
-3.5171894238323165,-5.991563522353023,6.819168907822473,0.4863597596269069,0.4386589134326811,0.23409291962961404,0.2541129850585212,0.49426378503898155,-0.6627172948200366,-2.252401886858517,6.319125470514073,7.298118068404792,0.5175864188614722,0.21057581124347213,0.13465220847542858,0.13382779740145706,-0.6635699308583298,-0.6700051094248057,-0.3994997759763379,-6.823860324942604,7.231871687397604,0.3808879369059559,0.4753739213412998,-0.3397537259223515,-0.06403888982460572,0.6776533157640591,-0.7418168619935841,-1.8170490359891822,-6.917750211229427,6.550068522083643,0.4546504172161437,-0.5839448445025844,-0.24827756545455093,-0.016040461762800946,0.8378430220895728,-0.886480244936822,-4.774650812075544,-5.938585847934462,6.771333157441663,0.4577396719300283,0.1914515178535399,0.2759757103749635,0.3473500708176997,0.5269230087650105,-0.6902611378594101
-3.6708933736429827,-6.1688732125951065,6.740776399271866,0.45910469260303816,0.5461935721194779,0.24089220162395142,0.26724526483310024,0.4751858274007163,-0.665159724404434,-2.1586202972434867,6.197643395727871,6.979341201294084,0.49774373355368684,0.21117221441068162,0.18558654820844506,0.13662567034446965,-0.6814982579076436,-0.6626252058205839,-0.36056912632409227,-6.7291162764256836,7.001287989710023,0.3575838273852179,0.4393423029334392,-0.31832244235473073,-0.05826889511249919,0.6629007026672781,-0.7492518072414622,-1.6234759233878828,-6.903957300728609,6.810684496635782,0.4177200301501138,-0.5276011350068179,-0.2455023091763204,-0.023882847324352644,0.8181197415422733,-0.8917578666698073,-4.791616302910813,-5.769371490480599,6.694728733743061,0.4316291966924285,0.09312018124795582,0.2664305016697539,0.35264295832309905,0.505449218390464,-0.6957492346884775
-3.7882421310582153,-6.023855319332158,6.636672173028752,0.567936514426344,0.6160520794893045,0.18807877374163984,0.2782394246730921,0.47394053759750615,-0.6710001519331971,-2.116837673390497,6.1994717707325835,7.0370604155455085,0.6272228146736216,0.2573824033552386,0.21060213696916996,0.13006737073848942,-0.6838099850164303,-0.6528056322528214,-0.3746591565610879,-6.971145363605602,6.824990973400115,0.49493422606707477,0.4234453359602927,-0.3196022548369466,-0.05930010431047575,0.6610826414937713,-0.7594806159286651,-1.465061704569689,-7.110055078556282,6.854717655058915,0.5447912326247332,-0.5408703185906981,-0.2398826186446627,-0.04482414172495745,0.8233915801966373,-0.9066763020780378,-4.601158476416825,-5.196309481192581,6.814981237779214,0.5459990409767823,0.06981978873632926,0.22854232654641524,0.35435264438896447,0.5057548162780083,-0.7081997810414418
-3.934282928959425,-5.671400068356583,6.639993340612955,0.6326025018860182,0.662804271471739,0.12524149773684426,0.2964773292154397,0.4528837448124403,-0.6648907296601001,-2.2491820309023915,6.5320937806789185,6.928849733175311,0.7183528407576382,0.27427178778031625,0.24286792201569274,0.13411684937084167,-0.7017228365215301,-0.630534278594762,-0.44019676605865793,-6.799048056261679,7.240978342828942,0.6023680945194841,0.4093899515705538,-0.31408061287036715,-0.05302722791653526,0.6436998019983774,-0.7617616774849845,-1.324643744818494,-6.83156131285973,6.799723586456326,0.6471234919644804,-0.5316930333515092,-0.2295504019385897,-0.05635334477196763,0.8011936299620877,-0.9056334231371903,-4.569250030140984,-5.002366655076657,7.1349736132140515,0.6199976928499757,0.14702333710470006,0.16820872307138185,0.36136178083830195,0.48616662162255797,-0.702446469180022
-3.994205244087281,-5.576414454700911,6.619344424922939,0.6415498098282693,0.7161950302783878,0.09164451619628346,0.3003721744065519,0.4431177790326995,-0.6736851608143137,-2.2378637919053492,6.726117009064818,6.629056202576802,0.7514078204491681,0.2754629094381544,0.2952623413825372,0.12787059339044898,-0.7144301171159951,-0.6146789755348723,-0.40397133650509254,-6.435158276033418,7.5425034903110175,0.6626217660754034,0.3814014924895873,-0.28992257306361785,-0.0587690026877943,0.6293867477179407,-0.7774469408121144,-1.0868312999399943,-6.524550917952736,6.812111397964499,0.6996129988858397,-0.4351178782600957,-0.21196355170263229,-0.07756823160821297,0.7864829236914748,-0.9262973965098273,-4.537681295881666,-5.211409818504348,7.232685241398256,0.6321750057062586,0.2645533032511241,0.12713593814972549,0.35863584796619424,0.47500942515448136,-0.7142263589906059
-4.153735687926576,-5.54446094178918,6.7350728651700855,0.6443876929900131,0.7691622827255551,0.07832582199008105,0.31936624980478695,0.4211010791839755,-0.6817346202084192,-2.2745513243763886,6.811095758841403,6.7061781272259875,0.7722833482670504,0.2831698753401336,0.33466121274848576,0.12531711655043196,-0.7350401073882161,-0.6052897330198204,-0.5838785798258683,-6.527725253357472,7.512304370459483,0.6922517234785617,0.3371142694291061,-0.2692849750231919,-0.05354078011130059,0.60870315412439,-0.7916495655958463,-1.17534661181239,-6.613333833754445,7.427753374095821,0.7227529748768218,-0.35361041666629356,-0.20848423040794817,-0.08466033666022062,0.7655844953825514,-0.9389056660242403,-4.670572630589212,-5.3518714809080254,7.131150864857882,0.6450882617643365,0.35845608914258903,0.1064477827268705,0.3675871200721221,0.45256131691902773,-0.7226498603608795
-4.377798416467759,-5.460043476821228,6.8152811943701455,0.6631786012361254,0.8226303513926277,0.06965607860867674,0.33791350459803454,0.41690011334145827,-0.6846359720699413,-2.3755286135869813,7.086293101040749,6.610027282762213,0.7769694313297018,0.2597623127128786,0.36162927147322654,0.12781679719926092,-0.740144156764395,-0.5903128225367003,-0.5682570187620061,-6.709430564479495,7.665041496892372,0.6992284619384653,0.30617093502500153,-0.24896067721446397,-0.048262534719546966,0.6019336157741517,-0.8060064317618689,-1.091566014447276,-6.786746522136725,7.534818375889944,0.7223529134378006,-0.34493658587219483,-0.19519378872227217,-0.0919554362387015,0.7615401388574626,-0.9526242325833972,-4.89286635240716,-5.28831620171246,7.045776053703193,0.6688043702798413,0.3825751326415226,0.08907050611120512,0.3788125024637853,0.45133945783667,-0.7299807926033571
-4.579113218439858,-5.6094787281295,6.851115396682574,0.757576835856592,0.8705533672403997,0.06265204701297768,0.35203185881361715,0.4034292715967919,-0.6831623690251911,-2.264620021595476,7.341021655186875,6.316657359622356,0.904363509435322,0.25997502459507227,0.4087659866141261,0.1198772745113044,-0.7542582075178432,-0.5705237352202899,-0.4719847788558397,-6.464742321502332,7.8461912067160355,0.8456479296201784,0.30601506308262905,-0.2425544316883125,-0.046673735119389326,0.5849456083947269,-0.8182791298803409,-0.8629799434343409,-6.6619035405597575,7.595289319481412,0.8679197304977756,-0.3235500835886026,-0.18805406820241058,-0.1039335790174301,0.7404010442263139,-0.9640270909420604,-5.00417176495793,-5.350420789524071,6.8961713304299845,0.7587824246044186,0.36021260620675066,0.07885821770862068,0.3829066944696263,0.4357196645769366,-0.7337279675849259
-4.732035662276743,-5.558910049890896,6.969010920181794,0.8597672613675901,0.8916652331325541,0.036645791411049615,0.37271786572052923,0.38602424438904587,-0.6746017480696295,-2.0697069361302463,7.877515395428251,6.222070350016161,0.9891276099488091,0.29894055641643225,0.44996385925359683,0.11978409716669214,-0.769574827403735,-0.5377877762263402,-0.32271304371343484,-6.092131297714392,8.106317316111612,0.9245647836647358,0.3105427811075326,-0.2370936083806972,-0.042603836087525826,0.5665857961410221,-0.8212709543870836,-0.5965981670922534,-6.368726020742518,7.856771882396506,0.9402094374879651,-0.29723831768790443,-0.19734765106691432,-0.11202699756717306,0.7201782551801846,-0.9675996318269812,-4.9731319277798365,-5.130023154101813,6.882654833537862,0.8620696986904166,0.3452293984477843,0.04982663282016525,0.3928545370210872,0.4188160911061018,-0.729670106265532
-4.94565855079556,-5.294510880579638,6.946998661020282,0.9278288730976078,0.8640715279514782,0.0076392101045220295,0.3905083995977984,0.36304758819085475,-0.6931536786783792,-2.0768933105317964,8.118673889448043,6.158437587966517,1.0468722384326046,0.3292825732399623,0.4843772647571072,0.11085213011697696,-0.785370312643896,-0.5304210089128805,-0.42985762593969984,-6.120387633023673,8.659983735733075,0.9868780626040844,0.2975813660457282,-0.21825303916364414,-0.0379440890153361,0.5437846797114685,-0.850585661477368,-0.46989694623196004,-6.064337888908844,8.115613197970964,0.9992967298644689,-0.2343749212980017,-0.1931788086688962,-0.11735390111215149,0.6981879263015509,-1.0007174207844587,-4.971617644096541,-4.945586834585995,6.874599037525946,0.9340805755643645,0.3754441927373518,0.012992531013765714,0.3993841209107447,0.40182084595936907,-0.7514910761026034
-5.06185360067033,-4.866611749805066,6.961236700666419,0.9446503859791752,0.8143112961618013,-0.01614196288195792,0.401205067337232,0.35031556303276373,-0.6885114007196721,-2.0215956910204382,8.49281317369374,5.901585404774522,1.0467373696010678,0.3323172701543605,0.5206283100252926,0.099781509811259,-0.8037426103068085,-0.5015191501208935,-0.4117996264645661,-5.7295062388632765,8.772861503318996,0.9985162306323248,0.2614345437590996,-0.18016556435203016,-0.03710483179678408,0.5219166701123796,-0.8628011096678874,-0.4212017131211157,-5.5694693447287715,8.626798874878462,1.0068187313473151,-0.14309916426951366,-0.16511344805178538,-0.12811907831203628,0.6770301822728855,-1.0096748485666152,-5.020967846929366,-4.521752441318697,6.917175402296799,0.9547324792058707,0.4520425421013888,-0.02441222056523662,0.4046965443157448,0.3857046481134943,-0.7545089618788766
-5.211636819743857,-4.689757389723011,7.089867448020769,0.8627164771109026,0.7436510970574242,-0.04631338134538718,0.412643713903315,0.3368568995970696,-0.690460711433988,-1.818570960459806,8.791165200306812,5.589339055223954,0.9508782685111493,0.3359996759990456,0.5544112692566548,0.09084096043049276,-0.8121898368194516,-0.47840480137354213,-0.2655950032160462,-5.602809628180908,8.724803064940719,0.9206973274207537,0.2591627087041122,-0.15514525615186858,-0.03843312621972474,0.5040009982874303,-0.8716313956760922,-0.3882545402754346,-5.888844779032021,9.376978097143441,0.9259039361802667,-0.18444311370223815,-0.148343991579409,-0.1361868345519269,0.6597800793205311,-1.0198202003292147,-5.10125666261009,-4.21438353908561,6.741827792456762,0.8746291356263856,0.5138982356762353,-0.06363075485403469,0.4109913020922173,0.3710395603436155,-0.7558089350467884
-5.541985467731665,-4.894154541594466,7.1103409697858595,0.8346924846393694,0.6268575861527194,-0.08808517068350476,0.4252987878019389,0.32363529946360825,-0.688990474877775,-1.7215111634475773,8.688539547080214,5.276307496479856,0.8982147623365105,0.38645243411307567,0.5428167312287314,0.08581880238979035,-0.8230740014440707,-0.45623493075961213,-0.5076724556831496,-5.258566826933685,8.840068117153015,0.8763743036600654,0.2485280733231537,-0.17714472582782928,-0.032202204736822226,0.4853086580082101,-0.8819544361855424,-0.39699013871695915,-5.987009155560037,9.508823590872783,0.8813047731327304,-0.2905759952599133,-0.18665165223264843,-0.14158288833411264,0.6393340247515579,-1.027536532692607,-5.307860077135038,-4.285835842529401,6.78017739563865,0.8450241866686976,0.600900679487096,-0.10937621393087332,0.4243713612514185,0.35780543791815667,-0.7553931977207725
-5.738030135615922,-4.853915711883169,7.251178077877501,0.7982532395714863,0.527599842282765,-0.14403989382399854,0.4355178578385793,0.3067694100030072,-0.6965614217332896,-1.8807943576058137,8.903261356134063,5.320371357742708,0.7878246083586323,0.47283691869028976,0.507426322555344,0.08296843284805244,-0.8323815010886338,-0.4426413473526517,-0.7037241423853868,-5.246330761927362,9.214218006737882,0.7480509300568537,0.18574375292155199,-0.20833232815310618,-0.02768140399171133,0.4695255152024129,-0.8947424552187945,-0.32392007780987914,-5.734549141658706,9.013792815843619,0.7567423219129659,-0.2902681625888642,-0.2228739617969268,-0.14914807338429228,0.6252709697152591,-1.039856822104896,-5.739545579246231,-4.12178914541014,6.946558712054495,0.8156329333179826,0.6710969883834845,-0.1635693191546643,0.4384833602161978,0.3445862708403365,-0.7583954407133935
-5.819618615370973,-4.928966495594169,7.24002469423736,0.9334321683835881,0.4953798570302162,-0.20869326580518952,0.4391324819837065,0.29040088250458973,-0.696575837801158,-1.906784411085076,8.850523423974586,5.167036298380253,0.8744704524642071,0.535237994732949,0.5094529621263347,0.07161063025068048,-0.8449840764836647,-0.41896362612421223,-0.7165801920504206,-5.41603038421619,9.274924833710136,0.847982563196425,0.13033703461985321,-0.2041301917804529,-0.03195369365427748,0.4477147822214328,-0.9035168160998794,-0.18887782937363784,-5.41203215226259,8.86101035164648,0.8594069292653692,-0.1851717079859219,-0.2189578217242882,-0.16357899526674313,0.6016860592272765,-1.049817564843089,-5.9644392213496875,-4.131325708436455,6.7878588320889195,0.947732144492072,0.6163675539699802,-0.2201881869458986,0.4396387207732204,0.32653218046963783,-0.7614238164942243
-5.827588099650551,-4.416566913177825,7.260204173266147,1.1386901574324861,0.4216893560911037,-0.2737822913390308,0.44787692713237875,0.27036593959917987,-0.7039095680810927,-1.7450226170210248,9.403405257673818,5.0192855437474835,0.9960495921297132,0.5702539764450391,0.5098195080769791,0.06856712585578341,-0.8610035178599164,-0.39793164321743235,-0.4419112893449444,-4.943823964696378,9.087979408631451,0.9750267570561643,0.13099735188558023,-0.17053021312513883,-0.028686358655605003,0.42096593880704963,-0.9147131477312335,-0.13559672643867832,-4.772417766485796,9.055542068737568,0.976521851195053,-0.1501362715413483,-0.196045040126623,-0.16459187523746066,0.5727035030550572,-1.0602627219931304,-5.853946765964205,-3.601180303585071,6.591696153151643,1.1558157289854714,0.5613706800028363,-0.28129172778618416,0.45371433496479585,0.3033191776133945,-0.7674095245163348
-5.923905145871143,-4.170434196578148,7.321639040927787,1.238371871904583,0.3068276830305163,-0.357767192497668,0.4519679677869322,0.24814079633477829,-0.7068606496183619,-1.6745075137788317,9.472999334001031,4.661854323123284,1.028740609008122,0.5913043836891002,0.5122912474068354,0.06428450445267991,-0.8710596191479822,-0.3704045010337287,-0.510243523765391,-4.558886640127652,8.97672797777782,1.0360573330014806,0.18454241775266905,-0.11614821406228627,-0.023178210634973835,0.3996370834360297,-0.9208534378664742,-0.16485006153324233,-4.3967770302126565,9.223428520266628,1.030563988154631,-0.18930122817387138,-0.1666988325894503,-0.168770748304779,0.5522483010313475,-1.0669985869009553,-5.990167200674054,-3.161927599209034,6.386980126617818,1.2547798155195535,0.5519668044543518,-0.3508194654607505,0.4621901040359609,0.28426019131885877,-0.7701994797269038
-6.001384930376283,-3.6507899081406574,7.689894069434298,1.1705179560383785,0.18629271431427588,-0.44000103667509255,0.45411170353110747,0.23128537477155886,-0.7044363868468573,-1.646491462680055,9.642589842220087,4.355497732471421,0.8720915534005262,0.6417289059038936,0.47013524349685687,0.057554985548968755,-0.8791265924140563,-0.3399758876139713,-0.6716164896366362,-4.050802022886265,9.158640970888788,0.8786375572052313,0.20222591077231608,-0.08633291845948039,-0.02105602626428358,0.3788757754900369,-0.920879319683519,-0.11825795974057929,-4.139327603917141,9.437704779018391,0.8709023101195318,-0.24126494817935873,-0.15031883798604256,-0.1766368316238613,0.5297995002486469,-1.0661908012636234,-6.157414273135837,-2.734575492574184,6.548074188984249,1.193194650573744,0.4659860824444223,-0.42602785558611245,0.46871117017291186,0.26490314549935523,-0.7617598619287361
-6.033076260548375,-3.432566486380871,7.706476600615454,0.9574428884740078,0.07468000660800748,-0.5019640274188744,0.45192065623536276,0.22252476580368,-0.7215417214609398,-1.7988638960089707,9.55061630451692,4.063345985242709,0.6281136547128683,0.6763635783078947,0.3991638179128768,0.054881994152353945,-0.8790293381628715,-0.3333803182220044,-0.8983431557327369,-4.048779614034785,9.385301402948256,0.6435565699256894,0.1713371622112543,-0.07687524046710689,-0.016282273954646966,0.36844090083395253,-0.935681500901098,-0.07364119049542946,-4.079885852534669,9.26807941877792,0.6428525644695215,-0.21915126319293027,-0.12860501337390656,-0.1832089177356565,0.5177156497607337,-1.0828895064686659,-6.304601791560077,-2.6177732762761976,6.617607493443279,0.9805151251874601,0.37618765388952025,-0.48706653771093555,0.4733251262329195,0.2581209102577967,-0.7747360567717739
-5.82565373210522,-3.422193496491307,7.612480602083601,0.9097756732881138,-0.0005403359943876538,-0.5647144682794768,0.44481157001834154,0.2098556811624447,-0.7257220819133618,-1.7883198916806675,9.491666376035663,3.8729201024489583,0.5446992744970665,0.6940042337807635,0.35648019794337094,0.051537699492037715,-0.886338074782195,-0.3168892687934708,-0.8924878820114679,-4.057481481435392,9.370115961651036,0.5756340719024665,0.142056597730511,-0.060965990611305976,-0.014652269169104098,0.3532423091991155,-0.9406495463635076,-0.09556737939895546,-4.133627995261687,9.36772827087505,0.5793087649284175,-0.1744957293305052,-0.1061586438380149,-0.1883529503774479,0.5050596854329418,-1.0871375001261285,-6.225920945876115,-2.3940488219021323,6.564478804220948,0.9335547827340261,0.24546318353537808,-0.5577397336644598,0.4749898502575022,0.245889354855387,-0.7713846391075967
-5.798037827377731,-3.6681482046419114,7.756903322964471,0.9266075331424238,-0.07084427105371674,-0.648447196833003,0.44306093401405444,0.19423822304872004,-0.7276983892392983,-1.6983652876031945,9.495716986876891,3.6535143862265262,0.5154559077593153,0.7417412517295379,0.3361234171025853,0.050666228333579845,-0.8989902349007615,-0.29958026017500466,-0.9082293923281938,-3.8038841853538603,9.214811742551605,0.5625070975931212,0.14139891335319918,-0.055139499579679355,-0.0093509973940334,0.3332104375882878,-0.9399656162982551,-0.0641515082803468,-4.051045990223468,9.297364514361298,0.565235143799608,-0.1678482687384556,-0.10202191747531256,-0.19084848824938294,0.4821110984897575,-1.086560509622876,-6.179349892440152,-2.638848113058783,6.491017957669427,0.9562209746405588,0.09099277709597704,-0.6203961730135201,0.47930855278713314,0.2248938047358778,-0.774429080704957
-5.9808980795756215,-3.922064557024722,7.982551504361379,1.0415910230138277,-0.19419481959706125,-0.7173058795393167,0.42642200860987983,0.175742404136441,-0.7362977552135137,-1.7509122467269105,9.567041922074184,3.6862037851801963,0.5654062251374522,0.8203663265023621,0.26018944713004133,0.040244070437420086,-0.9060635709357716,-0.28137103509200495,-1.003927242276564,-3.795378370329951,9.091970502053806,0.5940682666448056,0.1434528749341532,-0.05048183622613482,-0.016263962253180504,0.3182869954342455,-0.9448957881138362,-0.09221264169688098,-4.019112104184504,9.289508700537768,0.5922576296099931,-0.16651803298040974,-0.10524962106386629,-0.20552061548268652,0.4680057690782428,-1.0898682946283464,-6.222247918751723,-3.0215373696574823,6.477391474025188,1.0707861256381987,-0.02947775791194314,-0.6852148895450396,0.464614369441376,0.21252417035029467,-0.7796232940205874
-5.8231078533407565,-3.4330571960908753,7.992085257990674,1.0825124917447975,-0.36100645768148204,-0.7743404355338408,0.4103191434662247,0.17141175480936224,-0.7492719281571403,-1.868787982435525,9.863631209261483,3.5644773190116434,0.585497099554853,0.8782950672017412,0.1630674255482789,0.035848011881026376,-0.9017516783112761,-0.2704479873413276,-0.977198337956418,-3.860365702335702,9.236996538952766,0.6048990331925892,0.15224146978854156,-0.04131565962556504,-0.01657589975302126,0.31159700987961386,-0.9538543798711949,-0.109370810200586,-3.9958579701836845,9.49445531738096,0.6030465870158652,-0.18816407768072604,-0.10865706012072159,-0.2157647742634451,0.4634374229972926,-1.0970075792535223,-6.049554623495408,-2.6882899771778783,6.430892866185169,1.1196765132915232,-0.12521438682518624,-0.7248655504908001,0.45312343357510976,0.2079880763636977,-0.7908779882084416
-5.665210707101245,-2.9499898550230697,7.998274559332429,1.0267335350386693,-0.5320830012491011,-0.8005439733242308,0.4007793508089901,0.15534589000311486,-0.7644471488502423,-1.882059894760003,9.953587708126165,3.2275782405025746,0.5579689667556061,0.8813562323991151,0.1169408697672386,0.0449393082384553,-0.9063111830648487,-0.25427210959254537,-0.9894402722624264,-3.591868825105497,9.458363826463989,0.5912662294199199,0.1922079831974355,-0.019902306216241318,-0.0066543941889956396,0.29634765366898186,-0.9608157029856801,0.12765382926041485,-3.5251303648735317,9.33040528520068,0.5929661670017411,-0.20817981360595775,-0.08935839937158573,-0.2167678604371174,0.44516235883584027,-1.1022561289601545,-5.826718684142278,-2.69012884905069,6.492384391169049,1.071710246152194,-0.1978100507190136,-0.7365733170383956,0.45453146627344193,0.19264463666624668,-0.7987746791718204
-5.4011005631187965,-2.6686170282694084,8.112108747835816,0.884019027231924,-0.7179547987241102,-0.7780870610278423,0.37242997579467285,0.13737767595175765,-0.7774613515189507,-1.892046610665136,9.662698260944847,2.919951739020701,0.49125553811281025,0.8574566883887323,0.035638898144046416,0.043549038848370886,-0.9169227049787787,-0.2460320441381221,-1.0581071035203828,-3.257025098072412,9.498806705720835,0.5198397933786818,0.16629537698944358,0.008822606924731895,-0.006510422804477442,0.2752958100600351,-0.9657112704609468,0.3275192001396626,-3.0849664167674904,9.31434782799218,0.5284042979924238,-0.13996940857500556,-0.052123810646353484,-0.22411710448222938,0.4286061311325147,-1.1067797714306669,-5.544522215929235,-2.6899222572498864,6.774810431912308,0.9311764577255721,-0.19794906774572932,-0.718170673866075,0.43981515938533067,0.1739573823132821,-0.8093743748430431
-4.984887888140151,-2.5076245986150174,8.083845052569693,0.7216199551805033,-0.863147812664046,-0.7336369185547857,0.35629573823182215,0.12279119220718322,-0.7889847697720023,-2.034041148335895,9.472761423576214,2.7143611223377673,0.3961115572399563,0.8160201439983185,-0.04545243975740432,0.048740060819506416,-0.925289237524072,-0.2371099312121536,-1.1367727881735652,-3.233135152157888,9.527366662447818,0.4002715215351864,0.10411507951404002,0.03887885538042439,-0.003896123223086753,0.26180522283273816,-0.9704587922314531,0.3059053037992088,-3.1081567280576694,9.24598550740365,0.4058575764958321,-0.04732537889138667,-0.009735452003708222,-0.22316022833579727,0.4122884365026826,-1.1132300166979365,-5.436197558332817,-2.532187520020878,6.927301996245929,0.782733161432637,-0.21530726286291763,-0.6982026546362795,0.4338985057302405,0.1581369110166032,-0.8145875128113562
-4.7147180811866924,-2.330281846163515,8.040510167157867,0.6415197832182622,-0.934151765334601,-0.7123632825285443,0.32970215175382805,0.12604792633880813,-0.7934234265545618,-2.2149923374609752,9.315250002736285,2.463894159096691,0.37799718849314345,0.7598502547845332,-0.08086351352840937,0.05655206853754844,-0.9178404088390077,-0.21796094169223854,-1.2731944925251544,-3.3344428362799823,9.688149212958207,0.3750656806676234,0.04217701780041454,0.06153218278101199,4.3121580526264344e-05,0.2633202987934779,-0.9646348899992384,0.3136646282859988,-3.3579952964209627,9.142623785863766,0.3765494308962702,0.07718124505865127,0.014646381563083276,-0.2241477288723004,0.41153653333582707,-1.1098196489291938,-5.405554559613961,-2.4314474861474227,7.0442588454626005,0.7101881056280643,-0.2875408968644915,-0.6509232030929497,0.4290279207916615,0.16158187080183678,-0.8162777046449096
-4.600339130532598,-2.0738842219529823,8.081199092524145,0.6140115109909282,-0.9621559131441562,-0.6599916848297201,0.30431401610309483,0.11515872510827248,-0.8122831008821018,-2.293086087392002,9.171167265173523,2.142448584810576,0.4175125437482398,0.6681056337908151,-0.09392479707110063,0.06000224992850388,-0.9221446530453196,-0.21374404826437762,-1.2334972672948317,-3.383455922652918,9.617223996185807,0.4157566490506743,-0.02760182566142096,0.07707175469204645,-0.0024864226784389737,0.25223019308584427,-0.9747555681996086,0.2967075113532905,-3.5003003989680694,9.068613146997535,0.4198937175432024,0.23546696584239346,0.028505077823546936,-0.21584493785922443,0.40083642546873943,-1.1193874013311884,-5.424790845948006,-2.6461277790272475,7.250218150749125,0.6818489465943646,-0.3763174714589285,-0.5847102244290877,0.41800541657129353,0.15190216336153692,-0.8246303723973211
-4.370632110767057,-1.9464346692371026,7.967470553221314,0.6101402785104045,-0.9622050397170876,-0.569918630492357,0.2828246834208061,0.10668951511923927,-0.8228314821812194,-2.388982285304706,9.125745274797257,1.9026252009107862,0.4854414778834514,0.5354760220458178,-0.08831022463631968,0.0644294458946849,-0.9238786304202533,-0.2022466429770857,-1.2266637442227997,-3.1837505457495374,9.528739076542385,0.47988420605375326,-0.0851383551198564,0.08913827352290431,-0.005970156688967052,0.2407130573478683,-0.9797396138190755,0.10547509755389636,-3.203502699988727,9.151375031842095,0.4862214338525671,0.37062490415621274,0.03692875973481654,-0.2090153703991913,0.3879342404747262,-1.1275086387177642,-5.350385322027783,-2.578747903044231,7.548900369489496,0.6751887386758323,-0.4241047935276652,-0.4896799400457357,0.4087017407287044,0.14466517896051534,-0.8344357858814834
-4.050280575714234,-1.9933886149318536,8.255756154550959,0.5762472305152883,-0.9360959208300983,-0.4916180901459085,0.2564390682418294,0.09920014277155388,-0.8245985722934316,-2.3847661660242045,9.217618046231115,1.9362893070369744,0.4948516799519777,0.41408761709019853,-0.061587292904190405,0.0639642977388535,-0.9206170775707286,-0.18252321223588647,-1.0828820486277735,-3.085052263496525,9.170659796553828,0.49638504898711755,-0.10240934812011421,0.10652643398551476,-0.007708986722933395,0.2285453269635372,-0.9766672796238417,-0.14394701015362524,-2.9743312381971942,9.496685479439718,0.4972964057191309,0.41891318943132294,0.056266307985419414,-0.2000131997315675,0.3793432917779637,-1.1236313604506591,-5.24236193989549,-2.3848997903615,7.833887557952492,0.6323012807109124,-0.43569913023473383,-0.40616218938379345,0.3945152856211291,0.1373757852666997,-0.8315452226046618
-3.853034159009026,-1.9618584868351234,8.388951253245164,0.4799275137386991,-0.9069579334754458,-0.43510234453463875,0.23444996442788335,0.08901927691536674,-0.8319770649496472,-2.4575818417336337,9.31794212530601,2.0372182811016772,0.4200423399871837,0.2960068473658606,-0.04219793648527474,0.06889585329344529,-0.9257948588415671,-0.17267758239705294,-1.0778085914563182,-2.935581150756645,9.217453377145949,0.4218145002247274,-0.08770129087782547,0.1326755720866751,-0.011896777803040572,0.21830715661147093,-0.9765346496444044,-0.25281890690807624,-2.731346750388741,9.604972945914614,0.42971251099776997,0.36153524546913807,0.09862676871195512,-0.18928512996582258,0.36884137694400804,-1.1268426892911316,-5.14616974648778,-2.110883818219417,7.9142634451292,0.5350529194778937,-0.45760032465067846,-0.3549672209821299,0.3881282223835105,0.12669561439655136,-0.8386833905336962
-3.70852525819641,-1.9146365973224366,8.386638351219325,0.3389389425058182,-0.8816538531532339,-0.3946925973223891,0.21563154986705121,0.07614736711417608,-0.8417932026059085,-2.521983746090018,9.584651280771801,2.0054249827513377,0.27392714841756294,0.1890791834070603,0.002484035213463992,0.06673816565672983,-0.9328815554408643,-0.172308989977333,-1.0843765287356555,-2.934294981676204,9.720370841787007,0.29612479287237825,-0.08239178212117898,0.1556735385933887,-0.011235434885851353,0.2067604539809173,-0.9827593023983701,-0.21095922036080572,-2.801368002056198,9.467420767450996,0.30334706096242164,0.38025875112528973,0.13801161826489775,-0.17757202609981187,0.35447406390723163,-1.136668421321231,-5.039094188990614,-1.8608964255705491,7.895023843150683,0.389261364041176,-0.4601736795458122,-0.3335577098030732,0.3773515838713167,0.11726566670305921,-0.8482567200420493
-3.5867117476719277,-1.993409614359474,8.443923864585138,0.2526293099041145,-0.8800368843456519,-0.38006297350513985,0.18610844257468115,0.0811174418872327,-0.8437940290735044,-2.544882761223683,9.590831766043072,1.820441097448537,0.15836057333267467,0.07572294496607544,0.06420553580814724,0.05647229750694819,-0.9271616681583743,-0.1628635136734662,-1.1324990211650152,-2.9885783961566306,9.782591553457097,0.2017258656496545,-0.08379728158731117,0.1743982390836399,-0.02026358764122921,0.2087409067367649,-0.98322589291201,-0.4183509827045681,-3.110388216149966,9.679637101552286,0.21071090442807103,0.44178396275513043,0.16326176928319097,-0.17195722023598745,0.35640141227883776,-1.1346867156503426,-4.974619126739806,-1.73897588984385,7.752702674177585,0.3058987075449186,-0.44009701683677094,-0.33329911677459234,0.3617408635415234,0.12122963482662558,-0.8484789012751207
-3.2264709560215374,-2.1762920973600255,8.602426554327781,0.2979364127736766,-0.8833680964911069,-0.39397109448566364,0.16459982504129433,0.06459509950315642,-0.8565508095037635,-2.5147731429561713,9.437017385204674,1.9144105597013599,0.1622284371942043,-0.010232299958312938,0.12428777014690232,0.055552976372879447,-0.9397071810900778,-0.16802050164445428,-1.1614708351853513,-2.923821924178136,9.562569399053796,0.2098186148578786,-0.07367524767356136,0.18697010611688866,-0.01838753833781885,0.1937890915066779,-0.9879538123631548,-0.6389984050181545,-2.8042373279807387,9.756584870893334,0.2213121764414455,0.4568533130344464,0.17986242875375785,-0.15804530781532433,0.34300184068110884,-1.1440108318442317,-4.76834658728123,-1.7778222860534871,7.815821949877121,0.356701565593565,-0.4314059290591965,-0.33409557037122056,0.35387560375123217,0.1066558400001701,-0.8571032715586606
-2.951584116759856,-2.2759241388466367,8.750914560183247,0.3703695179748796,-0.8909155388569204,-0.41664184830299816,0.15531319100423283,0.06022982799912231,-0.8587704831189057,-2.4464128796585944,9.233821025581912,1.7860395725705298,0.22643270633549717,-0.07075689030827098,0.1517708967703815,0.06556856606834378,-0.9360238633117197,-0.1556499172526101,-1.1610145609688818,-2.7467005552044705,9.302880017296024,0.28001000483571076,-0.06781932890740286,0.21683385006141168,-0.007404088035097874,0.19083800577845123,-0.9862648216964206,-0.8394568007984208,-2.644633438205359,9.705137997385117,0.2859473152819799,0.43224650307975376,0.2115175965454231,-0.13412856903904824,0.34001362596603735,-1.1434733859176456,-4.644408393253733,-2.0166289464011014,7.967986910330643,0.43959370934504816,-0.4588289485895734,-0.3297800929793186,0.3550840468468899,0.10348911406083347,-0.8590735634430497
-2.800099172342947,-1.9872828128887456,8.676270807207688,0.4914324138777088,-0.8949499958783461,-0.41820973036584985,0.12451416900962602,0.05005903463073799,-0.8542011106856985,-2.3301098631961077,9.240664403112316,1.4365886395002303,0.36822165725239897,-0.12843289871536373,0.17919506839158825,0.04975090669151671,-0.9400150954629275,-0.1411439390452006,-1.1361933403505255,-2.489156154643352,9.36129958805471,0.4241526950631224,-0.04970306487394364,0.2393782455839011,-0.018668728389575645,0.17603091674251684,-0.9821417898063931,-0.9308875964122636,-2.60367271763701,9.694847341189263,0.4245563359195754,0.3884958824780537,0.23182315206239185,-0.13294584443782867,0.3263242981029357,-1.141116712165473,-4.5267366039450865,-1.9062379610607119,8.061493648625161,0.5617320217441862,-0.46120775264791847,-0.2970294100163242,0.3350181938408618,0.09062472310100372,-0.8596313208931332
-2.501362365712768,-1.6946532876051235,8.756902976840442,0.4963387165069299,-0.8979828856314453,-0.39368756014671863,0.10130503806333202,0.04037038871891878,-0.8613362099921669,-2.114074458042972,9.399801314808993,1.1934729364348695,0.36823843102884285,-0.1855529513896682,0.22033764138022255,0.04216941675320242,-0.935828236758814,-0.13656142963364148,-1.1222153019485515,-2.1786499177691154,9.63159296506316,0.4258162634606484,-0.05248776930170765,0.23152033578314976,-0.020196257823420993,0.16959742463475397,-0.9903643296894273,-0.9361094416096627,-2.582930191885673,9.958826497372453,0.4233301142128834,0.36758451901564393,0.22869191469211314,-0.12439224758047181,0.3212236540342502,-1.1482053625931916,-4.373073067211633,-1.7853692140410413,8.139904674829781,0.5668215405686411,-0.4376618228933269,-0.26817984015597174,0.3237702858585131,0.08607944603675775,-0.8691780434422521
-2.1622117268565018,-1.8047877608552971,9.104643984316253,0.4719453189985857,-0.8777414488803522,-0.36482224675414654,0.08738534869250457,0.03431647280837688,-0.8689385769241007,-2.008446820699865,9.612415075799476,1.0034313753862556,0.3180699396946526,-0.21129384975318388,0.2748122114628807,0.03902438800759805,-0.9389195440186281,-0.13064190552990282,-1.1300637105642457,-1.8543515738584542,9.665042146577864,0.3891426318236629,-0.04861296569180268,0.20643048792511437,-0.014377429743610906,0.1619790269860127,-0.9929946068693586,-1.0750213429245312,-2.3781120459722316,9.959465276417529,0.39212559957874227,0.34538086084973835,0.2067345672999694,-0.10731891365379867,0.31118877497057285,-1.150419380390248,-4.420068066655217,-1.8755255559639903,8.329059245230207,0.5479346132420342,-0.47905686987650503,-0.225992345108032,0.32104713241186467,0.07561035956937372,-0.8728970666802064
-1.9080374503886028,-1.7723622753681458,9.421223233721426,0.429489432758292,-0.8467889906976376,-0.3209972875870402,0.06464560742132892,0.023881166363263727,-0.866551750722516,-1.9038202261359323,9.715423467938356,0.972230499967166,0.254574072331841,-0.2056240598738617,0.3161248832666817,0.0316970046765779,-0.9356574709767909,-0.1231137677794358,-1.15531239654236,-1.6285104437019635,9.67114423695884,0.32987548357303215,-0.024682841748010945,0.17559686854184164,-0.014628737675772243,0.16026834882247726,-0.9932186103158409,-1.204321964411159,-2.164037480934369,9.942674307356098,0.3264875535245305,0.3110867412636943,0.18213766206773968,-0.0985348311694321,0.30751452629504494,-1.1516379683346434,-4.320571027121997,-1.8141590570897153,8.604263990256594,0.48819667677184686,-0.5744285665462028,-0.20642949650086265,0.3080876669986136,0.07030506306826757,-0.8763438115558975
-1.8806351953983682,-1.8490268863094776,9.541157246456198,0.34145344717580534,-0.8439555436802342,-0.29279823514693537,0.04094987279858475,0.015411727112318857,-0.8719771711175672,-2.050871970706507,9.666931040499454,0.9672231348083873,0.17121530611702462,-0.1813094285440581,0.3205187389128452,0.016826387608775542,-0.9391352943856367,-0.12180429408375905,-1.3770983461488295,-1.6861018161344055,9.424076429463602,0.24636286357607837,-0.016402603668506707,0.14140315076223903,-0.01832022521443679,0.1517399629501553,-0.9928631399729662,-1.506703396978525,-2.299832791101135,9.78250549164836,0.2514813165127798,0.27807225373546807,0.15057992685772073,-0.09464598894114734,0.2984796609256378,-1.1529064110334666,-4.1329513299842775,-1.6553786255939618,8.5195745319163,0.3922947749432894,-0.6385041983376087,-0.1966188226097429,0.29072178483943456,0.061611083648874056,-0.8822499792379623
-1.8536531664973481,-1.8577293520555547,9.61805179419089,0.27735302678252377,-0.9236529573389485,-0.2954494602441973,0.0157637198403507,0.003762875457812522,-0.8691093970163273,-2.0842335359208204,10.006636161765105,1.0273481201500934,0.18636165973935295,-0.15114967368825058,0.29251590618140577,0.009056700156542715,-0.9436617692840811,-0.11267784439681242,-1.4038358877589214,-1.6415160149395212,9.284481147758026,0.254584183995847,0.0290668846153593,0.11661305562811611,-0.019119609257892495,0.13682111340394001,-0.9953804552826682,-1.6992717216723565,-1.9228482230333126,9.844179091359488,0.2559977976451705,0.20273799303486786,0.12996478725414887,-0.09050945925765061,0.28848033873424855,-1.1558894396773682,-3.865083344910039,-1.4115116327768058,8.402550717516903,0.3312331569992736,-0.6257352965312069,-0.21295360753999268,0.2765255043842372,0.051667000615276064,-0.8847459517655134
-1.4215472760670227,-1.6774521157236395,9.596200104852478,0.21264589102252687,-1.0253626807638019,-0.298135112413995,-0.006946558941793323,0.0004138140946593104,-0.8715964144314519,-1.8419456473145077,10.260598812972358,0.9228113757466182,0.17263992928798239,-0.130567168173804,0.2879428432944879,0.0012530993496562386,-0.9433774597398655,-0.10778360783430047,-1.174660482753873,-1.5771427129013675,9.40696905223221,0.2569723712712029,0.13744056047032768,0.09509146179261976,-0.01376232656923993,0.13434725641852055,-0.9965999879019756,-1.5701909248027588,-2.0583872521320643,9.987703997217242,0.2725327758059802,0.06387440320936957,0.135280831177718,-0.08807947196986293,0.28213477835388184,-1.157143636727401,-3.6331057523415415,-1.3271085015083273,8.507318375838542,0.2597213928554083,-0.5967622804764312,-0.2551503783728645,0.2645589993571101,0.05074674298523992,-0.8871918181416882
-1.0393519304112042,-1.4463648828991345,9.485108892393786,0.1456295110646553,-1.0885327237047433,-0.292150412489872,-0.03113117545929133,-0.002450541279355116,-0.8682265010508267,-1.6660880548228496,9.893201068415411,0.992726194451292,0.06339231788054306,-0.12700009972656542,0.3101153973751942,-0.007044775956182722,-0.9431414071644951,-0.10557397198411861,-1.2460751127942151,-1.4538041547325482,9.534778955471504,0.15228791269416375,0.22147016352213375,0.07189999175753829,-0.009139903198368365,0.1325999790717001,-0.9985560446633475,-1.4574841056473355,-2.078762507728164,10.077840395992986,0.1630092593543243,-0.05084872265371901,0.08024723139298819,-0.08906485172084351,0.27968975670687996,-1.156186306119905,-3.2942631420216735,-1.403540148257321,8.674775521612782,0.19598144392502534,-0.5828251602950721,-0.258716571918162,0.2508710783574564,0.04642141164427308,-0.8908772191372502
-0.770048641322821,-1.6340413929711255,9.632195396204901,0.10788509039544401,-1.1453034609418449,-0.2792067112069465,-0.05898907783291118,-0.009210267344617095,-0.8648683433915612,-1.6626953154804134,9.491250526347036,0.9732576881990601,-0.048394326746959496,-0.12093307761327335,0.2738379744843482,-0.015333421321022573,-0.9461492954145501,-0.10745988722375682,-1.4315851966263065,-1.3511359776545768,9.473425725107514,0.008283617714781448,0.19991870898234115,0.05376302200759679,-0.005980883873428157,0.12843767985841664,-0.998525398884615,-1.373684157791413,-1.736314400591034,9.752776431791261,0.015350100810912579,-0.08427043266843183,0.060740119434934584,-0.09102623004595035,0.2772459771289799,-1.1552307756701337,-3.2264991429193453,-1.677234888640189,8.907975551171987,0.17270465247833502,-0.5490563172787578,-0.23660900384099004,0.24206348981420003,0.041340725817474555,-0.8933467892581554
-0.4479639454017392,-1.7395655898614892,9.832167623511763,0.047862466789627765,-1.2092230904452927,-0.2551530871844331,-0.09510183283219606,-0.003731467472182579,-0.8673696175307624,-1.6433180486483978,9.359996054847624,0.6956190492427172,-0.04581582665209788,-0.09781952629426784,0.18610674626608775,-0.028336176287041357,-0.9362900898443453,-0.11224136929714326,-1.595932091050358,-1.3186937989320449,9.388263635760758,0.009565397378291351,0.1385086507898219,0.02948836949338746,-0.008644882127511716,0.13648782860434236,-1.0000662715174795,-1.4708655002783244,-1.8925628745549872,9.685599705476433,0.018948880726791302,-0.06457775222240839,0.04034168653022659,-0.09783083772678676,0.2848622177503108,-1.1600840775469896,-3.0955120912006056,-1.5377968467247416,8.993627146929557,0.10772903390013147,-0.5212356370709859,-0.2419706024977991,0.22427076148652966,0.04949448591426435,-0.8994052085191272
-0.04965744059964525,-1.6591584782660496,9.785127348340184,0.06783760022652408,-1.2810671793395878,-0.26451983774835947,-0.13151127155293924,-0.00949603604345837,-0.8588988704428424,-1.5494737103905316,9.444507723927533,0.7621146226538187,0.07252858159107888,-0.042313450862542,0.08882758223935547,-0.03585725857065634,-0.9425746779243201,-0.10601498849059676,-1.5565675840482485,-1.1073323055232052,9.337670547038424,0.10399827041941358,0.08211504185060452,0.004397573949803909,-0.01404739266960767,0.12578224946423006,-0.9984575810197969,-1.4164514364244718,-1.4308959015336695,9.562938536338669,0.11461787874508277,-0.04200944275791172,0.01471268001239891,-0.1078736147805433,0.27557899715070217,-1.1557790751837447,-2.862423514777183,-1.472121431138386,9.011400516966255,0.12694577063420234,-0.5191255270589678,-0.2434084241246336,0.2064231682229995,0.04248199373621822,-0.8999311326129212
0.38285231535265135,-1.519035937882334,9.793723829044449,0.06750546217423901,-1.34081576790881,-0.26122928972408627,-0.15592807161401995,-0.016005965102799398,-0.8677411031597276,-1.360630682646314,9.616125775980668,0.842403759172304,0.09608215814719423,-0.007432348009482507,0.01410924940751628,-0.030479728416279484,-0.9463228881922077,-0.11279893057661651,-1.2955378259387509,-1.2014805351488667,9.316290625157112,0.09913819786004598,0.05184313169478012,0.010177107601871137,-0.002891118720466751,0.1224225316959536,-1.0116589953792223,-1.2149277846306141,-1.5070119351709297,9.776523055932202,0.10370527653821592,-0.050172653519459216,0.011471254070434507,-0.10028507084042415,0.27050752068345885,-1.1670204176441041,-2.716666608160774,-1.561841839617259,9.202080566069457,0.13871159683658693,-0.5248201551050757,-0.23132643313838638,0.20495181828124656,0.04083418675907828,-0.9101942356288221
0.7752035921802397,-1.323836602850904,9.580674849922161,0.035491889942144826,-1.3620057075958925,-0.2252192417235864,-0.19578130576179165,-0.02202321499957792,-0.8456049706691005,-1.246087935713214,9.498197578635878,1.032568046603009,0.05552484207428666,-0.02163144488519893,-0.031022546910338084,-0.036801315482869815,-0.946385922317706,-0.10008857146845042,-1.1187476820422915,-1.4031513731531464,9.390777118863829,0.0329079146635538,0.039809931187927666,0.005500134299153551,-0.008690540245749594,0.12088803404342369,-0.9976973563663246,-1.006551167075075,-1.6931093863779483,10.039264194567483,0.027614887500763304,-0.1042019630582688,-0.0027124645847211026,-0.10959303960495083,0.2694879918328014,-1.157043560253058,-2.580229116977223,-1.6447871395611982,9.480149945753286,0.10297126131013816,-0.5341931457872691,-0.2047825390923278,0.18393568274423583,0.03525564552764528,-0.9029001872454345
0.9534540788983071,-1.2832312316877768,9.452007080580042,-0.02675766617311339,-1.3443689507882204,-0.18686477099642929,-0.2279895145953217,-0.016312935316095154,-0.8463887727309256,-1.3913371283358618,9.251167421936508,0.9223919078725467,-0.026283407052940903,-0.051963353866103186,-0.05677253101347125,-0.0382903325256995,-0.9443008458255115,-0.10622493254549442,-1.3243995322359947,-1.3812778885426094,9.449768335031148,-0.061327102285161965,-0.01465457683163708,0.007257235850578906,-0.011649564173391922,0.12446115079478495,-1.006756130459809,-0.9691633675566956,-1.4703796114082315,9.518215269272446,-0.06729711583124408,-0.10587416892679904,0.005151804233056652,-0.1166444150476535,0.2746691892235099,-1.1628903907589445,-2.5833748664856406,-1.5184215694614298,9.523958765520439,0.05195737906053461,-0.5099264385200859,-0.16584804544938408,0.17443490891185082,0.04118764162309194,-0.9099478452897407
1.2562654672347864,-1.4148528635065245,9.432936798015174,-0.07111899311216587,-1.3319703357515011,-0.15522220593956745,-0.25099410580696907,-0.023595589614940817,-0.8276413367316082,-1.3780404000993596,9.101359533773415,0.7115339186397008,-0.027029715533798383,-0.07154852436337034,-0.09656141965394947,-0.028486632614490966,-0.9500560160684104,-0.10321708256149904,-1.2995628180604235,-1.3324403430177465,9.49740087460304,-0.02926095007285045,-0.09287593621538473,0.011450108905593056,-0.006248293185560978,0.12063782564205283,-0.9974622796705773,-0.9382783760575364,-1.5208190036128144,9.472103823316706,-0.027092355919100627,-0.02140862391408793,0.006935368112646619,-0.10886315067557453,0.2694815577058589,-1.1563094834500023,-2.543989555135357,-1.5165100710090982,9.412590927131125,-0.008980470958670534,-0.49950990536817047,-0.14474408695501853,0.16903830010945117,0.034106021379469935,-0.9060802691548747
1.7042515302587025,-1.3574805762876427,9.408267178954349,-0.061240397685758126,-1.3295281856168957,-0.09926978381932854,-0.27931394009534516,-0.019613778749743637,-0.8220732057065051,-1.1903645702324162,9.219184200532737,0.7208811213126343,0.09082790745729899,-0.09646821892953332,-0.13544089180336918,-0.025560701554808066,-0.9480210735088789,-0.09935081534189438,-1.0610225402067066,-1.093529105420277,9.592092832192462,0.08508464565153222,-0.16877381850883277,0.026279316834742487,-0.008944180725554592,0.12014086491576136,-0.9991530313993154,-0.7874279095488015,-1.113075809389666,9.542298230442924,0.08458983628015061,0.04424928218821747,0.027487075434189358,-0.10396557655415768,0.26974597333822764,-1.1611767995583504,-2.3538395153874667,-1.7518859893434258,9.534814123432596,-0.030635719363302023,-0.5005404324864885,-0.12654110098040117,0.15929194802614752,0.03927899627564482,-0.9080049807675137
1.9526996348846086,-1.3609662671908414,9.27853660157291,-0.0894759776709893,-1.286624982956488,-0.047586320377163545,-0.3088588605013608,-0.01197844246988998,-0.8079576035905575,-1.3351306275979806,9.1865556282786,0.8256260013139329,0.04162473413178449,-0.11104931728970444,-0.16056327750438082,-0.022189068458444736,-0.9381758345802617,-0.09586105751334104,-1.1818155251111901,-0.8740665626599471,9.799084886868567,0.026430801744326608,-0.2666841675744699,0.05963606412452267,-0.01646291140147152,0.1299650319174725,-0.9962948535277484,-0.879734304860215,-0.738205814631483,9.55012623584743,0.021799170111239132,0.1520363620358041,0.04550196952197969,-0.1010348706962937,0.2767842192927261,-1.1557515808476748,-2.451848108461668,-1.6344042694177858,9.837382838870807,-0.07767940279109732,-0.4979138303868582,-0.09527762217596232,0.14713026400230203,0.05176208066598482,-0.9057397865577844
2.2017526756257753,-1.2664414646725273,9.094799063199682,-0.1136303491013557,-1.2024283348177143,-0.015300298448170109,-0.33815536339063523,-0.011162822421610496,-0.8070333501644966,-1.2748295503972666,9.157973644877499,0.8826378986362703,-0.05294551515582866,-0.1316373366279609,-0.14927715370538397,-0.021706760420320326,-0.940532456053958,-0.10534538791596165,-0.9770674639801484,-1.0662302380554558,9.744178702494048,-0.06476247503611557,-0.36396990187423783,0.08959546970608616,-0.030909621278798875,0.12677130443721946,-1.0027830454563376,-0.846743194727741,-1.0428400453310456,9.296238919712275,-0.07318696917268296,0.2898406265630678,0.0860194869192153,-0.096608175975145,0.2773333395760327,-1.1667215588221382,-2.4462798050639667,-1.4211792483153411,9.871784379623119,-0.10509012145596079,-0.4770436994744584,-0.07529226281029171,0.1385665630621013,0.04671805770518579,-0.9152882656815893
2.505128930722591,-1.3554816171363937,8.82881396686599,-0.15876911657907078,-1.1224136613422653,0.015979807757053096,-0.3647853616750927,-0.011829652693926962,-0.7978060860652249,-1.317175945207112,9.226003442813601,1.0524721947174258,-0.16780060437186564,-0.16273265021191952,-0.12522691153838164,-0.023639593975391764,-0.9452259310736406,-0.10794729580979752,-0.9018584948195715,-1.3079027379475976,9.701873914884533,-0.17741266499452327,-0.44815549994226667,0.11675034919878424,-0.044338241196290845,0.13044982329835894,-1.0056894167505426,-0.974839846857563,-1.3654829018477666,9.164694394106448,-0.18568629630551617,0.4352815390686628,0.10860169447737092,-0.08928942921695747,0.27779120512077343,-1.1645004755205806,-2.1347120092918326,-1.3959402135183059,9.703272603689785,-0.15270307180968878,-0.4491917192684526,-0.06804376688232872,0.1239282634384465,0.049713144070694215,-0.9174697667224448
2.730697056532558,-1.6065402970453722,8.960770596627212,-0.21588645429529002,-1.0836368498041333,0.03745085142399128,-0.39114478677938375,0.0011646349248986916,-0.7814807359479836,-1.392473638267036,9.392700365197618,1.1560477745205369,-0.1980127211349246,-0.1925234000134479,-0.09212496689825467,-0.02514912706474479,-0.9382047696618699,-0.1109939541894015,-0.7933817627493652,-1.5773422858391533,9.767936973195232,-0.18899898994350478,-0.49959066982777445,0.13560372128511308,-0.06085484674195861,0.1445059898236759,-0.9984393816567396,-1.1816043230345707,-1.384654583026743,9.206238184882197,-0.2002372199180052,0.5631501791317836,0.13180376413573566,-0.07705715854959662,0.2906922739103156,-1.1629165647251363,-1.9144621846806547,-1.6364049027719862,9.683979535248593,-0.2138224385640309,-0.38267284638267995,-0.08081780314948565,0.11347736567891972,0.06266870207674131,-0.913492000166717
3.3071738715403205,-1.9846560432514646,8.979367900316616,-0.2714772434737743,-1.0684004244020335,0.07816146837435896,-0.41315746289097005,-0.009276245821420882,-0.7764075750351469,-1.403791877065902,9.53315340889045,1.4297928511281564,-0.16866345272935665,-0.22254477794213073,-0.0793582211374461,-0.022905650132525067,-0.9510847158572135,-0.12250041290873175,-0.7159335426304846,-1.3133280300764316,9.698379270009507,-0.1275342729953057,-0.5372775858588765,0.18133215336562977,-0.07289483886973101,0.12984623657789382,-1.0033479075389122,-1.4290559276549228,-1.0768113629466542,9.01903115926474,-0.14262862240690477,0.6914941850314679,0.18577131072093644,-0.056797678521279156,0.2838350853593324,-1.1668088471093516,-1.782769671869944,-2.1359713921493584,9.976463493466424,-0.2919889790561337,-0.318080697107031,-0.09550710171846867,0.10809118333315931,0.05859279853856038,-0.92352426267752
3.451120323761396,-2.094688148133066,8.832911338629234,-0.24562880217238003,-0.9998131210631044,0.09148918700817202,-0.43611080053182155,-0.0011722672340693074,-0.7613022633468429,-1.477334462184478,9.120526737331078,1.4685153815840823,-0.28625115257419065,-0.2031735499590842,-0.07266879630192687,-0.02464024265574991,-0.9469695495084718,-0.12403207889730648,-0.6711993168525426,-1.551542248642138,9.048818675661158,-0.2686887958464213,-0.5550969606998448,0.217775430509034,-0.0869902499142046,0.14166709819307136,-0.9987720772140253,-1.8530784270963923,-1.7809695100172744,9.130611812545137,-0.29800756285918845,0.759257215711419,0.19310994397200426,-0.03676543644705891,0.2913456990306567,-1.164993450524592,-2.0383992614952375,-2.102388905416488,10.153543861756757,-0.2628585297214448,-0.28576449198709025,-0.0685611655461061,0.10054367710381,0.06421388213238056,-0.9195874804954303
3.5594279264604487,-2.2754369429351695,8.901317914535147,-0.2664598262884867,-0.9096877670102563,0.10186588229727934,-0.4519530780662062,0.011318051980751857,-0.7561882766988938,-1.6385043334629577,9.115689992568784,1.3905940929449514,-0.3099669160571369,-0.17185837782258648,-0.07501806267304513,-0.02102282734692777,-0.942220717351861,-0.1331541357723669,-0.7057362258498517,-1.4939459778030395,8.403947340372994,-0.28600600508066504,-0.5080126488145174,0.22185191178859906,-0.1013451369733879,0.15369526213450235,-0.997614529929397,-2.1842664327104777,-1.9444213294311838,8.835470336866697,-0.32340057054674176,0.6757028298467496,0.17715854994647137,-0.0230653916038332,0.30498113187421827,-1.164133571775972,-2.1124935937911506,-2.186465675082142,10.049779605549665,-0.2809306339947577,-0.2594456762886307,-0.083737798122703,0.09571829813261615,0.0801082465625214,-0.9209658752669795
3.8605246640162916,-2.4005746028575605,8.816453657822581,-0.2881910796644148,-0.8441093856059595,0.09865831731683058,-0.46955379216111004,0.016469575892900965,-0.7357059198586274,-1.564152594619375,8.872230928781018,1.186052649040496,-0.29525493535560726,-0.10467678304697677,-0.11844572976723275,-0.019826715085780714,-0.9385940858202005,-0.13565941523627922,-0.6306601957429286,-1.4665011210096484,8.166669111249513,-0.2641643142846958,-0.42471356005239536,0.2015139821355253,-0.10908536972011464,0.16236214030057305,-0.989127162028747,-2.255220596115135,-1.910181851445562,8.863267961618059,-0.29617571645286017,0.5176985699857719,0.1598006345085079,-0.006722106335802084,0.3129258286012302,-1.1525597280512814,-1.9811113999491534,-2.1965523585215574,9.990921817123178,-0.2999765256262521,-0.2535039572160033,-0.09336929704152908,0.08938639172518825,0.08449162945704822,-0.9145938152666702
3.8547265101929358,-2.3361029544132603,8.589949366518606,-0.2475923868894353,-0.773378793712458,0.08800081871923558,-0.4815600131721653,0.009895312317300044,-0.72255339016004,-1.6115214347181872,8.70862321457297,1.1438358488264726,-0.20363724966230037,-0.010643846078714894,-0.1644868302680387,-0.014145128659219262,-0.9512813606083577,-0.13692041052862045,-0.5590083476881851,-1.4292878523280161,8.335781090093025,-0.17465459430182362,-0.36594609354518215,0.17176017512009642,-0.11616686619174421,0.15512251750666212,-0.9836422648989747,-2.255715030187106,-1.8091740984063003,8.470628787979068,-0.20426441307553464,0.3881438869198716,0.1440253994809292,0.0071694820238410485,0.30531011562169086,-1.1501280928690418,-1.9786297050235309,-2.23221402391021,9.737109821023694,-0.2675569067023554,-0.262176557144049,-0.09654306141800317,0.08546363510675253,0.07984563858045156,-0.9107129980476943
3.7717971086956297,-2.049334867244038,8.440843555506413,-0.1996607897585973,-0.7228584671312599,0.08039079837654724,-0.5015350416351381,0.026065977409789862,-0.7215922692675639,-1.6430148701414242,8.559375671904244,1.1513073200731063,-0.12068504373796696,0.04305983958479713,-0.21632615537400127,-0.011054014940030204,-0.9394531688853527,-0.14591758439261107,-0.5010672456410102,-1.6412701172635975,8.301300072136186,-0.11194531516664975,-0.3468726490605234,0.14176009987289928,-0.12589567316090622,0.1709777584477255,-0.9881643519898669,-2.293627319495018,-2.3380694619637796,8.460690057283715,-0.14066133755130228,0.3485382318432041,0.12729409771427525,0.012352379972385717,0.32121126609173356,-1.1568462152692394,-1.912893924910253,-2.1086683973964444,9.474754702651248,-0.21231871365033764,-0.24854099451163797,-0.05849408110255162,0.07648640836267895,0.09530430448856365,-0.918929803955519
4.015778862715147,-1.8581192606071497,8.473407614667487,-0.2380229845456494,-0.683560920273144,0.106486964034637,-0.5091042111608449,0.03339616591694938,-0.709389709776186,-1.4822407684965635,8.863518603154922,1.0471811581418555,-0.12484366825615412,0.06297977247238638,-0.27123412952958886,-0.0003296937289017763,-0.9364775826149409,-0.146722304162393,-0.09222756119460149,-1.8231348068969035,8.120089550390505,-0.12296727914190649,-0.3066113518489446,0.07801258962372128,-0.1295418148634641,0.17441693556540314,-0.9874526614404631,-2.1678170023285555,-2.897172520183144,9.130582581065125,-0.12977399892560407,0.2128438153495065,0.06619677540728462,0.023831137008910513,0.3260534601995476,-1.1545837250220377,-1.9310573418737635,-1.8790590830763434,9.593854078974818,-0.25812163612286926,-0.2309830412305256,-0.06883192935804133,0.07773401163839326,0.10261573742240816,-0.917424986185714
4.299650952715798,-2.0184011826809174,8.57665099707528,-0.35892064811878177,-0.6427709767793607,0.1469385231928658,-0.5281572950066193,0.039047782968586256,-0.6950133920742312,-1.6955453460854826,8.88841570618116,1.3834841660120107,-0.19642579515656164,0.08059086691665093,-0.323195873966137,-0.0015347206225136657,-0.9396701525706826,-0.14739783970058934,-0.2375738877080316,-1.8178484568021325,8.3463234851234,-0.17993573527681353,-0.24328018107361846,0.013460310478584633,-0.14365743812157644,0.17481289199250544,-0.978355787661913,-2.3026164826102242,-2.7418373384986983,8.844954041236116,-0.1514271998404362,0.01791915284430081,-0.013813814962825532,0.01722259868457502,0.3272426951467224,-1.1475148479926782,-1.82502873373107,-1.834675439096125,9.644975922685314,-0.3879551668222881,-0.24159593589314196,-0.13034866852717544,0.06506476199881349,0.10996008020911899,-0.9125017278539487
4.383438275943804,-2.3085515708256725,8.576942659094797,-0.5205901194436157,-0.6252776863454867,0.16614819376122356,-0.5388603595267103,0.05250683763039311,-0.6950157349922375,-2.015654803726149,8.866693030302866,1.7635199808698807,-0.256547907732675,0.08179384481632813,-0.4327100377101845,0.013807362821892455,-0.9381304735475356,-0.1623493331072882,-0.45302553527169276,-2.2052814717988336,8.999423832082172,-0.25881510980149947,-0.28656955652878807,-0.013514038749815431,-0.14780685835848034,0.1833053551164693,-0.9845327462003594,-2.5354840205136937,-2.7260289451184065,8.668310114710152,-0.21921833700713686,0.010713981401890577,-0.0714310483147581,0.021167788889956258,0.33460819778902856,-1.1552689195727928,-1.6686258412940496,-2.2411300580959783,9.627916957153424,-0.5313925106410571,-0.2594697840768756,-0.20229889592307093,0.06290752715211127,0.1210016810692152,-0.9212306976821986
4.300501013875457,-2.515951755232353,8.280579850289978,-0.5954206268247871,-0.6382472541500213,0.18715215141305744,-0.5476602317574263,0.06251430270289238,-0.6732899679506397,-2.2219954881061166,9.44521268687793,1.8655244775103486,-0.2990260261348727,0.03783591174925141,-0.48406581626994616,0.026503349502028796,-0.9375475485920014,-0.16091898954226053,-0.14482088614902835,-2.418722946677654,9.254031603123687,-0.32285871990640014,-0.3157318149143927,-0.02364353091787093,-0.15237210267405804,0.19220732567348014,-0.9758191460522463,-2.4291930411968288,-2.4941319492401335,9.139249869479798,-0.2792518772514533,0.038754507517207375,-0.0729209459321393,0.023349795378151145,0.3396698380324222,-1.1459515772622448,-1.5069955922392275,-2.487227489910575,9.415513239783092,-0.5933182706466303,-0.22704608219735695,-0.23263484532572284,0.057827678979306414,0.1339071698706595,-0.9116392018480208
4.588602159924218,-2.786491388046625,8.033787302304612,-0.6059028511397557,-0.6455880340266636,0.19418847838196399,-0.5625349135360616,0.07426440156784242,-0.6647571479801823,-2.095506661661895,9.724340555210347,2.0095616075253724,-0.17929869248599786,-0.0009426421663117964,-0.4155340313482854,0.03308597648077564,-0.9378395067970392,-0.16581069450731978,0.4990678326207793,-2.644106071119185,8.960454294036373,-0.20812962244944663,-0.1868771493292721,0.005640541163374893,-0.1606544234571874,0.19227786670492997,-0.9721180069832263,-1.9833901755054082,-2.2428636595050917,9.342238372998947,-0.19239228848621623,-0.0778830747416106,-0.040679727246249284,0.016512272162273772,0.3411394677455951,-1.1442526756233917,-1.4996204969777347,-2.783432855387017,9.39701087010105,-0.5998701270293209,-0.198574982618146,-0.23753877973507723,0.04932178486631055,0.14466367652137804,-0.9084064506958983
4.830345130447172,-2.9179153171778562,7.847539712265312,-0.4592494724912642,-0.5819817874301478,0.17059653486547072,-0.5732559097930481,0.08771089620932344,-0.6549945154400165,-2.1013577691112406,9.805496903084173,2.548977270048624,-0.22404018113399354,-0.0327836090561557,-0.312652519709502,0.04162627138269674,-0.9396218855902505,-0.17287826798240524,0.5420231594217304,-2.433246116054538,9.101041278066042,-0.20569405174535735,-0.0017793789838006125,0.026989189984329958,-0.16112761726033306,0.19667335556696988,-0.972164075284124,-2.0218951075797404,-2.556775804414084,9.870643863328665,-0.16793531253619032,-0.3029459900275816,0.0053260483081275355,0.009204294007365712,0.3438644463581943,-1.1476741143336806,-1.6590927541599794,-2.9026908590888083,9.360723327675814,-0.48850653135165023,-0.2522990520243387,-0.1832502145193811,0.044720015887021514,0.15494127543830571,-0.9098154353530258
4.520524869681027,-2.8560836306165194,7.82548425507717,-0.3489578153917153,-0.5005988920183368,0.12354662519897143,-0.5800929922739091,0.09089746360656215,-0.6493879578176639,-2.3409934175007474,9.222992439515288,2.17920045532484,-0.313959811444273,-0.0747947992653591,-0.22616190870420955,0.04452126549221687,-0.9360719775821542,-0.18051333545033882,0.12384979644697189,-2.764378150866377,9.218792530325846,-0.3268180423929821,0.09679983644383595,0.07240337255173648,-0.15648808895561314,0.20198412542414734,-0.9761509661321154,-2.0959878031225068,-2.8136334892313855,8.865325403933083,-0.3507300713012373,-0.419830177799059,-0.02638079876045184,-0.0015116609544450995,0.3534194704359496,-1.1491080090752703,-1.8027141911683935,-2.6802655724789664,9.247395036379384,-0.34602496710221725,-0.30060655616540616,-0.12610058207353364,0.03522659788757554,0.16253005061451184,-0.9070879265972573
4.253923158664506,-2.5641563346326413,7.710852884137077,-0.3871605307945254,-0.45786167570410996,0.14336049212501273,-0.5844608056985913,0.10554744638959898,-0.6410761144394542,-2.3630019649905063,9.19022447212357,1.9715716523243736,-0.36419100087262507,-0.14875134068220514,-0.16889535923358623,0.052021362626589185,-0.9284355027116361,-0.19335458879753686,0.11274020027664497,-2.7238083238857285,9.445999969879864,-0.34905138758568005,0.1326627713450175,0.06655505802394723,-0.1507892404757485,0.22079896448205416,-0.9729668952741402,-1.9797724747362593,-2.7798692632559026,8.730555382751247,-0.33059824959594436,-0.3723129593764518,9.59866978422941e-05,-0.00952504845249777,0.3700523061663371,-1.1509762323948973,-1.6900260770671052,-2.6624612413069215,9.211207747342884,-0.39591577247356363,-0.27408902315282013,-0.14737374127297664,0.03308718273249075,0.17842131306572892,-0.909687397024235
4.403313615351111,-2.4712654257849764,7.539810262976671,-0.3813323993873915,-0.44914802718065105,0.1685424655129504,-0.5929908662940419,0.11825212177097744,-0.6286244060148346,-2.234263333369319,9.134849722124047,1.9127768385072128,-0.38969131699129456,-0.24603768799683987,-0.10123091424935404,0.051505140646861416,-0.9248472041689014,-0.19756609891100615,0.17436217965938777,-2.6223877418890917,9.588592069834302,-0.32562864610286796,0.12635818188491868,0.08263140795696884,-0.14829845089529176,0.22889214713965772,-0.9689175157245605,-1.7973824749144913,-2.3787702676705864,8.798434383896415,-0.30280903790112496,-0.2712847175588311,0.02899793602000497,-0.016608797011871058,0.3788035755081037,-1.1426396436287753,-1.31112552685489,-2.723078213905744,8.899221296739922,-0.4090171259681196,-0.19996970936004002,-0.12848864687294548,0.029462481168086373,0.18867110354710653,-0.9064574791217386
