# sampling frequency: 40
# units are seconds/meters/radians/a.u.
seg1_acc_x,seg1_acc_y,seg1_acc_z,seg1_gyr_x,seg1_gyr_y,seg1_gyr_z,seg1_mag_x,seg1_mag_y,seg1_mag_z,seg2_acc_x,seg2_acc_y,seg2_acc_z,seg2_gyr_x,seg2_gyr_y,seg2_gyr_z,seg2_mag_x,seg2_mag_y,seg2_mag_z,seg3_acc_x,seg3_acc_y,seg3_acc_z,seg3_gyr_x,seg3_gyr_y,seg3_gyr_z,seg3_mag_x,seg3_mag_y,seg3_mag_z,seg4_acc_x,seg4_acc_y,seg4_acc_z,seg4_gyr_x,seg4_gyr_y,seg4_gyr_z,seg4_mag_x,seg4_mag_y,seg4_mag_z,seg5_acc_x,seg5_acc_y,seg5_acc_z,seg5_gyr_x,seg5_gyr_y,seg5_gyr_z,seg5_mag_x,seg5_mag_y,seg5_mag_z
2.639029,-9.353527,-1.669695,0.058675,-0.02143,-0.394644,-0.161865,1.061279,0.230957,-5.838297,1.201297,6.780646,0.003994,0.268823,0.123094,0.539795,-0.272217,-0.790771,-0.261026,-7.435306,3.295456,0.830921,0.220947,-0.117483,-0.12207,0.938965,-0.30249,-3.379621,-8.398675,0.08849,0.450553,-0.062586,0.146178,0.302734,0.898193,-0.122314,2.380968,-10.006553,-2.203823,-0.498931,-0.309034,-0.504788,-0.279785,0.811768,0.125244
2.142237,-8.694132,-1.594377,-0.108775,0.037641,-0.380721,-0.173828,1.053711,0.23584,-6.732597,1.401289,7.050978,0.180474,0.289176,0.049451,0.538574,-0.279297,-0.782715,-0.913021,-7.223648,3.888068,-0.349272,0.143671,0.072846,-0.123291,0.939453,-0.288574,-4.241095,-7.846837,0.824911,-0.099817,0.237867,0.128058,0.302734,0.892822,-0.112549,2.385893,-10.044646,-2.037926,0.56081,-0.201014,-0.473134,-0.291992,0.806885,0.115479
2.350221,-9.491957,-2.001162,-0.200888,0.047345,-0.38616,-0.182861,1.043945,0.244629,-6.652734,2.5034,7.248736,0.142025,0.149199,0.086228,0.543945,-0.289062,-0.775635,0.426415,-10.271975,3.181185,-0.702367,-0.029553,0.105117,-0.118896,0.935547,-0.267578,-4.643034,-9.877882,0.502162,-0.47553,-0.087057,0.033898,0.303711,0.890381,-0.095947,2.364869,-8.226502,-1.612466,0.407189,-0.365026,-0.443077,-0.300537,0.800049,0.117188
2.37955,-9.591479,-2.081465,-0.088553,0.050838,-0.298709,-0.191162,1.039062,0.243164,-6.366855,2.06866,7.060817,-0.464941,0.096832,0.10428,0.544189,-0.28418,-0.781982,-0.267449,-10.405671,3.014294,0.17258,0.347803,0.0069,-0.118896,0.931641,-0.275635,-3.092697,-10.252925,-0.186763,0.039804,0.191927,-0.206379,0.296875,0.887939,-0.101318,3.162921,-9.182131,-1.996907,-0.605987,-0.381805,-0.536347,-0.311523,0.789795,0.130371
2.82144,-9.63956,-2.054473,-0.103852,0.052274,-0.258556,-0.190186,1.042969,0.253662,-6.518157,0.174203,6.663746,-0.157399,0.184545,0.097316,0.554199,-0.274658,-0.770264,-1.244794,-8.867188,3.463474,0.162853,0.116758,-0.155505,-0.114258,0.941162,-0.27002,-4.885019,-9.168207,0.407014,0.328862,0.510591,0.024133,0.305176,0.896973,-0.094727,3.041794,-11.497062,-2.937541,-0.329062,-0.264034,-0.360434,-0.310059,0.793213,0.148682
2.597491,-10.126563,-2.016524,0.01165,0.113876,-0.160853,-0.19458,1.037354,0.244385,-6.640999,1.218137,6.84071,0.723769,0.136688,-0.022173,0.552979,-0.290527,-0.770996,-0.353038,-9.576239,3.243736,-0.122565,0.120903,-0.093669,-0.115967,0.938477,-0.277832,-4.882587,-8.603479,0.622771,0.237709,-0.14397,0.027367,0.307129,0.891846,-0.112061,2.794797,-11.002345,-2.702151,0.573695,-0.383532,-0.340221,-0.31665,0.791016,0.129639
2.715523,-9.867606,-1.638639,0.238946,0.098504,-0.062345,-0.200928,1.0354,0.238281,-6.641876,3.17262,7.155489,0.394025,0.129716,0.00929,0.551758,-0.302246,-0.763916,-0.211839,-9.877553,3.324697,0.275446,0.143862,-0.172442,-0.124023,0.93042,-0.282471,-2.972036,-8.80597,0.179615,0.162569,0.146163,0.120487,0.303467,0.888184,-0.11377,2.838834,-9.73179,-2.068823,0.402215,-0.423438,-0.258628,-0.327148,0.78125,0.129883
2.681489,-9.355936,-1.211018,0.13376,0.104132,0.008814,-0.205078,1.042969,0.236328,-7.16858,2.38088,6.893141,-0.170643,0.087934,-0.029737,0.552246,-0.290527,-0.764893,0.029812,-9.023443,3.691133,0.279594,0.188122,-0.112173,-0.12915,0.939697,-0.288086,-4.576104,-8.709386,0.806449,0.302327,0.615622,0.11798,0.307129,0.893555,-0.114502,2.763201,-9.85234,-2.009833,-0.013437,-0.566537,-0.212449,-0.333008,0.791748,0.136963
2.648062,-9.916054,-1.479111,0.095103,0.158377,-0.006165,-0.19873,1.04126,0.228027,-6.967904,1.17727,6.468877,0.18661,-0.022574,-0.085356,0.557861,-0.297607,-0.767334,-0.528641,-9.426055,3.48165,0.123409,0.268451,-0.075178,-0.121094,0.933105,-0.296387,-4.670892,-8.3477,0.975524,0.26956,-0.007108,0.224274,0.318848,0.888428,-0.125488,2.820302,-10.563525,-1.938904,0.169765,-0.580398,-0.154069,-0.326172,0.783203,0.133545
2.419793,-9.204518,-1.282123,0.352113,0.186435,0.086196,-0.200928,1.039795,0.215576,-6.475219,1.79732,6.529203,0.516616,0.017271,-0.15764,0.555664,-0.304443,-0.764893,-0.567439,-9.505412,3.332315,0.532334,0.267247,-0.151554,-0.128662,0.928955,-0.313721,-3.662785,-8.613708,0.486028,0.277974,0.226446,0.295969,0.323486,0.884766,-0.13208,2.538095,-9.613125,-1.425191,0.559966,-0.562833,-0.09277,-0.328613,0.7854,0.127686
2.350435,-8.97181,-1.369161,0.023947,0.242162,0.145219,-0.193848,1.045166,0.221436,-6.654,2.230048,6.773939,0.295922,-0.065885,-0.145744,0.560547,-0.30835,-0.753418,-0.314118,-8.530299,3.647621,0.488438,0.187425,-0.126258,-0.126465,0.924805,-0.318115,-5.070427,-8.493113,1.292265,0.363842,0.263082,0.274653,0.334473,0.878174,-0.134521,2.682181,-9.347451,-1.330071,-0.076825,-0.654494,-0.082497,-0.324707,0.781738,0.140625
2.516603,-9.872181,-1.741536,0.152119,0.22355,0.239554,-0.197998,1.048584,0.207275,-6.50521,2.159004,6.660589,0.227106,-0.148516,-0.137947,0.554443,-0.310547,-0.76416,0.292986,-8.808625,3.683923,0.145565,0.211361,-0.052869,-0.131592,0.923828,-0.330322,-4.056822,-8.471095,1.103115,0.178028,-0.102774,0.237649,0.335449,0.878174,-0.145752,3.202045,-10.613495,-2.194192,-0.12597,-0.628408,0.036607,-0.327881,0.784912,0.141846
2.26814,-8.988415,-1.452853,0.248006,0.298919,0.340168,-0.19043,1.054688,0.205566,-6.674517,2.193168,6.785384,0.112349,-0.167042,-0.115776,0.54834,-0.307129,-0.759521,-0.361188,-9.026828,3.706051,0.254205,0.299052,-0.022419,-0.12793,0.927734,-0.331299,-4.028343,-8.643099,0.97277,0.155337,0.364818,0.167044,0.339111,0.880859,-0.137451,2.868371,-10.180457,-2.026239,0.398889,-0.448809,0.105031,-0.327148,0.785889,0.14624
2.238826,-9.274879,-1.614003,-0.007422,0.249542,0.361359,-0.177979,1.062256,0.200684,-6.589474,1.879179,6.6224,0.02316,-0.294131,-0.132642,0.550049,-0.306885,-0.762695,-0.381694,-8.597535,3.890162,0.121249,0.169633,-0.034757,-0.12207,0.924072,-0.335693,-5.349069,-8.631702,1.462854,0.04118,0.167137,0.098955,0.346191,0.880615,-0.139893,2.649533,-9.173266,-1.895135,0.193546,-0.61205,0.204346,-0.315186,0.792725,0.144043
2.231466,-9.390605,-1.6886,0.247536,0.237756,0.453896,-0.168945,1.060547,0.196045,-6.240525,2.004454,6.521802,0.216124,-0.32662,-0.139842,0.543457,-0.312744,-0.762451,0.111813,-9.166136,3.842717,-0.114423,0.157784,0.003588,-0.122559,0.921143,-0.329834,-4.339211,-9.334737,1.166641,-0.109882,-0.12559,0.094489,0.345459,0.873291,-0.138184,3.443483,-9.658626,-1.994671,-0.171931,-0.591648,0.177198,-0.310059,0.785645,0.153564
2.091412,-8.871711,-1.336222,0.17832,0.181537,0.472445,-0.163818,1.070068,0.19043,-6.477586,2.513473,6.608456,0.216148,-0.327356,-0.121276,0.536865,-0.313232,-0.770508,0.258998,-9.399262,3.77106,0.150857,0.205565,-0.137468,-0.128174,0.923096,-0.339111,-3.913233,-9.935236,0.912796,0.143191,0.217623,0.020604,0.344727,0.875244,-0.141357,3.078009,-9.991478,-2.298839,0.203927,-0.34109,0.43827,-0.303467,0.795166,0.149902
2.04914,-9.607516,-1.581156,0.094365,0.110747,0.474123,-0.150879,1.075684,0.186768,-6.568374,2.233845,6.7704,0.10231,-0.39176,-0.14591,0.529541,-0.309326,-0.772217,-0.239902,-8.787052,4.065066,0.1213,0.287219,-0.145552,-0.128662,0.925537,-0.3396,-5.024482,-9.064522,1.376778,0.417494,0.179327,-0.083494,0.342773,0.880371,-0.147461,2.681746,-9.192178,-2.087416,0.3403,-0.456193,0.351966,-0.292236,0.803223,0.14917
1.986314,-9.684579,-1.55882,0.319135,0.048403,0.51973,-0.136719,1.078613,0.170654,-6.581782,2.185258,6.967472,0.306894,-0.424791,-0.155205,0.5271,-0.314453,-0.780762,0.258596,-9.195503,4.066813,-0.103777,0.151174,-0.183565,-0.127686,0.92334,-0.343262,-4.21945,-8.579588,1.350606,0.117347,-0.117158,-0.010551,0.347412,0.875732,-0.157959,3.086198,-9.139396,-2.211159,0.015101,-0.396274,0.434519,-0.281006,0.803467,0.147461
2.051786,-9.406059,-1.257885,0.231726,0.052201,0.493001,-0.131836,1.07959,0.177979,-6.447865,2.44824,7.329644,0.218733,-0.423017,-0.135524,0.512695,-0.319824,-0.775879,0.228402,-9.543416,3.984346,0.109603,0.389472,-0.188272,-0.137939,0.918213,-0.336426,-4.15373,-9.655762,1.066451,0.087294,0.223438,0.007797,0.340332,0.87207,-0.14917,2.241831,-9.436028,-2.391113,0.188176,-0.250985,0.444987,-0.275879,0.803223,0.154785
1.744318,-10.23643,-1.553534,0.23236,0.127005,0.459412,-0.118408,1.093994,0.164551,-6.731769,1.788939,7.371452,0.114245,-0.35935,-0.084411,0.51123,-0.312988,-0.783203,-0.091053,-8.836381,4.070276,0.222768,0.311507,-0.275671,-0.137695,0.926514,-0.349365,-4.587223,-8.994675,1.568872,0.566657,-0.081886,-0.163283,0.339111,0.879639,-0.167236,1.865224,-9.256883,-2.162878,0.289791,-0.509836,0.351008,-0.264648,0.815674,0.143555
1.618979,-10.089598,-1.405778,0.554347,0.149443,0.457498,-0.114502,1.088867,0.145996,-6.61416,1.831815,7.227813,0.477434,-0.387208,-0.059147,0.49707,-0.329346,-0.789307,0.832515,-9.092335,4.181115,-0.095596,0.48294,-0.197542,-0.144043,0.915039,-0.351562,-3.593158,-8.375654,1.588187,0.139535,-0.152751,-0.018688,0.33252,0.871582,-0.176025,2.421594,-9.573978,-2.015923,0.200001,-0.494231,0.300971,-0.262451,0.810303,0.144775
1.37603,-9.55689,-1.376477,0.523078,0.175012,0.416418,-0.097412,1.091553,0.127197,-6.34542,2.63506,7.328718,0.509432,-0.345512,0.011967,0.5,-0.341553,-0.794922,-0.032935,-10.01762,3.826888,0.154188,0.652676,-0.287593,-0.133545,0.914551,-0.364258,-4.507043,-10.21472,1.236539,0.178022,-0.025398,0.059626,0.344727,0.870361,-0.1875,2.267865,-10.037407,-2.218423,0.344148,-0.375402,0.392311,-0.240479,0.813721,0.13208
1.34269,-9.864981,-1.39966,0.551591,0.062588,0.463229,-0.086426,1.0979,0.124023,-6.043241,2.480944,7.119284,0.30437,-0.425415,0.030546,0.489014,-0.344727,-0.788086,0.357602,-9.127714,3.724558,0.506479,0.561624,-0.3616,-0.139404,0.908203,-0.370117,-3.971339,-9.107139,1.482662,0.880434,-0.396175,-0.222479,0.33667,0.870605,-0.202148,2.480276,-10.28054,-2.011809,0.49247,-0.388187,0.418076,-0.235596,0.81958,0.133545
1.554411,-9.799023,-1.107872,0.731445,0.047705,0.471685,-0.075928,1.101318,0.106689,-5.785133,2.171167,7.119861,0.500094,-0.37723,0.081197,0.482666,-0.360352,-0.786133,0.640037,-8.710165,4.142422,0.235944,0.765975,-0.344748,-0.141357,0.905518,-0.376709,-3.397523,-8.232887,1.620853,0.323729,-0.14858,0.065836,0.335938,0.86499,-0.213135,2.61336,-9.951405,-2.024772,0.751544,-0.147115,0.546894,-0.224609,0.823486,0.115479
1.59755,-9.92513,-0.773563,0.765966,0.048567,0.48082,-0.072266,1.109375,0.09375,-5.662167,2.640743,7.456601,0.690365,-0.378567,0.126232,0.46582,-0.365234,-0.779297,0.161018,-9.207138,4.149662,0.355019,0.73906,-0.413909,-0.151367,0.906494,-0.384277,-4.669156,-9.883806,1.573689,0.533896,-0.055338,0.015692,0.329346,0.866943,-0.223633,1.671689,-9.61432,-1.875869,0.73999,-0.105052,0.613965,-0.218506,0.834473,0.106689
1.578758,-9.978678,-0.550957,0.967334,0.159542,0.537317,-0.058594,1.110352,0.057373,-5.356748,2.963663,7.421372,0.488158,-0.344365,0.200427,0.458252,-0.382324,-0.790771,0.237116,-8.455527,4.085446,0.519693,0.736607,-0.425474,-0.15625,0.899414,-0.411377,-4.140226,-7.892428,2.22113,1.071622,-0.246762,-0.239965,0.321045,0.860107,-0.26001,1.608889,-10.141459,-1.919253,0.603508,-0.35355,0.518143,-0.206055,0.832031,0.082031
0.946621,-8.97656,-0.33886,0.998893,0.178668,0.599173,-0.044434,1.108643,0.039062,-5.556099,2.670618,7.051113,0.418128,-0.370451,0.218922,0.448242,-0.39502,-0.782959,-0.128561,-8.061705,4.413808,0.19872,0.747308,-0.346258,-0.156006,0.892822,-0.410156,-4.219825,-7.197367,2.465879,0.215111,-0.044461,-0.017576,0.321777,0.857666,-0.256836,1.979394,-10.056475,-1.665254,1.017346,-0.321487,0.621186,-0.19043,0.835205,0.069824
0.773497,-9.269059,-0.244985,0.726906,0.076044,0.609878,-0.03125,1.108398,0.027832,-5.541257,2.986802,6.929946,0.559724,-0.433249,0.218994,0.437256,-0.41333,-0.77832,-0.164275,-8.353602,4.393059,0.125037,0.645494,-0.332505,-0.159912,0.885254,-0.412598,-5.005897,-9.104646,2.195403,0.176776,-0.220392,-0.132161,0.312744,0.851074,-0.262939,1.724565,-9.059611,-1.045194,0.950512,-0.171128,0.675245,-0.179443,0.834961,0.054688
1.007367,-9.647253,-0.055227,0.761916,0.023486,0.644719,-0.01123,1.113037,0.013428,-5.221059,3.550949,7.450026,0.370321,-0.43588,0.214508,0.429443,-0.419189,-0.777588,0.27625,-7.920399,4.475052,0.054351,0.669402,-0.372,-0.154785,0.887207,-0.409912,-3.755259,-8.641577,2.288997,0.454201,-0.310733,-0.39979,0.306152,0.855713,-0.270996,1.538762,-9.286,-1.195968,0.449086,-0.203042,0.711731,-0.158447,0.843018,0.04541
0.966446,-10.077418,0.21789,0.707068,0.055969,0.642093,-0.00293,1.121094,-0.008057,-5.343243,3.073235,7.698646,0.171208,-0.35801,0.248045,0.415283,-0.421387,-0.780762,-0.205837,-8.377178,4.504349,-0.340788,0.768735,-0.296446,-0.158447,0.894287,-0.410156,-4.405871,-8.265545,2.353541,0.242211,-0.000519,-0.336874,0.29126,0.859863,-0.280518,1.432617,-10.268326,-1.47674,0.479469,-0.163525,0.676459,-0.151123,0.851074,0.035889
0.755676,-10.189011,0.359561,0.835595,0.081646,0.666454,0.015869,1.115234,-0.027344,-5.427512,2.917568,7.895288,0.398209,-0.387875,0.216087,0.407471,-0.431885,-0.779297,-0.315092,-9.63908,4.079969,-0.29944,0.640594,-0.298484,-0.156982,0.891602,-0.407471,-4.564783,-8.197108,2.291965,0.262498,-0.363412,-0.38767,0.285156,0.857422,-0.290039,0.923033,-10.266496,-1.204019,0.854865,-0.221931,0.717861,-0.130127,0.850586,0.016602
0.461729,-9.58809,0.657354,0.887122,0.103254,0.681308,0.030273,1.111328,-0.043945,-5.366226,3.594757,7.958539,0.421859,-0.446041,0.234598,0.393555,-0.447266,-0.774902,-0.008828,-10.027575,4.058118,0.021352,0.739671,-0.21241,-0.156006,0.887207,-0.406494,-3.415399,-8.008714,1.997122,0.190176,-0.244691,-0.210318,0.275146,0.854004,-0.291748,1.022375,-9.563895,-0.720162,0.87852,-0.327737,0.631938,-0.119385,0.850098,0.000488
0.286461,-9.567689,0.680258,0.797142,0.068536,0.678656,0.050537,1.111084,-0.06958,-5.135361,3.560262,7.487314,0.240256,-0.561896,0.230632,0.384277,-0.456055,-0.782471,-0.355256,-9.66514,4.226763,0.346382,0.680497,-0.229567,-0.150635,0.883057,-0.421875,-4.169503,-8.758945,2.19327,0.175373,-0.032517,-0.01963,0.276123,0.852783,-0.301025,1.10537,-9.523238,-0.415303,0.643712,-0.244543,0.717295,-0.101074,0.8479,-0.016602
0.178439,-9.427282,0.68011,0.929401,0.006218,0.713362,0.058838,1.109131,-0.09375,-4.601071,3.37732,7.185912,0.396847,-0.598018,0.250693,0.362549,-0.464111,-0.791992,0.536761,-8.516182,4.31141,0.568249,0.654231,-0.277216,-0.157715,0.876221,-0.445312,-3.513328,-9.003773,2.228665,0.457168,-0.246112,-0.077085,0.266113,0.848633,-0.323975,0.930929,-10.062668,-0.518905,0.688762,-0.215859,0.736319,-0.093994,0.851318,-0.036377
0.031024,-9.161113,0.77323,0.867791,-0.013194,0.716545,0.079346,1.104004,-0.112061,-4.360294,3.513241,7.479185,0.350213,-0.522063,0.259099,0.354248,-0.47876,-0.787598,-0.642621,-7.453298,4.284376,0.366842,0.913109,-0.254203,-0.150146,0.870361,-0.448975,-3.592389,-8.005579,2.452554,0.616227,0.254645,-0.135637,0.268555,0.840088,-0.331055,1.104678,-9.827779,-0.197378,0.914562,-0.118092,0.796236,-0.073486,0.84668,-0.052734
-0.267161,-9.315794,1.077273,0.684158,-0.061755,0.733754,0.095215,1.114746,-0.131592,-4.626769,3.405131,7.808388,0.269234,-0.50305,0.227869,0.337646,-0.472168,-0.790039,-0.88362,-7.556988,4.294232,-0.109956,0.531521,-0.214177,-0.151123,0.880127,-0.451904,-5.020279,-7.341245,3.355728,0.191599,-0.115025,-0.204502,0.261963,0.853271,-0.337402,0.543586,-9.151559,0.129555,0.792645,0.120464,0.900554,-0.055664,0.861816,-0.074219
-0.246891,-9.846449,1.289699,0.59131,-0.05707,0.688399,0.118896,1.106934,-0.136719,-4.296153,3.846882,8.178645,0.333857,-0.497124,0.232302,0.333984,-0.488281,-0.781982,0.808199,-8.502321,4.226733,-0.329796,0.752546,-0.174617,-0.139648,0.877197,-0.439941,-2.991184,-8.559136,2.576168,-0.266921,-0.595366,-0.247312,0.257568,0.85083,-0.330322,-0.132404,-9.179007,0.341884,0.474728,0.038805,0.819636,-0.029297,0.856201,-0.078613
-0.130406,-10.052544,1.389922,0.648935,-0.009482,0.633337,0.125732,1.107422,-0.157471,-3.858742,3.923096,8.425486,0.079075,-0.369878,0.295936,0.31665,-0.486816,-0.792969,-0.616627,-9.082329,4.172082,-0.121327,0.931442,-0.172666,-0.138916,0.881836,-0.448975,-3.064825,-9.464779,2.209023,0.108814,0.095469,-0.300397,0.243652,0.853027,-0.339355,0.187844,-9.548796,0.264107,0.484426,-8.6e-05,0.723939,-0.022217,0.85498,-0.097412
-0.290687,-9.784472,1.639169,0.718406,0.078101,0.600154,0.14209,1.105713,-0.161621,-3.876992,3.078776,8.01497,0.141764,-0.255466,0.295752,0.30835,-0.493896,-0.7771,-0.490803,-8.921074,3.989458,0.019219,0.684753,-0.290525,-0.139893,0.880127,-0.435547,-4.785582,-8.799975,3.05208,0.319282,-0.148437,-0.336208,0.234131,0.853027,-0.333252,-0.123331,-9.567574,0.061953,0.607597,0.13928,0.732282,-0.003174,0.856934,-0.096191
-0.387742,-9.856779,1.599132,0.756136,0.064788,0.558978,0.156982,1.093994,-0.188477,-3.630688,3.340721,8.086254,0.588466,-0.249088,0.270368,0.30249,-0.509277,-0.779297,-0.226229,-8.981592,3.896741,0.063768,0.800453,-0.265252,-0.135742,0.875,-0.448975,-3.098902,-8.605588,2.6735,0.234251,-0.565525,-0.269415,0.226074,0.848389,-0.351562,-0.47988,-9.692428,0.313066,0.620565,-0.058516,0.652637,0.011475,0.854736,-0.12207
-0.334404,-9.504291,1.911812,0.780641,0.158784,0.572006,0.158691,1.096191,-0.209229,-3.411189,4.476447,8.582821,0.604176,-0.13878,0.288362,0.288818,-0.520508,-0.778076,-0.34814,-9.022433,4.149442,0.172941,0.662104,-0.285119,-0.140869,0.876221,-0.459473,-2.780609,-8.722211,2.814278,0.340851,-0.005729,-0.237049,0.211914,0.849365,-0.360596,0.096427,-9.633507,0.383873,0.731335,-0.034242,0.593311,0.015869,0.851562,-0.141113
-0.861289,-9.991925,1.86752,0.513631,0.14849,0.470712,0.178711,1.09375,-0.226074,-3.623298,4.699692,8.451975,0.258929,-0.07886,0.344546,0.289062,-0.523926,-0.77832,0.489937,-8.472116,4.526134,0.19804,0.67769,-0.298514,-0.134277,0.874268,-0.469727,-3.597325,-8.425952,3.410079,0.248073,-0.191566,-0.266659,0.210449,0.85498,-0.373291,-0.58854,-9.291587,0.796595,0.674253,0.109419,0.653596,0.037598,0.854492,-0.160156
-0.877537,-9.955308,1.858329,0.85061,0.169784,0.485013,0.201416,1.088867,-0.227783,-3.515746,3.954549,8.082829,0.205242,0.029506,0.368822,0.294922,-0.527588,-0.762451,-0.756721,-8.656047,4.321081,-0.037491,0.834047,-0.235191,-0.120361,0.878418,-0.459229,-2.826987,-9.059562,2.841604,0.107159,-0.041309,-0.208111,0.213867,0.85376,-0.362305,-0.753163,-9.477229,0.83596,0.454325,-0.030789,0.452353,0.054199,0.854736,-0.154541
-1.23249,-8.638185,2.425665,0.680469,0.128418,0.441822,0.202881,1.077148,-0.254883,-3.89654,3.931051,8.066543,0.493762,0.030106,0.323893,0.280273,-0.549805,-0.763184,-0.981628,-9.327144,4.120012,-0.023336,0.444943,-0.290932,-0.131348,0.868164,-0.469238,-4.052524,-8.931771,3.350462,0.432129,0.13699,-0.298305,0.200439,0.84375,-0.381592,-0.417168,-9.817923,0.975711,0.542201,0.109512,0.559059,0.059814,0.842285,-0.177246
-1.222138,-9.626145,2.362884,0.395697,0.102407,0.419789,0.208008,1.076416,-0.253906,-3.625552,5.04829,8.085648,0.556231,-0.039891,0.34817,0.269775,-0.558594,-0.747314,0.746294,-9.377775,4.389375,0.129209,0.558651,-0.233428,-0.135742,0.870117,-0.466797,-2.873894,-8.052664,3.689288,0.238327,-0.422584,-0.23643,0.184814,0.84668,-0.381104,-1.102764,-9.548738,1.191531,0.622552,0.232225,0.568913,0.067627,0.841797,-0.184326
-1.223554,-9.481063,2.574301,0.789152,0.118012,0.446731,0.226807,1.070801,-0.276367,-3.433911,4.915795,7.921108,0.126337,-0.006475,0.439693,0.271729,-0.560547,-0.748291,-0.436811,-9.076636,4.60958,0.283023,0.683998,-0.231495,-0.125488,0.86792,-0.479736,-1.99712,-9.35071,3.045897,-0.048277,0.141403,-0.073858,0.190674,0.849121,-0.379883,-1.168081,-9.408953,1.34018,0.505735,0.12605,0.524162,0.086914,0.840576,-0.199951
-1.290405,-8.809898,3.022036,0.555688,0.150259,0.404974,0.241699,1.050293,-0.28833,-3.429633,3.956476,7.853501,0.326847,0.046477,0.457001,0.27002,-0.584473,-0.746094,-0.427622,-8.589017,4.128801,0.239699,0.495017,-0.283401,-0.121582,0.852783,-0.485596,-3.854876,-9.280471,3.269335,0.676542,0.294046,-0.237552,0.191406,0.829834,-0.399902,-1.129933,-9.565483,1.316525,0.521007,0.187151,0.534591,0.103271,0.825439,-0.213623
-1.72988,-9.52808,2.844937,0.505489,0.148817,0.411997,0.245605,1.054932,-0.304443,-3.935556,4.982467,7.940275,0.696463,0.025316,0.379575,0.255127,-0.587402,-0.739258,-0.778972,-9.216614,4.298101,-0.054472,0.539302,-0.11172,-0.124756,0.862305,-0.491943,-3.407953,-7.380926,3.964555,0.392243,-0.198139,-0.188052,0.17749,0.834961,-0.415527,-1.47708,-9.451969,1.565864,0.504408,0.205744,0.526711,0.106689,0.831055,-0.226318
-1.678527,-9.007041,3.083733,0.785239,0.080523,0.42073,0.251221,1.055664,-0.324219,-3.570851,5.550031,7.624197,0.305903,-0.12081,0.435073,0.246094,-0.591553,-0.734619,-0.070184,-10.003917,4.330384,0.317691,0.397683,-0.210003,-0.125977,0.861084,-0.503174,-2.401474,-9.23935,3.261018,-0.170216,-0.083829,0.100665,0.179443,0.841309,-0.413574,-1.490976,-9.829117,1.603133,0.39604,0.18648,0.550628,0.119141,0.83374,-0.237793
-1.773288,-8.667915,3.345873,0.630387,0.09716,0.451285,0.262207,1.043457,-0.333496,-3.324437,4.435553,7.068297,0.257333,-0.064874,0.454674,0.238281,-0.602051,-0.729248,-0.22786,-8.713405,4.456974,0.791846,0.612862,-0.223727,-0.122803,0.850586,-0.519287,-3.055684,-10.160494,3.126836,0.68291,0.142801,-0.13163,0.176025,0.835205,-0.427002,-1.528802,-10.086153,1.619609,0.628959,0.261199,0.619026,0.131348,0.824707,-0.248047
-1.659285,-9.089987,3.443941,0.781135,0.078021,0.488828,0.275879,1.030029,-0.346191,-3.462376,4.455764,7.299161,0.794522,-0.115504,0.444012,0.231934,-0.620605,-0.715088,-0.97288,-8.102296,4.395522,0.340295,0.482711,-0.239323,-0.121338,0.842529,-0.523682,-3.258068,-8.17417,3.859313,0.840006,0.021846,-0.121311,0.175293,0.823975,-0.438965,-1.849457,-9.667091,1.884432,0.807138,0.261788,0.698053,0.152588,0.815186,-0.262451
-2.012632,-8.718497,3.942716,0.789642,0.146052,0.519854,0.289551,1.017578,-0.369385,-3.314515,5.810508,7.800296,0.798156,-0.162043,0.392282,0.222168,-0.643311,-0.706299,-0.567508,-9.356529,4.42753,0.195961,0.390167,-0.159732,-0.12085,0.835449,-0.534668,-3.359862,-8.2787,4.053882,0.266732,-0.090947,-0.025333,0.172607,0.813965,-0.453125,-2.100492,-9.309822,2.176575,0.723503,0.268851,0.694156,0.167725,0.802734,-0.283203
-1.719998,-8.949454,3.937077,0.702368,0.144158,0.525725,0.304443,1.015625,-0.376221,-3.001449,5.809818,7.38736,0.374776,-0.197373,0.446713,0.213379,-0.643066,-0.696289,-0.031359,-9.219739,4.665914,0.673478,0.420403,-0.270696,-0.118408,0.833496,-0.543701,-2.503104,-9.459321,3.579589,0.392516,-0.265069,-0.052629,0.172607,0.817871,-0.454834,-2.379392,-9.342134,2.357981,0.58834,0.169796,0.686014,0.186523,0.805176,-0.287109
-2.182743,-8.681729,4.116557,0.894437,0.246117,0.570835,0.314209,1.003662,-0.395264,-3.048389,4.854981,6.925996,0.530391,-0.137202,0.450753,0.200439,-0.656006,-0.686035,-0.711812,-8.116023,4.778089,0.688979,0.536453,-0.232986,-0.121094,0.82251,-0.562744,-2.598678,-8.835332,3.786802,0.865994,0.181338,-0.127883,0.167236,0.805664,-0.474854,-2.206679,-9.694594,2.327693,0.583611,0.11166,0.666499,0.193359,0.796875,-0.302979
-2.276998,-8.215818,4.372542,0.795311,0.234421,0.610936,0.332031,0.991943,-0.4104,-3.241248,5.631872,7.084579,0.981287,-0.203751,0.383833,0.194824,-0.676758,-0.669678,-0.928315,-8.317885,4.794077,0.371769,0.298737,-0.232703,-0.118652,0.815674,-0.568115,-3.831696,-7.752423,4.47068,0.65765,-0.042475,-0.071756,0.16626,0.797852,-0.487793,-2.426553,-9.645542,2.433867,0.812642,0.197715,0.778815,0.214111,0.786133,-0.31665
-2.799008,-8.440895,4.530247,0.692477,0.254067,0.620502,0.347412,0.973145,-0.421387,-3.155482,6.797606,7.50368,0.696408,-0.228846,0.383108,0.18335,-0.693604,-0.656982,-0.276678,-8.877374,4.781035,0.489419,0.419268,-0.20191,-0.117432,0.803467,-0.581055,-2.776239,-8.379682,4.210501,0.385651,-0.368692,-0.047904,0.163086,0.787354,-0.496826,-3.051504,-8.735485,2.841552,0.902799,0.199704,0.769914,0.233154,0.771484,-0.335693
-2.82049,-8.357353,4.790079,0.684052,0.279725,0.627341,0.358643,0.9729,-0.435547,-3.073811,6.179867,7.175858,0.31954,-0.253473,0.394776,0.167969,-0.690674,-0.657471,-0.71402,-8.228319,5.215893,0.646661,0.470111,-0.213261,-0.117676,0.804688,-0.599365,-2.802797,-8.59453,4.318621,0.526558,-0.141932,-0.121816,0.15332,0.790527,-0.51416,-3.436036,-8.278641,3.092178,0.542343,0.12698,0.724742,0.24292,0.773682,-0.349365
-3.123457,-8.359883,4.86615,0.622929,0.319851,0.603421,0.374512,0.954102,-0.443359,-2.73728,5.758277,6.930017,0.664885,-0.20173,0.374278,0.160645,-0.713135,-0.63916,-0.444711,-7.861802,5.169306,0.461403,0.456702,-0.23046,-0.116699,0.785645,-0.605713,-3.39443,-8.675202,4.666553,0.481212,-0.399124,-0.119341,0.143799,0.777588,-0.518555,-3.568735,-8.772871,3.012592,0.397099,0.02859,0.649747,0.257324,0.757812,-0.350342
-3.181047,-8.275391,4.938254,0.67865,0.36409,0.579715,0.390625,0.940918,-0.460205,-2.723089,6.697496,7.084822,0.789377,-0.095171,0.317175,0.1521,-0.724121,-0.630859,-0.819581,-7.988013,5.056025,0.446813,0.572025,-0.25319,-0.112549,0.780518,-0.618896,-2.804851,-8.565398,4.522007,0.584204,-0.534255,-0.282225,0.128662,0.770752,-0.539795,-3.459514,-8.89046,3.208331,0.664995,0.014305,0.617711,0.267822,0.748535,-0.371826
-3.780384,-8.127386,4.937504,0.622352,0.35812,0.54194,0.406494,0.924561,-0.463379,-2.805151,6.842463,6.943996,0.525706,-0.052595,0.265265,0.147705,-0.739502,-0.613037,-0.844477,-7.841888,5.529754,0.454078,0.443687,-0.307919,-0.110107,0.767578,-0.623779,-3.021894,-8.173202,4.856044,0.506399,-0.531869,-0.27916,0.116943,0.754883,-0.546631,-3.691629,-8.224542,3.646614,0.723478,0.091813,0.609898,0.28125,0.734619,-0.381836
-3.610518,-8.095199,4.935151,0.73756,0.308339,0.490761,0.415771,0.917725,-0.479492,-2.658302,6.599847,6.802821,0.738944,0.020559,0.236117,0.139404,-0.749512,-0.607666,-0.188781,-8.274911,5.565959,0.367516,0.551963,-0.308352,-0.112061,0.766357,-0.639404,-2.518255,-8.70163,4.685829,0.50514,-0.748265,-0.311257,0.094482,0.751709,-0.564697,-3.746267,-8.128368,3.702139,0.563137,0.114317,0.546469,0.290771,0.728271,-0.394775
-3.907199,-7.682814,5.240875,0.707375,0.309229,0.422228,0.429199,0.906494,-0.48999,-2.567131,7.22479,6.947132,0.840586,0.041322,0.208232,0.138184,-0.760986,-0.587891,-0.712944,-8.433336,5.526459,0.681754,0.600853,-0.307037,-0.107666,0.756348,-0.652344,-2.034447,-8.081646,4.912952,0.874339,-0.60804,-0.383025,0.080322,0.74707,-0.584229,-3.946746,-8.302944,3.523862,0.6144,0.221438,0.571858,0.303467,0.719971,-0.403809
-3.68849,-8.227052,5.15461,0.66387,0.300893,0.36592,0.442627,0.892334,-0.498047,-2.26,7.29612,6.625335,0.739204,0.151084,0.194022,0.136963,-0.772217,-0.572021,-0.269241,-7.458213,5.726896,0.842566,0.588277,-0.366523,-0.106445,0.737793,-0.668457,-2.485323,-7.368986,5.579284,0.62867,-0.668658,-0.324482,0.064453,0.730957,-0.594971,-4.160811,-8.12139,3.771278,0.786173,0.147474,0.491757,0.312744,0.706299,-0.419189
-4.013498,-7.334212,5.456652,0.848625,0.289012,0.352075,0.458008,0.881836,-0.51709,-2.646871,7.512837,6.518067,0.703747,0.208547,0.113706,0.14624,-0.782227,-0.557861,-0.939396,-6.948155,6.166226,0.432758,0.679934,-0.278409,-0.094727,0.734619,-0.684082,-2.128388,-8.030033,5.485903,0.384435,-0.844787,-0.376713,0.049316,0.731201,-0.608154,-3.914724,-7.618382,4.084261,0.690493,0.223078,0.400724,0.329834,0.702148,-0.431396
-3.62583,-7.011936,5.63912,0.473763,0.290513,0.300264,0.465576,0.868164,-0.517822,-2.236861,7.347272,6.230732,0.525503,0.193486,0.123598,0.141357,-0.796387,-0.546387,-0.419025,-7.978128,6.199061,0.239546,0.425596,-0.29523,-0.094727,0.723389,-0.682861,-1.21323,-7.886145,5.511933,0.686386,-0.718371,-0.418743,0.025879,0.710449,-0.618164,-4.330956,-7.607851,4.031213,0.462917,0.255779,0.441622,0.339844,0.688232,-0.43457
-3.752284,-7.508247,5.578008,0.53288,0.392438,0.317003,0.472656,0.868408,-0.5271,-2.573805,7.252916,6.088011,0.563328,0.285356,0.143021,0.143066,-0.790527,-0.53125,-0.426144,-7.986546,6.295157,0.573039,0.64399,-0.276041,-0.090088,0.724365,-0.699219,-1.36347,-6.885015,6.098328,0.506584,-0.485898,-0.40164,0.005615,0.716064,-0.629639,-4.469973,-8.002493,3.994696,0.334552,0.134855,0.299906,0.343506,0.691406,-0.442627
-3.739051,-6.961325,5.70959,0.453118,0.504984,0.361149,0.490479,0.8479,-0.530029,-2.423507,7.312792,6.03807,0.42574,0.161061,0.202551,0.142334,-0.806396,-0.521729,-0.933245,-7.086003,6.451036,0.482239,0.398893,-0.288839,-0.084473,0.708008,-0.705811,-1.386431,-7.578461,6.121675,0.111129,-0.576895,-0.255816,-0.004639,0.705078,-0.631348,-4.503516,-8.178486,3.998018,0.436257,0.038301,0.347757,0.351807,0.674072,-0.450439
-4.039633,-7.589528,5.251004,0.522082,0.562733,0.302192,0.500244,0.849121,-0.54126,-2.055632,6.681295,5.877166,0.509764,0.32177,0.222867,0.140625,-0.803223,-0.51416,0.026908,-7.598423,6.074588,0.202986,0.455425,-0.225799,-0.084717,0.713623,-0.717041,-0.972833,-8.613891,5.708334,0.404535,-0.55184,-0.359384,-0.025879,0.705811,-0.643555,-4.221964,-7.68765,4.574688,0.805771,-0.041418,0.221519,0.351807,0.673828,-0.469482
-4.076303,-6.613826,5.486722,0.871501,0.652672,0.284644,0.518799,0.828857,-0.537109,-2.683092,7.147649,5.707432,0.977733,0.31937,0.252471,0.142334,-0.821045,-0.47998,-0.967392,-8.66206,6.35635,0.580705,0.543521,-0.207427,-0.075684,0.695068,-0.718506,-1.056821,-7.934616,6.018401,0.871146,-0.494828,-0.397879,-0.037598,0.684814,-0.648438,-3.880524,-6.775107,5.416746,0.780449,0.148085,0.258923,0.359375,0.653564,-0.474365
-4.236046,-6.271376,5.613046,0.508403,0.66597,0.222398,0.522705,0.817383,-0.546875,-2.209339,8.078912,5.569021,0.795941,0.273209,0.286,0.132324,-0.833252,-0.469482,-0.4889,-7.343256,6.767311,1.074443,0.322601,-0.32415,-0.085938,0.676758,-0.741211,-0.507221,-6.732453,6.399813,0.758277,-0.547243,-0.390875,-0.064941,0.672363,-0.668213,-4.229685,-7.220421,5.372257,0.317063,0.290005,0.23543,0.360107,0.650146,-0.483398
-4.296676,-7.256642,5.363256,0.628966,0.766401,0.236594,0.541748,0.797363,-0.556641,-2.510065,7.47513,5.356828,0.598254,0.377152,0.378471,0.129883,-0.849609,-0.45874,-0.655672,-6.445726,6.92699,0.638417,0.503247,-0.174582,-0.079346,0.654297,-0.757324,-0.287242,-7.416861,6.578177,0.44353,-0.24279,-0.217057,-0.071045,0.655273,-0.680176,-4.124355,-8.303512,4.775086,0.414307,0.326786,0.213669,0.369629,0.637451,-0.490723
-4.576333,-6.346241,5.779027,0.820918,0.79603,0.255665,0.5625,0.790771,-0.563232,-2.56989,7.625402,5.171726,0.968109,0.277806,0.342514,0.130859,-0.849609,-0.438477,-1.151154,-7.879603,6.960217,0.320372,0.257422,-0.140944,-0.069824,0.657471,-0.765137,-1.214086,-8.127635,6.711854,0.687409,-0.302517,-0.32619,-0.077637,0.653076,-0.695557,-4.410138,-7.920778,4.584443,0.934797,0.481204,0.295754,0.384521,0.630127,-0.505859
-4.822522,-6.77816,5.665502,0.545128,0.861754,0.230358,0.575928,0.779785,-0.560547,-2.381134,8.392503,5.140068,0.940714,0.318119,0.443903,0.122314,-0.865479,-0.414795,-0.187701,-8.520243,6.944075,0.955128,0.333483,-0.200756,-0.071533,0.639893,-0.783447,-0.189304,-7.693248,6.735504,0.920003,-0.514444,-0.326423,-0.095947,0.632812,-0.70752,-4.934077,-7.080248,4.695759,0.801916,0.400637,0.240484,0.392334,0.618652,-0.515625
-4.92985,-7.363972,5.400919,0.995625,0.864397,0.241109,0.596924,0.762695,-0.558594,-2.134785,8.327571,4.728685,1.015356,0.306411,0.451013,0.116455,-0.874756,-0.379639,-0.837072,-6.745613,7.598203,1.411706,0.403936,-0.222323,-0.065674,0.612549,-0.79541,0.141155,-7.282152,6.972932,0.982005,-0.206953,-0.348589,-0.104004,0.614746,-0.712646,-4.538635,-7.598579,4.617877,0.643862,0.291025,0.160609,0.39917,0.610596,-0.514893
-5.29293,-5.949882,5.719812,1.059281,0.879212,0.207111,0.615723,0.740723,-0.582275,-2.052794,8.972639,4.721931,1.21997,0.438164,0.498793,0.11377,-0.890625,-0.367676,-0.39355,-6.086169,8.128185,0.76072,0.294442,-0.153181,-0.05835,0.595947,-0.825928,-0.149071,-7.040927,7.598832,0.972161,-0.271228,-0.314491,-0.111816,0.594727,-0.745117,-4.388063,-7.709617,4.679186,1.037648,0.464754,0.193169,0.4104,0.591553,-0.544922
-5.380533,-6.300468,5.500625,0.891416,0.780863,0.154472,0.624512,0.725586,-0.580811,-2.308526,9.388859,4.30581,1.06287,0.364945,0.527926,0.099854,-0.901367,-0.335938,-0.886241,-7.838973,7.993752,0.769938,0.35474,-0.024219,-0.057129,0.579834,-0.833252,0.545009,-6.850343,7.756456,1.094821,-0.219117,-0.311104,-0.126953,0.570801,-0.760986,-4.795225,-6.812404,5.019847,1.234312,0.545492,0.203514,0.417236,0.569336,-0.553467
-5.504453,-5.488416,5.7617,1.073515,0.778422,0.14439,0.636719,0.710205,-0.584473,-1.659761,9.546903,3.976108,1.008101,0.386901,0.552361,0.08667,-0.905762,-0.310791,-0.404786,-6.76114,8.070903,1.429668,0.187257,-0.225147,-0.05835,0.552734,-0.850098,0.162947,-6.206804,8.480503,0.942354,-0.024156,-0.263943,-0.135986,0.554199,-0.772949,-4.698973,-5.839516,5.157904,1.021811,0.556672,0.125158,0.42334,0.561279,-0.564209
-6.017742,-5.616486,5.716425,0.629892,0.642051,0.033664,0.651611,0.700439,-0.583252,-1.77496,9.780548,3.844589,0.89814,0.462731,0.553063,0.079346,-0.917236,-0.287842,-0.482696,-5.113789,8.355878,1.035826,0.417401,-0.090806,-0.047607,0.532715,-0.866699,-0.284022,-7.170089,8.543613,0.597962,-0.380039,-0.215929,-0.14624,0.541504,-0.778076,-4.798968,-6.158497,5.247107,0.548151,0.717801,0.14141,0.438477,0.554443,-0.5625
-6.088585,-6.516604,5.726263,0.900475,0.53961,-0.011103,0.663574,0.685303,-0.594482,-1.722522,9.779434,3.824713,0.819994,0.555855,0.459371,0.07666,-0.920654,-0.270508,-1.513606,-5.685769,8.712683,0.473524,0.217445,-0.145052,-0.042969,0.523926,-0.873779,0.755864,-6.998321,8.174815,0.950976,-0.404206,-0.434659,-0.157227,0.520996,-0.794434,-5.427431,-7.012808,4.780535,0.701688,0.862801,0.113741,0.456787,0.543457,-0.569824
-6.159579,-5.702212,6.129855,0.934267,0.534103,-0.080386,0.664307,0.66748,-0.597656,-2.046811,9.584027,3.706279,0.713216,0.615524,0.50363,0.064941,-0.92749,-0.249756,-0.70163,-7.205538,8.537145,0.54265,0.109423,-0.122065,-0.048828,0.509766,-0.883545,0.691511,-6.14441,8.412408,0.823192,-0.064538,-0.306973,-0.167725,0.499512,-0.803955,-6.00972,-6.545027,4.664943,1.085785,0.760302,0.071994,0.463867,0.523193,-0.577881
-6.264179,-6.32201,5.648307,1.180599,0.44844,-0.159915,0.674561,0.64624,-0.610352,-1.599078,9.386172,3.011967,1.147387,0.588361,0.448297,0.05835,-0.943848,-0.224365,-0.860668,-6.964723,8.556743,1.360789,0.17763,-0.175839,-0.043701,0.476318,-0.905273,0.153139,-6.538789,8.293218,0.991163,-0.187909,-0.290915,-0.174072,0.47168,-0.82373,-5.641923,-6.026614,4.802868,1.272644,0.621182,-0.075596,0.474609,0.501221,-0.593262
-6.345711,-4.679252,6.137634,1.510271,0.388919,-0.222863,0.679199,0.622803,-0.620117,-1.658142,10.677832,3.142463,1.237872,0.694819,0.492748,0.05249,-0.947266,-0.187988,-0.508422,-4.896324,8.706772,1.396209,0.188995,-0.12283,-0.039307,0.445312,-0.918701,0.755426,-5.379273,8.295727,1.304124,-0.233275,-0.400697,-0.182373,0.445068,-0.833496,-5.481632,-5.281238,4.615076,1.464278,0.812667,-0.060577,0.490479,0.478027,-0.604492
-6.45226,-4.630462,6.414075,1.136659,0.235768,-0.37793,0.68042,0.60791,-0.618896,-1.503457,10.689831,2.572584,0.808078,0.651109,0.411492,0.045166,-0.951904,-0.158936,-0.988089,-4.415793,8.78196,0.906301,0.313443,-0.002923,-0.031982,0.425537,-0.917725,0.437991,-4.40416,8.953471,0.946231,-0.173064,-0.247995,-0.19165,0.419922,-0.835205,-6.488119,-4.546473,4.861906,1.441665,0.785168,-0.138625,0.499756,0.457275,-0.601562
-6.497552,-4.266026,6.626851,1.110076,0.175874,-0.432104,0.678711,0.598145,-0.639648,-1.669437,10.518435,2.330841,0.596318,0.807001,0.338028,0.043213,-0.948975,-0.1521,-1.327994,-4.61462,8.953911,0.560728,0.182869,-0.051305,-0.029785,0.41748,-0.936035,0.722445,-4.758889,8.873683,0.440413,-0.336504,-0.202216,-0.199951,0.417969,-0.852783,-6.353452,-4.056784,5.127982,1.004208,0.499145,-0.350053,0.502197,0.452148,-0.618896
-6.229086,-4.379012,6.630285,0.818866,0.041481,-0.54437,0.674805,0.591309,-0.645996,-1.913659,10.07621,2.179942,0.422116,0.685918,0.275608,0.035889,-0.950928,-0.142578,-1.143493,-5.198111,8.975872,0.468,0.148988,0.004653,-0.026611,0.405273,-0.939941,0.976436,-5.619087,8.647788,0.486357,-0.136445,-0.124372,-0.206543,0.404785,-0.85376,-6.17308,-4.600109,4.838157,0.762573,0.512444,-0.379443,0.507324,0.442383,-0.623779
-6.127773,-4.858,6.577372,0.950229,0.082453,-0.614846,0.674316,0.570312,-0.648193,-1.337173,9.884756,1.966166,0.562806,0.791439,0.264659,0.037842,-0.959961,-0.120361,-1.188546,-5.002355,8.823614,0.745662,0.165537,-0.057902,-0.019775,0.379639,-0.943359,0.427706,-5.132964,8.789881,0.743856,-0.113812,-0.251621,-0.206299,0.379395,-0.857422,-6.438403,-4.809703,4.776933,1.012431,0.335369,-0.5164,0.51123,0.427246,-0.625244
-6.556302,-5.2294,6.619021,0.98201,-0.074155,-0.716196,0.656006,0.55957,-0.657715,-1.784468,10.294829,2.058169,0.674988,0.867785,0.163429,0.027588,-0.964111,-0.104736,-1.267599,-4.232498,8.830332,0.695833,0.176466,-0.028168,-0.026123,0.365479,-0.949219,0.733627,-4.51938,8.809757,0.574566,-0.257479,-0.16671,-0.2229,0.364258,-0.862549,-6.080719,-4.970475,4.809306,0.955274,0.211754,-0.623709,0.500977,0.413818,-0.635498
-6.328199,-4.829901,6.551731,1.345556,-0.232598,-0.781363,0.637939,0.552002,-0.678711,-1.616199,10.613944,1.770003,0.631572,0.889849,0.049966,0.020752,-0.957764,-0.088623,-1.344595,-4.627257,9.043654,0.409327,0.158004,0.025653,-0.0271,0.362305,-0.95752,0.776513,-5.245624,8.720516,0.408222,-0.12403,-0.142754,-0.234619,0.365967,-0.869141,-6.089368,-5.36363,4.603173,1.190498,0.21041,-0.655663,0.488281,0.408691,-0.650146
-6.171802,-3.527541,6.926925,1.138421,-0.394856,-0.842585,0.628906,0.536865,-0.696777,-1.948357,10.56819,1.330281,0.550909,0.907294,0.028413,0.027832,-0.960449,-0.075684,-1.142508,-5.186586,9.02723,0.610298,0.197781,0.010561,-0.015869,0.34668,-0.964355,0.469725,-5.147004,8.821391,0.800409,-0.267223,-0.218482,-0.239502,0.342529,-0.874268,-5.950819,-4.576116,5.032881,1.39524,0.039181,-0.7071,0.487793,0.393066,-0.667725
-5.915968,-4.0045,6.840866,0.844882,-0.612137,-0.879501,0.601074,0.523193,-0.713135,-1.697257,10.3337,1.004633,0.441541,0.825218,-0.070093,0.028076,-0.967285,-0.068115,-1.521067,-4.090227,9.061425,0.894338,0.235537,-0.000889,-0.016113,0.318604,-0.977539,1.627036,-3.522811,8.996664,0.802894,-0.288072,-0.226488,-0.250488,0.31958,-0.886475,-5.308663,-4.352391,5.543861,0.877536,0.022468,-0.726263,0.477051,0.380615,-0.677246
-5.395197,-3.694439,7.128047,0.878585,-0.756918,-0.846333,0.583984,0.506348,-0.726562,-2.021626,10.046106,0.87346,0.352601,0.8486,-0.131647,0.034912,-0.974365,-0.054443,-1.574114,-3.149604,9.300657,0.405112,0.082551,0.045119,-0.011719,0.303711,-0.979492,1.411914,-3.449964,9.124152,0.207715,0.08347,0.029309,-0.248779,0.303223,-0.88916,-5.360993,-5.078591,5.344925,0.662644,0.107655,-0.66054,0.473389,0.364746,-0.682129
-4.995793,-3.341856,7.362932,0.648746,-0.823776,-0.855846,0.558105,0.513672,-0.733643,-2.140037,9.557118,0.565932,0.260681,0.723556,-0.173119,0.0354,-0.966553,-0.043701,-1.584175,-4.355428,9.21938,-0.002332,0.088482,0.152307,-0.01001,0.313232,-0.973389,0.869101,-4.966272,8.903527,0.13365,0.00525,0.044509,-0.249756,0.3125,-0.885498,-5.563165,-5.000758,5.412245,0.918486,-0.034763,-0.678589,0.466797,0.368408,-0.688232
-4.961136,-3.808974,7.288421,0.615525,-0.833506,-0.812009,0.535156,0.505615,-0.753174,-2.280379,9.277691,0.171807,0.419565,0.680069,-0.148943,0.040527,-0.970215,-0.04248,-1.84319,-5.135369,9.055919,0.474233,-0.050423,0.067058,-0.009521,0.30249,-0.985352,1.644722,-4.885881,8.706076,0.604977,0.13904,-0.040682,-0.245605,0.295166,-0.89624,-5.42314,-4.627247,5.783199,0.720884,-0.146927,-0.623955,0.457031,0.358154,-0.702148
-4.603106,-3.30452,7.426279,0.755161,-0.885964,-0.705562,0.509521,0.493652,-0.768799,-2.440537,9.178549,-0.0597,0.449209,0.51055,-0.141486,0.042969,-0.967285,-0.028809,-1.388503,-3.979461,9.151087,0.790447,-0.092096,0.051367,-0.014404,0.284424,-0.994385,1.13753,-4.062526,8.92474,0.607559,0.529891,0.006395,-0.234375,0.283203,-0.907715,-5.380612,-5.425006,5.967069,0.452021,-0.222968,-0.579526,0.447998,0.358398,-0.709473
-4.360095,-3.209508,7.801537,0.521612,-0.861995,-0.64241,0.485596,0.490234,-0.771729,-2.316796,9.191052,-0.028418,0.576854,0.392213,-0.072927,0.044922,-0.96582,-0.005859,-1.543281,-3.346701,9.107249,0.487661,-0.111758,0.123653,-0.019043,0.271973,-0.992676,0.369312,-3.936317,9.078217,0.50067,0.413865,0.064517,-0.224609,0.275146,-0.907227,-5.174655,-5.675468,6.153584,0.843801,-0.280433,-0.472407,0.436523,0.348389,-0.713623
-4.06982,-3.621401,7.787554,0.533368,-0.834457,-0.577139,0.463867,0.480469,-0.780273,-2.4773,9.695772,0.090648,0.52108,0.312202,-0.062947,0.049072,-0.968262,0.009521,-1.166277,-3.930321,8.914601,0.294121,-0.108727,0.152063,-0.016602,0.263672,-0.992676,0.583315,-3.854338,9.027083,0.534775,0.313358,0.068307,-0.215088,0.260986,-0.91333,-5.200796,-4.491245,6.618969,1.000011,-0.267012,-0.416349,0.431641,0.332031,-0.724121
-4.000167,-2.929172,7.975705,0.444204,-0.809,-0.528547,0.443359,0.466797,-0.795166,-2.444577,9.856354,0.033194,0.279384,0.173178,0.002471,0.047363,-0.972168,0.011719,-1.533655,-3.85703,9.457908,0.419271,-0.031343,0.151201,-0.017578,0.245361,-1.003174,0.699045,-3.399152,9.286966,0.383713,0.341909,0.128132,-0.206787,0.246338,-0.926514,-5.156804,-3.708962,6.982127,0.507268,-0.363224,-0.429007,0.420654,0.32251,-0.739258
-3.948061,-3.237189,7.910526,0.13729,-0.811307,-0.537048,0.414062,0.477051,-0.794434,-2.571742,9.748195,-0.100375,0.112261,0.11497,0.08328,0.037598,-0.96582,0.015625,-1.492156,-3.420803,9.648766,0.211182,-0.132099,0.158082,-0.028809,0.252686,-0.997559,0.657996,-3.855435,9.345608,0.047052,0.465854,0.250296,-0.199219,0.257568,-0.921387,-4.884679,-4.191065,6.701464,0.159928,-0.318146,-0.451685,0.403809,0.331787,-0.738037
-3.467589,-3.883781,7.903296,0.305797,-0.844837,-0.547705,0.392334,0.46167,-0.810059,-2.462994,9.382221,-0.004175,0.086614,-0.013046,0.152308,0.034668,-0.979004,0.011475,-1.391354,-3.954317,9.350256,0.054493,-0.064752,0.213194,-0.026855,0.240967,-1.004883,-0.011368,-4.622928,9.19901,0.24764,0.505826,0.217534,-0.185547,0.236816,-0.935547,-4.826467,-4.732553,6.597503,0.377505,-0.311996,-0.4103,0.397949,0.313477,-0.750244
-3.307777,-3.600685,8.241179,0.403605,-0.807986,-0.560535,0.383545,0.457764,-0.812988,-2.380113,9.337698,0.0328,0.220433,-0.03258,0.197653,0.04126,-0.973389,0.02002,-1.621957,-4.126105,9.085531,0.357274,-0.080999,0.203845,-0.015137,0.233887,-1.005371,-0.064447,-3.52376,9.347564,0.601145,0.38624,0.138235,-0.16333,0.229492,-0.939941,-4.661569,-4.489379,6.770511,0.564558,-0.3333,-0.443942,0.400146,0.313721,-0.752686
-3.073002,-3.786831,8.03777,0.507399,-0.832488,-0.570801,0.351074,0.444824,-0.814453,-2.25833,9.118834,-0.361266,0.27786,-0.126523,0.231278,0.025391,-0.973877,0.03418,-1.304262,-3.445101,9.189192,0.593312,-0.076798,0.226057,-0.023682,0.215332,-1.004883,-0.090099,-3.23192,9.446293,0.333452,0.379254,0.280978,-0.160156,0.221436,-0.938721,-4.493888,-4.731226,6.982352,0.494782,-0.342368,-0.385819,0.379639,0.303467,-0.755859
-2.837587,-2.981339,8.35067,0.690671,-0.845554,-0.521555,0.326416,0.436035,-0.826416,-1.966476,9.224763,-0.627845,0.46273,-0.161053,0.278715,0.019287,-0.971191,0.041748,-1.541934,-2.746461,9.501426,0.576144,-0.023358,0.231259,-0.025879,0.206543,-1.010498,-0.150352,-3.991652,9.508849,0.408201,0.31227,0.242706,-0.150879,0.215576,-0.947998,-4.331565,-4.671537,6.927364,0.77498,-0.314075,-0.361026,0.369385,0.298828,-0.767822
-2.430354,-3.037671,8.831833,0.312348,-0.833281,-0.522637,0.312012,0.431396,-0.831299,-1.834931,9.835088,-0.625635,0.385232,-0.174757,0.335176,0.016602,-0.971191,0.049072,-1.470591,-2.407895,9.630944,0.425269,-0.08976,0.205708,-0.022461,0.195557,-1.014404,-0.147006,-3.298765,9.572921,0.663133,0.354714,0.138165,-0.138184,0.202148,-0.954102,-4.472371,-4.132458,7.059541,0.695646,-0.301146,-0.293106,0.369385,0.284668,-0.778564
-2.152613,-3.989549,8.823093,0.474428,-0.797774,-0.458241,0.292725,0.427002,-0.835449,-1.641274,9.781963,-0.705201,0.202413,-0.159808,0.380049,0.008057,-0.966064,0.056396,-1.325798,-2.310902,9.536535,0.38361,-0.01164,0.179994,-0.021484,0.193359,-1.01709,-0.41777,-2.428057,9.786066,0.435198,0.311388,0.162833,-0.126465,0.194092,-0.960938,-4.657004,-4.351612,7.302096,0.440352,-0.486211,-0.340904,0.35791,0.283691,-0.783203
-2.261808,-2.814343,9.170682,0.499143,-0.759983,-0.415235,0.267578,0.411621,-0.839111,-1.896724,9.779014,-0.711801,0.176896,-0.088227,0.38257,-0.005371,-0.967529,0.058594,-1.819255,-2.095311,9.422666,0.275132,0.03501,0.145879,-0.023926,0.18042,-1.019531,-0.608855,-2.939426,9.484855,0.056517,0.285832,0.212912,-0.121338,0.191406,-0.961426,-4.12594,-4.499783,7.273135,0.523444,-0.604455,-0.386088,0.338623,0.271729,-0.791504
-2.31736,-3.46827,8.833753,0.087186,-0.882264,-0.46867,0.245117,0.403564,-0.838867,-1.952609,10.002668,-0.719929,0.240361,-0.11047,0.325143,-0.015137,-0.973145,0.067139,-1.768246,-2.335577,9.427561,0.156423,-0.027344,0.132939,-0.022461,0.171143,-1.018311,-1.16657,-3.507674,9.260023,0.356005,0.267385,0.120608,-0.11792,0.177002,-0.962646,-3.799962,-3.95869,7.516033,0.632496,-0.552108,-0.338141,0.324463,0.258301,-0.797363
-1.819548,-3.453417,8.875877,0.397921,-0.999837,-0.467418,0.219238,0.397705,-0.842041,-1.599737,10.465849,-0.869593,0.264724,-0.105888,0.333966,-0.023193,-0.970215,0.072754,-1.214348,-2.557682,9.470613,0.300053,0.104063,0.116948,-0.019531,0.167969,-1.022705,-1.054273,-2.401677,9.657461,0.503314,-0.023949,0.039198,-0.116943,0.167725,-0.968506,-3.686466,-3.271067,7.857189,0.44753,-0.492105,-0.417223,0.312988,0.253418,-0.806885
-1.326551,-2.408914,9.137093,0.225346,-1.044724,-0.481095,0.193604,0.395752,-0.841309,-1.449084,10.379524,-0.670476,-0.07116,-0.065942,0.349222,-0.032471,-0.969482,0.070557,-1.525291,-1.90901,9.546946,0.339552,0.288875,0.05939,-0.013428,0.1604,-1.023682,-0.517662,-2.446784,9.709093,-0.004759,-0.111206,0.130138,-0.118896,0.169189,-0.964844,-3.380981,-3.695194,7.91341,0.009276,-0.557389,-0.417619,0.297119,0.258789,-0.806396
-1.122405,-3.424857,8.992405,-0.128223,-1.102133,-0.500058,0.164307,0.394043,-0.840332,-1.549547,9.509688,-0.786581,-0.216979,-0.069656,0.328877,-0.041016,-0.971924,0.067139,-2.008945,-1.490639,9.390639,0.011882,0.22103,0.073547,-0.006592,0.159424,-1.023682,-0.59616,-2.971215,9.528019,0.066894,-0.065874,0.027106,-0.120605,0.165283,-0.96582,-2.933121,-4.824237,7.767382,-0.03824,-0.469582,-0.404235,0.290283,0.255371,-0.808838
-0.77662,-3.591828,9.175372,0.224868,-1.172665,-0.453491,0.129639,0.39502,-0.844482,-1.417869,9.503359,-0.90492,0.007548,-0.071127,0.201909,-0.051025,-0.966309,0.062256,-1.931628,-2.119437,9.080593,-0.181632,0.136574,0.061786,-0.01123,0.169922,-1.026123,-0.518835,-2.430413,9.663083,0.081225,-0.086205,0.02117,-0.127197,0.170898,-0.971191,-3.251734,-4.679854,7.900574,0.44604,-0.378723,-0.323466,0.270264,0.257568,-0.815918
-0.39795,-2.878476,9.366077,0.065785,-1.253019,-0.501882,0.091309,0.386963,-0.838135,-1.356588,9.614469,-0.778427,0.060213,-0.028201,0.124575,-0.05957,-0.968262,0.06958,-2.117132,-2.405888,9.115224,0.192321,0.095225,0.002545,-0.016602,0.160889,-1.024658,-0.556199,-2.660372,9.425091,0.066981,-0.040805,0.024657,-0.137207,0.163086,-0.966309,-2.980344,-3.606107,8.290872,0.39725,-0.528217,-0.419248,0.250244,0.246826,-0.820068
0.074304,-3.519194,9.229368,-0.014447,-1.309904,-0.505278,0.066406,0.382812,-0.842041,-1.290878,9.773882,-0.822434,0.157444,-0.006811,0.025182,-0.054199,-0.970703,0.064697,-1.704218,-1.425485,9.325393,0.331028,-0.014039,-0.029802,-0.01001,0.148438,-1.037354,-0.473383,-2.092457,9.637706,0.30209,-0.074588,-0.070258,-0.132568,0.154297,-0.977295,-2.44573,-3.949594,8.242082,-0.095637,-0.436971,-0.365707,0.251221,0.249023,-0.828857
0.671241,-2.972151,9.230887,0.225812,-1.33165,-0.465598,0.026611,0.375244,-0.827148,-0.969972,9.912908,-0.650534,0.030048,-0.028369,-0.006332,-0.062012,-0.972168,0.075928,-1.215273,-1.57444,9.322607,-0.196831,0.042947,0.038507,-0.013428,0.153564,-1.02417,-0.067497,-2.093219,9.794077,-0.145642,-0.151057,0.047098,-0.140869,0.157471,-0.964111,-2.793804,-5.021765,8.327473,-0.020852,-0.426517,-0.331701,0.231445,0.250977,-0.821533
0.704649,-2.585876,9.303251,-0.095588,-1.305661,-0.422903,-0.004639,0.379883,-0.827393,-1.369759,9.365543,-0.756767,-0.176027,-0.01815,-0.012789,-0.063965,-0.968994,0.062012,-1.942245,-2.612511,9.12732,-0.159425,0.072892,0.045951,-0.012939,0.15918,-1.030762,-0.126402,-2.801206,9.383965,-0.098589,-0.116648,-0.003557,-0.14502,0.162109,-0.973145,-2.470191,-4.763975,8.452933,0.345533,-0.504604,-0.33885,0.219238,0.249756,-0.831543
1.080877,-3.297514,9.036358,-0.136041,-1.312756,-0.40293,-0.030273,0.372803,-0.810791,-1.20358,9.033706,-0.958802,-0.048882,-0.118686,-0.081369,-0.055664,-0.974609,0.072754,-1.831111,-2.161544,9.260543,0.161491,-0.173823,-0.068038,-0.014648,0.151367,-1.025635,0.113203,-2.363552,9.527915,0.07253,-0.032309,-0.005863,-0.140625,0.154785,-0.96582,-2.506008,-3.739815,8.620029,0.27901,-0.39251,-0.225114,0.216064,0.240723,-0.826172
1.485284,-3.165829,9.114603,0.027237,-1.335286,-0.346465,-0.059326,0.373047,-0.803955,-1.040456,9.067036,-0.970137,0.158728,-0.106211,-0.08088,-0.049561,-0.969727,0.073486,-1.306751,-1.795421,9.336208,0.091904,-0.161753,0.050441,-0.014648,0.150391,-1.024658,0.108412,-2.242174,9.534665,0.104179,0.018147,0.015992,-0.140869,0.154785,-0.967773,-2.554169,-4.092681,8.661057,-0.308691,-0.515189,-0.309262,0.205811,0.25,-0.827393
1.872879,-2.810063,9.227839,-0.112457,-1.261066,-0.270554,-0.0896,0.383545,-0.789551,-1.211024,9.604093,-0.709719,0.122604,-0.108571,-0.141914,-0.046875,-0.963379,0.081787,-1.882292,-1.637636,9.517089,0.128616,-0.202276,0.005267,-0.021729,0.154541,-1.024658,0.287467,-1.594846,9.684651,0.261909,0.143837,0.004691,-0.138672,0.157715,-0.9646,-2.132162,-5.283164,8.596122,-0.228887,-0.462135,-0.247068,0.19043,0.264648,-0.821777
2.045609,-3.137926,8.943088,-0.126117,-1.220148,-0.251527,-0.12085,0.379395,-0.78833,-1.197755,9.307177,-0.72358,-0.197709,-0.162502,-0.088555,-0.046631,-0.966797,0.066406,-1.564266,-1.408308,9.559711,-0.082754,-0.473403,0.073677,-0.036377,0.151367,-1.029541,0.164163,-1.114179,9.703422,-0.138995,0.296757,0.131005,-0.12915,0.157471,-0.974609,-2.666636,-4.789237,8.871256,0.333349,-0.37122,-0.156678,0.183105,0.253662,-0.835205
2.465925,-2.68777,8.797177,-0.075177,-1.114138,-0.175068,-0.148438,0.376221,-0.781494,-1.032173,8.911581,-0.691918,-0.11301,-0.161565,-0.103544,-0.048828,-0.970947,0.061279,-1.013174,-1.922864,9.456476,-0.302612,-0.429706,0.091881,-0.048828,0.159424,-1.033203,0.181661,-2.297846,9.230881,-0.418073,0.39838,0.250974,-0.124512,0.165283,-0.976562,-2.291116,-3.454842,9.158177,0.142645,-0.584832,-0.246748,0.165283,0.249512,-0.839111
2.442434,-3.007174,8.707564,-0.357285,-1.087467,-0.18224,-0.173584,0.392334,-0.763184,-1.421509,9.578805,-0.537388,-0.083347,-0.175727,-0.042623,-0.053223,-0.960449,0.067139,-1.526193,-2.484473,9.640403,-0.319514,-0.510049,0.107131,-0.065674,0.174072,-1.026611,-0.165411,-2.927107,9.219881,-0.162494,0.655797,0.190402,-0.109619,0.178711,-0.972656,-1.441581,-3.843313,9.067604,-0.507317,-0.403771,-0.208501,0.152832,0.268311,-0.830078
3.240984,-3.803295,8.661854,-0.351949,-1.135075,-0.132952,-0.198242,0.383301,-0.75708,-1.240496,9.643674,-0.198905,-0.163326,-0.25237,-0.03352,-0.047363,-0.976562,0.056152,-0.883656,-2.799119,9.348926,-0.056021,-0.616437,0.125456,-0.079102,0.161133,-1.030029,-0.596351,-2.03525,9.211757,0.181225,0.667256,0.202666,-0.089111,0.160156,-0.984131,-1.82245,-5.301811,8.883489,-0.631416,-0.257746,-0.168671,0.148926,0.269287,-0.835693
3.405584,-3.790417,8.646427,-0.179679,-0.967416,-0.101757,-0.219727,0.386963,-0.740967,-1.207671,9.703573,-0.047548,-0.347185,-0.162691,-0.03527,-0.04834,-0.975098,0.04834,-1.025109,-1.565111,9.149134,0.033971,-0.533771,0.110125,-0.095459,0.165283,-1.02832,-0.611977,-1.166596,9.185273,-0.336486,0.824155,0.287351,-0.067871,0.171143,-0.979736,-1.869492,-5.965397,8.786174,-0.212577,-0.288677,-0.187862,0.140869,0.278076,-0.830322
3.366352,-3.677019,8.734183,-0.33957,-0.956134,-0.074745,-0.23999,0.399414,-0.735596,-1.650785,8.96764,-0.167273,-0.442581,-0.167244,-0.019154,-0.047607,-0.969238,0.038574,-0.954557,-1.761255,8.600847,-0.534119,-0.584048,0.237239,-0.108154,0.183105,-1.025146,-1.987941,-3.204812,8.354952,-0.729064,0.821335,0.450231,-0.044922,0.195312,-0.977783,-2.092558,-4.897539,8.973274,0.127889,-0.196804,-0.109742,0.13623,0.27832,-0.834961
3.777578,-4.105894,8.508102,-0.317033,-0.853219,-0.07631,-0.256348,0.405273,-0.714111,-1.266606,9.115089,-0.128306,-0.19062,-0.144304,-0.11486,-0.041992,-0.969482,0.039551,-0.67446,-2.76967,8.153967,-0.334416,-0.443366,0.147888,-0.11792,0.192871,-1.012695,-1.908579,-3.427549,8.260201,0.006871,0.377157,0.10726,-0.033691,0.195068,-0.971436,-2.015628,-4.361701,9.072441,-0.342822,-0.315194,-0.21219,0.128174,0.290283,-0.821777
3.765284,-3.979894,8.321948,-0.212728,-0.763507,-0.061657,-0.268799,0.396973,-0.70166,-1.426651,9.110416,-0.116558,-0.316741,0.019753,-0.132653,-0.03833,-0.981689,0.036133,-0.879164,-2.071268,8.45868,0.088136,-0.356134,0.118049,-0.124512,0.181152,-1.012451,-1.33161,-1.72443,8.368062,0.028927,0.412421,0.171729,-0.019287,0.185059,-0.966309,-1.71515,-5.366059,8.458765,-0.597649,-0.238562,-0.188644,0.125977,0.290771,-0.81543
3.545024,-3.488925,8.181238,-0.121966,-0.717495,-0.056256,-0.285645,0.40918,-0.702393,-1.540407,8.373708,-0.360715,-0.210446,-0.006925,-0.207193,-0.038086,-0.972412,0.022949,-0.728363,-1.608567,8.357051,-0.17068,-0.391456,0.106256,-0.137451,0.196777,-1.018555,-1.819694,-2.56354,8.365175,-0.516912,0.371824,0.271622,-0.01416,0.209229,-0.975098,-1.965226,-5.839405,8.154909,-0.070668,-0.233374,-0.122232,0.114502,0.304199,-0.825439
3.813019,-3.256306,8.318105,-0.229188,-0.731044,-0.043154,-0.294434,0.415039,-0.689209,-1.344033,8.950786,-0.52567,0.144604,0.023582,-0.278344,-0.024902,-0.970215,0.029785,-0.381564,-2.46924,8.242197,-0.321124,-0.381407,0.098962,-0.140869,0.205566,-1.015137,-1.743168,-4.328415,8.237269,-0.316361,0.173936,0.175909,-0.000732,0.218994,-0.969482,-1.814603,-4.3686,8.584173,0.335341,-0.242023,-0.13056,0.116943,0.296875,-0.824707
4.157646,-3.458756,8.28614,-0.382027,-0.659917,0.020367,-0.313477,0.419922,-0.671875,-1.430792,9.809015,-0.016341,-0.125252,0.075788,-0.315233,-0.023682,-0.973389,0.030518,-0.048879,-2.575713,8.202451,-0.044374,-0.189108,-0.059142,-0.152588,0.203857,-1.008545,-1.734215,-3.587491,8.348604,0.211425,0.053757,-0.115255,-0.008057,0.207764,-0.966797,-1.911361,-3.282263,8.939391,-0.296072,-0.22335,-0.190637,0.10376,0.300293,-0.817627
4.288119,-3.608143,8.237354,-0.586945,-0.648777,0.022517,-0.324219,0.432373,-0.668213,-2.063835,9.161548,-0.001427,-0.428035,0.05595,-0.42584,-0.010986,-0.972656,0.012695,-1.286129,-2.078894,8.914959,-0.269378,-0.177143,-0.00964,-0.156006,0.208496,-1.012451,-1.711884,-2.280828,8.974596,-0.208639,0.035999,-0.052649,-0.00293,0.217041,-0.973633,-1.628648,-4.407807,8.642321,-1.02798,-0.322702,-0.332732,0.095703,0.32373,-0.819824
3.878698,-4.045183,7.805831,-0.647985,-0.633363,0.049515,-0.336182,0.446289,-0.651123,-2.143598,9.209842,-0.078568,-0.068417,-0.021169,-0.503855,0.005127,-0.973877,0.019531,-0.473398,-3.129012,9.242363,-0.674821,-0.522029,-0.055164,-0.166992,0.226562,-0.99707,-1.796773,-3.653212,8.799902,-0.634717,0.056014,0.06065,-0.000977,0.230469,-0.961914,-1.18453,-6.019109,8.022492,-0.832174,-0.2348,-0.331886,0.09082,0.34082,-0.803467
4.528012,-4.175474,7.60192,-0.63735,-0.72686,0.043023,-0.350098,0.453613,-0.63501,-2.052778,10.054181,0.356671,-0.144352,-0.069896,-0.413368,0.008301,-0.977051,0.014648,0.738401,-4.164328,9.144612,-0.337791,-0.217928,0.002169,-0.171875,0.231689,-0.995605,-1.703082,-3.92053,8.672618,-0.00295,-0.110682,-0.093289,-0.009521,0.226318,-0.962646,-1.289991,-5.71837,8.005629,-0.313958,-0.145642,-0.281723,0.081299,0.342773,-0.800781
4.822428,-4.660435,7.493983,-0.526201,-0.598061,0.050199,-0.360596,0.463379,-0.624512,-1.80855,9.816689,0.720351,-0.147033,-0.072381,-0.284627,0.019531,-0.977295,0.01123,0.450155,-3.622527,9.259414,0.147453,0.034366,-0.023198,-0.174072,0.226807,-1.001465,-1.168392,-2.78095,9.177052,0.004216,-0.311109,-0.021916,-0.018066,0.229736,-0.963135,-1.667853,-5.237158,8.034231,-0.600708,-0.154597,-0.286956,0.077637,0.358398,-0.79541
4.307601,-4.268863,7.523888,-0.225637,-0.463058,0.007602,-0.371094,0.465576,-0.61792,-2.487814,9.720461,0.473368,-0.472982,-0.039602,-0.191106,0.022461,-0.979248,-0.002686,-0.09099,-2.271018,9.413771,-0.258612,0.161365,0.059187,-0.171387,0.231445,-0.999756,-1.752015,-2.821492,8.958333,-0.611452,-0.362358,-0.021105,-0.026855,0.241211,-0.960205,-1.791678,-6.247409,7.661878,-0.469357,-0.337686,-0.182614,0.069336,0.366699,-0.794678
4.153667,-3.78092,7.419579,-0.390816,-0.468756,0.047878,-0.373047,0.482422,-0.607422,-2.249739,8.869913,0.001898,-0.467477,-0.211105,-0.157258,0.029785,-0.97168,-0.01709,-0.346267,-3.609169,9.32748,-0.802497,0.078047,0.123088,-0.164307,0.261475,-0.996094,-1.081716,-4.614163,8.408789,-0.595518,-0.534784,0.128851,-0.0354,0.261719,-0.955566,-1.431906,-5.436414,8.110008,0.064118,-0.285532,-0.295675,0.062744,0.37207,-0.796875
4.089388,-3.961737,7.098391,-0.396957,-0.488615,0.060293,-0.382568,0.489746,-0.594727,-2.215324,9.200232,0.064187,-0.248357,-0.214067,-0.042947,0.02832,-0.969482,-0.019531,0.075863,-4.422993,9.241764,-0.253372,0.121303,0.068996,-0.162354,0.267578,-0.992676,-0.694806,-3.826242,8.722133,0.098735,-0.20645,-0.151956,-0.041016,0.264893,-0.952637,-1.162721,-4.478117,8.034459,-0.359869,-0.235525,-0.161329,0.057617,0.382324,-0.787109
4.635986,-4.033581,6.918549,-0.366343,-0.515915,0.089248,-0.394287,0.500488,-0.578613,-2.067045,9.558823,0.269566,-0.378818,-0.37732,-0.033741,0.026611,-0.967041,-0.024902,-0.142875,-3.188125,9.168368,0.109644,0.076789,0.056321,-0.164551,0.266113,-0.98999,-0.914524,-2.300019,9.197705,-0.175728,-0.182298,0.125035,-0.050049,0.268311,-0.94751,-0.76425,-5.705473,7.577414,-0.875629,-0.244161,-0.193253,0.044678,0.401367,-0.775879
4.917163,-4.25181,6.937969,-0.444455,-0.522083,0.15171,-0.397949,0.506592,-0.580078,-1.799919,9.45142,0.481217,-0.522402,-0.318795,0.063178,0.028564,-0.971924,-0.04834,0.318605,-2.210477,9.003836,-0.265517,0.20815,0.093535,-0.155762,0.268799,-1.000244,-1.034549,-3.630512,8.519058,-0.698933,-0.229824,0.111632,-0.05249,0.281738,-0.953857,-0.671977,-6.430291,7.404574,-0.336427,-0.111322,-0.100957,0.042969,0.402832,-0.782471
4.578105,-4.445576,6.689284,-0.50844,-0.502537,0.148848,-0.408691,0.508301,-0.571045,-2.504571,9.141081,0.616692,-0.692126,-0.381507,-0.028621,0.025635,-0.979248,-0.067871,-1.191701,-2.793883,8.807107,-0.783663,0.269591,0.164305,-0.150635,0.280762,-0.993896,-1.375574,-4.031749,8.739568,-0.399325,-0.13053,0.032389,-0.055908,0.285645,-0.948975,-0.903106,-5.107337,7.959749,-0.119906,-0.128741,-0.165659,0.037354,0.400391,-0.78125
4.543735,-4.493477,6.526413,-0.447346,-0.542676,0.177335,-0.418701,0.523438,-0.54541,-2.00519,8.632685,0.29269,-0.572149,-0.415097,0.00558,0.021484,-0.973145,-0.071045,-0.302514,-4.04549,8.587318,-0.663667,-0.070411,0.061819,-0.152832,0.300781,-0.977051,-1.39482,-3.459066,8.686026,-0.44768,-0.388247,-0.021896,-0.06958,0.29541,-0.933105,-0.530901,-5.203734,7.886206,-0.90605,-0.098669,-0.155342,0.029541,0.421875,-0.762207
4.61803,-4.387737,6.576173,-0.514491,-0.625411,0.225912,-0.424561,0.529785,-0.535889,-2.244154,9.556063,0.612716,-0.368609,-0.462517,-0.002113,0.021484,-0.977783,-0.082764,0.241228,-3.522002,8.850222,-0.237825,0.354343,0.060631,-0.143555,0.303955,-0.980469,-0.607533,-3.596634,8.51305,-0.56615,-0.364581,0.055224,-0.077148,0.307617,-0.927979,-0.696694,-6.843366,7.301508,-0.968687,0.098518,-0.04938,0.032959,0.438721,-0.75415
4.736439,-4.845467,6.23231,-0.590964,-0.578151,0.313806,-0.424561,0.547607,-0.519775,-1.907665,9.599831,1.050975,-0.996282,-0.514825,0.093885,0.025391,-0.972412,-0.108398,-1.15925,-2.407163,9.024177,-0.594038,0.262093,0.045928,-0.131592,0.320801,-0.974854,-0.867871,-3.537395,8.780632,-0.659411,-0.256444,-0.013848,-0.07666,0.327881,-0.919678,-0.952752,-7.120771,7.108534,-0.598226,0.070702,-0.04319,0.042725,0.452148,-0.745605
4.719967,-5.195619,6.154437,-0.57686,-0.695775,0.387063,-0.431885,0.567871,-0.501953,-2.512342,8.266574,1.047958,-1.010183,-0.551766,0.04267,0.020264,-0.962646,-0.133301,-0.759178,-3.439114,8.652252,-1.286839,0.088146,0.149472,-0.128906,0.356934,-0.964355,-1.037368,-3.623012,8.82945,-0.951203,-0.221543,0.085361,-0.085205,0.353271,-0.912109,-0.509754,-6.488313,7.238806,-0.553921,0.0966,0.058872,0.041992,0.468262,-0.738037
5.452363,-5.546264,6.013967,-0.620014,-0.600336,0.452666,-0.438232,0.579346,-0.491699,-1.776305,8.991577,1.873547,-0.646761,-0.666007,0.021784,0.01709,-0.968506,-0.155273,-0.708917,-4.960696,8.236479,-1.054604,0.124912,0.072093,-0.125977,0.375244,-0.957275,-1.08023,-4.650405,8.462244,-1.130541,-0.325318,0.075868,-0.093262,0.375488,-0.9021,-1.15,-6.468599,7.312407,-0.98632,0.35715,0.049419,0.048584,0.48291,-0.72876
4.830551,-5.233104,5.971177,-0.482024,-0.522485,0.514765,-0.444824,0.593018,-0.477539,-2.160267,9.334531,2.340178,-1.122515,-0.557201,0.113253,0.007324,-0.962891,-0.18042,-0.474758,-4.713558,8.457184,-0.87449,0.126765,0.079519,-0.12793,0.395752,-0.951172,-0.69114,-4.955497,8.212629,-0.871888,-0.364648,0.045286,-0.104736,0.39502,-0.891113,-1.829155,-7.05045,6.818805,-0.924809,0.150142,0.062409,0.047119,0.497314,-0.717773
4.99349,-4.872208,5.801515,-0.528069,-0.457799,0.51908,-0.445801,0.601807,-0.45874,-2.233241,8.337499,2.13014,-1.145277,-0.875399,0.163617,-0.000244,-0.967773,-0.202393,-0.650037,-5.074714,8.266988,-1.225842,0.179264,0.186247,-0.121826,0.416992,-0.92749,-0.851603,-4.415813,8.179148,-0.98017,-0.379959,0.105785,-0.11084,0.412598,-0.868896,-0.980127,-6.786334,6.609562,-0.661658,0.079887,0.008481,0.05127,0.504395,-0.700195
4.899543,-5.18778,5.502115,-0.549816,-0.468677,0.578,-0.445312,0.624756,-0.444824,-1.447161,8.599469,2.314196,-0.880915,-0.913739,0.246792,-0.01416,-0.955078,-0.225342,-0.345045,-5.842501,7.866852,-1.06521,0.172336,0.205725,-0.114258,0.447754,-0.918945,-0.556132,-5.116137,7.570166,-1.22675,-0.526507,0.257438,-0.122314,0.443359,-0.857178,-1.048634,-6.316775,6.663484,-0.759876,0.265306,0.232029,0.058105,0.522217,-0.69043
5.383805,-5.505419,5.315239,-0.501168,-0.377967,0.619598,-0.438477,0.641846,-0.434814,-1.620676,8.899574,2.896618,-1.059499,-1.02202,0.320054,-0.023926,-0.949219,-0.252441,-0.337946,-4.897635,7.566457,-0.659331,0.360468,0.198952,-0.100586,0.461426,-0.909912,-0.620902,-4.816777,7.230474,-0.672453,-0.515088,0.143249,-0.127686,0.460938,-0.845459,-1.397568,-6.67587,6.698114,-0.976113,0.163655,0.118631,0.067139,0.540039,-0.678711
5.265089,-5.717417,5.399097,-0.779846,-0.322995,0.699418,-0.44043,0.665527,-0.430664,-1.13385,8.856558,2.982386,-1.284653,-0.997095,0.331653,-0.042236,-0.937256,-0.287598,-1.036565,-3.061477,7.6335,-1.065849,0.47767,0.283909,-0.090576,0.490967,-0.906006,-0.998836,-2.408621,7.970601,-1.039215,-0.639312,0.241454,-0.141846,0.486084,-0.835205,-1.149511,-6.5426,6.382769,-0.878557,0.222656,0.047077,0.067627,0.562256,-0.672607
5.000883,-6.318169,5.11943,-0.96526,-0.21391,0.7569,-0.428955,0.688477,-0.409424,-1.600302,8.669896,3.156579,-1.56134,-0.906412,0.27718,-0.050537,-0.928955,-0.322021,-1.606849,-3.717158,7.56991,-1.987192,0.395522,0.369998,-0.073242,0.529053,-0.875244,-0.790994,-3.908975,7.452111,-2.195075,-0.904103,0.581828,-0.149414,0.530762,-0.795654,-1.630493,-6.178256,6.168992,-1.21939,0.272074,-0.121493,0.075439,0.577637,-0.64917
4.927463,-6.100394,4.980877,-0.971207,-0.241786,0.801397,-0.422607,0.717773,-0.38501,-0.840162,8.159507,3.200063,-1.719188,-0.964705,0.234644,-0.067383,-0.907471,-0.353271,-1.26487,-5.636595,7.361388,-1.951911,0.256553,0.318217,-0.065918,0.578125,-0.840576,0.488412,-6.489893,6.352007,-1.841539,-0.772056,0.475173,-0.1604,0.575195,-0.756592,-1.603812,-6.930627,5.715583,-1.625601,0.112795,-0.264412,0.069336,0.612305,-0.616211
4.864933,-5.95237,4.677004,-1.10715,-0.12173,0.890768,-0.411133,0.748047,-0.377441,-0.847708,7.321064,3.564149,-1.84617,-0.840117,0.234003,-0.078613,-0.887939,-0.406006,-1.540504,-6.086716,7.258132,-1.477632,0.20415,0.282332,-0.056152,0.61084,-0.827637,1.219303,-5.802864,6.592661,-1.182077,-0.191562,0.428213,-0.154297,0.602783,-0.745117,-1.09835,-7.842698,5.229249,-1.626532,0.097484,-0.285464,0.068848,0.640625,-0.599854
4.826357,-7.046619,4.151202,-0.924191,-0.105308,0.808279,-0.401855,0.769531,-0.362061,-0.481806,5.990621,3.722121,-1.371005,-0.877981,0.18515,-0.095947,-0.876465,-0.428467,-1.575381,-5.839423,7.037509,-1.05352,-0.121227,0.233698,-0.059814,0.626953,-0.807373,0.65186,-5.859694,6.673533,-1.333286,0.245681,0.588598,-0.142578,0.627686,-0.717041,-0.886662,-9.081256,4.805349,-1.620725,0.054319,-0.036772,0.062988,0.661865,-0.566162
4.598237,-7.428575,4.071533,-0.314783,-0.020194,0.786316,-0.391846,0.778076,-0.354492,-0.387804,6.603994,4.189709,-0.50473,-0.63406,0.133923,-0.105469,-0.875244,-0.436523,-1.093636,-5.444515,6.838636,-0.7472,-0.23156,0.210759,-0.062256,0.638672,-0.79248,0.229019,-7.261887,6.117799,-0.90652,0.430216,0.442724,-0.125977,0.64209,-0.705566,-0.818327,-10.047165,4.238785,-0.824944,0.030802,0.23649,0.068848,0.671387,-0.552734
5.000847,-6.811847,4.402404,-0.175605,0.027451,0.714358,-0.375,0.793701,-0.352051,-0.128066,8.012496,4.897846,-0.469208,-0.568318,0.119312,-0.109375,-0.867676,-0.445068,-0.856658,-5.623835,6.763,-0.763629,-0.265366,0.163451,-0.056396,0.652832,-0.77832,0.21533,-6.66771,6.359757,-0.433311,0.644222,0.288659,-0.102539,0.650391,-0.700195,-1.240439,-8.287114,4.756478,0.012388,0.088616,0.336476,0.083008,0.67041,-0.55127
4.260416,-7.289769,4.40515,-0.279254,0.154704,0.674894,-0.362793,0.809082,-0.344482,-0.423448,7.684526,5.156384,-0.792908,-0.346649,0.164851,-0.11377,-0.856689,-0.459961,-1.338967,-6.217544,6.70754,-0.93167,-0.229439,0.125073,-0.05835,0.675293,-0.754639,-0.727659,-6.393388,6.495849,-0.96118,0.808765,0.33884,-0.081299,0.668945,-0.674805,-1.553144,-6.844577,5.376049,-0.511091,-0.07343,0.34086,0.087891,0.679932,-0.536865
4.50169,-7.687507,4.325885,-0.264728,0.172193,0.681154,-0.348633,0.820068,-0.352051,-0.71725,7.513426,5.153702,-0.438415,-0.402149,0.126651,-0.118164,-0.853027,-0.473145,-1.264519,-7.669769,6.320339,-0.916514,-0.37877,0.082421,-0.062744,0.686035,-0.746582,-1.264328,-8.923906,5.946768,-1.07088,0.671785,0.376873,-0.063965,0.6875,-0.665039,-1.268186,-8.113731,4.976573,-1.157124,-0.070971,0.182948,0.092529,0.693848,-0.522705
4.018161,-7.512574,4.400766,-0.241515,0.17244,0.697931,-0.330811,0.834717,-0.347412,-0.259694,8.486512,5.485175,-0.433344,-0.321319,0.177235,-0.120605,-0.845459,-0.481689,-0.570395,-7.518563,6.137287,-0.284751,-0.183737,-0.073805,-0.0625,0.693848,-0.743896,-1.477988,-8.625533,5.751273,-0.022154,0.573301,0.020984,-0.048828,0.687988,-0.666504,-1.090308,-8.9984,4.446939,-0.6689,-0.006479,0.191248,0.098633,0.706055,-0.511963
4.2335,-7.384533,4.424066,-0.33103,0.231134,0.67042,-0.324707,0.845703,-0.341064,-0.481799,8.22647,5.455986,-0.832645,-0.298643,0.210876,-0.137939,-0.839844,-0.493652,-0.916191,-6.050206,6.340274,-0.461145,-0.027965,-0.007834,-0.069824,0.700928,-0.728027,-1.499955,-5.762356,6.58244,-0.380762,0.353376,-0.036301,-0.049072,0.693604,-0.6521,-1.395606,-8.102125,4.687516,-0.405873,0.082198,0.167601,0.09375,0.708252,-0.497559
3.611297,-7.391812,4.446827,-0.423211,0.208368,0.716079,-0.311768,0.862549,-0.336914,-0.414851,7.543744,5.361901,-0.741392,-0.333249,0.245026,-0.147217,-0.82666,-0.505859,-1.115713,-6.972432,6.122058,-1.159871,0.075851,0.01017,-0.069824,0.722412,-0.707764,-1.656179,-7.716784,6.121485,-1.40612,0.089989,0.26438,-0.043213,0.719482,-0.624268,-1.640217,-7.601078,4.904556,-0.820428,0.006883,0.136762,0.09668,0.719238,-0.47998
3.895154,-7.966363,4.05392,-0.661554,0.243305,0.765266,-0.283691,0.874512,-0.321533,-0.22565,7.870664,6.022817,-0.811094,-0.387084,0.223047,-0.145264,-0.822998,-0.519775,-1.373597,-8.328637,5.902805,-0.958903,0.038269,-0.021872,-0.058105,0.733398,-0.682861,-1.278185,-9.335958,5.669859,-0.726132,0.010144,-0.074165,-0.033936,0.725586,-0.606934,-1.004093,-8.79218,4.394964,-1.485867,-0.024232,-0.025225,0.109619,0.731934,-0.445312
3.528274,-8.512496,3.691533,-0.234366,0.23293,0.740897,-0.278076,0.891846,-0.339111,0.095352,6.755253,6.013282,-0.974936,-0.381867,0.286768,-0.165527,-0.797852,-0.553467,-1.023844,-8.104811,5.86075,-0.51346,0.000195,-0.0903,-0.072266,0.748535,-0.686768,-0.96829,-7.530548,5.873578,-0.311961,0.068377,-0.065372,-0.045654,0.736572,-0.615234,-0.758711,-10.793129,3.200626,-1.148462,0.10606,0.274138,0.103516,0.753418,-0.440186
3.684719,-7.856874,4.080595,-0.002361,0.28348,0.643606,-0.257812,0.899658,-0.336182,0.355505,6.132213,5.919736,-0.246544,-0.342591,0.258274,-0.169922,-0.794678,-0.551514,-0.851058,-7.457129,5.670413,-0.313274,0.002639,-0.068202,-0.065918,0.75415,-0.678955,-0.955168,-7.398324,5.475955,-0.663899,0.033406,0.006164,-0.039062,0.750488,-0.598389,-1.282999,-10.229345,3.113125,0.093187,0.129437,0.446967,0.117188,0.752197,-0.435303
3.420788,-8.753239,4.084229,-0.070496,0.352191,0.587545,-0.24292,0.908936,-0.333252,0.592708,7.352943,6.302554,0.033257,-0.178955,0.244509,-0.17749,-0.793701,-0.54248,-0.807562,-6.994269,5.731878,-0.297655,0.056923,-0.085049,-0.064941,0.757324,-0.663086,-0.506433,-8.164536,4.998954,-0.413604,0.08329,-0.019057,-0.038086,0.753418,-0.580566,-1.736688,-8.10164,3.927986,0.074349,0.054675,0.501269,0.130615,0.750977,-0.428223
3.136253,-8.645362,4.284717,0.271213,0.405718,0.596887,-0.220947,0.908203,-0.349365,0.097194,7.675691,6.409313,-0.296118,-0.090214,0.24208,-0.174805,-0.794678,-0.55835,-1.417304,-7.240593,5.876735,-0.448939,-0.030456,-0.074949,-0.058838,0.759277,-0.662598,-0.71342,-7.637349,5.251041,-0.221544,0.424331,-0.093884,-0.027344,0.748047,-0.583252,-2.133689,-8.432695,3.868305,-0.681354,0.006618,0.407204,0.14624,0.751221,-0.422363
2.898939,-7.881398,4.44052,0.091925,0.481643,0.552381,-0.215332,0.92334,-0.356201,0.521354,7.011185,6.360477,-0.404629,-0.072118,0.201066,-0.189941,-0.777344,-0.564941,-0.899554,-7.677122,5.244238,-0.322207,-0.155278,-0.132627,-0.073975,0.776123,-0.655029,-1.391717,-7.428173,5.259608,-0.323334,0.427278,-0.021682,-0.030029,0.768066,-0.575439,-1.893699,-9.669542,3.464234,-0.43824,-0.098334,0.362318,0.140869,0.768555,-0.411865
2.758164,-8.533021,4.421983,-0.071297,0.473606,0.498065,-0.194092,0.926514,-0.357178,0.280657,6.723458,6.169746,-0.230167,0.089251,0.20962,-0.184814,-0.773682,-0.566895,-0.767408,-7.055609,5.272915,-0.205917,-0.028077,-0.129558,-0.070557,0.775391,-0.650146,-1.414084,-7.366019,5.029246,-0.404137,0.285525,-0.117609,-0.022217,0.768311,-0.567383,-1.836945,-8.813569,3.462324,0.239189,0.075141,0.39435,0.158691,0.760254,-0.417236
3.042087,-8.306418,4.694664,0.068715,0.619324,0.5621,-0.181641,0.929443,-0.361328,0.524216,7.375338,6.136837,-0.05143,0.055038,0.17005,-0.194336,-0.776367,-0.563965,-0.698487,-7.329162,5.427544,-0.532341,0.014138,-0.091246,-0.077881,0.781494,-0.635498,-0.9996,-8.042418,5.003266,-0.513356,0.168621,-0.011432,-0.025146,0.772949,-0.552734,-2.866249,-7.494383,3.7687,-0.274905,0.059214,0.278939,0.158203,0.762451,-0.403564
2.393247,-8.266167,4.838524,-0.289292,0.638919,0.558909,-0.151367,0.935059,-0.357178,0.346475,7.57481,6.663106,-0.322859,0.186873,0.186798,-0.18042,-0.774414,-0.568115,-1.2374,-8.194485,5.438344,-0.394551,0.038463,-0.134482,-0.067139,0.785645,-0.621094,-0.943734,-8.607724,4.803787,-0.333984,0.382262,-0.108164,-0.008789,0.775635,-0.540527,-2.651065,-8.945185,3.285782,-1.02192,-0.331858,0.102383,0.167969,0.768555,-0.37793
2.387095,-9.580986,4.196973,-0.168421,0.689145,0.49688,-0.142578,0.945801,-0.362061,0.27268,6.91884,7.148684,-0.388947,0.175117,0.107386,-0.189697,-0.763916,-0.578369,-1.297744,-7.989605,5.285748,-0.291667,-0.118606,-0.210921,-0.08252,0.79126,-0.617432,-1.5977,-8.234533,4.959455,-0.227667,0.548762,-0.121873,-0.012939,0.782227,-0.53833,-1.682019,-10.572414,3.001161,-0.499473,-0.25991,0.1154,0.156494,0.777588,-0.37207
2.662273,-8.820713,4.472665,0.158324,0.744152,0.470898,-0.125,0.951172,-0.379395,0.861974,6.732098,7.137549,-0.061013,0.212807,0.160937,-0.186279,-0.759521,-0.587158,-0.379477,-8.733826,5.216567,-0.564482,-0.14084,-0.094023,-0.085938,0.798096,-0.611572,-1.515254,-8.314502,5.095664,-0.400421,0.289381,-0.057626,-0.009277,0.789062,-0.536865,-2.102242,-9.87037,2.916385,0.185753,-0.130437,0.284249,0.164795,0.774658,-0.384277
2.392193,-9.251813,4.615352,-0.13927,0.923189,0.457225,-0.104492,0.952148,-0.37915,0.531954,7.367989,7.200332,0.015109,0.320041,0.205328,-0.185547,-0.763428,-0.583008,-0.580827,-9.777217,5.135541,-0.334548,0.133545,-0.11393,-0.085449,0.803711,-0.604004,-1.167922,-9.809984,4.753901,-0.572886,0.337473,-0.004027,-0.007324,0.793701,-0.518799,-2.608026,-9.171129,3.000671,-0.179341,-0.366296,0.154839,0.164062,0.776611,-0.374512
1.797221,-10.049276,4.477545,0.135194,0.972953,0.526644,-0.081543,0.956299,-0.398193,0.00957,7.112005,7.57248,-0.085304,0.240029,0.288155,-0.185059,-0.76001,-0.5979,-1.711223,-9.655448,5.498912,0.053767,0.050274,-0.161677,-0.084961,0.80127,-0.614014,-2.097267,-10.692437,4.964883,0.027773,0.451625,-0.126128,0.001221,0.793701,-0.533447,-2.371004,-10.557909,2.801753,-0.542326,-0.542392,0.14558,0.164307,0.781006,-0.375488
1.481334,-9.765919,4.801993,0.174919,1.080599,0.461246,-0.061523,0.954346,-0.400146,0.332685,6.97782,7.974563,0.213366,0.298301,0.262208,-0.188232,-0.766113,-0.587646,-1.221332,-9.053666,5.248147,0.046333,-0.106988,-0.219385,-0.094971,0.79834,-0.60376,-2.135887,-9.045343,5.183348,0.303709,0.272504,-0.219065,-0.001709,0.785645,-0.528564,-2.318237,-11.04981,2.616212,0.203313,-0.512473,0.136399,0.156494,0.773193,-0.373535
1.345085,-10.556609,4.487638,0.415178,1.116302,0.294241,-0.034912,0.95459,-0.412598,0.155541,6.99343,8.028611,0.336593,0.428591,0.262511,-0.180664,-0.765137,-0.580811,-1.184626,-9.882642,4.224711,0.06854,0.023072,-0.161671,-0.09082,0.801025,-0.607178,-2.176946,-10.055954,4.268255,-0.217073,0.215713,0.015982,0.006348,0.79248,-0.524902,-2.308612,-9.897279,2.933607,0.741828,-0.649602,0.180171,0.158203,0.771973,-0.385986
1.2265,-9.454432,4.542752,0.971358,1.239637,0.232202,-0.012451,0.948486,-0.452881,0.073036,6.56313,7.296314,0.667867,0.47527,0.147935,-0.171143,-0.770996,-0.576416,-1.304677,-10.543105,4.456893,0.467658,0.038764,-0.314941,-0.093506,0.798828,-0.625732,-2.398441,-12.639149,3.454596,0.24518,0.089873,-0.223016,0.006104,0.793701,-0.537598,-1.608962,-9.266481,3.444725,0.67875,-0.776302,0.086479,0.157959,0.767334,-0.409912
0.454515,-8.237151,4.622363,0.648703,1.13674,0.180955,-0.003662,0.939209,-0.466309,-0.441224,8.032206,7.19279,1.155567,0.398922,0.140216,-0.179443,-0.787842,-0.552979,-1.353401,-10.391731,5.202444,0.665138,0.076259,-0.411402,-0.110352,0.783936,-0.637207,-1.975718,-11.817675,4.063412,1.101894,0.157279,-0.479862,-0.011963,0.777344,-0.562012,-0.687496,-9.17203,3.499903,0.654372,-0.625427,0.067306,0.139404,0.759277,-0.424561
0.404011,-9.095804,4.454013,0.551567,1.001416,0.132628,0.013428,0.929932,-0.481934,-0.196683,8.947321,7.195343,0.534963,0.215572,0.097048,-0.176514,-0.801025,-0.541748,-1.312139,-9.70516,4.883883,0.838688,0.010904,-0.499027,-0.118408,0.764893,-0.652832,-2.135709,-8.859076,4.776368,1.127895,0.258845,-0.495569,-0.018799,0.755127,-0.582764,-0.756829,-9.099418,3.661235,0.629701,-0.32393,0.142829,0.140625,0.746826,-0.432373
0.213954,-8.49402,5.051274,0.671366,0.851741,0.143173,0.04126,0.926514,-0.493164,-0.346971,7.807903,6.796248,0.378676,0.187873,0.059056,-0.164062,-0.797607,-0.534668,-0.640271,-8.61211,4.753944,0.566982,0.061022,-0.485227,-0.115479,0.761719,-0.661621,-2.401601,-8.613407,4.71099,0.191516,-0.005371,-0.34124,-0.012451,0.759033,-0.584229,-1.440938,-8.99247,3.901109,0.515139,-0.164788,0.121131,0.153076,0.746582,-0.441895
0.493057,-8.055552,5.060592,0.28168,0.773171,0.174737,0.04541,0.91748,-0.499756,-0.28986,8.47976,6.911556,0.554661,-0.074516,-0.013008,-0.171875,-0.814209,-0.516357,-0.470711,-9.633251,4.761372,-0.165944,0.304948,-0.340907,-0.12793,0.756104,-0.657959,-2.172584,-11.071618,4.514228,-0.13295,-0.342672,-0.368015,-0.037598,0.753174,-0.580566,-1.283108,-9.111923,4.086494,0.199589,-0.27278,0.0461,0.140869,0.736572,-0.442871
0.179958,-8.593856,4.591655,0.343711,0.687486,0.192422,0.05957,0.920654,-0.513184,0.078838,8.033634,6.537048,0.024307,-0.220389,0.076784,-0.175537,-0.80542,-0.518555,-0.60162,-11.441886,5.155291,0.245937,0.332476,-0.460194,-0.130859,0.757324,-0.666748,-1.706794,-11.884471,4.381114,0.604526,-0.570396,-0.609317,-0.058594,0.749512,-0.594727,-0.507882,-9.660259,3.716653,0.120143,-0.0758,0.130328,0.14209,0.743652,-0.448486
0.494975,-8.098382,5.134862,0.650244,0.632182,0.203237,0.075439,0.906982,-0.518799,0.243864,6.86525,5.837641,0.547132,-0.371768,0.155165,-0.183838,-0.813721,-0.498535,-0.030459,-9.695147,6.031269,1.080669,0.45966,-0.576186,-0.134033,0.73584,-0.682617,-0.569641,-8.826023,5.413608,1.235675,-0.572996,-0.763672,-0.08374,0.726074,-0.611084,-1.026187,-9.888325,3.678195,0.517884,0.181193,0.365909,0.152344,0.737061,-0.454102
0.29067,-8.00037,5.550844,0.421868,0.550856,0.245464,0.08667,0.894531,-0.537109,0.522371,8.463677,6.239876,1.072676,-0.511216,0.178106,-0.189453,-0.833984,-0.484375,-0.759304,-8.154395,6.464505,0.708697,0.446806,-0.394537,-0.133545,0.713379,-0.705811,-0.324498,-7.248382,6.063746,0.639975,-0.331408,-0.396298,-0.096191,0.705078,-0.634033,-1.421175,-9.313447,4.02732,0.590901,0.070402,0.345072,0.158203,0.717041,-0.475342
0.432457,-9.034559,5.6781,0.258083,0.535422,0.29495,0.103027,0.898682,-0.544922,0.820454,9.40348,6.767136,0.498197,-0.620396,0.232624,-0.201172,-0.828857,-0.470703,-0.331677,-8.282612,6.805017,0.462809,0.192138,-0.359629,-0.134766,0.712402,-0.7146,-0.141703,-8.048612,6.093584,0.436958,-0.272446,-0.373626,-0.109375,0.705811,-0.640381,-1.250045,-9.104695,4.391123,0.304158,0.167267,0.385841,0.169434,0.718018,-0.478271
-0.416119,-9.943166,5.848873,0.197369,0.585112,0.243802,0.111328,0.895264,-0.546875,1.124372,8.927617,7.001343,0.277031,-0.455205,0.23068,-0.217285,-0.839844,-0.458252,-0.358288,-8.081041,7.391376,0.415058,0.297009,-0.259188,-0.140625,0.700439,-0.722412,0.396407,-7.248558,6.789051,0.702172,0.149064,-0.326307,-0.116455,0.689941,-0.654785,-2.389417,-9.572469,4.159878,0.032542,0.32935,0.336175,0.174072,0.716064,-0.477295
-0.515916,-10.620078,5.807629,0.510239,0.526819,0.124193,0.12207,0.882568,-0.563721,0.90273,8.77463,6.746455,0.626596,-0.323471,0.281534,-0.224854,-0.847412,-0.448242,-0.580508,-8.208783,7.431445,0.603869,0.086708,-0.134968,-0.141113,0.693115,-0.737793,-0.980167,-6.431163,7.393839,0.658711,0.236897,-0.173628,-0.116943,0.671631,-0.672119,-2.68845,-10.487058,3.943984,0.268469,0.0548,0.211913,0.182861,0.70752,-0.487549
-1.123105,-10.496745,6.760821,0.886085,0.592031,0.000888,0.131836,0.873047,-0.580566,1.580199,9.602405,5.795792,1.061649,-0.044851,0.245505,-0.231934,-0.850098,-0.425537,0.476548,-6.824726,7.520138,1.275709,0.247112,-0.125319,-0.137207,0.669922,-0.763428,-0.337807,-5.701909,7.604953,1.034573,-0.227683,-0.132392,-0.122803,0.662109,-0.692139,-2.428305,-10.936026,4.325375,0.768266,0.279979,0.218136,0.189209,0.702393,-0.50293
-1.651866,-9.925276,7.362027,1.192596,0.463438,-0.136867,0.139893,0.855469,-0.597168,1.039987,10.707992,5.327459,1.133246,0.369459,0.121029,-0.224365,-0.857666,-0.39624,-0.730655,-4.322259,8.229888,1.37565,0.400032,0.053801,-0.125488,0.645264,-0.783203,0.42038,-3.719154,8.190746,1.190333,0.025493,-0.101834,-0.119141,0.639648,-0.708252,-3.926571,-10.147383,4.816285,1.53313,0.35678,0.336758,0.205078,0.683594,-0.52417
-1.373026,-8.955868,7.99727,1.236924,0.336393,-0.285088,0.136719,0.833008,-0.615723,1.285047,10.822635,4.706941,0.78664,0.613048,-0.164065,-0.219971,-0.866455,-0.380127,-0.692893,-3.532676,8.404136,0.791992,0.038858,0.129429,-0.125732,0.630127,-0.793945,-0.103063,-3.256941,8.570184,0.699787,0.092876,0.140015,-0.119385,0.628418,-0.719238,-3.627552,-8.26078,5.583626,1.687954,0.02211,0.016221,0.199463,0.660645,-0.55127
-1.028019,-8.376109,8.563348,1.023875,0.32038,-0.388398,0.143311,0.808105,-0.639893,1.091767,10.106552,4.159495,0.658724,1.065511,-0.370387,-0.192139,-0.880859,-0.37915,-0.40892,-4.123927,8.418992,0.689119,0.072562,0.267079,-0.113281,0.611572,-0.813721,0.31672,-3.549036,8.206743,0.822437,0.168503,0.156471,-0.105713,0.606445,-0.74292,-3.427158,-6.902377,6.35184,1.325454,0.275037,-0.033777,0.212891,0.633057,-0.583496
-0.869644,-8.72286,8.469875,0.940054,0.319903,-0.552549,0.132812,0.794678,-0.650635,0.836091,9.796671,3.523681,0.90018,1.398477,-0.608166,-0.173584,-0.887939,-0.359375,-1.009345,-3.836631,8.252513,1.14938,-0.013391,0.267001,-0.117676,0.598145,-0.82666,-0.458,-2.804532,8.528906,1.057156,0.559708,0.29426,-0.0979,0.595459,-0.756836,-4.437601,-7.500033,6.615712,0.733394,0.00264,-0.305669,0.197998,0.62793,-0.591064
-0.465344,-6.967419,8.392525,1.564402,0.342674,-0.613247,0.130371,0.759521,-0.684326,0.455654,9.740958,2.172775,0.893793,1.84912,-0.788232,-0.136719,-0.904541,-0.353271,-0.766535,-2.224154,7.670959,1.373164,0.015172,0.213792,-0.111084,0.561279,-0.856689,-1.942206,-3.203759,8.358761,0.696829,0.178662,0.314494,-0.08667,0.57373,-0.776123,-2.751488,-8.17597,6.11353,1.339823,-0.374765,-0.562201,0.183105,0.603271,-0.624756
-0.483025,-3.920557,8.858699,0.890473,0.327779,-0.587573,0.128418,0.753174,-0.688965,-0.45406,9.139715,1.644474,0.602295,1.975275,-1.005994,-0.098877,-0.900391,-0.337891,-1.533676,-1.611097,7.629989,0.555405,0.142577,0.23676,-0.104492,0.563721,-0.857422,-1.201697,-4.197744,7.684035,0.57986,-0.087058,0.234641,-0.084717,0.574707,-0.779053,-2.38444,-5.921937,6.82787,1.710739,-0.066246,-0.390594,0.172607,0.586182,-0.642822
0.016608,-5.39177,8.229147,0.009651,0.288926,-0.471231,0.121826,0.734375,-0.689453,-0.396006,9.22807,1.772897,0.62283,1.957777,-1.190798,-0.060303,-0.924316,-0.328125,-1.57246,-3.865502,7.904308,-0.418727,-0.143377,0.222699,-0.108398,0.556885,-0.849121,-0.896732,-4.588081,7.521789,0.087546,0.084259,0.154252,-0.084473,0.556396,-0.779053,-2.646685,-5.210082,7.67095,0.151778,-0.437515,-0.572623,0.153076,0.568848,-0.643799
-0.58157,-4.99559,8.032413,0.109577,0.274587,-0.22769,0.130859,0.730713,-0.685059,-1.476028,10.037791,2.57728,0.121252,1.880228,-1.288102,-0.006836,-0.926025,-0.31958,-1.063507,-7.12033,7.460265,-0.719559,-0.156264,0.160495,-0.101807,0.572998,-0.830811,-0.522223,-7.176831,7.14578,-0.751055,0.323163,0.324044,-0.06665,0.573486,-0.758301,-1.127975,-7.344223,6.505198,-0.693624,-0.413635,-0.592786,0.144775,0.580566,-0.632324
-0.523257,-4.034003,7.740031,-0.434035,0.131069,-0.14333,0.126953,0.74707,-0.681885,-2.045934,8.844793,3.248197,-0.253859,1.47889,-1.344195,0.036377,-0.916992,-0.326416,-1.206565,-8.85347,6.833286,-0.375164,-0.320872,0.035384,-0.107666,0.587158,-0.826904,-1.281918,-9.671267,6.908513,-0.344344,0.59057,0.172856,-0.053467,0.587891,-0.762207,-1.572287,-8.453095,6.359227,-0.239255,-0.085819,-0.274822,0.138916,0.595703,-0.630371
-1.241703,-4.852885,7.131287,-0.579106,0.014135,-0.041709,0.128662,0.744873,-0.677734,-3.266909,8.690524,4.178521,0.085369,1.02754,-1.37249,0.075928,-0.927734,-0.321777,0.007586,-9.960719,6.825816,-0.978702,-0.541252,0.146616,-0.114502,0.594238,-0.813477,-0.898741,-9.498875,7.11959,-0.579802,0.23947,0.169421,-0.042725,0.587402,-0.750244,-2.097048,-6.089268,6.340171,0.469826,-0.115538,-0.196024,0.131592,0.577881,-0.639648
-0.662117,-3.553487,7.317071,-0.333687,0.0383,-0.000696,0.123047,0.760254,-0.672119,-3.748612,9.936531,4.799566,0.011418,0.077655,-1.196339,0.10083,-0.916016,-0.323486,1.239509,-14.557665,7.290153,-1.831666,-0.548681,0.286588,-0.124756,0.639404,-0.780518,1.06276,-13.99384,6.192349,-1.839194,0.340254,0.585831,-0.030762,0.629395,-0.720215,-2.438937,-3.566167,6.864724,-0.148333,0.012454,-0.149032,0.124268,0.586426,-0.635498
-1.761926,-3.269096,7.22087,-0.419355,0.074759,-0.043659,0.129883,0.772705,-0.662354,-3.545779,8.734351,3.389274,-0.625133,-0.719798,-0.707742,0.118408,-0.905273,-0.335205,0.875211,-17.410806,6.419821,0.09175,-0.388302,0.094289,-0.125,0.642334,-0.781982,0.108098,-18.036007,4.672405,0.01774,1.114838,0.38605,0.006104,0.635254,-0.722656,-3.287189,-3.777274,6.236141,-0.385285,-0.026945,-0.099822,0.128418,0.598145,-0.630615
-1.310725,-2.911101,6.13281,0.513491,0.136717,-0.144436,0.123291,0.75415,-0.67627,-3.233469,5.763582,1.463604,0.166083,-1.409731,-0.554144,0.109619,-0.910889,-0.339111,0.42828,-11.543115,6.139447,2.512717,-0.45935,-0.352038,-0.147217,0.582764,-0.820557,-1.720488,-11.674894,6.166972,2.53013,1.111443,-0.231325,0.016113,0.577637,-0.77002,-2.979172,-3.518807,5.615868,0.45379,-0.237117,-0.23386,0.114014,0.581787,-0.64209
-1.851515,0.55429,5.914625,1.141121,-0.024493,-0.075165,0.125244,0.733398,-0.698242,-2.791392,6.987244,0.077186,1.533906,-2.2565,-0.193197,0.100342,-0.924561,-0.316895,1.825679,-6.30535,7.60078,1.430335,-0.425232,0.055973,-0.151123,0.553955,-0.848877,-0.910132,-5.147194,7.885109,1.59555,0.370973,0.239827,0.029297,0.547852,-0.796387,-1.855052,-2.221975,5.69752,1.107441,-0.148242,0.050606,0.116699,0.5625,-0.666016
0.373467,2.481652,5.701715,0.34004,-0.058156,0.045967,0.123535,0.731934,-0.696289,-1.384113,10.043238,0.076306,0.627108,-3.087077,0.385222,0.061279,-0.925781,-0.303955,1.637133,-6.774906,8.398505,0.610732,0.122653,0.250775,-0.150879,0.547119,-0.852295,-0.351574,-5.368059,7.449072,0.549293,0.370312,0.465408,0.041504,0.539551,-0.800781,-1.395562,-0.002138,5.551117,1.109315,-0.009924,0.108653,0.115234,0.549805,-0.677734
0.762757,0.752402,5.587186,-1.030412,0.121386,0.269423,0.125977,0.749512,-0.683105,-1.527108,7.940084,0.058321,-1.340238,-3.464481,1.107146,0.006836,-0.921631,-0.341309,-0.546191,-4.276135,8.601108,0.947521,0.382935,0.305031,-0.138672,0.524658,-0.867432,-2.728923,-3.415874,7.959584,0.672411,0.618297,0.233275,0.054443,0.520752,-0.810059,-1.028033,1.059565,5.546686,-0.930586,-0.15602,0.137948,0.114258,0.562744,-0.659668
1.812846,-4.375444,4.89855,-2.17332,0.312039,0.624449,0.148193,0.803711,-0.648193,-1.783174,4.869058,0.626768,-1.066908,-3.8477,1.432381,-0.05249,-0.897217,-0.356445,-1.646155,-0.877203,7.784213,-0.06963,0.643364,0.346535,-0.115723,0.541748,-0.863281,-5.607587,-1.656998,8.466964,-0.749465,-0.236141,0.451348,0.061035,0.550781,-0.795654,-0.772933,-4.662239,4.136968,-4.083005,-0.534307,0.051977,0.112061,0.643311,-0.59082
0.128468,-8.617359,3.275894,-2.012069,0.667809,0.745842,0.168457,0.840088,-0.624512,0.020571,6.912907,3.998879,-0.689571,-3.498649,1.59542,-0.124512,-0.892578,-0.376953,-2.967653,-0.48808,7.151758,-0.892026,0.995992,0.373721,-0.092285,0.556885,-0.861328,-6.104595,-4.497762,7.379818,-1.362201,-1.389705,0.164974,0.02832,0.568359,-0.784912,0.809751,-13.291311,1.711904,-3.720613,-0.831648,0.063295,0.096191,0.695557,-0.536865
-1.931797,-12.409062,2.943985,-1.513996,0.363028,0.579498,0.181396,0.862793,-0.595947,0.095405,7.478178,6.265712,-0.761623,-2.920899,1.622951,-0.194092,-0.886475,-0.374512,-2.190477,-1.376533,8.750962,-1.782871,0.716098,0.116799,-0.082764,0.588135,-0.830322,-2.565505,-4.246052,8.013089,-1.073627,-1.961631,-0.340988,-0.020996,0.589111,-0.760742,0.586066,-14.187937,1.631871,0.152472,0.030001,0.571956,0.102783,0.692871,-0.537109
-3.533133,-16.463622,2.768547,-0.831225,0.207041,0.087762,0.187988,0.885254,-0.577148,3.788983,8.808346,8.206267,0.361785,-1.902993,1.263441,-0.237793,-0.873291,-0.353271,-0.745742,-5.687786,7.650193,-1.454236,0.759173,0.240068,-0.063477,0.625488,-0.80542,0.973193,-4.80038,7.20175,-0.718614,-1.415725,0.038914,-0.046875,0.609619,-0.743896,-1.827476,-9.096891,3.525923,0.656031,0.641565,0.320871,0.122314,0.689209,-0.540527
-3.900516,-15.096713,2.694493,0.81306,-0.488412,-0.233764,0.183594,0.87085,-0.59082,2.022901,9.636605,8.703817,-0.048592,-0.4298,0.80103,-0.251953,-0.871094,-0.352783,-1.946644,-6.246828,7.206832,0.739939,0.197272,-0.117287,-0.055176,0.608887,-0.820068,1.847648,-5.437326,7.255502,0.166403,-0.132525,-0.162706,-0.045898,0.604492,-0.744385,-2.704865,-11.046763,2.628924,-1.321152,0.63008,0.104,0.138916,0.708252,-0.513184
-2.296341,-12.373127,4.507522,0.562047,-0.297093,-0.503916,0.165039,0.852539,-0.607178,2.634135,6.105758,6.704581,-0.203845,0.193216,0.576716,-0.269531,-0.875244,-0.363281,0.189722,-0.361141,7.471726,1.711897,-0.283843,-0.379387,-0.073975,0.5625,-0.849365,0.520948,-2.66649,7.825801,1.065959,0.276833,-0.216048,-0.05249,0.575684,-0.772217,-2.583923,-15.693938,1.61685,-0.528894,1.035904,-0.01889,0.147461,0.705078,-0.509033
-1.394895,-13.195678,5.477045,0.124701,-0.262813,-0.401742,0.157471,0.857178,-0.607422,1.925116,7.174688,6.468146,1.005025,1.486213,0.322983,-0.258301,-0.874756,-0.351807,-1.23835,1.410965,7.570063,-0.837844,-0.048034,0.013958,-0.070557,0.589844,-0.835693,-0.029924,-0.363822,7.648168,-0.345338,0.607859,-0.1816,-0.036865,0.586914,-0.766113,-4.193636,-14.946476,2.469298,1.031195,1.083848,0.166524,0.168945,0.698975,-0.526367
-0.432243,-12.313032,6.074532,0.758108,0.310625,-0.252989,0.162598,0.84082,-0.618652,1.11165,9.032132,6.503621,0.123453,1.70464,0.24835,-0.245117,-0.876709,-0.35791,-1.759888,-5.383814,5.741339,-2.002403,-0.717638,0.068681,-0.079346,0.626953,-0.80249,-1.911598,-4.128336,6.284055,-1.340502,0.568128,0.329499,-0.018066,0.612305,-0.740234,-4.120218,-11.928867,3.326524,1.170308,0.317329,-0.195929,0.175293,0.679688,-0.544922
-0.760809,-9.829636,6.695973,0.789335,0.433136,-0.348281,0.167236,0.824707,-0.633057,2.039731,6.9323,5.02988,-0.12404,2.479072,0.143508,-0.221924,-0.874512,-0.374756,0.016479,-7.216172,4.848295,0.599087,-0.266965,-0.215682,-0.084473,0.613281,-0.813721,-1.927564,-6.562037,4.940359,-0.10005,0.323035,-0.310885,-0.011963,0.612549,-0.744629,-2.364663,-10.355558,4.236792,1.006193,0.107971,-0.196401,0.175781,0.665527,-0.562988
-0.821019,-10.403469,6.441356,0.67911,0.483107,-0.422236,0.174561,0.8125,-0.638672,0.217547,7.76045,4.096054,1.232081,2.934622,-0.1919,-0.186523,-0.884521,-0.357666,-2.32815,-2.033696,5.495736,1.295766,0.000952,-0.356951,-0.086426,0.587158,-0.830811,-2.720111,-3.762722,5.411879,0.701828,0.253464,-0.141659,-0.006104,0.602295,-0.751221,-2.014786,-9.703993,4.788224,1.08086,0.158021,-0.247766,0.178223,0.649902,-0.577148
-0.719674,-8.791409,6.878267,1.587224,0.374551,-0.469387,0.162354,0.779541,-0.654053,0.290121,9.801293,3.497297,0.66951,3.262421,-0.626581,-0.150391,-0.898193,-0.347168,-2.566488,-2.034338,4.865866,-0.195716,-0.121168,-0.173412,-0.098145,0.58667,-0.816406,-3.899085,-5.203517,5.514815,-0.210864,-0.190009,-0.20395,-0.022705,0.600342,-0.739258,-1.006763,-9.73135,5.959947,1.046897,0.178748,-0.374876,0.163086,0.631836,-0.583984
-0.23721,-4.647162,8.759842,1.005505,0.006803,-0.33882,0.159424,0.753662,-0.674805,-0.744643,7.938559,3.034999,0.001451,3.321637,-1.1847,-0.088135,-0.906006,-0.365234,-3.701871,-5.567339,4.87525,-0.464174,-0.204194,-0.348285,-0.10498,0.591064,-0.814697,-2.994575,-5.949094,5.380258,0.608366,-0.327651,-0.437309,-0.034912,0.585938,-0.75415,-0.499554,-8.353464,7.153255,1.471804,0.457343,-0.154753,0.170166,0.60376,-0.614258
0.852521,-4.509637,9.187131,0.0374,0.037327,-0.27914,0.160156,0.760498,-0.683594,-1.018606,8.596398,2.998538,0.997424,2.918255,-1.500223,-0.027588,-0.910645,-0.350586,-1.143661,-8.926053,7.159333,-0.928204,-0.8676,-0.125304,-0.118896,0.617188,-0.804688,-2.206261,-5.127712,6.795101,-0.326216,-0.283317,-0.236741,-0.040283,0.597168,-0.752197,-1.332842,-6.580913,7.870369,0.298291,0.803406,-0.102977,0.186523,0.605713,-0.622559
-0.500602,-4.183061,9.88765,0.4681,0.215767,0.103986,0.163086,0.746338,-0.693604,-1.712046,11.754856,2.867334,0.722692,2.164075,-1.241904,0.016846,-0.921875,-0.337646,2.048335,-12.833212,6.087527,-0.460661,-0.0801,-0.045205,-0.125732,0.621338,-0.800537,-0.673888,-11.033051,5.692028,-1.275429,-0.802684,0.312352,-0.053223,0.61499,-0.735107,-3.779008,-7.83877,7.437532,-0.152377,0.536305,0.35732,0.196045,0.602295,-0.621338
-1.743926,-2.094471,11.218776,-0.1592,0.153093,0.184407,0.164307,0.750244,-0.685547,-2.201718,10.23974,2.459819,-0.537767,1.52186,-1.409045,0.062256,-0.911865,-0.346191,-1.827639,-10.50841,6.389943,1.185781,0.262999,-0.218696,-0.125,0.599121,-0.818604,-0.119494,-13.437541,5.812405,0.195406,-0.110264,-0.347196,-0.063232,0.616455,-0.733643,-4.666066,-6.091121,7.474469,0.926782,0.166168,0.064874,0.19458,0.590088,-0.63501
-1.831765,-4.153436,10.025308,-0.554275,0.054224,0.221959,0.16626,0.762695,-0.677246,-3.558318,7.261636,2.178911,0.443258,0.971636,-1.671707,0.109863,-0.90918,-0.330078,-0.841051,-7.97187,8.001912,-0.121982,-0.767546,-0.333206,-0.147705,0.599854,-0.806885,-1.28843,-10.716587,7.142012,0.659757,-0.14074,-0.252671,-0.071045,0.601074,-0.741211,-4.814522,-2.35319,9.442814,0.700041,-0.057494,0.285042,0.199219,0.575928,-0.641357
-1.488265,-3.001637,9.293887,0.524807,0.250705,0.169288,0.169922,0.757324,-0.692627,-4.033992,9.757006,2.680071,1.67292,0.008586,-1.712496,0.144775,-0.912598,-0.296631,1.206872,-13.628114,7.62181,-1.022636,-0.600439,-0.009138,-0.1604,0.627686,-0.798828,1.336952,-12.205193,6.573135,-0.205374,-0.063058,-0.043904,-0.075684,0.609131,-0.746338,-4.751654,-2.007389,8.388872,-0.237329,-0.194127,-0.052767,0.190674,0.584961,-0.64624
-1.756767,-0.256742,9.275585,-0.070587,0.356722,0.059385,0.178711,0.749512,-0.682617,-3.593746,11.789441,2.845773,0.71946,-0.645286,-1.390414,0.174561,-0.921387,-0.276611,1.400208,-14.189845,7.865101,1.400764,-0.698911,-0.573951,-0.181396,0.585449,-0.810547,0.954699,-13.135506,6.808089,0.906676,0.910242,-0.129502,-0.058838,0.58374,-0.754395,-4.127128,-1.919337,8.114173,0.313094,-0.329379,-0.040033,0.186768,0.570801,-0.645508
-2.011129,-2.13939,7.746731,-0.612252,0.542402,-0.069171,0.191895,0.759277,-0.682861,-4.320147,9.689169,1.411221,-0.302647,-1.343825,-0.957374,0.189453,-0.91626,-0.296387,2.281029,-7.315464,8.772119,1.720189,-0.382189,-0.518591,-0.196045,0.546387,-0.841064,-1.064911,-9.122237,8.540844,1.079219,0.665619,-0.395831,-0.050781,0.55835,-0.780518,-4.090603,-0.387878,7.516078,0.079781,-0.183425,-0.265129,0.177734,0.567627,-0.656982
-2.156197,-0.684962,7.161179,-0.016774,0.504624,-0.009381,0.20874,0.771484,-0.676514,-3.201902,8.393152,0.362166,-0.02972,-2.075655,-0.795163,0.201172,-0.900879,-0.302979,0.534216,-5.107667,8.888867,-0.36755,-0.34436,-0.261724,-0.197266,0.562988,-0.827393,-0.056804,-6.831274,8.017325,0.123881,0.212327,-0.202948,-0.039307,0.568604,-0.778076,-4.150293,-0.509092,5.908772,-0.781239,-0.459316,-0.30761,0.176514,0.593994,-0.636719
-0.606189,0.696624,6.201675,-1.339824,0.450191,0.008954,0.211182,0.79541,-0.660156,-3.11341,8.869448,1.893412,-0.573856,-2.530741,-0.397553,0.184814,-0.895996,-0.33374,1.764962,-7.786174,8.050089,-1.082347,-0.654555,-0.170646,-0.220947,0.581787,-0.814697,0.203348,-6.179296,7.801549,-0.289914,0.672632,-0.211261,-0.036865,0.572021,-0.777832,-2.362088,-1.22416,4.034834,-0.962513,-0.903369,-0.554555,0.146729,0.610107,-0.631836
0.69143,-4.325325,4.087313,-2.77883,0.730756,-0.145583,0.214844,0.846191,-0.606934,-2.186937,8.144595,5.420407,-1.242669,-2.754037,-0.065292,0.153564,-0.88208,-0.366699,1.81756,-7.518116,8.131455,-0.601796,0.027106,-0.2342,-0.230713,0.592773,-0.794922,-1.562203,-6.379684,7.484545,-1.183871,0.512205,-0.080233,-0.038818,0.595215,-0.750488,-0.350806,0.053155,2.936198,-1.48252,-1.010634,-0.786887,0.109131,0.637451,-0.597656
-1.0985,-13.237333,2.259473,-3.513617,0.947856,-0.437286,0.230225,0.900635,-0.550781,-4.282294,8.444317,7.942617,-0.94165,-1.999792,0.312566,0.13501,-0.880859,-0.397705,-0.661436,-6.872999,7.706221,-1.093494,0.331581,-0.030831,-0.219238,0.605957,-0.78125,-3.188194,-9.209296,5.463946,-1.386279,0.168107,-0.170356,-0.030029,0.617188,-0.730957,-0.397699,-5.874925,0.697874,-6.007629,-1.075209,-1.038857,0.083984,0.721191,-0.486572
-2.88735,-18.335994,0.048294,-0.329007,0.568213,-0.236913,0.229492,0.916016,-0.548584,-4.33825,8.726197,5.495877,-1.176826,-2.320895,0.194748,0.100342,-0.86084,-0.435303,-0.253805,-8.317195,6.731444,-0.953946,0.623323,-0.126169,-0.214355,0.634521,-0.77124,-4.236833,-8.484076,6.041919,0.109155,-0.519193,-0.522833,-0.058594,0.620117,-0.735107,0.704533,-22.967873,-2.289846,-6.962766,-1.325669,-1.193173,0.038086,0.810547,-0.354004
-1.814299,-9.905349,1.627421,1.363415,-0.185665,-0.007071,0.236328,0.886963,-0.566162,-1.049369,5.620369,5.615034,-0.337295,-1.780273,0.30468,0.081787,-0.865723,-0.439209,0.227562,-7.802099,7.24805,0.691178,0.952614,-0.084052,-0.192627,0.616211,-0.787842,-1.48194,-4.482443,7.475805,0.706706,-1.45019,-0.423093,-0.084717,0.599365,-0.740967,3.964074,-26.155008,-4.287394,1.212849,-0.257523,-0.171666,0.040527,0.79126,-0.384521
-1.271989,-10.650791,2.175007,-0.709912,-0.451112,-0.20418,0.228516,0.902344,-0.55957,-1.108437,7.721591,6.377194,1.237863,-1.08221,0.10193,0.07666,-0.872559,-0.415039,-0.314545,-2.956899,7.604444,1.469265,0.966152,-0.36643,-0.171875,0.589355,-0.815186,0.589095,-4.094733,7.46969,-0.115212,-0.784128,-0.168724,-0.096924,0.607666,-0.739746,2.037735,-12.508245,-0.853313,6.838661,1.485776,0.865826,0.084717,0.716064,-0.518066
-0.459455,-15.033545,2.31935,0.222317,-0.687251,-0.196624,0.208984,0.897217,-0.561279,-0.707663,9.590316,8.258884,-0.236436,-0.456829,0.261923,0.05835,-0.875977,-0.42334,-0.302025,-0.879093,8.581042,-0.373299,0.778248,-0.159628,-0.164062,0.592041,-0.810303,-1.349316,-5.712784,7.43863,-0.160495,-0.498094,-0.313186,-0.117676,0.605957,-0.73584,-1.624954,-2.531182,4.837507,1.842245,1.365415,0.473473,0.105469,0.684326,-0.543701
-0.106724,-11.923344,4.733872,0.649121,-0.294459,-0.015119,0.203125,0.87915,-0.569824,-1.164313,6.0621,7.510986,-0.510578,0.247615,0.3516,0.052002,-0.874268,-0.428955,-0.08469,-5.566722,8.6696,-1.708449,0.672012,0.000326,-0.1521,0.621582,-0.783691,1.0695,-3.875804,7.368923,0.177406,-0.882419,-0.480903,-0.143066,0.595947,-0.730469,-2.435766,-10.258486,1.650177,-4.413681,0.437925,-0.027798,0.108154,0.739746,-0.454834
0.154408,-12.926957,4.331637,-0.340868,-0.075874,0.006155,0.2146,0.889648,-0.564453,-1.069186,7.232622,8.004543,0.505994,0.63603,0.553022,0.056885,-0.877441,-0.418945,-0.704052,-8.836864,7.080092,-0.458477,0.588486,-0.018887,-0.131348,0.631836,-0.782959,1.795381,-3.41102,7.229838,-0.90308,0.580315,0.087611,-0.119873,0.615723,-0.718506,-0.997575,-20.650784,-1.034705,-2.510189,-0.084903,-0.189033,0.114502,0.769775,-0.411133
-0.569023,-13.519851,3.247388,1.249456,0.212098,0.094343,0.203613,0.866211,-0.593506,-1.25155,7.651275,7.290723,-0.047989,1.116225,0.556588,0.042969,-0.876221,-0.425537,-1.100798,-7.587889,7.059023,0.253117,0.479837,-0.063348,-0.138184,0.625244,-0.79541,-2.444241,-9.650268,6.777083,-1.424135,0.574458,0.371699,-0.117676,0.642334,-0.703613,0.452773,-18.307083,-0.007829,3.413659,0.057004,0.31345,0.106201,0.729248,-0.489014
-1.553749,-8.772526,4.880446,2.019365,-0.040167,0.058467,0.210938,0.832031,-0.623779,-2.374572,6.01789,5.554734,0.996812,1.205021,0.58418,0.047607,-0.887939,-0.398926,-1.377369,-8.908836,6.990085,0.17679,0.264626,0.132484,-0.124512,0.623535,-0.795898,-0.393829,-11.485453,5.514729,1.398415,-0.022686,-0.17658,-0.114746,0.617188,-0.730469,0.113043,-8.505863,3.64465,5.142304,0.672281,0.547934,0.130371,0.655273,-0.580811
-1.112592,-8.179954,5.66908,1.564651,-0.255292,-0.14989,0.197266,0.811768,-0.638916,-1.473824,8.661776,4.836526,2.394711,1.222607,0.359572,0.047363,-0.901855,-0.32666,-0.231675,-10.091296,6.718965,1.826107,0.23401,0.070843,-0.122559,0.594482,-0.814453,0.067304,-5.527483,6.688569,2.698595,0.95848,-0.213577,-0.10376,0.570312,-0.765625,-1.058997,-3.358511,6.964018,2.315633,0.979386,0.470913,0.151611,0.626221,-0.603027
-0.602534,-6.33595,6.790723,2.455161,-0.229096,-0.196953,0.197754,0.754883,-0.679443,-1.920742,10.600294,3.994282,1.562438,1.473604,0.483391,0.052002,-0.925293,-0.295166,-0.386182,-5.070932,7.728566,3.077441,0.583814,-0.07944,-0.107422,0.522217,-0.866211,-2.185514,-3.265062,9.411297,1.511189,0.530822,0.223878,-0.085449,0.529785,-0.796143,-1.94762,-6.382605,6.244152,0.342208,0.954016,0.410023,0.179199,0.609375,-0.609131
-0.657631,-3.45786,8.606798,1.410294,-0.148908,-0.268209,0.186768,0.72876,-0.69751,-1.85739,9.107322,2.742206,0.835142,1.271421,0.365775,0.048828,-0.92627,-0.27417,-1.978385,-1.123897,8.801694,1.404974,0.388174,0.188938,-0.100098,0.494385,-0.888916,-0.706041,-5.14184,9.011346,0.802522,-0.02774,0.202223,-0.084717,0.51709,-0.806885,-2.518508,-8.309665,6.458602,1.572776,0.901771,0.327613,0.195068,0.58252,-0.63501
-0.32669,-4.343448,8.553625,0.86004,-0.065145,-0.241868,0.183105,0.712158,-0.707031,-1.198886,9.210416,1.88461,0.677879,1.322578,0.239888,0.054199,-0.929932,-0.256104,-0.45217,-3.531442,7.754101,-0.518777,-0.206312,0.228186,-0.098633,0.509521,-0.877197,0.322332,-3.959272,8.306345,0.948588,0.44851,0.044,-0.071289,0.49707,-0.818604,-2.554922,-4.496623,8.119503,2.457962,0.777056,0.305133,0.2146,0.54126,-0.667969
-0.315472,-4.624535,9.726651,0.428056,0.043582,-0.157104,0.180908,0.697998,-0.71875,-1.475523,9.133776,1.81119,0.439344,1.119298,0.132206,0.059326,-0.934814,-0.251221,0.55393,-7.527035,6.955935,0.065375,0.135031,0.41655,-0.090088,0.503418,-0.88623,-0.788049,-3.488494,8.711593,0.338601,0.389689,0.364292,-0.05957,0.488281,-0.83252,-2.741131,-3.146962,9.196235,-0.134642,0.892701,0.174193,0.233154,0.535889,-0.665771
-0.735066,-5.32235,9.384521,1.175788,0.143464,-0.072617,0.184326,0.679932,-0.728271,-1.226587,8.576988,0.550649,0.743541,0.971246,0.020328,0.061279,-0.932129,-0.220947,-0.192975,-5.913795,7.232028,1.820776,0.014617,0.188932,-0.088135,0.469238,-0.904785,-0.610618,-4.944079,7.876859,0.802691,-0.235366,0.400911,-0.061523,0.479736,-0.835449,-4.058729,-8.404265,7.095235,-0.691122,0.819508,0.402256,0.25,0.553223,-0.646973
-0.595209,-1.622508,10.861098,1.518756,0.213144,-0.008096,0.195068,0.64624,-0.748047,-1.132535,8.718006,-0.129735,1.175171,0.678234,-0.101543,0.076172,-0.942139,-0.191162,1.132597,-1.737456,7.670637,1.800026,0.06388,0.4546,-0.073486,0.428223,-0.925293,0.816594,-2.417836,8.252418,1.949511,-0.288107,0.240862,-0.058594,0.432129,-0.863281,-4.663545,-7.857602,6.300619,2.395472,0.388195,0.387964,0.269287,0.508789,-0.684082
-0.551465,-2.253178,11.068909,0.686774,0.314584,0.071873,0.187988,0.629395,-0.757812,-0.1555,9.358068,-1.549815,1.268382,0.462235,-0.384985,0.074707,-0.946777,-0.16748,0.268913,-1.753746,7.96305,0.94046,0.064977,0.695256,-0.078369,0.40625,-0.942627,1.180562,-0.550755,8.858359,1.002791,-0.184628,0.648713,-0.066895,0.409912,-0.880615,-4.621468,-1.556884,7.626216,2.873548,0.038027,0.449112,0.262451,0.450684,-0.724365
-1.390822,-0.90992,10.422674,1.144878,0.4375,0.284237,0.201172,0.596436,-0.762207,-0.743764,10.13568,-2.467226,0.995436,0.495761,-0.62675,0.094482,-0.95874,-0.133057,0.395701,-1.380695,7.837473,1.537997,-0.164576,0.351397,-0.078369,0.362549,-0.947754,0.728664,-3.960419,7.638807,0.257536,-0.020777,0.676037,-0.057617,0.394287,-0.876953,-5.468367,0.988115,7.902473,0.804097,-0.373321,0.251697,0.260986,0.424561,-0.725586
-1.64553,0.899014,10.449075,-0.375098,0.272387,0.256886,0.21167,0.61084,-0.768555,-1.106793,10.103836,-1.700543,0.373145,0.468344,-0.922668,0.118896,-0.950928,-0.13501,-0.346976,2.408517,8.012613,1.368333,0.055812,0.145956,-0.074219,0.337158,-0.972168,-0.208981,-2.717723,7.363789,1.6505,0.328714,-0.013211,-0.048584,0.361572,-0.907471,-4.300435,0.283987,6.621651,-0.320682,-1.118482,-0.161977,0.236328,0.436523,-0.740967
-2.061422,-2.01197,8.72222,-1.211575,0.215035,0.082465,0.227539,0.646484,-0.752197,-2.548541,10.902158,-0.276607,0.006806,0.682945,-1.264459,0.165283,-0.9375,-0.127686,-1.341502,2.378763,8.814212,-1.092621,-0.184476,0.350911,-0.061035,0.373779,-0.956543,-1.509984,2.948035,9.360509,0.28001,0.185636,0.051402,-0.031738,0.365234,-0.900391,-3.308548,0.671198,6.277406,-0.414759,-1.019964,-0.396566,0.226318,0.45459,-0.732666
-2.609609,-1.292827,8.356216,-1.309364,0.032814,-0.053257,0.229492,0.666016,-0.737061,-3.614366,11.071266,0.432684,-1.065122,0.394561,-1.328441,0.200928,-0.936523,-0.154785,-0.974057,-4.558285,8.597645,-2.658916,-0.078985,0.460241,-0.054688,0.42749,-0.92627,-1.381815,-3.718347,8.620983,-3.422918,-0.111876,0.930114,-0.020996,0.436035,-0.863281,-4.192561,0.952066,5.853554,-1.693998,-1.279521,-0.633038,0.194824,0.481689,-0.71582
-2.059268,-2.181707,7.465567,-2.627835,-0.242405,-0.302377,0.205566,0.714355,-0.710938,-3.440991,10.295401,1.444259,-1.431282,0.410464,-1.364109,0.22168,-0.927979,-0.192139,-0.999122,-7.686321,8.354496,-1.347363,-0.155632,-0.081628,-0.072266,0.454102,-0.918701,-1.929035,-12.644368,6.690053,-1.915887,-0.038518,0.084443,-0.030762,0.4729,-0.844238,-2.687712,-1.029823,4.074918,-2.711309,-1.865841,-1.152059,0.132812,0.530518,-0.687988
-1.613045,-6.28463,5.066121,-2.599131,-0.141407,-0.563941,0.194336,0.77832,-0.66333,-4.489076,9.171236,2.700242,-1.990081,0.314873,-1.127783,0.247803,-0.900879,-0.224854,0.739259,-5.81062,7.948146,-1.32588,0.266704,-0.064807,-0.068359,0.493164,-0.888428,-1.767394,-6.587595,7.860767,0.388767,-0.418947,-0.541415,-0.052979,0.476562,-0.836426,-1.07098,-4.238096,3.11733,-3.184901,-1.808405,-1.220208,0.079102,0.600586,-0.630371
-2.114607,-6.456888,4.399121,-1.39488,-0.435542,-0.651145,0.186768,0.804443,-0.642822,-5.178672,6.356432,3.496864,-1.422892,0.11821,-0.982495,0.281982,-0.887207,-0.254883,-2.255194,-8.436824,7.726588,-2.509459,0.761633,0.282357,-0.035645,0.544189,-0.855225,-1.806136,-4.382603,9.203908,-2.582457,-0.720672,0.202073,-0.05127,0.530029,-0.793701,-0.596411,-7.81781,2.859003,-2.216008,-1.795979,-1.278181,0.044678,0.637207,-0.594238
-0.861126,-6.637465,4.532324,-1.830081,-0.585391,-0.90223,0.154053,0.8396,-0.624268,-5.60067,8.598667,4.641559,-0.358433,-0.297857,-1.016027,0.293457,-0.872803,-0.276611,-2.209348,-12.468921,7.658468,-2.228638,-0.113556,-0.017582,-0.047852,0.595947,-0.833496,-0.977897,-15.025523,6.205422,-3.682866,-0.936362,0.438734,-0.073975,0.609619,-0.748535,1.30357,-7.825563,2.776286,-1.199512,-1.649942,-1.379987,-0.015625,0.659668,-0.581055
-1.188492,-8.794798,2.767893,-1.068967,-0.859322,-0.815122,0.128418,0.849854,-0.598877,-4.502428,8.501838,4.413661,-1.446721,-0.710339,-0.794173,0.307861,-0.866455,-0.307373,0.289753,-13.575127,7.855883,-0.742923,-0.077546,-0.101593,-0.04834,0.597656,-0.817383,2.358134,-16.450613,5.118459,0.429913,-0.396536,-0.325116,-0.085938,0.591064,-0.746826,1.339927,-8.798093,3.37904,-1.73108,-1.092352,-0.987113,-0.04541,0.675049,-0.540283
-0.146297,-5.515787,3.035395,-0.1817,-0.95496,-0.684879,0.099365,0.85083,-0.587402,-4.430247,4.174458,3.343602,-0.990266,-1.008276,-0.40395,0.308838,-0.85791,-0.332764,-0.696689,-10.454028,7.670892,0.574675,-0.151605,-0.272032,-0.056641,0.588623,-0.819824,2.195207,-7.245997,7.58491,0.956585,1.203675,-0.371661,-0.065674,0.570312,-0.760498,1.063359,-10.322747,2.972542,-0.765981,-0.891631,-0.925873,-0.06958,0.684326,-0.518066
0.08454,-5.037169,3.084057,-1.339477,-0.890331,-0.648316,0.074951,0.875488,-0.569092,-4.225715,5.662687,4.538597,0.288101,-1.326202,-0.134135,0.301514,-0.855957,-0.341064,-0.447576,-7.360166,7.113238,-0.405835,-0.320135,-0.358792,-0.069092,0.596924,-0.820801,-2.563443,-9.521919,8.060379,-2.089164,1.011931,0.50732,-0.036621,0.614258,-0.731445,1.616091,-8.033356,5.012408,-0.108981,-0.584473,-0.610049,-0.088379,0.685303,-0.518555
0.687715,-8.169579,2.161297,-1.709361,-0.84283,-0.378037,0.058838,0.893555,-0.532227,-4.121237,8.767807,6.253602,-1.084745,-1.66269,0.236118,0.281982,-0.853027,-0.375732,-0.554249,-8.536593,6.530459,-1.532592,-0.476699,-0.201985,-0.078857,0.62207,-0.791016,-1.058673,-12.76058,5.760195,-0.387031,-0.100435,-0.326134,-0.044189,0.61377,-0.724854,2.268929,-9.178736,5.162116,-3.007673,-0.291248,-0.305012,-0.092041,0.720703,-0.455566
1.062747,-10.351886,1.988775,-1.552358,-0.686014,-0.080735,0.041992,0.922363,-0.506592,-4.111315,5.729134,5.110367,-2.434571,-2.018022,0.636447,0.243408,-0.831543,-0.44873,0.382756,-10.251213,6.520977,-1.676418,-0.373484,-0.159944,-0.095459,0.656738,-0.769775,0.727746,-6.005578,7.515371,-0.364266,0.757827,-0.424224,-0.041504,0.622314,-0.724854,2.754379,-16.012848,3.102974,-3.717727,0.179554,0.19877,-0.093994,0.765625,-0.389893
2.040065,-9.702966,2.165125,-0.424525,-0.674693,0.414531,0.05127,0.937256,-0.481934,-3.397192,3.760521,6.229282,-1.431986,-2.417023,0.906491,0.203125,-0.811035,-0.481201,-0.236255,-11.079649,6.119801,-1.692226,-0.189446,-0.138349,-0.092773,0.695557,-0.723633,-2.725272,-9.290884,5.67024,-3.24386,0.339674,0.457463,-0.021729,0.689697,-0.651367,3.162672,-18.501897,2.688463,-1.012241,0.792833,0.66521,-0.062744,0.786133,-0.363281
2.722429,-7.977523,3.348052,-1.066047,-0.005121,0.870519,0.071533,0.947754,-0.467041,-2.981047,4.414888,7.521177,-1.686641,-2.756893,1.516685,0.14209,-0.808838,-0.533936,-0.824178,-11.962667,4.793102,-1.773183,-0.007609,-0.046304,-0.091797,0.716064,-0.698975,-0.967068,-15.397099,2.139617,-1.748239,0.023458,-0.106603,-0.021484,0.710449,-0.62915,2.441377,-14.251652,4.387419,0.826132,1.296299,1.42529,-0.014648,0.771729,-0.386719
3.597208,-13.508089,3.092743,-0.889579,0.45407,1.191525,0.097656,0.967041,-0.458252,-2.750599,1.145049,7.333235,-1.738853,-3.089822,1.957882,0.054688,-0.786377,-0.580078,-2.480217,-11.890592,3.944899,-0.32292,0.247754,-0.003192,-0.092773,0.722656,-0.698242,-3.919888,-9.137829,3.985422,1.228022,1.013132,-0.356001,-0.017578,0.692139,-0.656738,1.169298,-12.134519,4.640462,-0.785942,1.275086,1.412107,0.020996,0.785156,-0.37915
3.155647,-13.23298,3.792061,0.953956,1.610075,1.517655,0.14502,0.956299,-0.471924,-1.017141,0.635837,7.004093,0.714274,-2.834278,2.265442,-0.033203,-0.792236,-0.556152,-2.34308,-7.34775,4.535367,0.92784,0.576968,-0.147489,-0.089111,0.708984,-0.711914,-7.616273,-4.652839,6.189934,-0.790374,-0.801808,-0.076962,-0.035156,0.708008,-0.630615,1.029324,-15.808133,3.256186,-0.935139,0.740196,1.702173,0.0625,0.79834,-0.352295
1.381895,-10.82739,4.364702,1.084063,1.838496,1.383911,0.206787,0.952881,-0.499268,0.199874,6.708557,7.537359,2.044637,-2.208542,2.361278,-0.106445,-0.807617,-0.515625,-2.984885,-4.269771,4.920629,0.131699,0.952203,-0.24756,-0.069824,0.715576,-0.72168,-2.466775,-11.71462,2.740468,-1.437468,-2.021814,-0.020812,-0.064697,0.740723,-0.605713,2.296751,-15.344761,3.150138,1.866141,0.64627,1.427022,0.104248,0.78833,-0.397705
-1.490274,-11.103666,3.897835,0.667113,2.05491,1.320927,0.249756,0.935791,-0.505371,0.402161,9.278808,7.277466,0.948345,-1.659332,2.252926,-0.182861,-0.819092,-0.484863,-3.3876,-6.502989,6.757951,-0.493488,0.601044,-0.143007,-0.075684,0.715332,-0.707764,-0.31629,-9.378165,4.177123,1.989726,-0.258076,-1.022022,-0.10083,0.699463,-0.64209,3.090046,-9.709365,4.986845,2.44717,1.437613,1.768259,0.14209,0.75,-0.440186
-3.842776,-12.826288,4.678437,0.664339,1.303312,1.074654,0.302246,0.921387,-0.523926,2.2512,9.595536,6.979889,1.516887,-1.340609,1.799958,-0.224609,-0.831055,-0.45166,-1.161368,-7.310038,6.330566,1.013694,0.200977,-0.513187,-0.071533,0.694336,-0.733887,-0.567334,-1.304695,7.351082,1.41126,-0.369479,-0.620213,-0.109863,0.67041,-0.670166,0.787619,-8.807385,5.142792,-0.053574,2.676147,1.747658,0.217773,0.741211,-0.435303
-4.601191,-12.430916,6.222327,1.021838,0.989605,0.678094,0.325195,0.907471,-0.535889,2.948989,12.285707,8.068712,1.398441,-0.192983,1.107721,-0.251953,-0.83374,-0.420898,-1.144701,-2.952502,6.620756,1.60681,0.186987,-0.452249,-0.081787,0.669434,-0.757568,3.15163,-3.344075,6.379215,-0.556491,0.2519,-0.122105,-0.108887,0.682373,-0.659668,-3.510583,-11.590258,2.718889,0.150932,3.134344,1.822465,0.288818,0.738281,-0.425293
-3.234325,-11.063821,7.645233,0.69301,0.860652,0.276477,0.342773,0.898926,-0.546143,1.721571,10.702937,8.835183,-0.41554,0.315471,0.598195,-0.261719,-0.82251,-0.436279,-1.75584,-0.889785,7.172736,-0.375861,-0.354821,-0.398249,-0.096191,0.677734,-0.751709,0.208286,-5.239205,7.597066,0.030798,1.792857,-0.188573,-0.084961,0.685059,-0.667969,-6.266329,-8.887654,3.046067,2.149868,2.643938,1.192597,0.3396,0.71167,-0.457275
-2.105513,-12.325862,7.914712,0.219899,1.474309,-0.051922,0.369629,0.882812,-0.536865,2.507386,7.016655,7.694625,-0.167956,0.894607,0.246962,-0.255615,-0.832275,-0.4375,-1.178844,-8.369102,7.042772,-2.137497,-0.861799,0.081739,-0.109619,0.703369,-0.706055,-2.536103,-7.163442,8.366036,-0.602711,1.090416,0.031312,-0.061035,0.681885,-0.654297,-7.10845,-4.956303,4.019709,1.009464,2.040788,0.406314,0.375244,0.68457,-0.452637
-2.37989,-12.453282,7.278561,1.579171,1.998096,-0.259059,0.394775,0.86084,-0.566406,1.875558,8.96754,5.729035,1.679592,1.478451,0.196002,-0.242432,-0.844727,-0.41626,0.961741,-12.288289,5.036707,1.100775,-0.637675,-0.568562,-0.130371,0.686279,-0.733154,-1.441617,-8.606305,6.838979,0.933683,0.403836,-0.233191,-0.061523,0.667725,-0.680908,-7.067779,-8.811289,2.809561,-0.761151,0.849869,-0.111337,0.378418,0.694336,-0.440186
-4.706314,-6.672127,7.429242,2.126897,1.9842,-0.33386,0.419189,0.825684,-0.587646,1.103931,12.582455,5.470968,1.005755,1.491123,-0.181236,-0.224609,-0.85498,-0.398926,-0.70369,-4.634527,6.59257,2.318424,-0.04847,-0.292135,-0.137451,0.642334,-0.766602,-1.436458,-4.593567,8.087429,0.999319,0.39747,-0.336304,-0.061523,0.648438,-0.692871,-3.838736,-12.11341,2.323435,1.33068,0.2475,-0.527064,0.373535,0.683105,-0.462158
-5.258655,-6.85176,7.578794,0.47821,1.432395,-0.548406,0.431396,0.82373,-0.581299,0.840165,11.279022,5.080606,0.243736,1.16582,-0.448443,-0.206299,-0.856201,-0.392578,-1.118202,-4.944419,8.235498,-0.938431,-0.764558,0.036021,-0.153076,0.659668,-0.743896,-1.994695,-7.135598,7.886425,-0.470871,-0.371844,0.336248,-0.063232,0.662354,-0.679199,-3.570622,-7.700853,3.353936,3.169205,1.176916,-0.013514,0.385254,0.647217,-0.50708
-5.36175,-9.06084,7.331351,0.903218,1.043572,-0.6389,0.443848,0.810547,-0.598633,2.429458,12.687676,5.07936,0.811432,1.127125,-0.981305,-0.168213,-0.871094,-0.385742,1.587994,-11.385327,6.656954,-0.58737,-0.747641,0.162274,-0.158691,0.670898,-0.739014,1.72655,-9.093517,6.338236,0.391176,-0.221739,-0.116481,-0.066162,0.648682,-0.69165,-6.583965,-3.214444,4.673515,1.677811,0.984583,-0.390899,0.394531,0.625,-0.530762
-6.469957,-7.121275,8.308522,0.961037,0.527445,-0.937597,0.443359,0.796387,-0.609863,1.144621,12.507882,5.041274,-0.178674,1.310688,-1.30076,-0.118652,-0.876221,-0.395508,0.325067,-9.053455,6.072387,1.895421,-0.455307,-0.255235,-0.164307,0.630615,-0.768555,-0.295776,-6.921105,7.322504,0.96227,0.832968,0.166055,-0.03833,0.630615,-0.710205,-5.484444,-4.984385,3.094822,-0.116811,0.34781,-0.927831,0.393799,0.62793,-0.528809
-5.960926,-7.397384,7.859204,0.916517,-0.342775,-1.264828,0.40625,0.787598,-0.628418,1.409467,10.483584,4.066479,1.064164,1.23123,-2.143576,-0.070312,-0.885742,-0.370117,0.938573,-4.855163,6.943568,1.27787,-0.839311,0.058436,-0.187012,0.611816,-0.787354,-2.32421,-6.436663,7.371957,0.954031,-0.345334,0.184025,-0.053955,0.617676,-0.730225,-4.34662,-6.706387,2.901618,1.153676,0.495233,-1.024841,0.374512,0.625488,-0.549561
-4.669015,-4.186901,8.317437,1.210182,-1.004561,-1.530808,0.371826,0.776367,-0.648438,-2.202647,15.125721,4.148779,1.756446,1.314499,-2.444755,0.002197,-0.903076,-0.329102,1.613418,-8.130721,8.534708,-0.405624,-0.180653,0.533898,-0.177246,0.620117,-0.777832,-0.470801,-6.128985,6.874034,0.938546,-0.64705,0.355985,-0.054199,0.601074,-0.740967,-4.147576,-4.38734,2.50909,1.677118,0.561996,-1.103596,0.370361,0.612793,-0.568359
-2.980842,-3.366804,8.585342,0.383715,-1.324627,-1.558731,0.313232,0.767334,-0.664062,-1.652959,13.159192,2.190846,-0.478708,0.214363,-2.241791,0.044922,-0.9021,-0.344482,1.22306,-11.018152,8.28134,1.554134,0.017041,0.567946,-0.178467,0.592285,-0.804199,-1.145516,-5.533963,7.204176,1.390205,-0.805687,0.523329,-0.070068,0.571777,-0.768311,-5.889548,-3.139419,2.554182,1.052909,0.14768,-1.056046,0.345703,0.599121,-0.589844
-1.865489,-2.987532,8.002959,0.174214,-1.395056,-1.500872,0.265869,0.766602,-0.675537,-1.210527,7.573265,-0.123402,0.055695,0.620196,-2.024694,0.096924,-0.898193,-0.343994,2.69805,-3.498402,8.496168,3.415436,0.609891,0.32081,-0.157959,0.52417,-0.859863,-0.20989,-3.162086,7.728392,1.642446,-1.315761,0.476218,-0.0896,0.539307,-0.791992,-5.26616,-2.50413,2.191899,0.662379,-1.242391,-1.62412,0.304443,0.60083,-0.609619
-0.481162,-3.084699,7.531747,-0.512478,-1.297731,-1.364884,0.226074,0.773682,-0.671143,-2.246767,9.373656,0.345277,1.433943,0.044195,-1.916423,0.142334,-0.908203,-0.309814,1.535391,1.905713,9.738526,1.222993,1.16319,0.855346,-0.118652,0.498291,-0.881836,0.347547,-1.363354,7.949521,1.161701,-1.429981,0.639335,-0.105225,0.51416,-0.80835,-2.393738,-3.116645,2.391862,-0.42157,-1.897566,-1.780476,0.246338,0.612549,-0.614502
-1.758116,-3.657734,6.397603,-0.652312,-1.142634,-1.115046,0.182617,0.785645,-0.647461,-0.543935,11.732942,-0.537512,-0.037537,0.24718,-1.623921,0.176514,-0.900635,-0.299316,1.240064,-1.396351,10.043409,-0.606297,1.104195,1.011107,-0.084961,0.512695,-0.86499,1.703626,-1.745271,7.975642,0.150947,-1.557393,0.685361,-0.130859,0.51416,-0.79126,-1.820929,-6.116781,2.354778,-1.262393,-2.239729,-1.718341,0.178711,0.639404,-0.588135
-2.743508,-2.703525,5.383858,-1.157828,-1.679046,-0.925722,0.14209,0.809326,-0.631104,-2.720234,9.315189,-2.150171,-0.912104,0.203739,-1.598103,0.219238,-0.884766,-0.322021,-0.055515,-2.930657,10.189962,0.305436,1.235306,0.619757,-0.043701,0.508545,-0.874268,3.886777,-4.157725,7.646341,-0.457216,-0.592763,0.677289,-0.126709,0.527344,-0.786377,0.587378,-7.752988,3.219112,-1.036248,-2.653172,-1.771394,0.113281,0.6604,-0.577881
-2.860146,-4.614948,3.668203,-1.760581,-2.506007,-0.740851,0.076172,0.836182,-0.602539,-2.106371,8.586814,-2.307544,-0.213551,0.188129,-1.748441,0.250488,-0.877197,-0.32959,-0.601861,-0.095041,9.639303,0.616748,0.737746,0.341976,-0.034912,0.496094,-0.888428,2.003032,-4.365482,6.939223,0.519549,0.695846,0.384024,-0.114258,0.515625,-0.802246,3.441041,-8.285687,3.729909,-1.553066,-1.75538,-1.122653,0.05835,0.684814,-0.555908
1.032424,-6.130946,3.138135,-1.184959,-3.350603,-0.592983,0.017334,0.856445,-0.569824,-3.053273,8.458516,-0.409953,-0.435543,0.19041,-1.760835,0.296875,-0.858154,-0.337891,0.761726,0.456068,8.643022,-0.173965,0.898569,0.393686,-0.001221,0.503906,-0.885498,-0.196241,-0.620915,8.319748,0.834405,0.563071,0.136843,-0.095215,0.503174,-0.815918,2.93649,-10.098547,2.350154,-1.589554,-0.943356,-0.54227,0.044922,0.711426,-0.523682
0.627273,-5.077419,3.645631,-1.030891,-3.084037,-0.284456,-0.038574,0.866699,-0.533936,-2.454489,6.449351,-0.689276,-0.932004,0.337841,-1.526756,0.32959,-0.844971,-0.35498,-0.683878,-1.274561,8.882112,-0.708369,1.21802,0.355531,0.0271,0.512207,-0.872803,0.918235,-1.350871,8.976817,-1.296785,0.158669,0.485908,-0.086182,0.522217,-0.796631,1.470956,-9.967721,3.139295,-0.65659,-0.809781,-0.37725,0.024414,0.714111,-0.509766
1.130564,-6.226455,2.823751,-1.322921,-3.401635,-0.193576,-0.095703,0.888916,-0.493896,-3.663485,4.814524,-0.649173,-0.652993,0.626585,-1.200905,0.360107,-0.828857,-0.366699,-0.804163,-1.828055,8.875915,-0.384687,0.95957,-0.174767,0.044434,0.522217,-0.874023,0.975187,-7.834019,7.352193,-1.419759,0.559296,0.35295,-0.068115,0.55542,-0.78125,1.308859,-8.16158,5.059361,-0.517858,-0.902434,-0.133183,0.009521,0.723633,-0.501221
1.271747,-7.168017,3.219073,-0.688447,-3.173918,0.05914,-0.134766,0.90625,-0.452393,-3.351712,4.481088,0.573714,-0.426274,0.651329,-0.816435,0.388672,-0.812012,-0.369629,-0.78692,-1.033556,7.81523,-0.294239,1.20971,-0.205639,0.06958,0.539062,-0.866455,-0.530905,-4.728254,7.219003,1.419436,0.702322,-0.683246,-0.061523,0.5354,-0.803467,0.913968,-8.542137,4.479698,-1.63715,-0.349922,0.031017,0.010254,0.751465,-0.467529
3.382714,-6.532235,4.088985,-0.515526,-3.021092,0.283355,-0.166748,0.903564,-0.418457,-3.115236,4.853558,1.543168,-0.26685,0.842094,-0.543217,0.406738,-0.816162,-0.367676,-1.587729,-1.43055,7.63239,-0.811309,1.006847,-0.162759,0.092285,0.544434,-0.851318,0.242161,3.744296,9.703703,0.364373,0.239582,-0.350506,-0.061035,0.514648,-0.807373,-1.337967,-11.427923,3.556773,-1.523227,-0.528514,0.389844,0.013672,0.756836,-0.435547
