# sampling frequency: 40
# units are seconds/meters/radians/a.u.
seg1_acc_x,seg1_acc_y,seg1_acc_z,seg1_gyr_x,seg1_gyr_y,seg1_gyr_z,seg1_mag_x,seg1_mag_y,seg1_mag_z,seg2_acc_x,seg2_acc_y,seg2_acc_z,seg2_gyr_x,seg2_gyr_y,seg2_gyr_z,seg2_mag_x,seg2_mag_y,seg2_mag_z,seg3_acc_x,seg3_acc_y,seg3_acc_z,seg3_gyr_x,seg3_gyr_y,seg3_gyr_z,seg3_mag_x,seg3_mag_y,seg3_mag_z,seg4_acc_x,seg4_acc_y,seg4_acc_z,seg4_gyr_x,seg4_gyr_y,seg4_gyr_z,seg4_mag_x,seg4_mag_y,seg4_mag_z,seg5_acc_x,seg5_acc_y,seg5_acc_z,seg5_gyr_x,seg5_gyr_y,seg5_gyr_z,seg5_mag_x,seg5_mag_y,seg5_mag_z
0.17174,-0.981191,9.811488,-0.003164,0.002451,-0.000106,-0.098145,0.435791,-0.577148,-0.333427,3.031472,9.301582,-0.007395,0.006061,0.008554,-0.729004,0.115479,-0.363281,-0.557521,3.686531,9.12634,-0.005996,0.005781,0.00122,-0.134521,0.587891,0.767334,-0.216565,3.717948,9.126175,-0.008091,1.8e-05,0.008196,0.581543,-0.100098,-0.202637,-0.326657,3.218896,9.241894,-0.018018,0.001776,-0.005582,0.347656,-0.213135,-0.581787
0.164682,-0.974013,9.780495,0.005722,0.00449,-2.6e-05,-0.105469,0.432617,-0.579346,-0.368143,3.03358,9.315129,-0.014477,0.00625,0.00843,-0.737061,0.116699,-0.369629,-0.551791,3.682209,9.106043,-0.000603,0.001265,0.000542,-0.130615,0.588379,0.768555,-0.244722,3.709269,9.121548,-0.005176,0.009529,0.009962,0.584961,-0.099609,-0.201904,-0.38394,3.202791,9.26155,0.013916,0.002583,-0.001686,0.350586,-0.214355,-0.581543
0.169262,-0.966268,9.784193,-0.002649,0.001154,-0.000116,-0.094727,0.436523,-0.578369,-0.358453,3.025015,9.323029,-0.008927,0.004208,0.007872,-0.727539,0.118164,-0.366211,-0.559219,3.685096,9.126816,-0.005597,0.007989,0.001199,-0.138428,0.586426,0.770508,-0.264092,3.700079,9.127712,-0.005517,-0.001986,0.011178,0.580322,-0.099609,-0.198242,-0.353616,3.253461,9.268473,-0.000161,-0.010947,-0.002659,0.344482,-0.213623,-0.580811
0.178202,-1.002344,9.817426,0.001447,0.000453,-0.000296,-0.099121,0.4375,-0.578125,-0.350906,3.03878,9.310623,-0.006001,0.00867,0.007324,-0.730713,0.121094,-0.365723,-0.557019,3.677365,9.115475,-0.006042,0.001683,0.001888,-0.128174,0.591309,0.772217,-0.210424,3.711955,9.106452,-0.003145,-0.004435,0.009065,0.587646,-0.096191,-0.194092,-0.336599,3.212091,9.215402,-0.005787,0.003605,-0.003945,0.354248,-0.208008,-0.577881
0.158626,-0.947867,9.814712,0.005111,0.005875,-0.001589,-0.102783,0.431885,-0.577637,-0.366642,3.051603,9.304299,-0.01025,0.005234,0.006872,-0.732178,0.111816,-0.366699,-0.554536,3.67011,9.103959,-0.001421,0.005277,0.000599,-0.126709,0.600098,0.776855,-0.229976,3.729241,9.131869,-0.002136,0.013268,0.012668,0.588135,-0.085938,-0.193848,-0.395999,3.229243,9.273813,0.010058,0.001102,-0.001162,0.35498,-0.200195,-0.574219
0.161795,-0.978099,9.764302,-0.009733,0.001037,-0.000919,-0.094727,0.432373,-0.58252,-0.347929,3.0262,9.29801,-0.012301,0.00611,0.006168,-0.722412,0.113281,-0.370605,-0.561254,3.682515,9.09549,-0.006381,0.0043,0.002248,-0.130859,0.590332,0.764404,-0.267582,3.718355,9.125423,-0.009894,-0.001015,0.009148,0.583252,-0.097168,-0.204834,-0.325942,3.219661,9.241653,-0.01043,-0.010294,-0.00319,0.349365,-0.208984,-0.58374
0.171076,-0.986986,9.81892,0.002598,0.001018,-1.6e-05,-0.103027,0.421875,-0.581787,-0.349358,3.023263,9.312542,-0.008796,0.006709,0.009041,-0.734619,0.106445,-0.368164,-0.549991,3.682677,9.122626,-0.003432,0.002666,0.000721,-0.126953,0.589111,0.77002,-0.200762,3.707686,9.11879,-0.004337,-0.005394,0.010074,0.588623,-0.0979,-0.194824,-0.354277,3.226231,9.222433,0.010413,0.004905,-0.002177,0.352295,-0.212158,-0.578125
0.170066,-0.966954,9.807943,0.0075,0.003165,0.000527,-0.100586,0.432373,-0.578125,-0.358841,3.038881,9.313488,-0.007675,0.004897,0.006852,-0.733154,0.115479,-0.365723,-0.554357,3.66977,9.128554,-0.003631,0.006503,0.001745,-0.133057,0.5896,0.763916,-0.224135,3.723268,9.11214,-0.002019,0.013682,0.010242,0.582764,-0.095947,-0.207275,-0.351726,3.230131,9.263451,-0.00719,-0.001757,-0.002876,0.349854,-0.210205,-0.584717
0.168272,-0.952303,9.780607,-0.004071,0.003948,-0.001095,-0.0979,0.434082,-0.56958,-0.344623,3.022791,9.307181,-0.009852,0.007713,0.00699,-0.729248,0.115967,-0.359375,-0.535742,3.69479,9.1119,-0.004556,0.001593,0.002129,-0.134033,0.597412,0.765381,-0.272222,3.73326,9.132366,-0.004514,0.00017,0.010348,0.583008,-0.092041,-0.202393,-0.354943,3.210914,9.237621,0.006716,-0.004094,-0.003071,0.346191,-0.204346,-0.583252
0.15535,-1.000199,9.788026,-0.006413,7.6e-05,0.000909,-0.097168,0.432861,-0.573486,-0.373254,3.02791,9.314262,-0.015159,0.007047,0.00862,-0.728027,0.113037,-0.361572,-0.549164,3.691876,9.117984,-0.00634,0.007672,0.000577,-0.134033,0.592041,0.768066,-0.2248,3.714476,9.131453,-0.010273,-0.007354,0.009329,0.580811,-0.096436,-0.201172,-0.350451,3.246544,9.247901,0.001293,0.000178,-0.000614,0.348877,-0.209717,-0.581543
0.17372,-0.983133,9.806431,0.011891,0.002353,-0.000226,-0.094971,0.43042,-0.580078,-0.345022,3.029218,9.316211,-0.004832,0.005125,0.007159,-0.727051,0.112793,-0.36792,-0.556113,3.676626,9.100248,-0.000124,-0.000131,0.000845,-0.130859,0.585205,0.766357,-0.228978,3.708514,9.108982,-0.00037,0.010739,0.010503,0.583252,-0.10376,-0.204346,-0.347073,3.200103,9.251861,-0.009143,0.000682,-0.005472,0.348633,-0.218506,-0.585205
0.159499,-0.944659,9.802182,-0.005422,0.003406,0.000773,-0.101562,0.434082,-0.57373,-0.358555,3.054484,9.303454,-0.008666,0.008032,0.007455,-0.73291,0.118164,-0.359375,-0.535044,3.694515,9.136511,-0.006389,0.003574,0.001242,-0.127441,0.587402,0.760254,-0.258349,3.723569,9.13259,-0.003801,0.003106,0.012133,0.5896,-0.102051,-0.209961,-0.352163,3.229475,9.249569,0.014855,-0.004635,-0.000733,0.35376,-0.214355,-0.590332
0.180411,-1.00956,9.79601,-0.002413,-0.000536,-0.000842,-0.102539,0.429688,-0.575439,-0.361048,3.040464,9.296784,-0.013383,0.005012,0.007619,-0.734375,0.112793,-0.365234,-0.579121,3.67408,9.103524,-0.005113,0.006594,0.001504,-0.138184,0.592529,0.763672,-0.218071,3.712164,9.102379,-0.010372,-0.005843,0.007689,0.577393,-0.095947,-0.202881,-0.349575,3.221787,9.229246,-0.014081,-0.002736,-0.002637,0.342285,-0.208008,-0.586914
0.167504,-0.962,9.824315,0.008577,0.002656,0.001948,-0.103516,0.436523,-0.57373,-0.362546,3.037344,9.311368,-0.009134,0.008443,0.008078,-0.737305,0.118164,-0.362305,-0.551792,3.688788,9.119075,0.001967,-0.001125,0.001048,-0.130615,0.587646,0.76709,-0.221354,3.7166,9.114929,-0.000799,0.009465,0.010264,0.584229,-0.098877,-0.202637,-0.366025,3.212874,9.245228,0.010144,0.004502,-0.007542,0.352051,-0.213623,-0.586426
0.157964,-0.972949,9.780712,-0.009939,0.001717,-0.002777,-0.100342,0.442627,-0.578857,-0.355238,3.017392,9.325346,-0.007757,0.003929,0.006958,-0.731689,0.124268,-0.366211,-0.549524,3.672293,9.104466,-0.00929,0.008943,0.001601,-0.125977,0.580078,0.771729,-0.265293,3.720909,9.123153,-0.00644,0.000541,0.01027,0.588623,-0.109375,-0.201172,-0.351876,3.25473,9.268094,8e-06,-0.010798,0.00167,0.354736,-0.225586,-0.579346
0.166201,-0.990276,9.802842,0.008311,0.001757,-5.7e-05,-0.09668,0.427002,-0.576416,-0.339434,3.046248,9.313877,-0.005429,0.006885,0.007248,-0.727295,0.108643,-0.363281,-0.572443,3.670596,9.107399,-0.00108,0.002662,0.00024,-0.130127,0.594238,0.770752,-0.209988,3.720208,9.108356,-0.004844,-0.005054,0.007585,0.584717,-0.093506,-0.201416,-0.332036,3.206494,9.208516,-0.008534,0.004425,-0.007979,0.352295,-0.204346,-0.579834
0.179076,-0.957331,9.822761,-0.00374,0.002169,-0.000248,-0.095947,0.4375,-0.577148,-0.37157,3.028208,9.319673,-0.015908,0.006886,0.008915,-0.726074,0.117676,-0.363525,-0.550979,3.688878,9.111309,-0.005904,0.002541,0.002047,-0.129395,0.586426,0.765137,-0.232809,3.716778,9.126528,-0.005371,0.009714,0.012484,0.586426,-0.100098,-0.202148,-0.365311,3.239213,9.277487,0.013067,0.001553,0.00044,0.355469,-0.213379,-0.583496
0.165233,-0.99025,9.802861,-0.000626,0.00189,-0.000273,-0.0979,0.439209,-0.580078,-0.342691,3.029798,9.307961,-0.006301,0.004228,0.00637,-0.72998,0.12085,-0.364746,-0.56158,3.679214,9.137909,-0.003897,0.004789,0.001425,-0.130127,0.586182,0.769043,-0.243134,3.72899,9.109652,-0.002328,-0.001085,0.008418,0.588379,-0.0979,-0.200195,-0.341112,3.227278,9.227949,-0.007909,-0.009827,-0.007705,0.352539,-0.212402,-0.581543
0.174995,-0.980091,9.793887,0.000466,0.000875,-0.000143,-0.092773,0.436279,-0.58374,-0.358845,3.042304,9.315375,-0.008146,0.009152,0.008115,-0.72583,0.116699,-0.369385,-0.550306,3.679732,9.132676,-0.006475,0.006454,-8.6e-05,-0.131592,0.5896,0.763672,-0.212848,3.719668,9.130811,-0.007008,-0.003693,0.008905,0.585449,-0.0979,-0.206299,-0.337873,3.220775,9.221331,0.008883,0.003839,-0.001387,0.351562,-0.211182,-0.586426
0.161099,-0.965275,9.784429,0.00353,0.002769,-0.000301,-0.097168,0.434082,-0.578613,-0.348458,3.035208,9.295582,-0.012277,0.004368,0.008187,-0.730225,0.116699,-0.365479,-0.556981,3.673479,9.118126,-0.002474,-0.000126,0.001325,-0.128174,0.589111,0.768799,-0.223014,3.712635,9.138806,-0.005926,0.010757,0.009487,0.585449,-0.096191,-0.198486,-0.39004,3.225167,9.280556,-0.011037,-0.001921,-0.003284,0.352051,-0.209473,-0.581787
0.16364,-0.971004,9.791814,-0.00369,-3e-06,-0.000115,-0.099854,0.440918,-0.574463,-0.34844,3.043651,9.317613,-0.009539,0.009221,0.007221,-0.731201,0.119385,-0.361084,-0.528895,3.688534,9.101385,-0.001676,0.00429,0.001287,-0.13501,0.594727,0.771484,-0.256682,3.722753,9.139551,0.0,-0.0012,0.011068,0.583984,-0.092773,-0.197998,-0.334949,3.214177,9.214735,0.01355,-0.005268,-0.00698,0.348633,-0.206543,-0.57959
0.174358,-0.998774,9.805029,0.000711,0.002937,-0.000851,-0.091309,0.438477,-0.577148,-0.361471,3.035863,9.303762,-0.010484,0.006191,0.007824,-0.723389,0.118896,-0.366211,-0.55222,3.686144,9.136787,-0.010566,0.005563,0.000836,-0.128906,0.5896,0.770508,-0.215045,3.722409,9.144078,-0.008025,-0.004935,0.008,0.584717,-0.096924,-0.195801,-0.346731,3.266543,9.259374,-0.000146,0.001641,0.001595,0.352295,-0.210693,-0.578857
0.167989,-0.963487,9.795497,0.003455,0.001694,0.00084,-0.09082,0.437744,-0.577881,-0.343504,3.043301,9.298644,-0.007631,0.005837,0.006753,-0.722412,0.119873,-0.365723,-0.552099,3.666757,9.098762,-0.001504,-0.001832,0.003438,-0.131836,0.590576,0.771729,-0.22431,3.711211,9.098838,-0.007147,0.010607,0.009375,0.583252,-0.0979,-0.198486,-0.36397,3.190392,9.23992,-0.016026,0.001021,-0.006168,0.350342,-0.211182,-0.577637
0.170915,-0.964275,9.819202,-0.000515,0.001297,9e-06,-0.095703,0.424316,-0.580811,-0.368284,3.040129,9.318946,-0.008689,0.008015,0.007462,-0.727295,0.108154,-0.368164,-0.555812,3.700684,9.119894,-0.00086,0.010266,-0.002934,-0.128662,0.594238,0.772217,-0.257091,3.731591,9.134661,-0.000299,0.000489,0.011951,0.585938,-0.095215,-0.20166,-0.358092,3.243257,9.248458,0.028191,-0.005399,-0.002172,0.349609,-0.208984,-0.579346
0.180829,-1.001504,9.799822,-0.005172,0.001211,-0.001244,-0.094238,0.432129,-0.576172,-0.351605,3.035436,9.306565,-0.014817,0.0018,0.007461,-0.726074,0.11084,-0.36377,-0.579024,3.680727,9.116523,-0.007152,0.001335,0.004298,-0.125,0.591553,0.776611,-0.231519,3.717648,9.132782,-0.007506,-0.00426,0.008146,0.592041,-0.095215,-0.195068,-0.328405,3.253427,9.252009,-0.018163,-0.000201,-0.003422,0.355713,-0.208984,-0.576416
0.166945,-0.987147,9.790315,0.005382,0.002518,-0.000888,-0.102539,0.434326,-0.578125,-0.348147,3.024208,9.307128,-0.007092,0.010815,0.008053,-0.734863,0.11377,-0.36499,-0.517285,3.668944,9.115115,-0.004077,0.000196,0.00243,-0.130615,0.582275,0.772705,-0.210261,3.70166,9.098977,-0.004998,0.003969,0.009685,0.58252,-0.10376,-0.196777,-0.370814,3.203079,9.23916,0.003084,0.002519,-0.003838,0.349121,-0.217041,-0.578857
0.163778,-0.976281,9.799285,-0.000565,0.00347,-0.000124,-0.097412,0.433838,-0.577637,-0.368254,3.046073,9.300974,-0.007513,0.004479,0.007287,-0.729736,0.114502,-0.36792,-0.571693,3.668264,9.11725,-0.002889,0.015723,-0.003293,-0.124023,0.588135,0.766357,-0.2403,3.712795,9.13206,-0.005444,0.00696,0.010147,0.591064,-0.10083,-0.204102,-0.337333,3.247793,9.253342,0.00529,-0.004899,-0.001242,0.357178,-0.213379,-0.587646
0.219803,-0.99384,10.072945,0.016486,-0.011404,-0.001747,-0.095459,0.438965,-0.567383,-0.34871,3.031816,9.329412,-0.007123,0.003689,0.008149,-0.726807,0.119141,-0.355225,-0.56647,3.681698,9.135636,-0.006403,-0.007503,0.00389,-0.126953,0.59375,0.769531,-0.245537,3.683389,9.143973,-0.019109,-0.002227,0.008897,0.585205,-0.092773,-0.201172,-0.324876,3.1429,9.158292,-0.038233,-0.004322,-0.003719,0.353271,-0.209473,-0.583984
0.37342,-0.718034,10.260581,-0.028935,0.138067,0.023924,-0.095215,0.432617,-0.579102,-0.246587,3.106877,9.281581,0.008264,0.0211,-0.004356,-0.729248,0.113525,-0.366943,-0.432078,3.634756,9.116802,0.008067,0.020209,0.00777,-0.12915,0.600098,0.773926,-0.100096,3.625534,9.097055,0.010281,0.011309,0.000733,0.587646,-0.088867,-0.19873,-0.198051,3.010899,8.971953,0.037266,0.033927,-0.017471,0.355713,-0.200684,-0.575195
0.318216,-0.261353,9.950958,-0.166145,-0.024502,-0.063309,-0.096191,0.440186,-0.579834,-0.341498,2.929783,9.334833,-0.076449,-0.033505,0.023444,-0.727539,0.119385,-0.366943,-0.633749,3.741758,9.10237,0.059909,-0.024607,-0.02016,-0.137207,0.590576,0.766846,-0.277286,3.800819,9.081273,0.088691,0.039302,0.014132,0.574951,-0.101807,-0.202393,-0.515728,3.49934,9.620363,0.160281,0.035059,-0.028811,0.342773,-0.218506,-0.584717
-0.229639,-0.436947,10.388337,-0.630255,0.256544,-0.005114,-0.089844,0.452393,-0.578857,-0.557009,3.067273,9.283472,0.082547,0.076885,-0.015381,-0.728271,0.119141,-0.365723,-0.584997,3.816457,9.100053,-0.032587,0.042402,0.016671,-0.132324,0.589355,0.779297,-0.479387,3.950151,9.180018,-0.013705,0.009226,0.016166,0.580811,-0.101562,-0.192139,-0.548935,3.612996,9.395108,-0.101037,-0.033019,0.016928,0.348389,-0.2146,-0.573242
-0.23381,-0.794543,7.904256,-0.804591,0.040441,-0.080334,-0.086914,0.463379,-0.564453,-0.419331,3.016855,9.22563,-0.106413,-0.030723,0.016632,-0.723389,0.116455,-0.361328,-0.607133,3.621781,9.190119,-0.0748,-0.025935,-0.001685,-0.130859,0.59375,0.768799,-0.183169,3.661056,9.11054,-0.146508,-0.08142,-0.000254,0.58374,-0.094727,-0.201172,-0.180931,2.908799,9.007687,-0.168811,-0.04821,0.024711,0.350342,-0.204102,-0.581787
0.304851,-3.373857,11.104641,-0.872265,-0.158439,-0.055934,-0.094971,0.483643,-0.557617,-0.47704,2.962701,9.351191,0.129813,-0.021925,0.010254,-0.729004,0.122314,-0.361572,-0.577165,3.538834,9.023735,0.029556,-0.000636,0.01392,-0.136475,0.592041,0.772461,-0.106442,3.462106,9.130432,0.024437,0.063077,0.009737,0.579346,-0.093506,-0.196289,-0.443475,2.87964,9.364855,0.113268,0.078475,-0.018369,0.347656,-0.211182,-0.576416
0.974714,-2.434002,9.628755,0.377278,0.351151,0.148502,-0.092773,0.468994,-0.558594,0.288558,3.508648,9.337359,-0.104712,0.011723,-0.058985,-0.735352,0.112793,-0.351318,-0.286358,3.920533,9.066415,0.062544,-0.001832,-0.027132,-0.133057,0.593262,0.761719,-0.372248,3.900642,9.090805,0.125029,-0.019858,0.030804,0.583008,-0.098389,-0.206543,-0.564486,3.234827,9.739205,-0.08757,-0.112262,-0.08912,0.34668,-0.210693,-0.587646
-1.25746,-0.507946,9.57324,-0.032367,0.047059,-0.018659,-0.081787,0.470947,-0.570068,-1.130455,2.318502,9.468449,-0.161934,0.07524,0.111342,-0.725342,0.118164,-0.367188,-0.730917,3.769994,9.286829,-0.170186,0.087315,0.002171,-0.132812,0.584473,0.770752,-0.169372,3.967905,9.18866,-0.154211,-0.084913,-7.5e-05,0.584473,-0.100098,-0.200439,-0.092606,2.775636,8.731759,-0.011893,-0.095962,-0.170617,0.348145,-0.212158,-0.580078
1.155631,-0.490422,10.528738,0.285918,0.222315,-0.126204,-0.07666,0.465088,-0.577148,0.095123,2.851723,8.979965,0.297498,-0.122861,-0.074272,-0.722656,0.113037,-0.367188,-0.783215,3.287582,9.060932,-0.065466,-0.063784,0.02965,-0.129395,0.586426,0.765381,-0.16933,3.389175,9.218716,-0.175554,0.073812,0.002847,0.583008,-0.097168,-0.203857,-0.471813,3.756649,9.398447,0.262759,0.059754,-0.055687,0.349854,-0.214355,-0.586182
-0.717351,-0.167379,10.533745,-0.223137,0.219427,-0.262038,-0.082031,0.461914,-0.56958,-0.474946,4.018208,9.473952,0.082328,0.125816,0.076576,-0.729492,0.107666,-0.361816,-0.160605,3.549981,9.038274,0.122195,-0.034232,-0.026472,-0.124756,0.588135,0.774414,-0.387436,3.261362,8.895772,0.109328,-0.039472,0.025698,0.589111,-0.10083,-0.198486,-0.206409,3.751582,8.964182,-0.152912,-0.116502,0.012566,0.356201,-0.213135,-0.578125
1.176041,-1.786234,10.514053,-0.596789,0.432378,-0.219168,-0.072754,0.478516,-0.574219,-0.157944,3.062674,9.405209,-0.391348,-0.112859,-0.088415,-0.724121,0.116455,-0.363037,-0.616697,4.072308,9.300216,0.05288,0.126096,-0.028062,-0.134521,0.592773,0.764404,0.180142,4.160803,9.263537,0.2411,-0.073211,0.005694,0.583984,-0.094238,-0.206055,0.043793,3.111645,8.949256,-0.17817,0.099639,0.085409,0.348389,-0.203857,-0.585205
-1.370835,-4.39423,9.654846,-0.951452,0.41211,0.141762,-0.069092,0.493408,-0.571777,-0.710692,2.371735,8.910018,0.114694,0.168059,0.026828,-0.732178,0.114258,-0.367432,-0.849407,3.411122,8.932621,-0.102717,-0.070122,0.068761,-0.12793,0.597412,0.77002,-0.219852,3.873802,9.187126,-0.141004,0.22256,-0.001638,0.587158,-0.086182,-0.199219,-0.646717,2.916522,9.153845,0.238681,0.192752,0.045648,0.354736,-0.198975,-0.581055
0.976432,-3.456362,9.965834,0.336961,0.406281,0.193973,-0.061768,0.495361,-0.570068,-0.566367,3.365643,9.724578,0.07498,-0.239797,-0.060068,-0.733154,0.117188,-0.35791,-0.466038,3.791379,9.087167,0.145583,-0.047349,-0.049307,-0.13501,0.593994,0.776611,-1.0223,3.668617,9.082327,-0.067864,0.046322,0.019563,0.580566,-0.095459,-0.190918,-1.062974,3.540866,10.501001,-0.092866,-0.081428,0.039072,0.344727,-0.205078,-0.575928
-1.154581,-0.947681,9.22601,0.444898,0.706511,0.162991,-0.050293,0.482422,-0.577881,0.693147,2.657678,9.27622,-0.166051,0.190806,0.083297,-0.730957,0.116455,-0.362549,-0.219359,3.969303,9.293563,-0.10895,0.089648,0.023876,-0.132568,0.602295,0.76123,0.164773,3.629079,9.003709,0.024791,-0.367556,0.002543,0.580078,-0.087158,-0.208496,0.330412,2.803714,8.305211,-0.074398,-0.218106,-0.060284,0.349365,-0.196533,-0.587158
-0.049243,-1.403777,9.22579,0.533064,0.303716,-0.155654,-0.049561,0.471191,-0.58374,-1.37468,2.653112,9.379336,0.06302,-0.026893,0.054332,-0.734863,0.118896,-0.358887,-0.878069,3.220674,9.120707,-0.118704,-0.034891,0.013946,-0.129883,0.588623,0.765137,0.593146,3.587131,9.217489,-0.041239,0.20215,0.000112,0.585938,-0.0979,-0.208984,0.01168,3.312192,8.945512,0.128277,0.202702,0.074466,0.352539,-0.212646,-0.585938
-1.78526,-2.044378,9.084241,0.860928,0.581295,-0.047726,-0.040283,0.449951,-0.595459,0.24209,3.410208,9.155436,0.20829,0.042489,0.021361,-0.734375,0.111816,-0.362549,-0.549978,3.497795,8.868662,0.233925,0.015595,-0.016055,-0.128174,0.594482,0.773682,-1.217351,3.647602,9.158827,0.090602,0.32014,0.038601,0.59082,-0.095459,-0.189453,-1.228831,2.894775,10.031167,-0.162684,0.13335,-0.075686,0.35791,-0.204834,-0.574463
-0.250807,-0.712668,8.898993,0.844224,0.191447,-0.041333,-0.032471,0.434326,-0.599854,-1.061372,3.457715,9.477816,-0.156571,0.054576,0.091656,-0.729492,0.116699,-0.36377,-0.620997,4.445963,8.986561,0.078095,0.017015,-0.051066,-0.137939,0.588867,0.764648,-0.796225,4.209365,9.055015,0.181663,-0.414896,-0.001624,0.580566,-0.100586,-0.202637,-0.734568,3.453612,10.062895,0.270919,-0.259926,-0.035069,0.345215,-0.216797,-0.584717
-1.308471,-0.950644,9.61794,0.857579,0.249427,-0.123739,-0.029785,0.420654,-0.608154,0.326166,2.787452,9.020776,-0.095315,-0.133764,-0.028364,-0.726562,0.116455,-0.362305,-0.382515,3.786967,9.597421,-0.478276,0.007237,0.070143,-0.136475,0.591309,0.766602,0.955643,4.042508,9.278547,-0.412041,-0.1895,0.022246,0.576416,-0.093506,-0.209961,0.434966,3.719809,8.266647,-0.195287,-0.251403,-0.085722,0.338135,-0.202637,-0.585938
-0.264238,-0.767883,10.757411,0.736909,0.236565,-0.013333,-0.029297,0.40625,-0.598877,-0.621459,3.126534,9.381194,0.134014,0.193656,0.05407,-0.731445,0.117676,-0.352051,-0.566834,2.690824,8.86555,-0.00162,-0.03626,0.028795,-0.128906,0.577881,0.765381,-0.113299,2.961302,8.76834,-0.227863,0.4353,-0.008737,0.583252,-0.097412,-0.208496,-0.070961,3.019553,9.136181,-0.104281,0.315858,0.095131,0.349854,-0.209717,-0.588379
-1.09057,-0.601217,10.221107,1.106952,0.438293,-0.146498,-0.02124,0.388672,-0.618408,-0.388231,3.180531,9.392651,-0.100694,-0.159525,-0.033329,-0.731201,0.12085,-0.360352,-0.51386,3.940999,9.131066,0.325054,0.092386,-0.127261,-0.130127,0.589844,0.769775,-1.335122,3.427182,9.311284,0.279614,-0.11582,0.071229,0.588379,-0.096924,-0.203857,-1.326824,3.306201,10.01569,-0.054742,-0.1837,0.028183,0.348877,-0.206299,-0.58667
-0.876291,1.419762,10.515461,0.510715,0.456314,-0.130963,-0.011963,0.371094,-0.623291,-0.148702,2.789133,9.174899,-0.013796,0.150189,0.054155,-0.727051,0.116455,-0.363525,-0.752125,4.224703,9.248143,-0.204278,-0.009406,0.071349,-0.12793,0.589111,0.770508,0.439259,4.147402,9.186018,0.058205,-0.383232,-0.04139,0.586914,-0.09668,-0.207275,0.670865,2.554345,8.551064,-0.029244,-0.186825,0.004575,0.3479,-0.20459,-0.586426
-1.167629,-0.658191,9.8328,-0.098229,0.45518,-0.261541,-0.003906,0.366211,-0.635254,-0.708926,3.045607,9.45152,0.039639,-0.111304,-0.002922,-0.729248,0.111572,-0.369873,-0.429459,3.203588,8.994981,-0.217293,-0.064305,0.011634,-0.121094,0.580566,0.772949,0.350435,3.966459,9.065454,-0.249653,0.286673,0.057187,0.593262,-0.097168,-0.200195,-0.746658,3.802454,9.252627,0.325831,0.22274,0.016355,0.355713,-0.210693,-0.580566
-1.061668,-1.89213,9.793787,0.661731,0.5661,-0.187414,0.013428,0.364258,-0.635742,0.230067,3.035863,9.314507,-0.057865,0.108985,0.073126,-0.720703,0.121094,-0.365479,-0.541796,3.478573,9.172617,0.157537,0.111413,-0.033323,-0.137939,0.583496,0.772949,-1.135731,3.438981,9.26359,-0.150547,0.059658,0.005503,0.579346,-0.101074,-0.199951,-0.507312,4.465414,9.566325,-0.015041,-0.242138,0.143229,0.338623,-0.218262,-0.581055
-1.389408,-1.311462,9.891499,1.166094,0.550553,-0.240819,0.009277,0.341797,-0.642334,-0.967354,2.634757,9.425025,-0.09045,0.007046,0.086939,-0.732178,0.127197,-0.367188,-0.787079,3.855548,9.479718,-0.106029,-0.036273,-0.015812,-0.128662,0.591797,0.77124,0.105689,3.282184,9.434401,-0.118028,-0.363264,-0.000578,0.585693,-0.086914,-0.204834,0.548222,3.321471,9.12437,-0.490863,-0.026084,0.405158,0.34375,-0.19751,-0.586182
-1.544987,-1.798784,9.218945,2.209108,0.690641,-0.287297,0.026367,0.290283,-0.643066,0.098231,2.809821,9.248116,0.106721,0.045935,0.08014,-0.723389,0.119873,-0.359863,-0.438125,3.039562,8.741711,0.078808,-0.062452,0.11276,-0.134766,0.584717,0.772949,0.448447,3.059988,8.71294,0.25021,0.191475,0.005486,0.577881,-0.093994,-0.202148,-0.531161,1.657424,9.233441,0.102174,0.272122,0.333288,0.338623,-0.210205,-0.580566
-1.769887,2.672349,10.033496,2.392285,0.569066,-0.166415,0.029541,0.242432,-0.656494,-0.775517,3.328412,9.356132,0.03476,0.070386,0.144885,-0.73291,0.119141,-0.367188,-0.573795,4.335115,9.108227,0.306335,0.119415,-0.214364,-0.136475,0.588623,0.77417,-1.166952,4.520296,9.44862,0.312811,0.126926,0.044432,0.580322,-0.099854,-0.198975,-1.171893,4.382685,10.5295,0.849124,-0.273065,0.206609,0.338135,-0.229736,-0.575195
-1.535876,3.289515,10.932633,0.749307,0.720041,-0.343606,0.056885,0.22583,-0.663086,-0.076812,3.102977,9.021301,-0.071159,-0.003922,0.091581,-0.718262,0.125,-0.369873,-0.802169,4.574017,9.282845,-0.435487,-0.036,0.096319,-0.130859,0.581787,0.777344,-0.481082,4.374114,9.813619,-0.593466,-0.461909,-0.067663,0.583984,-0.094727,-0.204834,0.849193,5.365661,10.824603,-0.629785,-0.3524,0.603104,0.33252,-0.218018,-0.580322
-1.613287,1.532951,11.194202,0.164462,0.884615,-0.109233,0.067139,0.221191,-0.65918,-0.448432,3.713377,9.542265,0.241345,0.056838,0.029725,-0.720703,0.121094,-0.368408,-0.253721,2.949627,8.955717,-0.476427,-0.061236,0.022317,-0.139893,0.573486,0.785889,0.421982,2.766019,9.244241,-0.694859,-0.229969,-0.182664,0.570801,-0.08667,-0.20166,0.12761,2.33583,9.803837,-0.9407,0.020358,0.885728,0.317871,-0.208252,-0.579102
-2.274135,-0.870333,8.227836,0.14384,1.04174,-0.125031,0.081055,0.226074,-0.672852,-0.262937,3.452583,9.097359,-0.259606,-0.013434,0.092587,-0.722656,0.138672,-0.377197,-0.875848,3.565506,8.993465,0.183294,0.091973,-0.258351,-0.137207,0.577148,0.77124,-0.411529,2.228014,9.134731,-0.047881,-0.046631,-0.122151,0.57666,-0.089844,-0.207275,-0.696158,1.850637,8.924905,0.245279,-0.230812,0.905722,0.314453,-0.219238,-0.58374
-2.857739,-2.376422,6.960141,2.442202,0.740302,-0.065512,0.085693,0.166504,-0.65332,-0.436585,2.989524,9.220129,0.062437,0.069291,0.14202,-0.730469,0.126953,-0.355713,-0.558199,3.780978,9.027638,-0.136069,-0.125089,-0.024518,-0.146729,0.587646,0.776855,-0.560492,4.084249,9.159861,0.716844,-0.505583,0.045429,0.567139,-0.082031,-0.207275,0.120332,4.72675,10.21209,0.892198,-0.293678,0.652525,0.294678,-0.225342,-0.57666
-2.729301,3.23091,9.401995,3.926135,0.79529,-0.024221,0.111572,0.092773,-0.655762,-0.818532,2.47384,9.303179,-0.166354,-0.064081,-0.111729,-0.72168,0.128906,-0.366943,-0.432811,3.322434,9.975739,-0.57434,0.047752,-0.057523,-0.141602,0.567871,0.785889,0.510046,5.687326,9.590315,-0.360691,-0.523562,-0.014495,0.562988,-0.089111,-0.211426,-0.037364,5.802019,10.049522,-0.628481,-0.231602,1.031014,0.290283,-0.22998,-0.57959
-2.964723,8.561741,10.663688,2.294041,0.867157,-0.316764,0.116455,0.048828,-0.639893,0.243979,3.152089,9.311404,0.279008,-0.005969,0.06322,-0.731689,0.126953,-0.361328,-0.719143,2.77783,8.640378,-0.139594,0.022292,-0.003439,-0.138428,0.570557,0.780518,0.267556,3.420679,9.251433,-1.302284,-0.128513,0.120452,0.564453,-0.075928,-0.216064,0.20317,1.954782,8.6014,-1.273005,-0.379612,0.777425,0.283447,-0.205811,-0.587646
-3.056603,9.87699,9.76596,-1.747478,0.606869,-0.504924,0.133057,0.080078,-0.654053,-0.546271,3.437019,9.267137,-0.070833,0.092446,-0.00367,-0.727051,0.129639,-0.366699,-0.299403,3.969351,9.618618,-0.094844,-0.009978,-0.103055,-0.139648,0.563477,0.775879,0.133087,1.27856,8.922767,-0.384764,-0.412057,-0.003709,0.561035,-0.077637,-0.230469,0.961489,0.626153,8.35123,0.130654,-0.279365,0.84483,0.274414,-0.216309,-0.590332
-2.213967,-2.33382,6.592245,-3.064794,0.808585,-0.674416,0.145508,0.135254,-0.652588,-0.340824,2.38891,9.746932,-0.273487,-0.123442,0.173866,-0.731445,0.133789,-0.356689,-1.014349,3.201674,9.242186,-0.657176,0.094539,-0.025112,-0.143555,0.564209,0.787598,0.477847,2.627351,9.785677,0.259401,-0.276665,0.029728,0.555908,-0.067871,-0.223145,0.607803,3.59958,10.456495,0.516239,-0.147337,0.60839,0.262695,-0.214111,-0.580566
-3.673951,-2.007261,8.299582,2.000783,1.019681,-0.052357,0.166748,0.099121,-0.649902,0.108999,2.474664,8.559316,0.378001,0.179963,0.214389,-0.72583,0.134521,-0.36377,-0.593466,1.588005,9.204257,0.139418,-0.257889,0.003354,-0.133789,0.560303,0.791992,0.110976,2.868813,9.670854,0.088507,-0.325526,-0.092087,0.557373,-0.072998,-0.219482,1.127432,3.129348,9.543806,-0.344713,-0.29722,1.381014,0.258789,-0.217773,-0.575439
-4.700257,5.495655,10.062813,1.105381,0.622619,-0.43866,0.171631,0.066895,-0.652832,-1.101533,5.330389,9.784103,0.460863,-0.047088,-0.228939,-0.733154,0.117432,-0.368408,0.169757,2.181238,9.377965,0.560452,0.130402,-0.130277,-0.143799,0.565918,0.774658,0.985529,2.443372,9.118068,0.382367,-0.451949,-0.058033,0.547607,-0.078857,-0.238281,0.734213,0.934791,8.650814,0.156207,-0.025006,0.855935,0.245117,-0.223877,-0.58667
-4.202176,5.00768,7.607365,0.575448,0.78503,-0.326129,0.196777,0.056396,-0.644775,0.050504,3.571815,9.647825,-0.847895,0.030592,0.029338,-0.719727,0.125,-0.36499,-1.753666,3.218691,9.575414,1.007584,0.146254,0.009003,-0.139648,0.580811,0.777588,0.40123,2.856378,9.579041,0.896118,-0.065761,0.124275,0.555908,-0.092773,-0.223633,0.562287,1.879194,9.069656,1.228525,-0.20712,0.851061,0.243652,-0.250488,-0.571045
-2.489256,3.36979,8.446672,-0.742093,0.735166,-0.409344,0.208252,0.073242,-0.651367,-1.229674,1.049478,7.686076,-0.174535,0.065616,-0.236945,-0.720703,0.12915,-0.370605,-0.667192,5.363086,9.48279,0.607524,-0.316704,-0.134018,-0.149658,0.586182,0.770996,0.05463,4.701332,9.827198,0.961438,-0.316399,-0.097536,0.539795,-0.098877,-0.227783,1.313998,5.362362,10.31304,1.334645,-0.219953,0.880922,0.224365,-0.268066,-0.565918
-5.095206,0.912934,8.943274,1.003182,1.218877,-0.30304,0.225586,0.064941,-0.642334,0.167275,4.424086,10.342419,0.995785,-0.150888,-0.239562,-0.729492,0.125244,-0.36792,-0.173615,3.587365,9.236323,-0.335247,-0.045712,0.278056,-0.140869,0.592285,0.769287,0.968723,5.13453,9.560263,0.196929,-0.485961,0.13831,0.537598,-0.088867,-0.22876,1.261557,5.961971,10.249275,-0.153852,-0.040676,1.042841,0.218506,-0.253174,-0.564697
-6.060602,4.328181,9.650537,1.538811,1.250862,0.376014,0.250244,0.021484,-0.64209,-1.034624,6.553655,9.028528,0.130785,0.225251,-0.653515,-0.720215,0.098145,-0.379883,-1.387806,2.583424,9.688356,0.24703,-0.078778,-0.051606,-0.148438,0.582031,0.757812,0.803068,4.859478,9.228738,0.016102,-0.072439,0.08833,0.526367,-0.09668,-0.23877,0.651151,3.065722,9.16447,-0.678547,-0.21294,0.962574,0.203369,-0.248291,-0.578857
-5.541784,5.001988,8.017315,0.023926,0.481928,0.140064,0.256592,0.027832,-0.638184,-0.326969,5.691395,11.090269,-0.334194,-0.230107,-1.314915,-0.719482,0.090576,-0.38501,-0.050858,3.033836,8.897802,0.165002,-0.317774,0.427719,-0.130859,0.588623,0.768311,0.426294,3.64899,9.197329,-0.145364,-0.290863,0.317934,0.521484,-0.089844,-0.231689,1.611522,1.46236,8.524752,0.328623,-0.294018,0.366492,0.202148,-0.244385,-0.561523
-4.228257,2.626891,8.049972,0.348014,1.35516,0.540417,0.278076,0.016602,-0.627197,0.906187,1.380084,9.926618,-1.024701,0.375281,-0.380515,-0.706055,0.093018,-0.385986,-0.939247,4.432129,7.091529,1.495034,-0.036423,-0.028173,-0.136475,0.60083,0.743408,1.192047,3.330016,7.685143,0.82777,-0.312357,0.365149,0.512451,-0.112061,-0.236328,1.283967,3.567018,9.594471,0.820127,-0.206376,0.221936,0.192383,-0.265381,-0.562988
-6.66459,5.202546,10.630486,-0.033914,0.713002,0.154176,0.292969,0.016846,-0.632568,-1.563434,0.0711,8.959761,0.976851,0.601718,-0.812839,-0.69458,0.072998,-0.406006,-0.296354,8.787442,8.606484,0.938379,0.063978,0.012757,-0.143555,0.622314,0.719482,0.364133,6.072651,8.804977,1.220986,-0.037628,0.199774,0.506836,-0.117676,-0.242432,1.111023,3.937423,9.175678,0.65199,-0.228448,0.080281,0.185547,-0.270508,-0.565186
-5.075709,2.192723,7.87857,-0.859579,0.635189,-0.494649,0.303955,0.028564,-0.623779,-1.641579,2.929118,10.166907,0.456461,0.445748,0.411948,-0.685059,0.069824,-0.409668,-2.477937,7.101674,10.264971,-1.603598,-0.427635,0.079621,-0.140137,0.596436,0.72583,-0.827629,6.320432,10.423237,-1.22648,-0.3845,0.006516,0.496338,-0.101318,-0.242432,0.470491,6.535648,9.992034,-0.123124,-0.299907,0.860326,0.17334,-0.262939,-0.562012
-5.239746,2.067978,6.615169,-0.397745,0.87065,-0.528585,0.325684,0.042969,-0.620605,-0.644142,1.344793,8.515695,-0.535735,0.536354,0.144295,-0.666504,0.08252,-0.420166,0.485622,2.543187,8.843852,-2.305974,-0.492909,0.011328,-0.13916,0.55835,0.742676,1.051025,3.582665,8.277011,-1.997004,-0.765826,-0.0513,0.481689,-0.078125,-0.239502,1.764447,4.635227,9.652953,-2.542441,-0.399021,0.670143,0.165771,-0.220459,-0.566406
-5.673385,0.210472,5.837859,-0.312495,0.680363,-0.902635,0.340088,0.059326,-0.614746,-2.62205,1.358099,9.808239,1.255376,0.554944,0.393965,-0.656494,0.077637,-0.429688,-0.101099,0.83311,9.009104,-0.90066,0.176205,-0.048411,-0.147461,0.548584,0.731934,1.247823,2.67385,8.257324,-1.070728,-0.267207,0.323984,0.477783,-0.059814,-0.241455,0.956128,-0.762349,9.106638,-2.132412,-0.083041,0.258766,0.164307,-0.175293,-0.577881
-5.879858,4.091016,9.015231,0.837656,0.825825,-0.06034,0.348633,0.04126,-0.601562,-1.83538,5.535228,9.589499,0.895105,0.208804,-0.23261,-0.655273,0.056152,-0.434814,-0.73258,0.961515,11.272651,-0.518735,0.130885,-0.000163,-0.158691,0.539062,0.734619,0.199493,1.877491,9.97914,-0.459881,-0.430234,0.139806,0.467529,-0.054688,-0.235107,0.832767,0.002665,9.530799,1.056907,-0.783754,-0.173682,0.148682,-0.185303,-0.566406
-5.864451,2.684985,5.336921,0.042601,1.072498,-0.637681,0.370117,0.035645,-0.598145,-3.092068,1.463494,11.036142,-0.381485,-0.140424,-0.098456,-0.639404,0.044922,-0.438232,0.187282,1.213271,11.18571,0.017323,0.199819,0.452277,-0.166016,0.523682,0.72168,1.498711,2.674135,9.682564,0.316174,-0.79674,0.528596,0.456299,-0.05835,-0.234863,2.578431,6.315235,10.688751,0.820805,-0.749815,-0.265354,0.136475,-0.199707,-0.558838
-7.599225,3.388856,7.59722,-0.274987,0.518977,-0.294737,0.378906,0.039795,-0.598877,0.016114,0.322514,9.148325,1.537123,-0.306607,-0.464536,-0.635986,0.005615,-0.44165,-0.710839,3.319144,9.598901,0.270457,0.649557,-0.068856,-0.185059,0.506592,0.702148,2.516262,4.558509,10.931066,0.073184,-0.553153,0.602086,0.446533,-0.0625,-0.229492,2.737659,4.10022,10.189967,-1.98241,-0.467723,-0.091861,0.124512,-0.166016,-0.562744
-7.22735,0.890721,6.560433,-0.872081,0.599593,-0.599843,0.397949,0.064697,-0.594727,-1.157653,2.647142,8.248842,2.651205,0.209033,0.337034,-0.621094,-0.018066,-0.44043,-1.515077,6.828544,10.548021,-0.303858,0.103146,0.192056,-0.191895,0.482422,0.68335,1.975037,4.15404,11.410666,-1.378716,-0.185705,0.386153,0.428223,-0.053223,-0.219727,2.439013,-1.104561,9.564705,-1.307792,-0.383116,-0.11455,0.118652,-0.139648,-0.559326
-8.161198,-2.215516,5.667049,0.25922,-0.197195,-1.010962,0.392334,0.051514,-0.585449,-0.595286,8.637561,10.070507,2.067613,0.441665,0.111255,-0.613037,-0.064941,-0.435303,-1.329518,4.163838,9.906042,-1.628566,-0.082268,0.177041,-0.199219,0.451172,0.655762,1.966544,1.342493,10.766494,-1.147297,-0.478085,0.226133,0.406494,-0.034912,-0.223389,2.996416,0.346439,10.049369,0.341011,-0.583873,-0.270117,0.104248,-0.129883,-0.559814
-6.095967,4.870321,7.995002,1.833583,0.116469,-0.214814,0.404541,0.032471,-0.581543,-3.547636,6.422958,7.489544,0.579525,0.561148,0.788792,-0.590088,-0.05835,-0.450195,-0.719728,1.877604,11.311545,-0.267966,-0.435642,0.067451,-0.195801,0.422363,0.608887,1.873222,1.403542,9.212584,0.057508,-0.167509,0.054406,0.397461,-0.034912,-0.2229,2.466252,3.672817,10.097275,0.097058,0.090757,-0.068501,0.109131,-0.131104,-0.565186
-6.330819,5.348716,6.585913,-0.339282,0.197301,-0.686771,0.41333,0.044189,-0.578613,-1.83964,4.104071,6.413359,2.557811,-0.624286,0.236309,-0.578857,-0.089844,-0.439453,-0.084529,4.125449,9.947285,-0.137541,0.456604,-0.447791,-0.218994,0.399902,0.567383,1.399999,3.349942,11.006036,-0.120639,-0.387833,0.063883,0.369873,-0.03125,-0.21582,1.647236,2.587686,9.867547,-1.382753,-0.645601,0.425955,0.086182,-0.104248,-0.561768
-7.077263,2.653537,6.293989,-0.097695,0.607235,0.271615,0.420166,0.034912,-0.563721,-0.648614,8.310134,6.935536,3.254736,0.181432,-0.109241,-0.570801,-0.143555,-0.426758,-2.101677,0.394504,9.318296,-2.235784,-0.330133,0.268929,-0.218262,0.343262,0.542725,3.077732,2.206456,9.8698,-1.398037,-0.514586,-0.023002,0.350098,-0.02417,-0.203369,4.290021,-0.744056,8.739555,-0.885824,-0.190951,0.082843,0.080566,-0.090576,-0.551025
-5.511341,3.608922,6.698097,-0.170699,0.528181,0.354243,0.436035,0.04541,-0.564453,-2.471821,8.231921,6.598094,0.843344,-0.57589,-0.259325,-0.555664,-0.155029,-0.425293,0.785494,-1.354279,8.954965,0.567455,-0.70633,0.061445,-0.229736,0.323486,0.494385,2.453357,0.456929,8.09411,-0.283801,0.166226,0.19009,0.32373,-0.030518,-0.203613,1.479879,1.696074,9.516836,0.814915,0.086426,0.046674,0.069824,-0.10376,-0.554688
-8.06202,2.539409,6.481475,0.053901,0.690847,-0.112078,0.447266,0.039307,-0.560547,0.19939,4.410114,7.387447,1.807816,-0.293987,-0.153559,-0.54541,-0.194092,-0.419434,0.397497,5.512564,9.718985,1.903477,0.782584,-0.577925,-0.243408,0.338379,0.436768,0.719683,2.961171,9.494474,1.213064,-0.329323,0.119492,0.30957,-0.023926,-0.209717,2.571195,3.897243,9.685586,-0.085523,-0.778298,0.057133,0.058838,-0.083252,-0.557373
-7.133939,3.363468,6.710264,-0.72707,0.28666,0.236055,0.450439,0.050781,-0.556396,-1.632767,6.242155,7.420974,3.316283,-0.101065,0.206949,-0.536377,-0.233887,-0.402344,-2.998108,8.385586,10.67994,-0.823499,-0.273406,0.003771,-0.249023,0.307129,0.401855,3.26157,6.147748,10.791066,-0.093663,-0.897795,0.024072,0.285889,-0.025635,-0.206055,4.303497,2.293541,9.383327,-0.972092,-0.107754,0.165292,0.054932,-0.066895,-0.552002
-7.985915,0.978948,6.255826,-0.357698,0.298888,-0.501312,0.457764,0.061035,-0.550049,-0.072364,9.826507,8.755054,2.788203,0.001505,0.103058,-0.526855,-0.261963,-0.384521,2.23166,1.859419,11.888689,-3.744194,-0.961467,0.326229,-0.236328,0.261963,0.360352,3.967111,4.156355,9.82676,-2.117074,0.063134,0.016291,0.268066,-0.00708,-0.210938,2.248327,1.835646,9.703239,-0.649855,-0.163879,-0.125449,0.054443,-0.048828,-0.558105
-8.490024,2.39589,6.905257,0.077658,-0.009829,-0.130384,0.462158,0.061035,-0.539062,-3.247099,7.277713,10.246661,0.452637,0.041842,0.195729,-0.508789,-0.278076,-0.376465,-0.690504,-8.433648,9.100077,-1.796471,0.894999,0.803637,-0.248535,0.227051,0.320801,2.196546,0.39557,10.385148,-1.262685,0.225136,0.594697,0.233154,-0.003662,-0.210205,3.435618,3.695327,9.37314,0.033597,-0.594063,-0.788573,0.028809,-0.053223,-0.552734
-8.387018,1.310426,7.317759,-0.855095,-0.231491,-0.829111,0.464111,0.082275,-0.546143,-1.094809,12.054981,6.795291,1.648976,-0.170397,-0.267066,-0.491943,-0.303467,-0.365723,-4.129579,2.908529,9.445528,3.850686,-0.068424,-0.97115,-0.261963,0.230469,0.266602,0.877826,3.007543,9.865285,0.200764,0.027331,0.964703,0.212158,-0.003662,-0.202637,1.94661,4.863105,10.002442,-1.665718,0.34617,-1.042191,0.027344,-0.02002,-0.543945
-6.727629,-0.784013,6.124467,0.299435,-0.192748,-1.054798,0.470215,0.086426,-0.541992,0.500051,14.110212,7.055283,-2.941669,0.163434,0.606979,-0.461914,-0.275146,-0.391846,3.145895,12.917953,14.533679,-2.223809,-1.141507,0.559409,-0.248779,0.200928,0.221436,2.975316,3.353882,9.584336,-2.808911,-0.673658,0.217795,0.19043,0.018311,-0.20752,2.973233,-1.264459,9.667414,-3.129994,-1.041914,-0.053128,0.012695,0.029297,-0.539062
-10.939677,3.093449,7.449724,0.968716,-0.636331,-0.088613,0.465332,0.079102,-0.541748,-0.913041,9.67694,6.527958,-2.26193,0.198211,-0.153116,-0.431396,-0.255371,-0.413086,2.454472,-3.045592,9.063238,-7.049261,0.794755,1.102573,-0.239746,0.150391,0.18042,5.448974,-4.033082,9.077528,-3.549143,-0.117679,0.657434,0.167236,0.026367,-0.209717,6.594078,-2.9739,8.984837,-0.73006,-0.336063,-0.50862,0.00415,0.032227,-0.539795
-7.195601,1.696728,7.364981,0.172087,-1.000071,-0.088033,0.457275,0.076416,-0.545654,-0.563173,7.052057,7.937238,-2.54098,-0.317106,0.0163,-0.408936,-0.24292,-0.431885,-1.811837,-10.563012,9.619064,0.680425,0.511328,-0.335991,-0.243896,0.155518,0.127441,3.142645,-4.704686,10.326563,0.397837,0.287408,0.344836,0.142334,0.041016,-0.212646,3.845849,-0.118487,9.554807,-0.619519,-0.000669,-0.05157,-0.01123,0.061768,-0.532959
-8.641512,1.274466,7.437274,1.37748,-1.141683,0.245998,0.430908,0.053955,-0.547119,0.399152,2.036412,6.876495,0.394166,0.18638,-0.238003,-0.390381,-0.249756,-0.433105,0.705881,4.485233,11.555155,3.760189,-0.044543,-0.646626,-0.231934,0.138916,0.062012,3.976015,1.3274,11.649697,1.621163,-0.465046,0.267344,0.124756,0.021484,-0.230713,5.667461,-2.34506,8.806451,-0.904663,-0.484792,-0.177738,-0.019287,0.07373,-0.531006
-5.345153,5.764256,9.278596,0.684913,-1.236804,-0.069042,0.421143,0.045654,-0.540771,-0.904578,10.251108,8.983069,2.222003,0.424536,-0.033783,-0.361084,-0.281982,-0.414795,-0.570374,7.644861,13.047722,-1.307632,0.495639,0.396405,-0.223633,0.121826,0.011963,4.800439,2.733179,11.36447,-0.359151,0.290911,0.049717,0.099854,0.016602,-0.239502,5.158233,-2.560883,8.460451,0.981354,0.7496,-0.244376,-0.015625,0.054199,-0.533447
-5.635054,2.011693,7.408731,-0.570989,-1.292437,-0.449896,0.404541,0.061523,-0.55127,-0.588128,14.13157,7.207627,-2.005017,0.519683,0.088627,-0.337891,-0.260254,-0.44751,-1.205612,-3.874672,9.407493,-2.652735,-0.619658,0.750294,-0.2146,0.120605,-0.038086,3.079487,-1.253314,10.871167,-0.962725,0.733838,-0.186386,0.075439,0.026855,-0.25293,2.715319,3.152015,9.981248,1.532646,0.023917,-0.023578,-0.025391,0.037354,-0.543945
-2.510358,2.917205,6.46841,0.89552,-0.8383,-0.1904,0.404053,0.046387,-0.550049,-3.014086,4.5782,4.584177,-5.405837,0.201563,0.363783,-0.300781,-0.206543,-0.480957,0.234826,-3.545409,11.063524,2.122434,-0.04009,-0.281354,-0.208252,0.114258,-0.083984,2.705539,-0.489002,9.999675,1.334403,0.117631,0.239413,0.055664,0.024414,-0.266846,5.397665,3.570685,9.153228,-0.854151,0.345327,0.005204,-0.029541,0.061523,-0.536377
-5.500182,4.970905,7.854017,-0.636373,-0.082093,-0.381002,0.400146,0.061768,-0.557129,-2.634199,-0.956338,4.902216,0.260808,-0.725838,0.264768,-0.300293,-0.208496,-0.484863,0.032722,5.189914,13.69012,1.272831,0.12738,-0.145698,-0.193604,0.088135,-0.144775,3.854942,3.686052,10.534553,0.702537,0.533992,0.01476,0.044189,0.006348,-0.289795,2.087913,-0.630312,8.246517,-0.915488,1.134962,-0.032389,-0.013916,0.068115,-0.544922
-6.682639,0.913645,8.321678,-0.520788,-0.006992,-0.042758,0.398438,0.068604,-0.550781,-0.446205,11.991691,9.521736,2.15361,-1.012959,0.136295,-0.303467,-0.242432,-0.465576,-0.957723,3.328061,11.238161,-2.022968,-0.058039,0.666722,-0.17749,0.092529,-0.18335,2.915398,2.743706,10.906433,-1.347159,1.00981,0.355284,0.037109,0.01709,-0.301025,2.616651,0.855113,9.105319,0.626468,-0.070056,-0.392086,-0.019043,0.057373,-0.545654
-7.334121,1.237612,8.590274,0.096469,-0.377323,0.111702,0.399902,0.072998,-0.551758,1.273423,10.270242,10.647712,-3.614622,-0.609849,0.476207,-0.288086,-0.195801,-0.48877,-0.298847,-2.347009,8.735767,-1.423572,-0.494929,0.218323,-0.17749,0.107422,-0.223633,2.280222,-0.750893,10.409682,-1.503083,0.875776,0.086345,0.01709,0.04541,-0.314697,5.27929,3.926857,9.707012,-0.685016,0.744516,-0.069079,-0.024902,0.080811,-0.548096
-7.043896,1.443582,8.714364,0.901285,-0.610984,0.136591,0.396973,0.059326,-0.553223,-0.205233,-0.623566,8.258998,-1.494161,0.066914,0.51192,-0.267578,-0.179688,-0.504395,0.71806,1.043848,12.446591,0.571499,-0.289364,-0.103068,-0.179932,0.095703,-0.27002,2.92603,-1.20025,10.050559,-0.601575,0.90311,0.220293,0.004395,0.047852,-0.336914,2.653138,-0.479742,8.639778,-2.856583,1.242416,0.344847,-0.015869,0.120361,-0.546875
-7.724385,3.525078,9.529298,-0.144231,-0.954611,-0.166322,0.377441,0.076172,-0.559326,-0.543562,9.452427,10.270721,3.031788,-0.41841,0.294935,-0.268799,-0.206787,-0.493896,1.784008,1.998023,12.45755,-1.176135,0.070588,0.178333,-0.166748,0.109619,-0.303711,2.332075,-0.78333,9.871731,-0.232714,1.126435,-0.093716,0.001709,0.058838,-0.349609,2.588606,-5.491299,7.573419,-0.586687,0.673094,0.463392,-0.006104,0.139893,-0.544189
-6.056094,2.074573,9.321189,0.370935,-0.988533,-0.154305,0.364502,0.056885,-0.559326,1.734786,13.086415,10.997538,-2.11775,-0.106658,0.634814,-0.255371,-0.193604,-0.510498,-0.956331,-2.20622,9.604088,-0.604049,0.307218,0.336011,-0.159424,0.107422,-0.339355,1.849117,-0.107681,10.543628,0.120113,1.144346,0.085355,-0.001953,0.050293,-0.374023,3.302181,-0.480563,9.297621,1.527891,1.173383,-0.339068,0.0,0.106445,-0.561279
-6.313739,6.210929,10.699027,-0.291269,-1.422041,0.394527,0.339844,0.071289,-0.560059,0.183705,3.130286,8.712434,-2.140513,0.118269,0.549101,-0.246826,-0.159668,-0.52417,1.999548,-1.747887,10.654244,0.835124,-0.497465,-0.025997,-0.157227,0.100098,-0.364014,1.686251,-1.252496,9.027139,-0.017629,1.059549,-0.219697,-0.00415,0.051758,-0.382324,2.043696,2.023752,9.385689,-0.012102,1.284835,0.523445,0.014648,0.109375,-0.556641
-4.71193,1.455231,8.857893,-1.226646,-1.346826,0.005283,0.321045,0.088623,-0.570801,1.82551,8.961269,10.822947,0.007404,0.163511,0.002728,-0.22876,-0.165771,-0.540527,2.111341,1.530956,10.017487,1.204515,1.008826,0.089642,-0.142578,0.097168,-0.408936,2.149334,-0.291068,8.547166,1.187911,1.108182,0.112497,-0.003174,0.047852,-0.414062,1.798543,-0.565479,8.489787,-0.393908,1.139376,0.050462,0.026611,0.125,-0.573242
-5.272524,3.204503,9.697165,0.014358,-1.436516,0.504525,0.291504,0.09668,-0.56543,-0.409092,8.119888,8.737619,-3.271741,0.610571,0.337768,-0.216797,-0.116943,-0.551758,-1.871359,1.120456,10.692417,-0.640639,0.589699,-0.055037,-0.125244,0.092285,-0.431885,0.334022,1.933928,10.180232,0.448882,1.458672,0.016034,0.012451,0.036865,-0.42749,1.114162,-0.790977,8.548736,0.413349,1.394452,0.197722,0.048828,0.110352,-0.57666
-3.930842,2.681591,8.969896,-1.061315,-1.827095,0.15184,0.277344,0.118408,-0.568848,0.299208,-0.727202,8.534253,-3.431082,0.028536,0.15789,-0.190918,-0.06665,-0.567383,0.77472,-1.34627,9.299374,0.339364,-0.227302,0.702048,-0.125977,0.109863,-0.452881,0.627243,0.266025,10.198143,-0.509096,1.100568,-0.095709,0.014404,0.059814,-0.439453,0.706305,0.882609,9.031885,0.444791,1.108654,0.076033,0.059082,0.121094,-0.579346
-3.590346,2.303755,8.274596,-0.142853,-1.140479,0.702423,0.253418,0.127441,-0.573242,-0.298001,1.191708,7.390591,2.186047,0.710526,0.141694,-0.176025,-0.095459,-0.575195,-0.317711,1.50283,10.138478,0.284163,1.057515,-0.730487,-0.106934,0.098633,-0.476807,0.095506,-0.764509,9.348789,-0.172325,1.599324,0.060828,0.03125,0.056152,-0.451416,0.703283,1.186965,9.104454,-0.619039,1.627596,0.322849,0.085693,0.125732,-0.580566
-3.598274,1.405507,9.345942,-0.642751,-1.545739,0.847316,0.223633,0.135254,-0.584473,-1.223902,11.517757,7.653293,0.845649,-0.025423,-0.361655,-0.174072,-0.115723,-0.582031,-1.423919,0.35814,10.110789,-0.309395,-0.111414,0.832873,-0.100098,0.100098,-0.492432,-1.087074,-0.490002,8.773966,0.240766,1.447752,-0.099054,0.041504,0.05127,-0.463379,-1.065991,-1.666944,8.508204,-0.87703,1.364745,0.629228,0.103271,0.133301,-0.578369
-2.266937,1.29467,9.262017,-0.449395,-1.189314,0.936632,0.209473,0.145996,-0.577393,1.403013,6.816508,9.73078,-2.960732,0.118824,0.043624,-0.154785,-0.067871,-0.590088,1.326767,0.167158,8.524859,-0.026701,0.403364,-0.568946,-0.096924,0.108887,-0.498535,-0.410667,-0.117544,9.764582,-0.032682,1.156199,-0.104075,0.049805,0.060059,-0.461182,0.637351,-2.881614,8.206451,-0.058143,1.354929,0.338417,0.121338,0.143311,-0.566895
-1.998857,3.179063,10.346541,-0.930201,-1.460443,1.414861,0.18335,0.161621,-0.593018,-0.30725,1.806684,7.041801,-1.830267,0.597776,-0.292604,-0.140137,-0.044922,-0.618164,-2.053773,-1.421148,8.78192,0.543082,0.667931,0.382755,-0.086914,0.105469,-0.524902,-0.28425,-1.62154,9.718536,0.412488,1.739542,-0.326741,0.063477,0.056885,-0.481201,-1.146634,-1.93207,8.191119,1.171963,1.877277,0.591936,0.148193,0.126221,-0.581299
-1.08261,0.273232,9.649306,-2.183376,-0.924349,1.163347,0.177246,0.212891,-0.581543,-0.470489,3.863972,7.725716,-1.164607,0.455547,-0.265382,-0.12207,-0.012451,-0.612549,-0.517763,-1.271507,9.074852,1.758,-0.534856,-0.249196,-0.092041,0.081299,-0.548584,-2.165012,-1.499956,8.438093,1.81119,1.791809,0.100168,0.087646,0.030273,-0.499756,-1.907171,0.040707,9.164495,1.640275,1.673472,0.006918,0.175049,0.098389,-0.589844
-0.777692,-1.016432,9.181912,-0.903908,-1.035597,1.514154,0.161621,0.222168,-0.584473,-1.545338,2.734403,6.633167,-1.983858,0.190882,-0.053187,-0.115234,0.00708,-0.624756,0.515447,1.634508,8.403245,2.452135,0.647805,-0.201073,-0.06958,0.04834,-0.570312,-2.59571,0.5543,8.02781,2.292776,1.221055,-0.219547,0.111084,-0.001221,-0.517822,-1.812206,-0.054626,9.058943,1.320839,1.669989,0.532082,0.210693,0.074951,-0.594482
0.310289,3.244563,9.78136,-1.116135,-0.081112,1.809601,0.15918,0.24707,-0.578125,-0.057291,2.32112,6.904241,-0.425917,-0.03709,-0.285164,-0.115967,0.016846,-0.619873,-2.067855,3.094008,8.531694,1.306295,0.266852,-0.464521,-0.071533,0.034912,-0.575195,-1.539665,1.548532,7.995943,1.32053,1.403579,-0.236001,0.12085,-0.013916,-0.512939,-2.481853,0.035,8.991833,1.541098,1.628916,0.172549,0.227539,0.054932,-0.585693
-2.993281,0.612149,9.363298,-3.291105,-0.161795,2.327452,0.166504,0.306885,-0.570068,-1.161968,6.707905,8.464025,-1.079073,0.322674,-0.196812,-0.101074,0.0354,-0.626953,-0.082139,2.281127,8.473655,0.896721,0.045843,-0.212398,-0.071777,0.017822,-0.5896,-3.285717,1.083954,8.079512,1.138971,1.594426,-0.395188,0.139648,-0.028809,-0.522705,-2.861741,2.178199,9.280281,1.687136,1.358706,0.762068,0.243652,0.022949,-0.590088
0.618038,-6.722774,6.766387,-1.547336,-0.728183,2.564275,0.16748,0.342041,-0.567627,-0.165323,1.914563,8.249443,-3.313249,-0.220689,-0.619449,-0.100098,0.091797,-0.627441,-1.302716,2.009818,7.666669,0.360159,0.373461,-0.599418,-0.063721,0.009521,-0.589355,-3.258647,3.093786,8.453193,1.387537,0.943324,-0.468655,0.153564,-0.053223,-0.519287,-2.51773,3.850823,9.150227,0.563588,1.349895,0.526109,0.270264,0.009033,-0.577148
-0.14112,-2.662477,9.197455,1.614102,-0.222019,2.787136,0.170654,0.317871,-0.573975,-0.656722,-3.39775,7.455396,-1.253346,0.527335,-0.39748,-0.090576,0.113525,-0.626953,-1.465779,1.652384,8.496445,0.305434,-0.081756,-0.142018,-0.062256,0.009521,-0.603027,-2.439434,3.64743,8.632069,-0.103594,1.284796,-0.368783,0.17334,-0.04248,-0.526367,-3.306405,1.492057,8.607782,-0.576673,1.593889,0.658998,0.295654,0.016846,-0.56958
0.998695,3.408477,10.3694,0.930621,0.0262,2.74748,0.175049,0.306396,-0.572998,-1.54274,-0.827491,7.809891,0.573309,-0.082839,-0.34071,-0.097168,0.107666,-0.62793,-0.411902,1.570453,8.39295,0.497401,-0.028359,-0.470311,-0.069336,0.004639,-0.606689,-3.751765,0.082167,7.453729,-0.528705,1.501314,-0.533712,0.181885,-0.033936,-0.520752,-3.958085,-1.038647,8.175444,0.481602,1.122377,0.616585,0.303711,0.008545,-0.564941
-0.336322,1.523234,9.275571,-1.653785,0.160014,2.206928,0.190674,0.337646,-0.577637,-0.039592,3.422315,8.204156,-0.419929,0.031832,0.017725,-0.092529,0.114502,-0.634277,-0.729778,2.064277,9.250014,0.770847,0.21057,-0.432022,-0.05835,-0.009277,-0.612061,-3.873937,-0.302901,7.792099,1.392463,0.886742,-0.27147,0.204834,-0.05249,-0.529297,-2.696746,1.381609,8.316123,1.540407,1.093702,0.276349,0.326416,-0.015137,-0.561035
1.681408,-1.905101,8.108803,-0.578529,0.508115,2.538391,0.208008,0.348877,-0.575684,-1.22484,1.969612,7.509536,-1.919915,-0.301904,0.047594,-0.096924,0.14502,-0.628174,-0.325725,2.349378,9.078296,0.890166,-0.024785,-0.447996,-0.058105,-0.01001,-0.619141,-2.630143,3.398012,8.322216,2.190268,1.074598,-0.397862,0.219482,-0.072754,-0.523926,-3.296313,2.341181,8.287109,1.008285,1.322059,0.269329,0.342773,-0.025391,-0.553711
0.133307,0.557489,10.038933,0.626356,0.834536,2.321057,0.234619,0.333496,-0.571289,0.479497,-1.885249,8.34695,-2.388855,-0.315376,0.133646,-0.099121,0.179443,-0.616943,-1.392062,2.326319,7.199493,1.146175,0.226106,-0.491372,-0.053711,-0.038086,-0.628174,-4.147125,5.248597,8.173319,1.038584,1.730105,-0.175661,0.247314,-0.098633,-0.525879,-4.276507,2.160003,7.84158,1.339239,1.265878,-0.374257,0.36499,-0.050293,-0.549316
-0.490083,1.990217,10.838719,0.568176,1.473953,1.809494,0.259766,0.320068,-0.580566,-0.592454,-3.980612,6.525192,-1.108253,-0.158603,0.333561,-0.103027,0.197998,-0.621582,-0.826372,3.133498,8.30978,0.720331,-0.634938,-0.217757,-0.066162,-0.048096,-0.63208,-4.825336,3.513038,8.028924,0.097283,1.011094,-0.337054,0.258301,-0.094482,-0.524658,-3.483816,3.873907,8.472854,1.363997,0.964214,-0.361037,0.373779,-0.0625,-0.542725
-0.115011,2.140513,9.789635,1.046656,1.475537,1.374039,0.298828,0.313965,-0.582275,0.482621,-2.03651,8.403482,0.349089,-0.291728,0.24962,-0.098145,0.206055,-0.622314,0.47212,2.082477,7.737885,-0.176338,-0.206016,-0.023495,-0.071533,-0.04248,-0.636475,-2.944659,1.976939,7.197115,0.117305,1.079426,-0.31462,0.270508,-0.088867,-0.521484,-3.385949,4.213639,8.145735,0.091845,1.352774,-0.486099,0.387695,-0.054443,-0.527832
-0.352986,4.779106,8.734427,0.951696,1.883227,1.061692,0.339355,0.289062,-0.571045,-0.409113,0.625448,8.658481,0.485899,0.074337,0.024778,-0.094482,0.19458,-0.616943,-1.199817,0.941849,9.213759,-0.102463,-0.339206,-0.045912,-0.067871,-0.038086,-0.637695,-4.77257,2.849449,7.700138,0.453726,1.672402,-0.19985,0.303223,-0.093018,-0.511719,-4.839158,2.587451,7.661905,-0.276707,1.275065,-0.084976,0.416748,-0.048584,-0.516846
-1.890392,4.618579,10.272828,0.886225,2.340937,0.866813,0.376465,0.279297,-0.575928,-1.406498,-0.082683,8.634277,-0.709663,-0.202364,0.00023,-0.097656,0.211914,-0.625,-0.17528,1.97958,8.997289,0.526787,-0.38498,0.193463,-0.078125,-0.047852,-0.636963,-6.052602,3.441128,7.077484,-0.338149,1.162581,-0.291781,0.3125,-0.091553,-0.504395,-4.943302,2.197851,7.41377,0.213393,1.202495,-0.498067,0.428223,-0.051514,-0.50293
-4.068374,6.416161,10.79517,1.342643,2.708663,-0.565711,0.421387,0.268555,-0.562256,-0.491035,-3.137931,8.584689,-0.890774,-0.570509,0.509917,-0.10498,0.234131,-0.615967,-1.248121,4.044898,8.282829,0.520579,-0.010883,-0.290038,-0.076904,-0.056152,-0.649658,-5.078597,1.399878,6.791792,-0.300408,1.064057,-0.044673,0.331787,-0.086426,-0.512695,-5.640185,2.873685,7.873427,0.262921,1.26814,-0.407036,0.44458,-0.056152,-0.501465
-3.094865,7.591725,10.134506,0.041934,2.516726,-1.677027,0.462646,0.267822,-0.550781,0.709448,-1.94283,8.650072,0.158509,-0.156073,0.36901,-0.098633,0.219971,-0.620117,-0.370163,3.439151,8.919031,-0.818108,-0.667437,0.493523,-0.092285,-0.041748,-0.643311,-5.611438,3.387557,6.847833,1.202551,1.22662,-0.264411,0.343506,-0.097412,-0.491699,-5.228459,3.637809,8.16476,0.277012,0.842474,-0.310819,0.450928,-0.04834,-0.484619
-1.636335,6.423282,6.747868,-0.43979,2.680264,-1.966983,0.49292,0.294189,-0.526367,-0.647742,-1.540199,9.395106,-0.612596,-0.042962,0.36409,-0.104004,0.237061,-0.611572,0.580517,0.020859,8.338438,-1.282945,-0.295835,0.665761,-0.107178,-0.012939,-0.643311,-5.446399,6.503202,7.560732,-0.890396,0.890264,-0.176636,0.348633,-0.078125,-0.487793,-4.386678,4.531595,8.414855,-0.821598,1.191642,-0.481206,0.458496,-0.0271,-0.470703
-3.611151,5.086613,6.162753,-1.444648,2.800309,-2.700208,0.526367,0.3396,-0.49585,-0.763076,-2.630373,9.048307,0.081591,-0.288745,0.042273,-0.11084,0.233398,-0.611816,-0.651409,-0.159976,8.656092,-0.029826,-0.048101,0.402183,-0.104492,-0.016357,-0.65332,-5.233065,1.447334,6.488349,-2.846563,1.145274,-0.164653,0.366699,-0.041748,-0.486328,-6.353818,1.865358,8.58941,-1.574138,1.093111,-0.382745,0.4729,-0.005615,-0.468994
-4.171516,2.620375,4.706562,-2.060312,2.554482,-2.545546,0.559326,0.396484,-0.464355,-0.146401,-1.160337,10.360151,0.80304,-0.085149,0.195287,-0.102783,0.227051,-0.61792,-0.418648,2.658222,9.521845,0.281658,-0.164037,0.532869,-0.098145,-0.025146,-0.654053,-6.71864,-2.749027,5.504141,-0.761234,1.049533,0.182917,0.387207,-0.036621,-0.478271,-5.942437,-0.097949,8.782617,-0.473306,0.504251,-0.557743,0.487549,-0.000732,-0.4646
-5.737476,0.809732,4.264196,-0.886555,2.216258,-3.459992,0.562012,0.438477,-0.4375,-0.767543,-0.662273,10.629519,0.369409,-0.279798,0.300833,-0.112305,0.221191,-0.62085,0.541042,2.435027,9.366013,-0.34653,0.161775,0.383336,-0.096436,-0.012207,-0.642822,-6.440072,0.561792,6.455991,1.322374,0.101165,0.366007,0.39209,-0.056641,-0.470703,-5.191683,1.358686,9.24242,0.264789,0.467543,-0.468585,0.492188,0.005371,-0.449463
-4.897627,3.691746,4.519917,-0.658645,1.898754,-3.91807,0.565918,0.480225,-0.422119,0.118124,-0.331136,10.67136,0.395262,-0.153884,0.583787,-0.102051,0.212402,-0.632568,-0.604224,1.65007,8.807297,0.211035,0.623779,0.239865,-0.088867,-0.012207,-0.662842,-5.043189,3.881734,6.885753,0.144293,0.359034,0.196184,0.393799,-0.053467,-0.484619,-5.959621,2.102721,9.321743,-0.179305,0.371304,-0.336815,0.492188,0.016602,-0.463135
-6.725831,2.088389,3.162016,-2.609147,1.402016,-4.209473,0.535156,0.54248,-0.382812,-0.655691,0.767321,10.625273,0.254762,-0.041984,0.279446,-0.114502,0.204102,-0.628662,-0.887329,2.416289,8.803995,-0.124396,0.525424,0.170517,-0.082764,-0.009766,-0.658691,-7.121302,2.17589,6.424629,-1.183552,0.627201,0.246599,0.39917,-0.041748,-0.473389,-6.310002,1.454878,8.785548,-0.428933,0.005912,-0.156943,0.490234,0.024902,-0.456543
-5.987962,-3.668507,0.646934,-2.672312,0.910092,-3.79045,0.513184,0.616943,-0.340576,0.554196,0.032305,11.323947,-0.434361,0.242632,-0.078326,-0.101562,0.219727,-0.623291,-0.441439,0.677782,8.405137,-1.111774,0.475929,0.804709,-0.073242,0.008545,-0.66626,-7.141438,0.972997,6.396023,-0.623388,-0.41516,0.119754,0.395996,-0.035156,-0.484863,-5.859357,2.309728,9.05171,-0.305361,-0.20151,-0.27661,0.490479,0.029541,-0.46875
-7.634108,-6.302808,1.929985,-2.100561,-0.180403,-3.484333,0.472656,0.659912,-0.320312,-0.398679,-2.890419,7.482021,0.741705,0.520011,-0.099624,-0.092773,0.205322,-0.63501,-0.662152,-0.780562,8.094181,-0.017639,0.702137,0.415007,-0.061035,0.01001,-0.661377,-5.012838,1.19304,6.476723,-0.524234,-0.427583,0.5126,0.393311,-0.031982,-0.480469,-5.880046,1.501269,9.178354,-1.089537,-0.341512,-0.300065,0.486084,0.047852,-0.468018
-1.547335,-7.558012,1.557527,-0.34722,-0.192456,-3.820921,0.42334,0.691895,-0.317627,-0.289142,3.656293,11.220857,2.533829,0.786595,-0.512358,-0.080322,0.168457,-0.648926,-1.032085,1.333126,8.352389,0.985006,0.863654,0.356127,-0.046631,-0.009033,-0.664307,-6.475382,0.77713,6.287919,-0.303415,0.123828,0.746187,0.397705,-0.038818,-0.477295,-6.574028,-1.014102,8.893483,-0.292094,-0.421609,-0.703799,0.478027,0.055908,-0.473389
-4.139636,-4.585827,3.606258,-0.265213,-0.676584,-3.742862,0.357178,0.704834,-0.31543,-2.160345,2.64728,10.924209,-1.342369,0.492276,0.402948,-0.081543,0.183838,-0.644531,-2.161349,4.486971,8.42383,1.529758,0.973474,-0.16453,-0.023438,-0.028809,-0.664795,-8.110613,-0.59267,6.254549,0.393185,-0.692978,0.944683,0.397705,-0.049316,-0.489014,-6.885597,-0.484571,9.381199,1.091285,-0.836735,-0.750822,0.474365,0.053955,-0.48999
-2.97026,-5.016152,4.58132,-0.767387,-0.543183,-4.174782,0.306396,0.726807,-0.308105,1.076401,-3.894259,9.153106,0.019166,0.368059,0.200389,-0.062744,0.187744,-0.649902,-1.108519,5.621112,8.428245,0.345563,0.854373,0.04287,-0.005127,-0.043945,-0.668457,-6.142007,2.316088,6.31618,1.942018,-1.475598,0.623388,0.378906,-0.087891,-0.506104,-5.627497,2.065422,9.310975,1.316812,-1.204502,-0.207093,0.459473,0.029053,-0.510742
-4.956755,-5.297795,4.587275,-1.435752,-1.347444,-4.276323,0.23291,0.745605,-0.276855,-0.760012,3.135295,9.717597,2.588821,1.551253,0.20784,-0.039307,0.14917,-0.653809,-1.823044,2.756998,7.983802,-0.959872,0.935765,0.286156,0.003662,-0.027588,-0.666748,-4.946032,6.243553,7.486583,0.03878,-0.974557,0.449169,0.361084,-0.091797,-0.515137,-5.376217,3.213073,9.299683,-0.303796,-0.992218,0.030462,0.440918,0.03833,-0.525635
-0.646241,-7.639753,2.897805,-2.069904,-1.749656,-3.615662,0.158203,0.768311,-0.25,-2.11065,8.243694,9.825783,-0.344083,0.836862,-0.385631,-0.030518,0.157471,-0.655029,-1.853214,0.412364,7.847604,0.035394,0.945,0.003709,0.01709,-0.028076,-0.668213,-6.595926,1.378593,6.54873,-2.412053,-0.905904,0.291653,0.348145,-0.0625,-0.522461,-6.464657,0.008356,8.190016,-0.804679,-1.280116,0.442778,0.425049,0.043701,-0.538818
-0.399434,-10.896444,2.182913,-0.703155,-1.488241,-3.528276,0.093506,0.757568,-0.236084,-0.560197,0.131697,7.166894,-2.461282,0.953317,0.120144,-0.018066,0.189453,-0.64502,-1.940626,4.503058,8.087112,1.190568,1.161413,-0.436872,0.038574,-0.043701,-0.671631,-6.257494,-2.610245,6.376904,0.141838,-1.541874,0.297911,0.324463,-0.063965,-0.540771,-5.370748,-1.419891,8.347026,0.325586,-1.480586,0.165795,0.402588,0.040039,-0.563965
-1.806413,-9.602972,3.231658,0.62136,-2.104045,-2.83577,0.043213,0.75,-0.238525,-2.13769,-1.912268,8.22908,1.812582,0.869691,-0.22059,0.004395,0.17041,-0.656982,-2.722078,5.958202,8.467939,-0.23661,1.028656,-0.298054,0.070557,-0.032959,-0.668213,-5.262439,2.426888,6.984868,2.344148,-1.810286,0.302165,0.313477,-0.094727,-0.551514,-5.210734,0.542387,8.457031,1.162757,-1.369159,0.67535,0.396729,0.021973,-0.578369
-1.003844,-8.423306,4.216822,0.584378,-2.553414,-2.817283,-0.013916,0.730225,-0.239258,-0.752194,8.35853,10.166743,1.530461,1.051635,-0.294845,0.02417,0.147705,-0.664307,-2.744717,3.131332,7.424054,-0.922193,0.835833,-0.226526,0.075195,-0.027588,-0.661377,-4.921377,6.665824,8.093353,0.023273,-1.498948,0.008078,0.281494,-0.105225,-0.557617,-5.568469,2.805552,8.539276,0.26933,-1.459588,0.698578,0.363037,0.001465,-0.591309
0.683102,-7.343977,3.039729,0.737752,-3.245584,-2.194828,-0.063477,0.713379,-0.224609,-2.298557,5.964754,7.931924,-2.759057,1.124981,-0.296643,0.046387,0.19458,-0.648926,-2.623746,2.922912,7.171351,-0.097367,0.874631,-0.596133,0.07959,-0.022461,-0.669678,-5.033466,3.498515,7.420822,-1.880713,-1.620428,-0.166115,0.246826,-0.072266,-0.581299,-5.083871,2.375214,8.538505,-0.62799,-1.653008,0.940559,0.327637,0.009521,-0.615479
3.044713,-9.335544,1.338654,0.603234,-3.34674,-1.850367,-0.124268,0.682617,-0.21582,-1.239262,-2.431718,4.575083,-1.962932,0.915007,-0.224944,0.050049,0.219971,-0.645996,-2.801625,5.510935,7.884489,-0.625702,0.74347,-0.55593,0.0979,-0.010742,-0.665039,-3.800647,1.059035,7.580648,-0.817378,-1.834872,-0.266803,0.226074,-0.057373,-0.590088,-4.165826,1.140411,8.483403,-0.895346,-1.631528,0.606381,0.306396,0.020508,-0.629395
0.793198,-11.394309,1.502722,3.062646,-3.163844,-0.941784,-0.156494,0.659912,-0.209961,-3.337005,0.316159,3.728369,0.742345,0.919953,-0.187091,0.061035,0.213135,-0.633545,-2.956384,2.654276,7.532774,-1.903847,0.419591,-0.347733,0.108887,0.031982,-0.661133,-3.477761,2.714208,8.468204,0.063919,-1.617362,-0.142683,0.205322,-0.045166,-0.595459,-4.096699,0.842732,8.760028,-0.440026,-1.544643,0.58767,0.285645,0.037109,-0.636963
1.984016,-5.647775,3.2682,3.984084,-3.341105,0.206921,-0.180908,0.622314,-0.232178,-2.73909,3.746077,5.508828,-0.656174,0.001466,-0.28719,0.060059,0.218018,-0.634521,-2.953671,-0.928649,6.742709,-0.505889,0.297994,-0.34431,0.107178,0.026855,-0.654297,-3.411693,3.800351,8.965936,-0.306595,-1.732971,-0.134573,0.174072,-0.056396,-0.60083,-3.691897,1.284426,8.978664,-0.09878,-1.763164,0.141597,0.251221,0.020996,-0.651123
2.736092,-7.249891,2.130073,3.459521,-3.297404,0.819263,-0.201416,0.606934,-0.242432,-2.020897,-0.430113,6.347523,-1.474018,0.311112,-0.266058,0.062256,0.248047,-0.630615,-3.352643,2.642648,7.764,0.814012,0.261188,-0.705811,0.112549,0.014404,-0.650879,-2.693285,3.463944,8.619434,-0.493253,-1.685308,-0.036275,0.147949,-0.049316,-0.605225,-3.101807,2.151696,9.12585,-0.126132,-1.557561,-0.283031,0.22168,0.027588,-0.65918
5.255426,-7.422952,2.200719,4.292067,-3.853915,1.549172,-0.214844,0.583496,-0.24292,-3.66975,-0.601815,6.844857,-0.055392,0.201825,-0.611412,0.064209,0.248779,-0.619873,-3.884762,4.262965,8.838236,-1.238026,-0.066924,-0.121872,0.110596,0.042969,-0.64624,-3.038378,3.290187,8.666209,-0.880502,-1.399481,0.074113,0.123047,-0.023926,-0.608887,-3.974101,2.103488,9.205863,-0.924511,-1.631727,-0.650659,0.187012,0.052002,-0.666992
5.937765,-5.991532,2.190501,5.833363,-3.04019,1.792618,-0.219482,0.555176,-0.275146,-3.041529,0.501069,6.173392,-1.165318,-0.12473,-0.34236,0.0625,0.266113,-0.617676,-3.672724,0.216742,7.050666,-1.424262,-0.399708,-0.069699,0.099365,0.067627,-0.652832,-3.195545,2.211382,8.885905,-1.149966,-1.671032,0.051406,0.091553,-0.003906,-0.614258,-2.963634,0.2595,8.807144,-1.07905,-1.899774,-1.000902,0.147949,0.074951,-0.677002
6.217592,-1.225395,2.611216,6.411329,-2.903864,2.308874,-0.221436,0.51416,-0.305176,-2.426849,-2.908298,5.375572,-1.320607,-0.367938,-0.067894,0.059082,0.2854,-0.611084,-2.571921,1.167517,7.765472,-0.076656,-0.404559,-0.498562,0.087646,0.064941,-0.648193,-1.200851,1.175069,9.263825,-1.013808,-1.936167,-0.038002,0.056885,0.006348,-0.615234,-1.528754,-0.640724,9.16247,-0.757077,-1.861464,-1.196843,0.102539,0.085205,-0.680664
6.148487,0.639612,3.463567,5.709972,-2.16915,2.246849,-0.230469,0.483398,-0.331299,-2.377956,-2.386131,5.818454,0.403538,-0.429514,-0.120904,0.050293,0.281006,-0.616455,-2.801314,1.451803,9.422086,-0.648112,-0.44398,-0.064981,0.086914,0.076172,-0.643799,-0.275341,0.172781,9.540395,-0.470801,-1.365113,-0.036362,0.038818,0.015625,-0.617432,-1.055998,-1.615453,8.901984,-0.228391,-1.587751,-1.538351,0.070801,0.091553,-0.683594
5.745795,0.905437,5.395164,4.450918,-2.018075,2.420503,-0.241943,0.457275,-0.330566,-2.728527,-0.847517,7.343641,-0.045531,-0.86082,-0.013816,0.028076,0.277588,-0.611328,-3.139815,-0.513134,8.103226,-0.075433,-0.748304,-0.117778,0.072266,0.075195,-0.644775,-1.717057,0.945456,9.570415,0.555535,-1.229549,0.008281,0.01709,0.006592,-0.61792,-1.792019,-0.256398,9.066331,0.956244,-1.522275,-1.693931,0.038086,0.072021,-0.685059
7.431906,-2.229344,4.949184,4.655181,-1.580493,2.424187,-0.242676,0.428467,-0.344727,-0.87474,-1.644581,6.144466,0.040291,-0.825807,-0.04989,0.016113,0.275146,-0.605225,-2.267065,0.462574,7.654652,0.437395,-0.939959,-0.075979,0.056885,0.072021,-0.64917,-0.899662,2.739007,9.562242,0.324537,-1.850664,0.040411,-0.012451,0.000732,-0.623047,-1.13978,2.757512,9.513707,0.92865,-1.780423,-1.855587,-0.000488,0.055664,-0.692383
5.117544,3.076914,6.391396,5.361435,-1.012328,2.376355,-0.238525,0.392334,-0.357666,-2.026869,-0.821118,6.147996,0.199647,-0.683789,0.092291,0.007324,0.271729,-0.602539,-2.415643,2.026893,8.242762,0.461672,-0.974998,-0.018538,0.044434,0.070557,-0.649902,0.606931,1.974008,9.278981,-0.506619,-1.42735,0.103566,-0.033447,0.017334,-0.620605,-0.192547,2.742953,9.589218,-0.124673,-1.593794,-1.49617,-0.034912,0.058594,-0.688232
4.579301,1.358759,7.250324,3.248748,-0.378866,2.170544,-0.230713,0.377441,-0.373291,-2.671921,-1.986057,6.339498,-0.124406,-1.237943,-0.069996,-0.008789,0.27002,-0.604248,-2.603416,2.41327,9.856027,-0.789987,-1.171485,-0.050987,0.025635,0.071289,-0.644043,-0.996986,1.1997,9.582098,-0.62794,-0.987181,0.011821,-0.050781,0.01709,-0.614502,-1.10437,0.814411,9.108623,-0.505977,-1.494144,-1.404476,-0.068359,0.051758,-0.684814
7.374544,-0.240249,6.615754,4.187711,-0.096979,2.193269,-0.22876,0.353271,-0.39624,-1.659241,-4.290766,8.301205,0.050942,-1.509212,0.035105,-0.04248,0.273682,-0.610596,-2.757228,-2.231424,8.648153,-1.522557,-1.338489,0.49476,0.00415,0.100586,-0.642578,-1.313815,0.534583,10.140451,-0.53896,-1.518269,0.077052,-0.076172,0.031982,-0.613525,-0.958784,0.121927,9.202918,0.237717,-1.638869,-1.444429,-0.104736,0.052002,-0.682129
5.823548,1.76534,8.460405,4.098392,0.624436,1.746186,-0.211182,0.321045,-0.411377,-0.130551,-4.482909,7.701185,1.469412,-1.382413,0.08453,-0.052979,0.246338,-0.613525,-1.362334,-3.628369,7.987104,1.034787,-1.536643,0.159931,-0.025879,0.088135,-0.633057,0.291916,-0.274855,9.386979,0.208537,-1.722074,0.291942,-0.108154,0.030273,-0.603516,-0.291333,1.141493,9.5327,1.081769,-1.535261,-1.496352,-0.143066,0.024658,-0.669922
6.041666,4.444599,10.373621,4.013572,0.68513,1.12042,-0.214355,0.276367,-0.417236,0.093808,0.460416,7.916939,2.510399,-1.33626,0.296565,-0.08667,0.203857,-0.609131,-0.466216,3.931535,9.237883,1.982148,-1.14407,-0.108487,-0.040527,0.052734,-0.644043,1.466159,1.300296,9.276062,0.872957,-1.528015,0.418335,-0.128418,0.015625,-0.608643,1.253059,2.066957,9.541788,0.736099,-1.641313,-1.449147,-0.174072,0.00293,-0.669922
6.978491,6.165265,9.306639,3.050503,1.6443,0.220593,-0.196289,0.238525,-0.444092,0.331955,0.226871,8.893622,-0.287368,-1.5967,0.540066,-0.110596,0.206299,-0.610352,-1.895763,4.776579,10.034065,-0.95645,-1.4609,0.542823,-0.060059,0.070557,-0.625244,1.110058,2.776878,10.139175,0.064615,-1.292904,0.242891,-0.146973,0.019287,-0.594971,1.693632,0.721072,8.639429,0.193815,-1.342776,-1.253772,-0.199707,-0.006348,-0.651367
5.805838,5.513588,11.336922,1.904615,1.94854,-0.181928,-0.164551,0.205566,-0.458252,0.143659,-3.609516,10.690578,0.986558,-1.316952,0.516836,-0.122803,0.1875,-0.604004,0.284059,-2.680697,11.082586,-2.079946,-2.087034,0.781319,-0.085693,0.100342,-0.61792,1.191037,1.012941,10.008876,-1.141635,-1.278879,0.176121,-0.165283,0.032715,-0.58667,0.346992,0.956075,8.134777,0.974371,-1.186069,-1.397584,-0.219238,-0.038818,-0.647705
5.26802,4.217623,11.403112,2.370851,2.734757,-0.672616,-0.135742,0.173584,-0.48291,-1.19564,-0.926662,9.409863,2.069175,-1.663815,0.483256,-0.153076,0.167725,-0.600586,-0.753757,-5.095271,8.843768,1.081767,-0.697423,0.281845,-0.093506,0.086182,-0.621094,0.210707,-2.103209,9.573333,-0.302989,-0.885339,0.496058,-0.176514,0.04541,-0.589111,0.437524,2.837994,9.727388,0.967341,-1.382359,-1.158045,-0.244873,-0.05835,-0.641113
4.981726,7.563218,12.717527,2.575137,2.677923,-1.643249,-0.088867,0.120361,-0.496094,0.716851,-0.519204,9.67942,0.883213,-2.038795,0.564725,-0.175781,0.148193,-0.589844,-2.581052,2.672149,10.948159,2.046926,-1.245313,-0.036484,-0.113037,0.061279,-0.609375,0.048381,-0.667889,10.57954,1.247728,-1.621231,0.452917,-0.199707,0.031738,-0.573242,2.730503,1.411381,8.86794,0.354439,-1.335255,-0.692474,-0.265381,-0.066162,-0.61792
5.991592,9.281895,14.069021,0.604313,3.057272,-2.209797,-0.041016,0.087891,-0.520264,3.594798,-3.749334,12.027054,1.26888,-1.523751,0.987209,-0.200684,0.123535,-0.587402,1.040086,3.255653,10.501412,-0.258138,-2.269088,1.27619,-0.146729,0.059814,-0.601807,3.331085,1.993451,10.580434,1.157148,-1.752965,0.406737,-0.230469,0.011475,-0.566162,3.277494,-0.217541,7.497401,1.257992,-0.571716,-0.79052,-0.280762,-0.101562,-0.611816
3.973459,4.213245,12.174768,-0.102766,2.912023,-2.586112,0.00708,0.077637,-0.529785,1.965199,0.902303,12.467488,4.036513,-0.619306,1.029985,-0.206787,0.070068,-0.580322,0.449728,-1.860207,10.561485,-0.314922,-0.968971,0.358413,-0.157959,0.052979,-0.590332,3.254562,0.899263,10.015732,-0.115925,-0.403976,0.446215,-0.234131,0.005371,-0.562988,2.630453,2.852157,6.902495,2.322442,-0.526069,-0.716637,-0.285645,-0.155029,-0.597656
2.109135,4.876574,11.303697,1.239572,2.892411,-2.33904,0.057617,0.052734,-0.54126,-0.080822,7.276088,12.512376,2.171335,-0.634895,1.226837,-0.218262,0.052246,-0.574951,-1.740864,0.151224,11.648378,1.780445,-1.522238,0.409107,-0.174561,0.03833,-0.590576,-0.133278,-1.591398,9.654243,-0.237828,-0.257995,0.304599,-0.23291,0.019775,-0.560059,3.506477,6.871346,7.207879,1.446691,-0.423676,0.353829,-0.292236,-0.166016,-0.591064
2.800068,8.992186,11.456044,1.685111,3.008475,-2.386311,0.110107,0.010986,-0.544922,0.010126,4.424361,10.172886,0.613895,-0.915548,0.804459,-0.238525,0.040527,-0.568604,1.232703,3.293958,11.938871,-0.154935,-1.600551,0.252294,-0.208252,0.04834,-0.581299,1.410986,-1.560273,9.197562,0.599602,-1.169188,0.251185,-0.258057,0.017822,-0.557861,3.342882,5.152344,6.97749,-0.713036,0.026568,1.591305,-0.307129,-0.132324,-0.598145
2.32528,11.609585,11.827033,-0.460167,3.72681,-2.484198,0.184814,0.014404,-0.546631,1.23998,2.967736,10.284014,1.324256,-1.057122,0.518595,-0.249023,0.023193,-0.553467,-0.270072,-0.383745,9.93949,-1.226619,-1.108661,0.616623,-0.213867,0.056641,-0.580322,4.045294,1.324731,9.577305,0.471962,-0.249632,0.133614,-0.256104,-0.003174,-0.568115,2.555285,1.843263,5.767327,-0.597947,-0.002605,2.156927,-0.303955,-0.114746,-0.60791
-0.466429,6.287233,10.269965,-1.739033,4.168711,-2.251828,0.26416,0.049316,-0.551025,1.995018,3.33545,10.360075,1.971337,-0.569246,0.078609,-0.256836,-0.001709,-0.543213,1.107739,-1.381775,9.508005,-0.188204,-1.888874,0.088635,-0.238281,0.0625,-0.557617,1.910534,1.390451,9.779344,-1.381364,0.838949,0.158546,-0.240967,0.023682,-0.560059,2.868169,2.445141,6.82908,-0.265178,0.057136,2.511256,-0.305664,-0.085449,-0.60083
-2.520996,4.094677,9.085434,-0.837474,3.966535,-2.13704,0.33252,0.062744,-0.551025,1.386906,5.300294,12.310705,2.093616,-0.765302,0.18199,-0.272461,-0.032471,-0.535645,3.05357,1.18939,11.004916,0.433547,-1.241878,0.203746,-0.256348,0.060791,-0.545654,0.384855,-3.45141,8.665652,-1.604509,0.00813,-0.140576,-0.24585,0.049316,-0.549072,4.111625,1.626684,7.507299,-0.680419,0.494689,3.290788,-0.303467,-0.039062,-0.604004
-4.381066,4.30827,8.695757,0.133558,3.860153,-2.128131,0.391846,0.070557,-0.538818,3.947975,7.010494,12.466504,2.036501,-0.517005,0.142763,-0.288818,-0.057129,-0.529785,3.309758,1.461882,11.25076,0.311607,-0.963366,-0.102623,-0.271729,0.053955,-0.538086,3.792349,-4.153654,7.472022,1.459369,-0.557496,-0.317842,-0.256104,0.02832,-0.549561,2.404392,-0.675232,6.965275,0.040399,0.982827,3.89893,-0.28418,-0.00293,-0.611572
-5.350367,7.081827,8.813199,0.40513,3.652449,-2.251883,0.456055,0.07251,-0.503906,2.43617,9.134756,11.712419,0.996775,-0.129326,0.156455,-0.291504,-0.074219,-0.512695,4.570467,0.385834,10.154515,0.598206,-0.615806,0.085512,-0.272217,0.041992,-0.535889,4.451882,1.66236,8.422827,2.355829,0.372077,-0.233134,-0.241699,-0.019043,-0.556396,2.640595,-0.108359,7.575967,0.962277,0.562152,3.725648,-0.264893,0.007812,-0.616455
-6.72257,6.956142,7.499514,-0.452225,3.426343,-2.097442,0.508301,0.09668,-0.493652,3.100624,8.334381,11.393668,0.151714,-0.453007,-0.193192,-0.299805,-0.078613,-0.518799,3.794486,1.085871,10.277216,1.046157,-0.033479,-0.445974,-0.289795,0.021973,-0.536133,2.690556,3.454669,8.368194,0.27731,0.464243,-0.451995,-0.249268,-0.025146,-0.562744,2.498332,1.841957,7.228214,1.339141,1.020428,3.899822,-0.255371,0.019287,-0.62793
-7.806413,7.316751,7.165697,-1.449787,3.369191,-1.910057,0.564941,0.137939,-0.458252,3.779858,7.649074,11.2127,-0.102228,-0.177389,-0.333354,-0.299805,-0.079102,-0.511963,4.622046,2.796516,10.182138,1.101591,-0.076981,-0.155824,-0.288574,0.006104,-0.536133,3.835584,0.718252,8.031649,0.025743,-0.130776,-0.119774,-0.248291,-0.026611,-0.556152,2.094494,3.461306,9.045124,0.672408,0.614559,3.388174,-0.235107,0.035645,-0.635498
-9.988244,2.895443,5.053355,-2.96808,2.744593,-1.764224,0.60376,0.194824,-0.428711,3.850346,6.168842,11.876121,-0.282703,-0.13849,-0.407538,-0.297119,-0.080322,-0.507568,4.661125,4.03253,10.798497,0.669479,0.520273,-0.481143,-0.277832,-0.010498,-0.539795,4.688584,0.958738,8.436706,1.295377,0.448134,-0.386587,-0.234619,-0.056396,-0.561279,3.733838,0.932252,8.28475,-0.110222,0.780964,4.104746,-0.205078,0.062012,-0.638916
-8.793249,-0.923103,3.53886,-1.540913,2.686387,-1.496094,0.629639,0.242676,-0.414062,4.287555,5.375453,10.874173,0.035852,0.230532,-0.401819,-0.302002,-0.074951,-0.522949,3.77829,2.806885,9.83116,0.274068,0.709225,-0.289098,-0.266113,-0.007324,-0.544189,3.150339,3.718179,9.389612,1.304631,0.711405,-0.214412,-0.221191,-0.069336,-0.565674,1.646033,-0.770541,8.380939,0.81027,1.014614,3.428962,-0.172852,0.078857,-0.645264
-11.22541,-0.212167,3.799932,0.24441,2.353506,-1.71829,0.666748,0.244141,-0.378662,2.076516,5.06344,11.435778,0.095253,0.524991,-0.440173,-0.287842,-0.097412,-0.52124,2.195682,2.551318,9.55798,0.5485,0.821145,-0.529723,-0.270508,-0.022705,-0.552002,1.894455,4.326055,9.362297,0.242692,0.473346,-0.30832,-0.226562,-0.077637,-0.572754,1.969433,1.368555,9.0558,0.968587,0.490399,3.250143,-0.16748,0.07959,-0.653564
-12.684076,4.417431,5.390785,0.954003,2.434924,-1.852809,0.69043,0.262939,-0.351318,2.398794,6.35003,10.662467,0.850336,0.535916,-0.678786,-0.279541,-0.109863,-0.524414,2.253918,4.357757,11.699737,0.370018,0.792778,-0.448204,-0.248291,-0.037842,-0.548584,2.258428,3.207504,9.504438,-0.382494,0.448931,-0.447352,-0.206055,-0.080322,-0.56665,2.131541,0.76258,8.293435,-0.227212,1.032566,2.866749,-0.127686,0.092529,-0.649902
-9.63121,5.897319,5.14471,-0.910231,1.534187,-2.336996,0.698242,0.303467,-0.329834,2.365211,8.404295,11.139334,-0.262344,0.436841,-0.425428,-0.273926,-0.111084,-0.535889,2.809935,3.556746,10.697696,-0.285321,0.781972,-0.267345,-0.240967,-0.027588,-0.55957,2.849717,1.934159,8.939823,0.15839,0.647642,-0.289079,-0.200684,-0.076416,-0.570801,2.051747,-0.810622,8.214358,0.505521,0.748241,2.658716,-0.107666,0.105469,-0.656006
-10.560104,1.73015,3.274732,-1.743375,2.082191,-2.494204,0.702637,0.35376,-0.302979,3.218589,6.45484,10.187566,-0.875949,0.667044,-0.785788,-0.266846,-0.109375,-0.553711,2.76699,1.706455,10.478768,0.150048,1.176667,-0.3977,-0.225098,-0.045654,-0.56665,2.629707,3.116209,9.193766,0.887622,0.983532,-0.379728,-0.18335,-0.105225,-0.57373,2.872047,-0.381374,8.753284,0.851836,0.813638,2.288095,-0.080811,0.087646,-0.658447
-10.184773,2.002609,2.933434,-1.055,1.73718,-2.416553,0.715576,0.400146,-0.274902,1.622332,5.502274,9.845276,0.024564,0.522874,-0.668404,-0.254883,-0.114014,-0.557373,2.334537,2.770152,10.660006,1.206142,1.196807,-0.449909,-0.199951,-0.05835,-0.575684,2.170618,3.162162,8.835137,0.363505,1.038009,-0.351894,-0.157471,-0.108887,-0.582275,1.794852,-1.873845,8.248935,0.674443,0.957038,1.801966,-0.051025,0.083496,-0.665771
-11.638471,-0.716607,1.390525,-1.385154,1.485507,-2.669391,0.713379,0.443604,-0.240723,4.215362,8.422521,11.493433,0.681027,0.466458,-1.227911,-0.241455,-0.138916,-0.563232,2.338697,4.708638,10.036124,1.257701,1.608237,-0.664077,-0.18335,-0.074219,-0.589111,2.1168,1.954705,8.326983,0.847122,1.3052,-0.500015,-0.141357,-0.11792,-0.586914,1.624353,-1.788771,7.972448,2.16831,0.44751,1.432761,-0.043457,0.057373,-0.672852
-11.444949,-0.73756,1.38739,-0.095978,1.013087,-2.479862,0.696533,0.475342,-0.223389,1.650239,9.070465,10.421641,-1.42482,1.061135,-0.545595,-0.226807,-0.12915,-0.577148,1.436509,6.105321,11.242317,1.236048,1.644944,-0.740575,-0.159912,-0.095947,-0.599121,0.797777,3.55923,9.204324,1.79386,1.511992,-0.529575,-0.11499,-0.149414,-0.59082,2.172,2.540451,9.698868,2.555485,0.728096,1.126941,-0.026123,0.009766,-0.679932
-11.917694,0.262945,1.588229,-0.622806,0.680297,-3.168841,0.685791,0.531006,-0.213135,2.679634,4.909176,8.615984,-1.339308,0.566859,-0.901469,-0.204346,-0.105225,-0.598145,0.265991,5.8944,8.315565,0.622154,2.021193,-0.873474,-0.136963,-0.116943,-0.600342,-0.086783,5.946042,10.129692,1.22461,1.225173,-0.865674,-0.101074,-0.180176,-0.585693,0.785256,2.217604,9.889347,0.66606,0.800457,1.358183,-0.013672,-0.008545,-0.670898
-9.093297,-0.601515,-0.431707,-0.805692,-0.018764,-3.813258,0.65332,0.582764,-0.205322,2.579068,5.400808,10.88671,-0.066093,1.409683,-0.753694,-0.177979,-0.11084,-0.61084,-1.774888,4.935599,9.92425,0.939788,1.145193,-0.75304,-0.104248,-0.135254,-0.600342,0.750037,5.854599,9.336743,0.952951,1.50231,-1.090432,-0.060059,-0.19751,-0.579102,2.625761,-1.534578,9.465423,1.716287,-0.0401,0.674889,-0.000488,-0.040039,-0.664307
-10.730967,-2.509186,-0.867999,-1.361445,-0.003499,-3.933466,0.604736,0.640137,-0.186279,2.075946,7.183778,8.717714,-0.205689,1.330842,-0.764927,-0.155273,-0.105713,-0.618164,1.585063,5.589488,7.617356,1.492062,0.878383,-0.778283,-0.100342,-0.160889,-0.605957,-0.659203,6.292634,8.875826,1.590777,1.691831,-0.687537,-0.043457,-0.226074,-0.579102,4.738248,2.310558,11.264805,3.247364,0.498421,-0.619599,-0.001709,-0.105957,-0.661865
-7.622128,-4.299422,-1.383507,-0.059543,-1.206529,-3.915403,0.543701,0.673828,-0.188965,2.101548,10.040972,7.942647,-0.387746,1.642383,-0.948634,-0.127441,-0.108887,-0.621094,-0.044015,8.607403,9.106434,1.604204,1.733095,-1.211213,-0.059326,-0.185303,-0.609131,-1.306576,8.143255,9.722025,1.360862,0.974336,-0.919946,-0.013184,-0.247314,-0.57959,1.967649,4.731172,12.943594,1.208172,0.507093,-1.143975,0.021973,-0.123779,-0.66626
-7.363326,-5.274988,-1.490311,1.058569,-1.825573,-3.567969,0.490967,0.706299,-0.225586,0.543784,8.869561,7.447442,-2.464134,0.95428,-0.975971,-0.099854,-0.063721,-0.640625,0.136003,9.772108,8.522042,-0.053873,1.109694,-0.911699,-0.041748,-0.182617,-0.61377,-0.070044,8.983332,9.569554,0.069553,0.574225,-0.865493,-0.003418,-0.24292,-0.576904,3.512185,2.720626,11.277598,0.310754,-0.051347,-1.607838,0.020264,-0.131592,-0.659668
-4.901444,-4.22379,-0.059231,2.198797,-2.487838,-3.0851,0.424561,0.707764,-0.270508,2.008489,3.397297,7.66412,-2.519921,1.087261,-1.027538,-0.084473,-0.025391,-0.654297,-0.647065,5.767232,7.592657,-1.795658,1.518688,-0.79841,-0.023438,-0.165527,-0.623047,-0.801348,6.782902,8.800227,-1.119708,0.815602,-0.873838,0.005615,-0.236084,-0.577393,2.703941,3.252572,10.07875,0.801847,0.814262,-2.266521,0.035156,-0.158936,-0.658691
-6.147498,-5.145609,2.320588,1.833912,-3.080654,-3.275927,0.352295,0.705078,-0.302246,-0.287986,2.70347,7.378828,-1.07377,1.350292,-1.118338,-0.060791,-0.004395,-0.657471,-2.446865,1.071519,6.739593,-0.195122,1.155603,-0.690845,0.000977,-0.157227,-0.623291,-1.394873,4.601434,8.831403,-0.095778,0.541142,-0.700181,0.016357,-0.233643,-0.57666,1.326924,5.518612,10.106533,0.904226,-0.136001,-2.577097,0.044189,-0.175293,-0.647217
-1.579552,-5.881615,0.647005,2.984508,-4.25776,-2.610816,0.274902,0.681885,-0.351074,0.542969,6.605154,6.866985,-0.549216,1.227605,-1.320296,-0.033936,0.002441,-0.661621,-1.222438,5.705978,7.880097,1.946439,0.831994,-0.939202,0.016846,-0.19458,-0.621826,-0.742368,6.212518,8.594554,1.012729,0.319764,-0.488073,0.026611,-0.255859,-0.574951,2.78695,6.197348,9.873849,0.508127,0.145712,-2.614653,0.060303,-0.195312,-0.651855
-0.430212,-2.477575,1.985358,2.527555,-4.357938,-2.052124,0.201416,0.668945,-0.378418,-1.828874,6.139001,6.69958,-3.299775,1.200753,-1.054734,-0.010498,0.069824,-0.658447,-2.477005,10.100955,7.483891,0.377171,1.340893,-0.997312,0.044922,-0.191406,-0.620117,-1.61724,8.080948,9.088885,0.071617,0.672869,-0.689537,0.040527,-0.244629,-0.575684,-0.393929,6.214162,10.441662,0.05995,0.509306,-2.480124,0.081055,-0.189941,-0.649658
2.97102,-4.736402,1.892713,2.767688,-4.691328,-1.690969,0.125488,0.632568,-0.402344,-0.661391,-1.801088,4.831395,-2.973581,0.680853,-0.932994,-0.002686,0.121582,-0.652344,-3.112091,6.974198,7.107078,-2.344843,0.241675,-0.467927,0.049805,-0.144531,-0.637695,-2.545741,7.189811,8.645331,-1.252723,0.042645,-0.598847,0.043945,-0.215576,-0.585693,1.163659,6.30331,9.933369,-0.417612,-0.451354,-2.478252,0.080566,-0.171143,-0.654297
1.748349,-4.066868,3.767829,2.491962,-4.745743,-1.128149,0.055908,0.588623,-0.425781,-1.2706,-0.260583,6.316016,-0.079171,1.033185,-0.768289,0.018555,0.120117,-0.665039,-1.22771,1.355931,5.457582,-1.651532,0.48616,-0.487421,0.054443,-0.121338,-0.644043,-0.70064,4.956981,8.200908,-1.653578,-0.358449,-0.483355,0.033447,-0.195557,-0.594727,1.773258,5.420895,9.670338,-1.518056,0.663789,-2.87532,0.099365,-0.150879,-0.663574
6.579453,-6.075938,4.111794,3.390899,-4.970845,-0.918728,-0.025879,0.544434,-0.425293,-1.383739,4.43922,6.864899,-1.145136,0.759304,-0.592945,0.018066,0.145996,-0.654053,-2.802411,3.398855,7.189842,0.454076,0.749378,-1.073805,0.072266,-0.139648,-0.640625,0.134427,2.937042,8.116798,-0.994302,0.170182,-0.480646,0.038818,-0.188721,-0.594238,-1.746681,2.128379,9.731267,-1.222039,0.24641,-2.615648,0.112549,-0.140625,-0.661377
3.921246,-2.538021,6.397462,3.282595,-4.012091,0.199696,-0.072754,0.501953,-0.429443,-2.308752,0.897003,3.950847,-3.058091,0.566314,-0.419549,0.028076,0.19458,-0.644043,-2.441175,4.748279,7.588093,-0.227741,-0.033629,-0.314188,0.067627,-0.126709,-0.648682,-1.63911,2.733763,8.202896,0.282755,0.330376,-0.523844,0.040771,-0.188477,-0.601074,-0.20427,2.769185,9.835291,1.034529,-0.726513,-2.53386,0.102539,-0.1521,-0.667236
6.326351,-7.024376,7.670042,2.226168,-3.638887,0.448825,-0.106934,0.480469,-0.406494,-2.674784,-3.469024,4.440971,-2.744787,0.233703,-0.302218,0.038086,0.244629,-0.61792,-2.355865,1.876372,6.515585,-0.392985,0.330024,-0.404981,0.07959,-0.113037,-0.643066,-2.333901,4.734208,8.511753,0.919735,-0.311013,-0.330741,0.042969,-0.196045,-0.593994,-0.437011,6.994983,10.810219,0.798902,-0.166721,-2.602381,0.114746,-0.155762,-0.661377
5.370341,-3.705447,10.47559,2.430334,-2.46216,1.152967,-0.132812,0.459961,-0.417969,-2.622988,-6.512613,4.158881,-1.42273,-0.021894,0.032507,0.031738,0.264893,-0.622559,-3.469095,2.077139,7.008896,0.076682,0.090321,-0.442876,0.074951,-0.118408,-0.641602,-1.201422,6.777207,8.723522,0.023755,-0.490827,-0.269896,0.025879,-0.199951,-0.592285,-1.352578,6.272819,10.373235,-0.98589,-0.850471,-2.549749,0.098145,-0.144775,-0.663574
5.97013,-6.447458,10.355843,-0.447688,-1.398839,1.464912,-0.138184,0.471436,-0.404053,-1.916411,-5.341117,5.434132,-0.012277,-0.069626,-0.088099,0.030762,0.263184,-0.624512,-2.267712,1.602977,7.06397,-0.79568,-0.347081,0.244159,0.066406,-0.106445,-0.65332,-1.030499,5.082415,8.110121,-1.326049,-0.264728,0.227078,0.017578,-0.181641,-0.609619,-0.099292,4.084533,9.453713,-0.728746,-0.648848,-3.24914,0.094482,-0.134033,-0.678467
4.563094,-10.356172,8.729797,-0.191218,-0.864719,1.955885,-0.135254,0.498047,-0.383057,-2.827387,-2.881722,6.855373,0.198651,-0.033587,0.256464,0.032959,0.265625,-0.611816,-2.35637,0.734013,8.107764,-0.399503,0.101856,0.053185,0.068604,-0.098389,-0.64209,-1.571346,2.351818,8.54218,-0.982896,-0.454151,0.322226,0.010986,-0.161621,-0.601074,-2.651886,4.541703,10.251768,-0.3942,-0.628478,-3.276112,0.087646,-0.122803,-0.669189
5.247724,-11.470233,8.640087,0.416714,-0.286265,2.765526,-0.127441,0.509277,-0.389893,-2.604638,-2.506166,7.750305,-0.29497,-0.538701,0.21322,0.015381,0.26001,-0.614258,-3.18891,2.781953,8.261005,0.512156,-0.176443,0.327393,0.072266,-0.100342,-0.643311,-1.022443,2.859803,8.50356,0.549489,-0.664405,0.45167,0.009033,-0.163086,-0.599609,-1.828079,3.937014,9.779697,-0.399801,-1.437321,-3.231569,0.072998,-0.108643,-0.669678
7.259426,-10.754502,8.800191,2.472749,0.027023,3.185011,-0.098145,0.51001,-0.411377,-0.510475,-2.559551,9.576563,-0.205661,-0.454206,0.41556,0.013916,0.270508,-0.610596,-1.348336,4.835322,9.178512,-0.367871,-0.320709,0.421424,0.064453,-0.098633,-0.639648,-0.054296,6.314956,9.353443,0.400388,-0.834033,0.664125,-0.008057,-0.175781,-0.593018,-1.038956,4.220654,9.686003,-0.133498,-0.986329,-3.519403,0.059326,-0.112549,-0.666992
5.996359,-4.356033,9.351113,2.293772,0.703387,3.851549,-0.053467,0.497314,-0.444336,-1.462065,-2.177123,9.446657,-0.203058,-0.066805,0.476601,0.021729,0.261719,-0.617188,-2.013144,2.852274,8.811563,-1.289141,0.078881,0.673145,0.070068,-0.076904,-0.639893,0.444438,5.469904,8.703217,-1.552208,-0.45125,0.663534,-0.014893,-0.146729,-0.599854,-2.881301,4.490259,9.541758,-0.470855,-1.186192,-3.703155,0.048096,-0.10376,-0.669922
4.280297,-4.356348,7.72674,0.428518,0.539534,4.296275,-0.013428,0.522949,-0.446533,-2.98094,-1.686556,7.826049,0.153256,-0.356308,0.449164,0.009277,0.26416,-0.611572,-2.917393,2.925398,9.031513,-0.89593,-0.112401,0.270451,0.062256,-0.06543,-0.638428,-0.849598,2.329554,8.257954,-1.863121,-0.231062,0.820662,-0.022217,-0.11792,-0.601318,-2.487623,4.527119,8.926921,-0.965561,-1.613381,-3.647515,0.016357,-0.092285,-0.668457
5.243647,-8.009994,7.899887,1.124014,0.75577,4.617896,0.042969,0.529053,-0.470703,-2.300945,-0.78734,9.739433,-0.339681,-0.614877,0.39137,0.009521,0.266357,-0.612549,-2.998981,3.284361,8.594778,-1.892182,-0.003816,0.512604,0.060059,-0.040771,-0.642334,-1.350196,1.876546,8.833728,-1.276863,-0.48822,0.820945,-0.032471,-0.097656,-0.604004,-2.655437,3.308631,9.741651,-1.614576,-1.504019,-3.554614,-0.008545,-0.07373,-0.673584
4.444758,-4.437183,9.206518,2.892894,0.896456,4.440476,0.087646,0.508789,-0.491943,-1.818933,-4.215659,10.961148,-1.157188,-0.286443,0.7663,0.006836,0.287354,-0.59668,-3.857658,1.160365,8.433327,-2.09564,-0.211188,0.449245,0.054199,-0.001221,-0.654297,-1.002281,2.66213,9.438595,-1.398116,-0.52088,0.865791,-0.044922,-0.066406,-0.614502,-2.524913,1.237816,9.409239,-1.262191,-1.803672,-3.291851,-0.042236,-0.053223,-0.679199
1.883961,-0.024944,6.957313,1.867937,0.590989,4.094434,0.128906,0.480713,-0.511719,-1.709253,-4.753368,9.466167,0.562619,0.023938,0.747012,0.015381,0.271729,-0.605469,-2.487002,0.476737,8.682789,-1.51922,-0.393869,0.477536,0.041016,0.02002,-0.637695,-0.795018,1.85408,9.075106,-1.884474,-0.515716,0.839538,-0.060547,-0.03833,-0.602783,-1.739002,1.610755,9.017314,-0.341345,-1.779364,-3.326677,-0.083984,-0.060303,-0.661621
1.345591,0.372944,3.848036,1.771858,0.149685,3.960265,0.16626,0.473877,-0.535156,-3.299232,-1.127133,8.476127,1.006083,0.147827,0.797426,0.02832,0.267334,-0.613525,-2.791434,1.051794,10.024388,-1.532458,0.07033,0.378484,0.049316,0.047119,-0.642334,-0.440465,0.239931,8.634577,-1.780213,-0.492636,0.921437,-0.059082,-0.005615,-0.605225,-1.520035,2.374339,8.400067,-0.704093,-1.80721,-3.075317,-0.107178,-0.062744,-0.660889
-1.677565,3.796356,7.919038,3.237606,0.733284,2.634045,0.191162,0.408936,-0.55249,-4.813096,-1.363195,7.458192,-0.781227,-0.465613,1.074098,0.023926,0.263428,-0.605225,-4.458666,1.137081,9.900907,-1.607824,0.18795,0.352857,0.052002,0.073975,-0.636963,-0.45003,0.546473,9.729029,-1.248551,-0.131257,0.912223,-0.063232,0.020508,-0.601074,-0.686436,1.02886,7.727328,-1.195547,-1.960121,-2.946692,-0.144531,-0.052734,-0.645996
-4.82029,9.256092,7.325454,5.757343,0.790358,0.005402,0.204346,0.320557,-0.592773,-3.296545,-5.724124,12.298636,-1.358929,-0.892097,1.56293,0.020508,0.289062,-0.609375,-6.217343,-0.077878,4.963644,-1.648263,-0.397196,0.502841,0.046631,0.090332,-0.62915,-3.753869,-0.947025,12.153263,-3.037472,0.76709,0.556683,-0.051025,0.060547,-0.587158,8.075726,0.118704,12.3621,-0.425111,-3.519622,-2.026096,-0.207764,-0.062988,-0.621582
-1.204874,21.308503,6.452306,8.27962,-1.189011,-1.580118,0.177979,0.180176,-0.5979,4.020544,-4.817311,8.455863,2.976028,-0.040762,1.70838,0.02832,0.243164,-0.625732,1.640901,-9.791295,4.928168,-1.715157,-1.427829,1.054543,0.036133,0.118164,-0.631592,-8.580705,-14.18378,7.803136,-3.136996,-1.269632,-0.634652,-0.067383,0.109619,-0.577393,17.503789,-4.609719,10.445032,1.092302,0.926849,1.014676,-0.184814,-0.076172,-0.635742
1.909891,26.963109,4.312195,5.759984,-1.699231,-3.126737,0.153564,0.078369,-0.592041,0.228635,7.791063,11.51347,3.793481,2.36564,0.142147,0.065186,0.181885,-0.644775,1.569709,-11.394598,6.123414,6.722374,1.234527,0.52426,0.048584,0.013916,-0.64624,0.373968,-13.30857,1.146035,8.466605,-6.120615,-0.190226,-0.174561,-0.016113,-0.590088,-1.745809,-6.639187,3.203856,5.635651,4.65347,-0.213775,-0.116211,-0.171143,-0.6521
0.652829,20.480626,4.015624,0.551827,-1.769996,-4.400346,0.139404,0.06543,-0.583984,-6.69199,6.667607,6.293512,-0.764627,0.458233,0.546348,0.077881,0.192871,-0.638672,-3.62748,13.214475,8.951741,9.84851,1.798881,-1.576058,0.083008,-0.136475,-0.625,11.533839,11.485694,2.3777,12.140936,-3.860491,-0.011203,-0.223389,-0.204834,-0.555664,-4.594965,7.766407,2.38792,7.918496,-0.802659,-0.23504,-0.123535,-0.302734,-0.601074
0.261918,15.793645,1.847817,-4.752309,-1.723445,-4.559665,0.123047,0.138428,-0.57959,-4.387859,2.95645,6.541891,0.222502,-0.261597,-0.515049,0.075195,0.192627,-0.630615,-6.996375,20.289394,14.273447,0.312423,1.343153,0.411318,0.105957,-0.144043,-0.619873,5.411598,21.435214,11.542239,-0.50617,1.568071,0.303789,-0.196533,-0.200928,-0.567871,1.477501,15.853218,3.987754,1.156182,-0.296847,-0.005215,-0.120117,-0.32373,-0.59668
5.515475,9.569965,4.704437,-7.067919,-0.194844,-4.913504,0.113037,0.241211,-0.583252,-4.822578,5.570645,7.956065,-0.200053,-0.972666,-0.242923,0.051025,0.182861,-0.636963,-7.873442,8.008731,7.329356,-8.351386,-1.520652,-0.331426,0.080322,-0.014404,-0.637451,-0.327372,6.629163,7.522051,-9.759241,0.705157,-0.184598,-0.185547,-0.04834,-0.580322,-5.083048,9.425551,7.750919,-4.410875,-0.31348,1.057073,-0.136963,-0.246094,-0.625488
1.427512,-1.025583,9.347714,-8.23711,-0.394638,-4.439853,0.094727,0.366455,-0.552734,-0.505617,-0.217305,10.514884,-1.468419,-0.424255,-1.178185,0.044678,0.210205,-0.629883,-0.525049,-10.568345,4.613291,-5.62687,-1.658355,1.46114,0.060303,0.072754,-0.642578,4.21611,-10.162731,6.670724,-4.795858,0.012141,-0.000889,-0.185303,0.02417,-0.582764,1.598852,-0.664593,6.075352,-3.026789,-2.661656,0.784228,-0.182861,-0.19165,-0.629639
6.602275,-13.442823,6.790239,-5.131599,0.672568,-4.861503,0.06958,0.431885,-0.518555,-5.504183,-3.053583,8.492244,0.864038,0.431188,-0.553832,0.035645,0.19873,-0.630371,-5.527342,-3.641733,8.196289,3.504555,1.3287,-2.160986,0.080811,0.021973,-0.633545,0.743879,-3.293875,9.147327,3.877878,1.445965,1.358107,-0.152832,-0.031982,-0.583252,2.205885,2.200438,7.646151,0.624801,0.308156,0.756732,-0.174316,-0.195068,-0.619385
1.432303,-11.176766,7.918954,-0.976984,0.947805,-3.739428,0.057617,0.437256,-0.514404,-3.111332,0.726654,10.180631,1.252484,-0.753106,-0.897794,0.019287,0.182373,-0.637451,-4.38044,11.606474,13.818204,1.000392,-0.3506,-0.839396,0.067383,0.009033,-0.637939,-1.081655,10.857185,12.852892,1.379792,0.138869,0.142769,-0.158936,-0.047363,-0.589844,-0.303888,6.312378,10.167481,-1.660152,-1.422264,1.020381,-0.209961,-0.158691,-0.62085
2.178601,-7.262754,9.85725,-0.63831,1.618202,-3.343838,0.066406,0.439453,-0.50293,-2.706956,1.544196,9.113925,-0.123752,-0.160962,-0.471046,0.017822,0.187256,-0.626465,-4.47549,5.506795,9.410368,-6.240956,-1.534136,1.09653,0.037598,0.094482,-0.620605,4.059564,6.29952,10.482001,-6.005107,-0.016992,0.178592,-0.166504,0.0354,-0.571533,6.28016,1.855524,6.981579,-2.564494,-0.676361,1.762381,-0.234131,-0.109863,-0.617432
-1.231358,-6.899942,12.952682,-0.930829,1.425075,-2.246564,0.069336,0.44165,-0.513428,-3.298271,-0.382658,9.909605,0.069652,-0.733809,-1.097535,-0.001221,0.183838,-0.637695,-1.197006,-9.337829,6.665658,-3.932286,-0.472134,-0.164993,0.040283,0.157471,-0.613281,2.64592,-6.698317,7.849787,-4.476686,2.270651,0.166452,-0.121094,0.11084,-0.570312,-0.774774,1.588758,8.982747,-0.889712,0.915233,1.509594,-0.209229,-0.080566,-0.633301
2.396232,-4.070349,13.774436,-2.954004,2.196837,-1.774828,0.09375,0.481934,-0.494873,-1.923805,-0.141098,10.841028,0.345473,-0.153461,-0.686255,-0.001221,0.180908,-0.635986,-5.495101,-2.714418,8.052173,3.060301,0.008289,-0.519483,0.031494,0.109375,-0.615479,-4.052547,-4.964855,9.598287,1.541298,1.468306,0.42971,-0.102295,0.083496,-0.570557,1.617507,3.287287,10.464511,-1.462936,-1.437099,2.199292,-0.241455,-0.043701,-0.608398
-0.753874,-11.513677,9.305217,-4.640104,2.486448,-1.135433,0.114746,0.541992,-0.463623,-3.878009,-1.524244,8.960104,0.374709,-0.172653,-0.697563,-0.013184,0.17041,-0.639404,-2.342612,7.618237,11.67238,0.090348,-0.663134,-0.888827,0.024658,0.108154,-0.620361,-1.463903,3.512051,11.986403,1.25325,-1.012672,-0.057728,-0.11084,0.063965,-0.57666,6.099626,-0.292831,9.352338,-1.839576,0.640843,3.075837,-0.220703,0.010742,-0.620361
0.663586,-13.59471,7.614614,-3.174646,2.867342,0.425488,0.160645,0.57251,-0.446289,-2.134647,1.724868,10.934602,2.114808,-0.468914,-0.782204,-0.016846,0.124268,-0.65332,-3.144554,-0.611471,10.521752,-3.521921,-0.687376,1.309517,0.016602,0.16626,-0.615723,3.32919,0.710653,10.428244,-2.685556,0.373625,-0.558543,-0.109619,0.107422,-0.57251,0.441996,-2.206892,9.126877,-0.35385,1.209835,3.2208,-0.199219,0.04541,-0.637207
-1.822479,-15.043143,7.200167,-1.686088,2.666204,0.689395,0.203613,0.608887,-0.428711,-1.858637,5.07116,13.920437,-0.34685,-0.197972,-0.187012,-0.021973,0.144287,-0.652344,-1.251332,-5.836435,8.180546,1.456792,-0.261996,-1.158204,0.001221,0.143066,-0.621582,-0.619239,-6.07356,7.895744,-0.895839,1.379434,-0.318798,-0.098145,0.118652,-0.574707,1.558096,-0.179956,8.541559,0.813303,0.013715,3.754429,-0.194824,0.050537,-0.641602
-0.90278,-12.594802,7.667474,0.424255,2.58916,1.568768,0.248047,0.602051,-0.430664,-0.935377,0.766212,10.891263,-1.415025,-0.268437,0.0202,-0.027832,0.162598,-0.642578,-1.107866,5.367579,11.263428,2.661267,0.574607,-0.939271,0.006104,0.104004,-0.629395,-1.541539,-2.06074,9.453054,2.240757,-0.378312,-0.750252,-0.106445,0.082764,-0.580078,2.367673,2.12331,10.69157,-0.344078,1.195639,3.772229,-0.161865,0.083984,-0.645996
-3.15949,-6.832697,8.077823,0.781716,2.79358,1.856507,0.311035,0.600342,-0.434082,-1.186191,-1.685129,10.358135,-0.822684,0.095266,0.142175,-0.019531,0.182617,-0.638184,-2.302827,2.68343,10.241751,-1.744039,0.085364,-0.34079,0.009521,0.137695,-0.628906,2.413317,1.815456,10.434337,0.780292,-0.635469,-0.816589,-0.117432,0.073975,-0.580811,-0.587558,-2.045559,9.183091,-0.885295,0.948789,4.775633,-0.126709,0.129883,-0.650146
-4.268684,-4.703339,8.869084,-0.139006,2.733035,2.030288,0.368164,0.584229,-0.414307,-0.854447,-1.588351,9.95692,0.70595,-0.174002,-0.019365,-0.020752,0.160645,-0.635742,-1.196098,-4.930619,8.930275,-0.214421,-0.060333,-0.190476,0.010986,0.134033,-0.624023,2.74389,0.331619,10.112598,-0.105903,0.522218,-1.167124,-0.108398,0.067383,-0.58252,0.339571,-2.363573,8.844441,1.5212,0.482987,4.300718,-0.096924,0.119385,-0.656006
-5.85728,-4.58815,7.920212,-1.068119,2.460926,2.324659,0.416748,0.586426,-0.404297,0.003712,2.45526,10.336521,1.082835,0.48359,-0.18608,-0.020996,0.143799,-0.648193,-1.10516,-3.493592,8.993365,2.456231,0.324609,-0.879648,0.009521,0.094727,-0.638916,0.961038,-1.243421,9.049835,0.961136,0.443163,-0.606138,-0.109619,0.046875,-0.590576,0.691479,2.19564,9.051905,1.922149,0.956763,3.774094,-0.070557,0.098633,-0.666504
-2.725376,-5.323454,5.62606,-1.036677,2.488263,2.834479,0.476562,0.589844,-0.374756,-3.189577,2.830892,9.568838,-0.43292,0.297139,-0.600037,-0.015137,0.153809,-0.642578,-2.627948,3.856331,10.611936,2.57927,0.311485,-0.549047,0.015137,0.04834,-0.63623,1.261247,1.77508,9.451379,2.227846,0.046745,-0.458978,-0.105957,0.000732,-0.59082,-0.000691,2.508917,9.327479,0.193526,0.929189,3.508086,-0.036377,0.098389,-0.666504
-4.150985,-6.045647,4.380753,-0.447716,2.932461,3.062757,0.543701,0.577393,-0.348877,-1.250025,-0.540162,9.027624,-0.757913,-0.132181,-0.493138,-0.018311,0.169678,-0.643311,-2.257874,3.552338,10.51486,-0.900758,-0.03743,-0.24022,0.019043,0.060791,-0.637695,1.340751,4.437528,10.016398,0.429586,0.696726,-0.555176,-0.092529,-0.008301,-0.597412,-0.363496,0.113493,9.070894,0.21889,0.910397,3.440289,-0.005127,0.104248,-0.669922
-7.10425,-4.447188,3.992938,1.071754,2.843296,3.111108,0.604248,0.535156,-0.331787,-1.349416,-0.400111,10.198548,0.547017,0.232288,-0.675936,-0.017578,0.158936,-0.641357,-2.496275,-0.99738,7.679204,-0.033685,-0.156841,0.033654,0.020264,0.053223,-0.643799,-0.18148,2.321291,10.229957,-0.791529,0.62208,-0.280451,-0.080811,-0.006104,-0.602295,0.035293,1.674273,10.256275,0.86505,0.707015,3.144275,0.022217,0.083984,-0.676758
-7.611506,-1.004956,3.783275,0.976748,2.341488,2.939482,0.653809,0.496826,-0.314941,-1.012686,1.880069,10.67838,0.603597,0.415363,-0.454652,-0.010742,0.148682,-0.642578,-1.989201,2.632734,9.026873,0.954809,0.002741,-0.981366,0.008057,0.061035,-0.635498,0.651391,0.706098,9.416699,-0.339877,0.214448,-0.63346,-0.087158,0.017334,-0.591553,0.440399,1.57796,10.124403,-0.758734,0.990796,3.152206,0.043945,0.12207,-0.6604
-4.956811,1.412294,2.345429,0.283124,2.207598,2.753251,0.689453,0.456787,-0.291992,-1.751073,0.94702,9.438644,-0.614666,0.624939,-0.646895,-0.006592,0.153076,-0.642578,-1.778858,4.108711,11.495721,-0.399625,-0.373836,0.027665,0.006592,0.049561,-0.640625,0.980612,1.826174,9.314544,0.288723,0.507423,-0.178934,-0.07373,-0.004395,-0.602051,-0.686311,-2.016526,9.472373,-0.612719,0.968883,2.722475,0.077393,0.114502,-0.668701
-6.145577,3.009748,2.507601,-1.315473,2.365201,2.146746,0.730469,0.446045,-0.253662,-3.20229,-1.495237,8.842005,-0.243316,0.058366,-0.036049,-0.004639,0.160645,-0.645508,-0.526245,-0.231655,10.231228,-1.68324,0.083323,-0.390734,0.003662,0.076172,-0.63916,-0.14744,2.286339,9.886278,-0.623985,0.513289,-0.481945,-0.072754,0.003906,-0.600098,-0.020584,0.077086,9.627767,1.170959,0.55757,2.4899,0.092529,0.094971,-0.667725
-9.553587,-0.044135,0.660292,-1.905814,1.728748,1.854071,0.761475,0.432861,-0.224365,-0.30605,0.282805,10.94284,0.381908,-0.232052,-0.531717,-0.003418,0.152588,-0.645996,-2.229435,-2.144959,8.352118,0.940128,0.427148,-0.15921,0.016113,0.065674,-0.63623,0.96132,-0.21254,9.215324,-0.458755,0.118609,-0.381862,-0.065186,0.016602,-0.594482,0.199896,2.928552,10.639437,0.58557,0.712937,2.916244,0.119385,0.085693,-0.662842
-8.583588,-1.688609,-1.360548,-1.860784,1.343591,2.104641,0.777344,0.424316,-0.196533,-1.255423,0.269811,9.400616,-0.493011,0.692929,0.138344,0.000977,0.16748,-0.645508,-1.301576,2.537539,10.022657,1.618082,0.015237,-0.614547,0.005127,0.04126,-0.650879,1.306151,0.233787,8.62941,1.40891,0.674855,-0.403196,-0.063232,-0.00708,-0.610596,0.051794,0.20116,10.287686,-0.215508,0.388952,3.102357,0.128418,0.085205,-0.672363
-8.481353,-2.000029,-0.511699,0.500247,0.581609,1.485524,0.794434,0.39917,-0.191406,-4.229228,-1.769044,8.177779,-0.490913,-0.167656,-0.049445,0.000977,0.176025,-0.647705,-2.114257,3.402928,9.941896,-0.006033,0.654182,0.104474,0.019287,0.042969,-0.650146,-1.507071,4.537064,9.751688,1.543573,0.858618,-0.10221,-0.044189,-0.034424,-0.617188,0.324081,-0.804843,9.784485,1.01917,0.287982,2.382283,0.145508,0.063721,-0.671875
-10.14492,3.448129,-0.054798,1.816649,1.218082,0.355988,0.806396,0.372314,-0.179443,-0.609771,-0.58684,8.853356,0.327215,-0.149234,0.189528,-0.001221,0.163086,-0.645508,-2.825042,0.509699,9.357067,-0.181001,0.123059,-0.120818,0.022705,0.044678,-0.642578,-0.977246,4.465242,9.942023,-0.426235,-0.180799,-0.24628,-0.048096,-0.026123,-0.606689,0.769673,2.394879,10.366017,1.372217,0.216719,2.083116,0.15625,0.036133,-0.668945
-10.543814,5.898028,-0.869254,-0.253568,-0.272345,0.185902,0.802734,0.383057,-0.18335,-3.278966,-0.697931,10.64035,-0.673224,0.104075,0.492489,0.000977,0.184326,-0.643066,-1.701468,1.022451,7.584982,1.140294,0.552719,0.039219,0.040283,0.027832,-0.64624,1.265826,0.711301,8.90421,-0.448964,0.411102,-0.234875,-0.035156,-0.016846,-0.608887,0.35136,2.865994,10.449627,0.156198,0.272521,2.223538,0.169678,0.029297,-0.668457
-12.351889,1.255413,-3.131166,-1.863046,0.051568,-0.648452,0.79541,0.396973,-0.163574,-0.561963,-2.289593,8.932674,-0.119353,-0.228158,0.408975,-0.005127,0.178955,-0.634521,-3.438497,2.473352,10.080407,0.551219,0.432254,-0.12878,0.04248,0.020996,-0.648682,-1.066827,0.93772,8.649882,1.559882,0.928025,-0.009701,-0.019531,-0.042725,-0.615967,-0.125549,-0.624317,9.643698,-0.023182,-0.027706,2.13791,0.169434,0.022705,-0.666992
-11.665067,-0.446551,-2.919275,-1.91508,-1.33143,-0.24364,0.79248,0.412109,-0.189209,-3.383114,-0.050264,10.364317,1.325426,0.679579,0.676064,0.012451,0.152832,-0.657471,-3.056959,0.674392,8.453263,0.607023,0.08455,0.702671,0.046875,0.01123,-0.649658,-1.756883,3.964305,9.344544,1.484317,0.288045,-0.204706,-0.015381,-0.067627,-0.614258,0.456554,-0.958365,9.434801,1.495076,-0.386005,1.55203,0.163818,-0.003906,-0.668457
-11.061294,-1.032202,-3.192609,-0.655894,-1.964859,-0.76658,0.77002,0.432373,-0.210938,-2.963262,2.503956,10.75505,0.314941,-0.15395,0.316298,0.008301,0.154785,-0.653809,-2.478389,0.817893,9.39096,1.372437,0.558541,-0.077246,0.05542,-0.017334,-0.654541,-0.773273,3.198704,9.126919,0.54701,0.509278,0.097784,-0.003906,-0.083252,-0.618164,1.254218,2.579703,10.102653,1.820617,-0.591803,0.992539,0.154053,-0.04541,-0.675537
-8.88601,1.649588,-2.056325,-0.005247,-2.347696,-0.706214,0.750488,0.442871,-0.236328,-2.067059,0.690258,9.353369,-0.064411,0.381935,0.578509,0.020752,0.152588,-0.650635,-3.142573,2.517986,9.957377,1.437537,0.765632,0.522392,0.06958,-0.037842,-0.654785,-1.549509,1.577391,8.05336,0.941474,0.748445,0.078843,0.009033,-0.093506,-0.620117,0.741811,2.18042,9.875298,0.465647,-0.547881,0.878082,0.14624,-0.052246,-0.676514
-11.823584,1.021368,-1.42057,-1.433473,-3.025537,-0.778068,0.714111,0.461182,-0.270264,-3.248248,0.727762,10.799855,0.417707,0.10439,0.081918,0.01709,0.144775,-0.649658,-3.411217,2.142519,8.099218,1.280841,0.60738,0.377706,0.073975,-0.060791,-0.644287,-1.624657,2.559804,8.739879,2.216315,0.55661,0.25344,0.012695,-0.13208,-0.611328,0.686011,-0.335277,8.910964,1.04554,-0.938756,0.464297,0.125977,-0.074463,-0.667236
-8.911492,-2.3259,-2.202387,-1.259808,-3.987359,-0.952396,0.681641,0.488525,-0.310791,-1.26674,1.036613,11.208115,0.241054,0.500783,0.351986,0.039062,0.140869,-0.651367,-3.659483,2.806371,8.634096,1.775937,0.813662,0.437516,0.089111,-0.095459,-0.635742,-1.349516,4.741452,9.72425,2.070364,0.658638,0.168136,0.0271,-0.170166,-0.598877,1.141387,1.196517,9.562798,2.182915,-1.063433,-0.036563,0.109863,-0.117676,-0.660156
-7.109766,-2.545727,0.926989,-0.332517,-4.730676,-0.988136,0.620117,0.508301,-0.36084,-3.054761,1.17081,10.012765,0.593048,0.833879,0.2079,0.046387,0.134766,-0.655762,-3.271111,4.311589,8.937726,1.68596,0.54424,0.430652,0.098633,-0.11499,-0.643311,-1.931097,5.160069,9.485329,1.26478,0.921799,0.191756,0.043701,-0.185059,-0.609863,2.085074,3.60434,10.42839,1.628947,-1.129659,-0.385013,0.092529,-0.142822,-0.672852
-2.924228,-3.862466,2.38688,0.367029,-5.082527,-1.463931,0.557373,0.503418,-0.411377,-3.447062,3.496395,9.991514,0.086963,0.626657,0.078983,0.067139,0.12085,-0.651855,-3.765044,5.485194,8.747368,0.896857,1.1285,0.264455,0.119873,-0.135254,-0.627197,-3.287287,5.070628,10.014223,0.97756,0.530515,0.407862,0.054443,-0.208252,-0.595215,2.214815,2.955548,9.764275,0.268879,-0.450548,-0.959411,0.092529,-0.154541,-0.663086
-2.387558,-2.221738,3.50748,1.894718,-5.371641,-0.634055,0.479004,0.496094,-0.462646,-3.520462,0.913914,9.443275,-0.673022,0.589417,0.361639,0.07373,0.145996,-0.647705,-5.325459,5.21572,9.675367,0.497395,0.717489,0.321864,0.124756,-0.140625,-0.633789,-1.617998,4.951867,10.215205,0.544109,-0.007656,0.191987,0.048828,-0.208984,-0.596924,0.471586,0.639156,8.94657,0.377685,-0.283622,-1.471373,0.084961,-0.155273,-0.665527
-1.073813,0.512753,7.273677,0.525505,-5.455405,-0.651419,0.392578,0.480957,-0.498779,-4.303123,1.068971,8.987932,0.41194,0.476912,0.200843,0.079102,0.12793,-0.651123,-4.510302,4.743748,9.310629,0.49433,0.46294,0.267774,0.13208,-0.151123,-0.630127,-0.662871,4.125123,10.215312,0.359672,0.909606,0.265555,0.063477,-0.214355,-0.595947,0.094903,0.940027,8.199243,1.310013,-0.41886,-1.974121,0.087402,-0.177246,-0.663574
-0.035889,-1.895492,8.036643,0.070511,-5.403778,-0.857616,0.309082,0.490967,-0.518799,-4.170808,4.012253,9.891848,-0.199946,0.223608,0.326537,0.087402,0.137939,-0.650146,-5.636251,3.461393,9.74553,0.67764,0.666749,0.215412,0.142822,-0.169189,-0.626709,-2.575864,3.058515,9.61181,1.045484,1.268709,-0.047576,0.086182,-0.238037,-0.591553,-1.257391,2.118669,6.65163,1.936301,-0.295468,-2.227258,0.094971,-0.218018,-0.657227
0.703219,0.382196,6.866666,-0.701928,-5.211134,-0.356617,0.228027,0.500977,-0.527832,-4.308763,0.819013,8.659128,-2.005814,0.413042,0.36727,0.09668,0.171875,-0.655029,-5.344476,3.023872,9.231302,2.006809,-0.092058,0.514378,0.14624,-0.194092,-0.621094,-2.187949,3.528589,9.346403,2.117202,1.204469,-0.208261,0.111816,-0.260254,-0.580322,-0.044883,5.537596,6.616544,3.485469,-0.742083,-1.870433,0.097168,-0.270752,-0.637207
2.020873,-5.405509,6.946581,-0.827546,-5.272915,-0.870778,0.130127,0.512939,-0.515625,-5.647057,-1.225013,8.092031,-0.734744,-0.209954,0.285148,0.083496,0.186768,-0.646484,-4.281675,5.067415,8.454466,2.491338,0.322503,0.069902,0.147461,-0.236084,-0.608887,-2.841595,4.765837,8.821274,2.39728,2.03813,-0.186846,0.13916,-0.306396,-0.563965,-0.30379,7.496423,7.363954,2.470215,-0.123452,-1.66174,0.102783,-0.321045,-0.623047
3.014668,-4.528619,9.909056,1.820071,-4.66328,-0.283403,0.070068,0.482178,-0.513672,-3.274571,1.301226,9.477923,-0.575528,-0.446186,0.345433,0.088867,0.195801,-0.643555,-5.772715,5.354845,7.312354,2.220218,0.232844,0.313821,0.151611,-0.268799,-0.601562,-4.819379,4.997629,8.137311,2.154727,1.994217,-0.347005,0.175781,-0.330811,-0.54541,-1.793624,4.45474,6.664935,2.068486,-0.211774,-1.68219,0.117432,-0.351807,-0.607178
3.547214,-1.392783,9.275,1.524606,-4.854821,-0.43389,-0.006836,0.457275,-0.498047,-3.641101,-0.927077,9.580692,-1.337632,0.05526,0.523752,0.091064,0.217041,-0.634766,-4.19591,4.94439,6.283911,1.80221,-0.402778,0.141728,0.141602,-0.293701,-0.590332,-5.155032,5.014034,6.657548,2.08497,1.49694,-0.232947,0.193604,-0.361084,-0.523193,-1.529111,5.99279,6.332837,3.925349,-0.182603,-2.09422,0.129395,-0.407227,-0.567871
3.706182,-1.775336,6.761514,2.085871,-5.021989,-0.278562,-0.082275,0.408691,-0.485596,-4.374249,-0.956181,7.707443,0.241613,-0.138272,0.03426,0.08667,0.202393,-0.641602,-3.021027,4.533878,8.063926,1.115234,0.424157,0.017869,0.140625,-0.314453,-0.581787,-4.631066,5.657012,6.506677,1.507995,1.274467,-0.219917,0.208496,-0.383301,-0.505127,-1.42558,11.115147,7.189022,2.804944,0.010632,-2.071305,0.146973,-0.449951,-0.538574
6.018927,4.073506,9.571432,2.744181,-4.509177,0.156893,-0.149658,0.380615,-0.460693,-4.140004,-2.086477,6.683098,-0.642411,-0.401379,-0.053619,0.077148,0.222168,-0.642578,-5.224772,3.432515,7.60517,1.29779,0.483194,0.078386,0.153076,-0.331055,-0.567627,-4.375166,5.384581,6.599072,1.435016,1.331077,-0.11509,0.232422,-0.400879,-0.482666,-1.540374,8.668762,6.406584,0.589867,0.176719,-1.616423,0.17334,-0.449219,-0.525635
4.196028,2.25538,7.458169,0.488667,-4.28998,-0.459561,-0.203125,0.364258,-0.417969,-2.82111,-4.703793,4.93341,1.238391,-0.522183,-0.344946,0.07373,0.202148,-0.646973,-3.638073,2.532392,4.927142,1.136168,-0.252676,0.54582,0.14502,-0.348633,-0.567139,-4.448323,5.558943,6.303677,1.47805,1.472583,-0.024331,0.249512,-0.41626,-0.467285,-0.720392,6.354866,5.785082,2.298783,-0.096626,-1.771475,0.19165,-0.4729,-0.503418
7.33907,0.008015,6.713975,0.692669,-4.034064,0.041135,-0.250977,0.355469,-0.386475,-2.561862,-1.590544,5.515497,1.966678,-0.180664,0.036228,0.070312,0.170166,-0.667725,-3.659195,2.916228,3.716079,2.288302,0.351872,0.232273,0.143311,-0.382324,-0.543213,-4.652683,6.30535,5.793635,2.089351,1.197233,0.614081,0.256104,-0.446777,-0.437256,-1.29501,10.376576,6.622582,3.273853,0.337344,-2.213659,0.217285,-0.508789,-0.460938
4.645009,-1.89423,7.827796,-0.102967,-3.52762,-1.576378,-0.291016,0.328369,-0.336914,-2.536639,0.514389,5.716029,1.26177,-0.373612,0.25762,0.07373,0.141602,-0.668457,-3.777874,7.155211,3.371729,2.597316,-0.319776,0.493589,0.138916,-0.422852,-0.515625,-4.315236,8.293991,5.380429,1.884231,0.973897,0.408256,0.267334,-0.475098,-0.410889,-1.859588,12.650549,7.885704,1.693757,-0.095497,-1.631403,0.238525,-0.525391,-0.435547
5.328715,-5.441488,5.112955,2.144992,-2.680181,-0.973643,-0.320801,0.29834,-0.306885,-2.009191,-1.014673,3.609337,0.634857,-0.570321,1.000435,0.063965,0.138184,-0.668945,-2.337638,8.876035,4.366262,0.567669,-0.390611,0.633075,0.130859,-0.425293,-0.515137,-4.136044,8.349652,6.040324,0.206427,0.700257,0.6227,0.270996,-0.477539,-0.4104,-1.285789,9.582347,7.400667,-0.515165,0.236902,-1.404197,0.260742,-0.503662,-0.441895
2.688955,-1.150002,6.286705,4.399491,-2.476303,-1.189759,-0.351807,0.236572,-0.282471,-1.992927,1.206202,3.955066,1.68521,-0.756557,0.574996,0.04834,0.104248,-0.676514,-3.120897,5.081351,4.228229,-0.659308,-0.443758,0.829565,0.106689,-0.423096,-0.527344,-3.731864,5.7525,5.169698,-0.482117,0.541391,0.284289,0.268311,-0.474609,-0.41626,-2.183335,6.464788,6.162337,0.165287,0.287923,-0.925554,0.269043,-0.506592,-0.443115
6.010573,4.062337,8.796319,4.612824,-1.960796,-0.938535,-0.362305,0.170166,-0.258545,-1.782571,3.961618,5.94212,0.811441,-0.986068,0.998167,0.042725,0.082275,-0.683105,-3.074837,4.370349,3.738628,0.685789,-0.814037,0.718085,0.10376,-0.435547,-0.518555,-4.422513,6.298203,4.761362,0.785459,0.592723,0.707859,0.27832,-0.491943,-0.400391,-2.658985,9.47595,6.925929,1.330678,0.045907,-1.075288,0.293213,-0.519287,-0.422607
6.365446,7.204521,8.259418,3.598331,-0.962712,-0.552363,-0.382812,0.133789,-0.230225,-0.863225,-1.512894,5.071816,0.361889,-0.963547,0.675719,0.011475,0.077637,-0.676514,-2.477637,7.75572,4.53953,0.402146,-0.774307,0.73371,0.083008,-0.44751,-0.519531,-5.136908,9.440538,5.068346,0.218128,-0.04219,0.635152,0.267578,-0.5,-0.403076,-2.186479,12.026141,7.125713,-0.266685,-0.085935,-0.673407,0.297607,-0.514893,-0.432129
5.175784,6.316634,6.752502,2.435135,-0.644361,-0.923513,-0.378174,0.097168,-0.210938,-0.632956,1.535988,4.742378,4.193675,-1.029407,0.640737,-0.000977,0.001953,-0.667236,-1.377208,9.459763,4.790052,-0.439978,-1.170257,1.176811,0.059082,-0.446533,-0.525146,-2.721487,10.289254,5.59444,-1.098681,-0.359237,0.570622,0.259521,-0.498291,-0.41748,-1.379362,10.943145,7.246251,-1.58505,-0.062126,-0.320199,0.302002,-0.498535,-0.450928
5.905092,4.920952,7.025815,1.422485,0.091886,-0.172899,-0.375488,0.077637,-0.210938,-0.026218,8.938486,10.075838,2.334412,-1.451654,0.452349,-0.026123,-0.04248,-0.673096,-1.645453,10.489658,5.124361,-2.083471,-0.70434,0.878151,0.030762,-0.414307,-0.549072,-3.931148,9.652886,5.100418,-2.66038,0.172308,0.407367,0.253174,-0.463623,-0.446289,-2.559747,9.432554,7.031353,-2.924907,0.274826,0.074123,0.297852,-0.457764,-0.487793
8.409909,3.998371,6.955367,1.756758,0.478309,-0.746319,-0.37793,0.053467,-0.213135,0.888586,2.930733,6.564618,-0.199982,-1.067782,0.772697,-0.053223,-0.039307,-0.671143,-2.508557,7.765943,4.69222,-3.465352,-1.371462,1.357031,0.001221,-0.365479,-0.576416,-4.641635,6.602101,5.403629,-3.931757,-0.579137,-0.154239,0.245605,-0.409912,-0.485107,-2.736499,6.553407,6.588941,-3.374121,-0.174874,0.486098,0.288818,-0.412109,-0.524414
5.816621,5.500407,6.538546,2.119397,1.332372,-0.662828,-0.369873,0.023438,-0.219727,-0.23181,-1.95178,6.253461,2.916901,-1.480899,0.92707,-0.085449,-0.090332,-0.656982,-0.047843,6.380549,5.93722,-2.28596,-1.540645,0.80811,-0.024902,-0.329346,-0.592773,-3.234284,4.574836,4.898488,-2.39814,-0.988185,0.060366,0.230713,-0.383301,-0.513184,-2.06754,6.807127,7.87659,-2.177076,-0.099925,0.688638,0.279297,-0.386475,-0.547363
8.910861,7.815561,6.597885,2.09644,1.346642,-1.05393,-0.347168,-0.009521,-0.229004,1.210853,8.574019,9.069681,5.412934,-1.474678,0.717909,-0.107422,-0.178955,-0.630859,-1.120525,8.118546,7.697682,-2.452291,-0.473371,0.657538,-0.035156,-0.302734,-0.611816,-4.129516,7.681403,6.760694,-1.692255,-0.605293,-0.290193,0.230469,-0.364746,-0.529541,-3.29217,8.233198,8.535568,-2.957709,-0.073963,0.954338,0.270752,-0.35498,-0.578613
6.754112,9.517904,7.530654,1.064019,1.533492,-1.126899,-0.33374,-0.031982,-0.246826,0.925614,12.714647,10.280403,1.172931,-1.107387,0.987478,-0.134766,-0.192627,-0.626953,-2.479054,6.313588,7.049319,-3.600888,-1.477922,0.972618,-0.060791,-0.240234,-0.62915,-5.141887,9.037588,6.844742,-3.10656,-1.16827,-0.138947,0.218506,-0.315186,-0.560303,-2.689236,6.541761,8.337002,-3.646926,-0.57037,0.532078,0.259033,-0.297607,-0.610352
9.947118,10.752573,5.98397,-0.186891,1.855121,-0.592843,-0.312256,-0.036865,-0.258545,0.305677,4.534867,7.889063,-0.614435,-1.263428,0.509345,-0.157715,-0.181885,-0.605957,0.23805,5.072084,6.960425,-3.287609,-1.32019,0.881687,-0.088379,-0.189941,-0.64209,-3.805118,6.610235,6.191306,-4.536346,-1.749859,-0.225222,0.187256,-0.246826,-0.591797,-2.261019,5.403389,8.15831,-3.853563,-0.363688,-0.052176,0.249512,-0.23584,-0.638916
5.054778,10.420089,6.47013,-1.295826,1.435514,-1.246648,-0.291992,-0.044922,-0.290527,1.860048,2.496091,6.626596,3.746138,-0.991567,0.715046,-0.175537,-0.238281,-0.586182,-0.535653,4.7297,9.224642,-2.970853,-0.568501,0.448778,-0.108643,-0.147217,-0.655518,-2.257623,1.342522,6.418043,-4.26062,-1.044998,-0.392112,0.162354,-0.182861,-0.618408,-3.115792,2.898454,7.660367,-3.758652,-0.362841,-0.012683,0.232178,-0.177979,-0.666504
7.726614,8.360265,7.043224,-1.875475,1.717323,-0.703435,-0.273682,-0.034912,-0.324219,0.440598,10.717352,7.76653,4.920482,-1.031119,0.439844,-0.196045,-0.302002,-0.538818,-1.764673,2.405659,8.682572,-2.45458,-1.143546,0.476041,-0.112549,-0.097656,-0.64917,-5.142365,-0.51908,7.357334,-1.459666,-0.786651,-0.119704,0.160889,-0.147949,-0.615723,-4.142548,1.536474,8.652336,-1.904935,-0.942879,-0.307164,0.227051,-0.132568,-0.671387
5.395864,4.756175,7.610171,-1.092486,1.207195,-0.727002,-0.247803,-0.0271,-0.335449,2.92572,8.426633,5.559256,3.707273,-0.961716,0.635224,-0.205078,-0.34375,-0.490723,1.835362,2.25224,8.255227,-0.821238,-1.201526,0.266639,-0.138428,-0.092529,-0.649902,-3.227883,3.686968,8.00292,0.518682,-2.314652,-0.125382,0.120361,-0.166504,-0.632812,-0.969669,4.034588,9.051146,-0.646761,-1.458956,-0.506886,0.197266,-0.130371,-0.6875
5.276177,5.176383,7.566857,0.453045,1.676566,-0.312608,-0.240479,-0.040527,-0.358398,0.900636,5.161412,1.995644,6.509616,-0.656627,0.225166,-0.229004,-0.419922,-0.422119,0.773522,5.660597,9.604699,-0.966522,-0.069883,-0.096481,-0.134521,-0.070801,-0.641113,-0.289866,7.900877,8.519683,-1.187114,-1.505593,0.056411,0.097656,-0.135742,-0.631592,-1.30072,6.187564,9.327245,-2.067575,-0.727764,-0.558322,0.187012,-0.081787,-0.689941
3.670302,8.236945,8.258042,0.037051,1.184656,-0.052801,-0.222168,-0.042236,-0.367188,2.09212,16.919224,2.341465,8.583745,-0.919281,0.135065,-0.235107,-0.499512,-0.307373,-0.48437,4.515503,10.279402,-3.033045,-0.730006,0.481628,-0.148926,-0.01709,-0.645752,-2.844782,4.413961,7.576661,-4.029235,-0.643964,-0.241724,0.083984,-0.063232,-0.639404,-2.43267,2.291887,8.000795,-3.68822,-1.076002,-0.777301,0.161377,-0.010254,-0.701416
5.330128,6.25474,8.292684,-0.916732,0.966581,-0.233912,-0.214355,-0.036133,-0.381592,1.729142,27.148142,6.471627,2.641103,-0.353931,0.016992,-0.242432,-0.514648,-0.274902,1.451404,-0.119548,9.19861,-2.494105,-0.414612,0.350676,-0.151123,0.020264,-0.643066,-3.302079,-1.683837,7.712191,-2.890665,-1.64145,-0.199716,0.056641,-0.018066,-0.637939,-1.902897,-1.245605,7.919832,-1.946342,-1.159798,-1.332304,0.139404,0.023926,-0.704834
4.233422,4.981414,8.926215,-0.382304,0.241549,-0.275391,-0.200195,-0.04126,-0.384277,2.829906,16.524134,5.954962,-7.298404,-0.383301,0.143071,-0.23584,-0.462891,-0.36792,0.225145,-0.692093,8.62906,0.076857,0.145584,-0.205686,-0.153076,0.013672,-0.632324,-0.393299,-1.740841,8.030064,0.553782,-1.722815,0.096019,0.021484,-0.029053,-0.634277,-1.998649,1.186088,9.700222,0.240316,-1.34477,-1.626837,0.105225,0.02002,-0.70166
4.159585,4.766239,7.712237,0.364418,0.230059,-0.763014,-0.19751,-0.047852,-0.383057,2.078334,-4.156634,-0.435688,-2.565499,0.678426,0.154764,-0.234131,-0.432617,-0.39209,0.769516,3.669748,10.579016,0.989175,-0.131237,-0.176879,-0.147705,-0.006348,-0.644043,-1.168288,3.629013,8.753464,1.652122,-0.877954,0.265039,0.015381,-0.063721,-0.64502,-1.495433,3.583292,9.670759,0.047787,-1.635926,-1.341898,0.076904,0.016602,-0.714111
2.454088,6.480047,7.633017,0.663719,-0.147074,-0.359679,-0.194824,-0.059814,-0.381348,-0.120758,5.364075,2.762414,6.104004,-0.036963,-0.34779,-0.233887,-0.491211,-0.317871,1.544827,5.726487,10.766207,-0.612539,0.405444,-0.141109,-0.150391,0.001953,-0.638672,-2.280018,6.304147,9.631811,-0.635503,-1.604427,0.225163,-0.019531,-0.05127,-0.63916,-0.89999,2.881553,9.201,-1.077861,-1.557138,-1.5602,0.037354,0.039551,-0.709473
4.681955,6.995111,7.746431,-0.16022,0.292473,-0.458201,-0.19043,-0.056152,-0.376465,3.626343,14.001051,3.080246,3.361355,0.030063,0.338661,-0.238281,-0.503418,-0.269531,0.870448,2.23709,9.281052,-2.571473,0.407615,0.14484,-0.144287,0.045166,-0.629883,1.009137,2.774399,8.163203,-2.65116,-1.878895,-0.106978,-0.05127,-0.008301,-0.62915,-0.297926,1.946056,8.796728,-1.103545,-1.605526,-1.473457,0.001465,0.055908,-0.702637
2.36984,5.754369,8.017364,-0.490663,0.112487,-0.545035,-0.189209,-0.060303,-0.386475,-0.633373,8.906938,1.929487,1.843119,0.139267,-0.009575,-0.237793,-0.521484,-0.247559,0.334219,-3.919894,7.462427,-1.975589,0.458449,0.403572,-0.130859,0.077637,-0.624512,0.329487,-1.194759,8.119442,-1.670976,-0.647297,0.431446,-0.057617,0.023682,-0.620605,-1.145805,3.001851,9.690436,-0.620731,-1.478677,-1.837406,-0.031006,0.069336,-0.695312
3.680692,5.584261,8.105693,0.05214,-0.270703,-0.139299,-0.190918,-0.053467,-0.378174,2.048694,13.536546,1.283434,3.914761,-0.326203,-0.696122,-0.229248,-0.538574,-0.185791,0.154807,-2.21372,8.673863,0.849421,0.577218,-0.144474,-0.128418,0.065918,-0.636963,-2.461299,-0.605929,9.09407,0.485189,-1.420357,0.631001,-0.085449,0.018799,-0.629395,-1.166636,2.65912,9.980262,-0.56736,-1.88171,-1.549054,-0.076416,0.07666,-0.702148
3.631562,5.55834,7.633458,0.238187,-0.59237,-0.285834,-0.193115,-0.06665,-0.381348,1.315944,14.684321,2.371179,-0.15092,0.012866,-0.695749,-0.21875,-0.546143,-0.200928,0.213357,3.808225,9.85911,1.017991,0.555368,0.116611,-0.11084,0.049561,-0.634766,0.694505,2.599588,9.390304,0.415452,-2.409579,0.587142,-0.115479,0.009521,-0.616699,0.319653,0.920219,9.546222,-0.604132,-1.984026,-1.387868,-0.113037,0.081299,-0.688232
4.686326,5.340386,7.185003,0.229886,-0.326376,-0.358363,-0.193604,-0.069092,-0.368896,2.763325,6.378181,-0.113319,-0.283358,-0.119394,-0.597837,-0.210938,-0.54541,-0.196045,1.034705,4.43858,10.375622,-1.291725,0.473561,0.180454,-0.109863,0.067383,-0.631836,2.530901,2.007847,8.761198,-1.228261,-1.336916,0.539169,-0.141602,0.031006,-0.610352,0.914888,0.772038,9.065377,0.229684,-1.758502,-1.168741,-0.156006,0.071533,-0.68042
3.170424,5.741879,7.624767,-0.01013,-0.378391,-0.4451,-0.190674,-0.071533,-0.364258,1.239486,9.789262,-0.218955,2.421148,0.658438,-0.514294,-0.195557,-0.557373,-0.158203,0.264475,0.020468,9.895239,-1.904529,1.042151,0.176983,-0.088623,0.103027,-0.634521,-0.343362,-0.393593,9.068554,-1.480512,-1.112022,0.472132,-0.152588,0.061035,-0.604248,0.189963,3.198216,9.812444,-0.154626,-2.040982,-0.853355,-0.192871,0.074463,-0.671875
