# sampling frequency: 40
# units are seconds/meters/radians/a.u.
seg1_acc_x,seg1_acc_y,seg1_acc_z,seg1_gyr_x,seg1_gyr_y,seg1_gyr_z,seg1_mag_x,seg1_mag_y,seg1_mag_z,seg2_acc_x,seg2_acc_y,seg2_acc_z,seg2_gyr_x,seg2_gyr_y,seg2_gyr_z,seg2_mag_x,seg2_mag_y,seg2_mag_z,seg3_acc_x,seg3_acc_y,seg3_acc_z,seg3_gyr_x,seg3_gyr_y,seg3_gyr_z,seg3_mag_x,seg3_mag_y,seg3_mag_z,seg4_acc_x,seg4_acc_y,seg4_acc_z,seg4_gyr_x,seg4_gyr_y,seg4_gyr_z,seg4_mag_x,seg4_mag_y,seg4_mag_z,seg5_acc_x,seg5_acc_y,seg5_acc_z,seg5_gyr_x,seg5_gyr_y,seg5_gyr_z,seg5_mag_x,seg5_mag_y,seg5_mag_z
1.851899,-7.336761,6.252347,-0.007881,0.000519,-0.001077,-0.302979,0.48584,-0.04248,-0.10181,8.273292,5.26855,0.025129,0.004112,0.002264,-0.047852,0.409912,0.499512,-1.075475,-7.149303,6.709147,-0.002164,-0.003891,-0.001388,0.636475,0.122314,-0.156006,1.784263,-7.367985,6.321498,0.000818,0.001774,0.008476,0.145508,0.334717,-0.563965,0.688651,-6.158643,7.614809,-0.008501,-0.001225,-0.001221,-0.255127,0.405273,-0.444336
1.846397,-7.416139,6.193089,-0.009946,0.001999,9.4e-05,-0.309082,0.485352,-0.047363,-0.123555,8.340652,5.267326,-0.029063,0.009263,0.008112,-0.054199,0.409424,0.496826,-1.091916,-7.076394,6.711485,0.014199,0.013065,-0.002566,0.633789,0.123535,-0.158447,1.802049,-7.295027,6.34866,0.00948,0.000276,0.00396,0.139648,0.336914,-0.567383,0.681138,-6.104801,7.659903,0.016848,-0.004642,-0.009322,-0.258789,0.405273,-0.448242
1.841679,-7.412313,6.211951,0.01223,-0.000991,0.000386,-0.310547,0.48584,-0.046387,-0.12889,8.18361,5.253507,-0.027449,0.001267,0.005212,-0.048828,0.404785,0.496338,-1.114086,-7.074668,6.75979,-0.020402,-0.002491,0.001975,0.631348,0.122314,-0.156982,1.800288,-7.296334,6.347658,-0.020742,0.000825,0.01439,0.140381,0.334717,-0.564453,0.717031,-6.124952,7.644184,-0.014764,0.001343,0.004618,-0.258301,0.408447,-0.444336
1.852107,-7.340007,6.212572,0.004982,0.005527,-0.00117,-0.301514,0.477295,-0.052734,-0.111116,8.253686,5.229705,0.026064,0.012165,0.001403,-0.05127,0.416016,0.496826,-1.072513,-7.155374,6.699283,-0.009162,0.00526,0.002397,0.636963,0.11377,-0.162598,1.78088,-7.400733,6.321077,-0.008419,0.004768,0.011348,0.148193,0.329346,-0.571533,0.654251,-6.125559,7.638979,0.014604,0.007216,-0.009092,-0.253906,0.39624,-0.452148
1.841574,-7.40292,6.190399,-0.017654,-0.002217,0.000873,-0.302246,0.493408,-0.037354,-0.153156,8.332253,5.317587,-0.02839,0.001433,0.006458,-0.054443,0.416016,0.500977,-1.119762,-7.096997,6.727241,0.013611,0.006513,-0.004543,0.638184,0.128418,-0.151123,1.77505,-7.293738,6.350694,0.016423,0.003823,0.000162,0.14624,0.338379,-0.561035,0.687026,-6.097123,7.626556,-0.00295,-0.012553,-0.00149,-0.251953,0.411621,-0.438965
1.875934,-7.443998,6.16531,0.010581,0.004001,-0.00057,-0.297119,0.478027,-0.044922,-0.086711,8.201636,5.251132,-0.026094,0.006731,0.005642,-0.052002,0.401611,0.497559,-1.060912,-7.088332,6.734626,-0.017282,-0.001461,0.00155,0.642578,0.117432,-0.157471,1.808205,-7.312291,6.339721,-0.025651,-0.003549,0.018318,0.150391,0.331299,-0.567871,0.725657,-6.132077,7.64369,-0.006664,0.000586,-0.003614,-0.249023,0.399902,-0.446777
1.833897,-7.319487,6.225385,0.012699,0.002068,0.001437,-0.303955,0.480469,-0.051514,-0.14115,8.258003,5.242311,0.017748,0.009933,0.004974,-0.063721,0.413818,0.503662,-1.103807,-7.130783,6.728287,-0.00053,0.013691,0.001238,0.634521,0.11499,-0.162598,1.814749,-7.360469,6.324418,0.006546,0.001885,0.005428,0.145752,0.330322,-0.570068,0.687434,-6.141777,7.678241,-0.001971,0.005978,-0.002704,-0.255127,0.398682,-0.451416
1.854783,-7.374487,6.220281,-0.020187,0.001808,0.000545,-0.297852,0.477783,-0.043945,-0.122035,8.31758,5.286998,-0.014572,0.000894,0.002836,-0.057861,0.406006,0.500732,-1.117769,-7.076837,6.741536,0.002658,-0.002486,-0.003208,0.642578,0.113281,-0.152832,1.782399,-7.282397,6.350539,-0.000517,0.008115,0.008343,0.151123,0.325684,-0.564697,0.673391,-6.122256,7.625564,0.019394,-0.003886,0.000787,-0.248535,0.395508,-0.444092
1.825844,-7.431201,6.161437,0.006118,0.001462,-0.00195,-0.30542,0.477051,-0.050049,-0.136235,8.230293,5.273447,-0.033957,0.009628,0.007426,-0.057373,0.414795,0.497803,-1.079467,-7.115489,6.721748,-0.018168,0.006715,0.005289,0.633545,0.110107,-0.162354,1.763424,-7.362211,6.340825,-0.024391,-0.002055,0.016438,0.143311,0.325928,-0.573242,0.686621,-6.059,7.622987,0.000898,-0.002262,-0.009965,-0.256592,0.394043,-0.449707
1.85891,-7.343453,6.216499,0.018165,0.00129,0.000866,-0.298584,0.481201,-0.043213,-0.14623,8.2131,5.230883,0.007818,0.005835,0.002043,-0.05835,0.410889,0.504395,-1.113245,-7.139891,6.72469,0.003635,0.002264,-0.000366,0.639648,0.119873,-0.15625,1.790232,-7.364068,6.345239,0.011754,0.004054,0.003116,0.151611,0.331299,-0.564941,0.688806,-6.138922,7.651614,-0.025271,-0.002615,0.004567,-0.247559,0.401611,-0.443604
1.849934,-7.360797,6.218148,-0.015795,0.002955,9.4e-05,-0.296143,0.476807,-0.046875,-0.108917,8.330629,5.28852,0.008842,0.007674,0.002957,-0.05835,0.414551,0.499023,-1.074512,-7.079876,6.718433,0.007399,0.003067,-0.004026,0.642822,0.113281,-0.162354,1.788636,-7.282221,6.337176,-9.8e-05,-0.001923,0.008698,0.152588,0.328125,-0.569336,0.684842,-6.155084,7.636584,0.018942,-0.000495,-0.010697,-0.246338,0.395996,-0.446777
1.839791,-7.436663,6.177354,-0.003889,-2e-06,-0.00075,-0.300537,0.481445,-0.041016,-0.130762,8.249883,5.273681,-0.048739,0.004293,0.009233,-0.058105,0.412354,0.49707,-1.115309,-7.084884,6.744915,-0.016802,0.006124,0.002369,0.637451,0.115479,-0.155518,1.80984,-7.304875,6.336701,-0.015929,-0.002735,0.011561,0.147217,0.332764,-0.563965,0.720529,-6.087442,7.654151,-0.00212,-0.003375,0.001996,-0.251709,0.398926,-0.439941
1.862135,-7.377639,6.224395,0.019979,0.004842,-0.000152,-0.306152,0.484131,-0.050781,-0.113027,8.18711,5.22901,0.010682,0.01059,0.004044,-0.053223,0.421875,0.495605,-1.090639,-7.166258,6.711659,-0.018215,9e-06,0.003027,0.634033,0.121582,-0.166504,1.773958,-7.381362,6.309521,-0.016328,0.009844,0.014735,0.141602,0.333984,-0.570068,0.678194,-6.133696,7.63215,0.001642,0.007305,-0.00297,-0.256348,0.402832,-0.453857
1.823436,-7.335998,6.228448,-0.009017,-0.001019,0.000151,-0.307129,0.482422,-0.04541,-0.152836,8.349351,5.289881,0.013317,0.005803,0.002124,-0.061035,0.411865,0.49292,-1.118701,-7.123972,6.710084,0.024911,0.011025,-0.002711,0.634277,0.119141,-0.154785,1.753894,-7.343671,6.353592,0.020585,0.000738,0.001667,0.14209,0.332031,-0.565918,0.648167,-6.106957,7.628067,0.006546,-0.002811,-0.008746,-0.256348,0.404297,-0.445312
1.896915,-7.431024,6.181489,-0.008394,0.001445,-0.002819,-0.29834,0.478027,-0.046143,-0.082426,8.260727,5.280284,-0.048343,-0.000238,0.007683,-0.050781,0.409668,0.498047,-1.05517,-7.022198,6.737391,-0.001211,-0.001773,-0.002772,0.63916,0.113037,-0.158447,1.831882,-7.24313,6.368957,-0.00245,-0.005306,0.007726,0.148926,0.331055,-0.565918,0.730522,-6.115814,7.62568,-0.000575,-0.016322,0.000786,-0.250244,0.398438,-0.445801
1.832125,-7.386903,6.198858,0.015936,0.005435,0.00312,-0.305664,0.481201,-0.042725,-0.141754,8.193847,5.231145,0.003552,0.019418,0.00416,-0.063477,0.405762,0.50293,-1.098871,-7.136564,6.742256,-0.032216,0.013805,0.008105,0.63623,0.116699,-0.152588,1.807243,-7.357254,6.350538,-0.028213,0.007796,0.019312,0.14502,0.332764,-0.562012,0.716873,-6.133857,7.686173,-0.01637,0.016158,-0.007746,-0.253906,0.4021,-0.442383
1.848321,-7.338621,6.215337,-0.003671,-0.003118,0.00135,-0.300537,0.478271,-0.042725,-0.123856,8.317166,5.27681,0.008906,-0.003234,0.001777,-0.050537,0.414062,0.501953,-1.144251,-7.161461,6.723423,0.007024,-0.005073,-0.005751,0.637207,0.117676,-0.155762,1.766551,-7.388147,6.316297,0.004094,0.003395,0.007297,0.147705,0.329102,-0.565674,0.637017,-6.16854,7.603011,0.007541,-0.000497,0.007463,-0.254395,0.400146,-0.442139
1.850551,-7.396608,6.195495,-0.007264,0.004674,-0.000209,-0.310791,0.47583,-0.051025,-0.098112,8.284199,5.278181,-0.033416,0.009909,0.007477,-0.052002,0.416504,0.48877,-1.06341,-7.059787,6.722714,0.012504,0.007721,-0.001585,0.632568,0.112061,-0.162842,1.76581,-7.295677,6.321053,0.005109,0.000244,0.006386,0.139893,0.325928,-0.572754,0.674119,-6.033522,7.626502,0.044855,-0.010143,-0.019709,-0.261475,0.395752,-0.451172
1.846159,-7.405213,6.196371,0.00893,-0.002217,-0.00063,-0.309326,0.478271,-0.037598,-0.148962,8.180508,5.244348,-0.016667,0.005955,0.004819,-0.057373,0.409424,0.497559,-1.137714,-7.084914,6.725851,-0.022949,0.008471,0.002745,0.630615,0.112305,-0.151367,1.781532,-7.314165,6.333194,-0.015432,-0.003799,0.011393,0.139893,0.327637,-0.560791,0.720097,-6.06615,7.692189,-0.051812,-0.001901,0.00576,-0.259277,0.398682,-0.439941
1.862711,-7.34435,6.230792,0.004036,0.001097,0.00057,-0.309082,0.475098,-0.037109,-0.101982,8.306291,5.256062,0.024734,0.003127,0.003609,-0.057373,0.40918,0.496826,-1.072391,-7.168062,6.720511,-0.00709,-0.004739,0.001321,0.630371,0.112061,-0.149902,1.80779,-7.365062,6.303644,-0.004823,-0.002241,0.009268,0.139648,0.327393,-0.55957,0.68145,-6.252549,7.630582,-0.012447,0.008692,-4.6e-05,-0.259033,0.397217,-0.436523
1.862744,-7.391369,6.198355,-0.01313,0.003785,0.00114,-0.294922,0.478027,-0.051025,-0.124865,8.325525,5.28709,-0.036761,0.010441,0.004961,-0.057129,0.418701,0.496338,-1.103771,-7.081359,6.731477,0.018713,0.016622,-0.003714,0.644775,0.116455,-0.162354,1.801323,-7.313034,6.349398,0.008954,0.010708,0.005078,0.154297,0.327393,-0.574219,0.6605,-6.114986,7.640939,0.048556,-0.009413,-0.0136,-0.246338,0.399658,-0.453125
1.82572,-7.417009,6.204412,0.010059,0.001011,0.00198,-0.301758,0.47998,-0.04541,-0.142316,8.168692,5.260434,-0.021752,-0.000725,0.005842,-0.043945,0.414307,0.501709,-1.128317,-7.087112,6.744377,-0.02136,-0.004617,0.003337,0.638184,0.116943,-0.154785,1.748531,-7.308864,6.347673,-0.021887,0.005452,0.017345,0.147949,0.329346,-0.565674,0.707755,-6.046628,7.639367,-0.003923,-0.000317,0.003797,-0.251221,0.401123,-0.446045
1.855376,-7.33286,6.197399,0.009164,0.002113,-0.00033,-0.305908,0.489502,-0.044189,-0.109269,8.290509,5.239037,0.025534,0.011862,0.001402,-0.050781,0.409424,0.497314,-1.050726,-7.164167,6.705165,-0.006895,0.004574,-0.001668,0.636963,0.124023,-0.156006,1.769179,-7.383254,6.322601,-0.003615,-0.006215,0.008716,0.145752,0.337402,-0.567871,0.645401,-6.124868,7.621764,-0.017479,0.007214,-0.008327,-0.255127,0.406738,-0.446289
1.844637,-7.383137,6.193424,-0.01924,0.000635,-0.00075,-0.299072,0.48584,-0.051514,-0.124431,8.321404,5.293583,-0.033755,0.003556,0.007789,-0.057373,0.41333,0.499023,-1.126969,-7.076526,6.73675,0.013047,0.008052,-0.003916,0.640869,0.118896,-0.161377,1.819757,-7.272005,6.344949,0.015981,-3e-05,0.000774,0.153076,0.332275,-0.569824,0.683894,-6.150439,7.658987,-0.008306,-0.018005,-0.0007,-0.25,0.405029,-0.449219
1.865755,-7.459979,6.191942,0.005554,0.002458,-8.9e-05,-0.29834,0.475098,-0.041016,-0.101757,8.182857,5.236759,-0.018761,0.005529,0.006553,-0.055176,0.407715,0.492676,-1.088859,-7.088778,6.741482,-0.021465,-0.003103,0.000113,0.641113,0.113281,-0.155762,1.772709,-7.32601,6.347201,-0.028665,0.005022,0.020504,0.147949,0.328125,-0.567139,0.737005,-6.158389,7.66405,0.009571,0.00733,-0.004189,-0.250977,0.397949,-0.444336
1.826583,-7.327883,6.22089,0.022788,0.001161,0.00117,-0.298096,0.481201,-0.047363,-0.138799,8.279984,5.258187,0.02066,0.00867,0.003324,-0.056641,0.41626,0.500488,-1.095022,-7.150542,6.704799,0.001974,0.00907,0.001239,0.642822,0.115234,-0.162598,1.780989,-7.373455,6.300614,0.003492,-0.001549,0.006414,0.151611,0.330566,-0.570557,0.646552,-6.101051,7.637175,0.02064,0.003139,-0.0034,-0.249023,0.403809,-0.451172
1.869731,-7.372967,6.198567,-0.031433,-0.000288,-0.003391,-0.303467,0.485352,-0.045166,-0.088857,8.314925,5.305342,-0.025159,0.002488,0.004129,-0.053711,0.414551,0.494629,-1.088218,-7.077316,6.734669,0.005339,0.003119,-0.003815,0.635986,0.120361,-0.158447,1.802143,-7.306127,6.346121,0.001227,0.002078,0.007067,0.145264,0.334717,-0.567383,0.708721,-6.07543,7.644356,-0.010197,-0.016254,-0.003633,-0.254639,0.4021,-0.44458
1.905741,-7.478648,6.185179,0.018336,-0.014272,-0.00315,-0.303467,0.485596,-0.047607,-0.060741,8.235203,5.288978,-0.00793,-0.004017,0.002123,-0.059814,0.409912,0.496338,-1.039508,-7.12389,6.700294,-0.018908,-0.006952,0.006047,0.637939,0.122314,-0.158936,1.834348,-7.360007,6.305182,-0.012267,-0.013063,0.012866,0.147949,0.333496,-0.571777,0.874641,-6.143579,7.78701,-0.005284,-0.020844,-0.004442,-0.252686,0.403564,-0.44873
1.865256,-7.303756,6.206098,0.011405,0.028762,0.011213,-0.302734,0.488525,-0.037842,-0.136444,8.261156,5.189686,-0.001024,0.030499,-0.002113,-0.058594,0.41333,0.501221,-1.070643,-7.151024,6.696775,0.019304,0.035258,0.00546,0.638672,0.124023,-0.151611,1.82519,-7.271675,6.300632,0.029294,0.020033,0.004379,0.148438,0.338379,-0.560059,0.663999,-6.251196,7.756818,-0.042424,0.114201,0.004805,-0.250977,0.408691,-0.442383
1.819997,-7.349028,6.181494,-0.023011,-0.042116,-0.013224,-0.305664,0.47998,-0.05542,-0.114736,8.330669,5.341705,-0.020363,-0.019874,-0.010015,-0.053223,0.406006,0.49585,-1.166471,-6.9713,6.71999,0.009937,-0.015494,-0.00947,0.635254,0.11499,-0.170654,1.731228,-7.287068,6.341242,-0.038672,-0.008927,0.017098,0.142578,0.328613,-0.578369,0.623987,-6.020355,7.629472,0.104477,-0.030825,-0.015376,-0.255127,0.399902,-0.460205
1.779439,-7.51413,6.210472,-0.00781,0.030861,0.015903,-0.30249,0.48291,-0.039307,-0.190215,8.125724,5.212524,-0.032005,0.023917,0.016547,-0.05542,0.40625,0.494629,-1.103719,-7.225529,6.742272,-0.05169,0.021162,0.034391,0.638672,0.116943,-0.1521,1.793802,-7.477309,6.267335,-0.000204,0.011008,0.020313,0.147949,0.331787,-0.560059,0.775827,-6.065436,7.603411,-0.096847,0.086742,-0.000235,-0.251709,0.404053,-0.441406
1.772775,-7.285949,6.271744,0.052935,-0.018935,-0.010081,-0.306396,0.485352,-0.046631,-0.218088,8.302239,5.239316,0.051445,0.004088,-0.013808,-0.056641,0.411133,0.500977,-1.372989,-7.108397,7.09765,0.072634,0.033089,-0.032421,0.632568,0.12085,-0.157959,1.964435,-7.36463,7.571428,0.034004,0.000784,-0.014519,0.142822,0.337158,-0.571777,0.391818,-6.232504,7.47479,0.018677,0.062217,0.01992,-0.255615,0.404053,-0.447266
1.868971,-7.12449,6.141691,-0.043673,0.016614,0.013621,-0.306641,0.479492,-0.050293,-0.048399,8.591392,5.061443,-0.026041,-0.005257,0.027652,-0.052734,0.413086,0.504639,-1.454964,-6.601556,7.333841,-0.071901,-0.1743,-0.040567,0.633789,0.117676,-0.162598,2.147211,-6.839237,7.08145,-0.148775,-0.103251,0.043606,0.140625,0.333496,-0.568604,0.282229,-5.830561,7.140867,0.114004,-0.06195,-0.057661,-0.254883,0.399902,-0.449951
1.664995,-7.15091,6.346155,-0.112313,-0.021724,-0.014428,-0.30127,0.482422,-0.045654,-0.312788,8.243653,5.415666,-0.297664,0.046089,0.016114,-0.058594,0.408691,0.503662,-0.84542,-6.998777,6.312985,-0.416259,-0.13877,-0.079709,0.636719,0.118896,-0.16333,1.750396,-7.844032,5.103909,-0.597044,0.056083,0.150385,0.146729,0.340576,-0.559814,0.747792,-5.412119,7.809353,-0.072929,-0.127043,-0.007582,-0.251953,0.398193,-0.448242
2.124379,-8.146587,5.856744,-0.143112,0.028791,-0.006998,-0.297119,0.485107,-0.047852,0.060666,7.686909,5.559369,0.024974,-0.040627,0.027587,-0.061279,0.412109,0.498779,-0.631358,-8.23235,5.822718,-0.146822,-0.044909,0.022859,0.639404,0.124023,-0.162109,1.031464,-8.217206,4.999284,0.34348,0.11805,-0.06861,0.153076,0.340332,-0.567383,1.110937,-6.622419,7.878008,-0.52245,-0.067537,-0.011502,-0.247559,0.408691,-0.444092
2.078138,-7.603037,6.14423,0.278176,-0.032115,-0.003861,-0.296631,0.479004,-0.048584,0.139867,8.241073,5.128234,0.149349,0.03757,-0.021364,-0.054443,0.415283,0.494385,-0.546275,-7.371163,6.020697,0.431763,0.07682,-0.035348,0.637939,0.116211,-0.162842,1.563679,-6.011705,5.520787,0.227307,-0.11043,-0.103778,0.150635,0.330566,-0.566895,0.88484,-7.582756,7.651099,0.152447,0.084383,0.047094,-0.249023,0.404297,-0.444092
1.977516,-5.915964,7.544626,0.095478,-0.022979,0.056109,-0.301514,0.48291,-0.047607,-0.471769,8.910838,4.433078,0.192756,-0.061007,-0.038098,-0.062256,0.414551,0.495117,-0.90739,-6.358439,6.698988,0.166958,0.169948,0.078916,0.635986,0.118164,-0.161621,1.878222,-7.454054,6.208945,-0.122229,0.041125,0.135039,0.14917,0.333008,-0.566406,0.714248,-5.667508,8.140291,0.565319,-0.018119,-0.088126,-0.251221,0.397949,-0.448486
1.923962,-7.65254,5.200227,-0.700254,-0.000824,0.067146,-0.29541,0.48999,-0.04248,0.537096,8.855096,5.754955,-0.394588,-0.155226,-0.121258,-0.05127,0.412109,0.504395,-1.045339,-6.618686,7.283836,-0.063826,0.119302,0.0533,0.645996,0.124512,-0.164062,1.82188,-7.501045,7.43877,0.212857,-0.14808,-0.117002,0.149902,0.336426,-0.571533,1.279011,-4.709756,8.012193,-0.488189,-0.090603,0.135529,-0.243652,0.409912,-0.446533
1.450028,-8.789242,5.675162,0.330083,-0.071593,0.051976,-0.295898,0.486328,-0.043945,-0.840491,6.757765,5.54562,-0.216808,0.113375,0.076924,-0.052246,0.410645,0.501465,-1.901647,-7.757221,7.137947,-0.333887,0.099386,0.07669,0.644531,0.116211,-0.159668,2.335667,-7.457652,6.954029,-0.240558,-0.10973,0.099178,0.150391,0.334717,-0.568604,0.243861,-7.361882,6.136457,-0.497937,0.517662,0.133343,-0.238037,0.411865,-0.44458
1.255135,-6.570148,6.237697,0.014809,0.08274,-0.050689,-0.303955,0.487793,-0.045166,-0.278637,8.393712,5.566942,0.517972,-0.09926,-0.089044,-0.048584,0.422119,0.493408,-1.701143,-7.620916,7.017907,0.35811,-0.089288,-0.104538,0.635986,0.119873,-0.160889,1.566216,-7.482299,7.758451,0.40435,0.116832,-0.063523,0.139404,0.335205,-0.572754,-1.252787,-6.339479,7.347248,0.59468,-0.262894,-0.140672,-0.252686,0.407471,-0.448975
2.49624,-7.868985,5.92441,-0.11892,-0.166067,-0.003104,-0.304932,0.485596,-0.040283,0.378654,9.257235,4.976053,-0.237873,0.027601,0.143806,-0.057617,0.409668,0.489502,-1.008906,-4.332849,8.00524,0.123558,-0.245263,0.030734,0.635498,0.119141,-0.162842,2.078298,-2.8695,8.960349,-0.384438,-0.532067,-0.000655,0.135254,0.335938,-0.563477,2.10269,-5.110264,7.810974,0.131689,-0.494105,-0.063763,-0.259521,0.402588,-0.445068
1.344154,-7.686357,6.584968,-0.008348,0.174253,-0.07394,-0.300537,0.492432,-0.046631,-0.349424,7.861923,6.116967,-0.424282,0.230432,-0.037039,-0.056641,0.394775,0.498779,-1.407525,-7.565007,6.840994,-1.718687,-0.104062,0.013497,0.636719,0.13623,-0.156738,3.063341,-11.682776,5.333369,-2.750957,-0.266813,0.939739,0.144043,0.384033,-0.537109,1.018848,-5.845402,7.773701,-0.380157,0.584208,0.009009,-0.248779,0.415527,-0.446533
2.331797,-7.118591,5.720009,0.181383,-0.049178,0.018936,-0.30542,0.486572,-0.039795,-0.340528,7.442026,4.537275,0.074344,-0.029687,0.08002,-0.058838,0.404297,0.497803,-1.205911,-11.575322,5.445499,-0.273621,-0.493377,-0.085994,0.626953,0.130615,-0.155273,1.12926,-13.213621,4.345911,1.116381,0.145874,-0.511034,0.135498,0.362549,-0.541016,-0.71675,-6.937695,7.175224,-0.241771,-0.364996,-0.128261,-0.258789,0.411377,-0.436279
1.292295,-6.502618,6.818391,-0.274227,-0.006417,-0.062778,-0.305176,0.489014,-0.041748,0.003992,8.831386,5.403657,0.177168,0.005148,-0.068703,-0.058838,0.405029,0.492676,-0.334453,-6.268083,6.228926,1.389622,-0.132427,-0.511883,0.622803,0.136475,-0.170898,1.29484,-3.008287,7.311892,1.01049,-0.151198,-0.355942,0.131836,0.349854,-0.553955,1.84888,-5.960492,8.009549,0.483918,-0.128696,-0.090301,-0.259033,0.408447,-0.444824
2.622306,-9.004315,5.601583,-0.265842,-0.055064,-0.018152,-0.303467,0.480469,-0.035889,0.00843,8.723215,5.528384,-0.367336,0.065319,0.069241,-0.062012,0.410645,0.503906,-0.991412,-3.557526,6.981528,-0.717129,-0.226462,-0.098151,0.62085,0.132812,-0.162842,1.009533,-6.230181,6.471492,-2.121058,-0.576834,0.403274,0.12915,0.369629,-0.525879,0.766042,-5.967866,8.330783,-0.647933,0.129204,-0.010401,-0.255371,0.406006,-0.434814
2.04349,-6.746744,6.385164,0.433241,0.07943,0.02292,-0.299561,0.481445,-0.04834,0.500783,7.257594,5.168834,-0.312242,0.065782,-0.132927,-0.059082,0.396973,0.49585,0.039277,-9.719147,6.012345,-1.484274,-0.207141,0.069656,0.625244,0.138184,-0.16748,3.319082,-12.641826,4.64727,-0.284862,-0.856727,-0.143878,0.116455,0.376709,-0.536133,1.594217,-7.607475,7.656589,-0.101013,-0.037345,0.071565,-0.252197,0.410156,-0.442383
1.308926,-6.564319,6.744338,-0.436483,-0.08413,0.031848,-0.303223,0.483887,-0.039795,-1.351623,8.29707,4.92469,0.531465,0.080761,-0.007777,-0.056885,0.406006,0.497803,-2.398246,-10.171741,7.255006,0.795561,-0.189706,-0.333029,0.614258,0.14502,-0.171631,3.551981,-6.631756,6.482792,1.204375,0.18586,-0.596817,0.110352,0.364258,-0.540039,-0.083255,-5.956476,7.981811,0.524059,0.435121,-0.120968,-0.248535,0.404053,-0.446777
1.945956,-8.251721,6.089659,-0.285668,-0.047266,0.019463,-0.302246,0.496338,-0.027344,0.177029,10.104285,5.537181,-0.415989,-0.172389,-0.218517,-0.064697,0.4021,0.497559,-1.377829,-4.483547,8.255967,0.420893,-0.751931,-0.577465,0.603271,0.157959,-0.177979,3.432211,-6.05032,7.915028,-1.728225,-0.065219,0.342165,0.108643,0.394775,-0.507568,0.457673,-4.778829,8.399459,-0.427213,-0.279749,0.08707,-0.254639,0.418945,-0.432129
2.075535,-7.090398,6.417645,-0.234952,-0.143808,0.024523,-0.300293,0.49585,-0.03833,0.264064,7.704139,5.010844,-0.761209,0.203872,-0.09774,-0.064941,0.392578,0.492188,-0.990377,-5.881027,8.171036,-1.675044,-0.992079,-0.518366,0.5896,0.174561,-0.188232,4.766289,-14.401356,4.934574,-1.925104,0.695857,0.217251,0.117676,0.419189,-0.493896,2.383575,-6.889782,8.091003,-0.959449,0.34349,0.059598,-0.25,0.426758,-0.438232
1.953852,-8.184672,6.154054,-0.74789,-0.104792,-0.005253,-0.302002,0.493896,-0.023193,-0.377285,8.121963,5.417809,-0.143593,0.238801,-0.392964,-0.067139,0.404053,0.487793,-0.823952,-10.025472,6.086663,-1.1308,-1.15513,-0.888102,0.573975,0.191162,-0.188477,2.370701,-10.921127,5.750509,0.97925,1.672214,-0.750584,0.125732,0.402344,-0.491455,0.230206,-7.69822,8.132121,-0.288641,0.644435,0.095491,-0.23877,0.422852,-0.431641
2.39141,-8.135055,5.961651,-0.258366,-0.165788,0.062358,-0.30127,0.491211,-0.020996,0.141698,8.635277,5.461045,-0.701083,0.27346,-0.363409,-0.070312,0.389404,0.49585,-0.383632,-7.737322,6.78229,0.458009,-1.583033,-1.243695,0.544678,0.19751,-0.211182,1.206295,-4.230206,7.422895,-0.134099,1.555708,-0.400655,0.131104,0.396973,-0.484375,0.26299,-5.947878,8.70546,-0.025204,0.209504,-0.186401,-0.237793,0.415771,-0.438721
2.197392,-7.70936,6.713713,-0.778688,0.048434,0.122922,-0.291992,0.508301,-0.013184,-0.307675,7.505347,5.859487,-0.691127,0.374877,-0.20184,-0.075195,0.375732,0.495117,1.941042,-4.620009,5.745028,-0.42283,-1.374795,-0.910511,0.532715,0.227295,-0.21582,0.056241,-7.785169,5.983553,-1.792761,1.28574,-0.141385,0.150879,0.432861,-0.452148,1.079358,-6.314654,8.554395,-1.094149,0.551886,0.128197,-0.220215,0.442383,-0.425537
2.698959,-9.41479,6.603792,-0.829682,0.059581,0.148268,-0.293701,0.505615,-0.008545,-0.290482,8.256754,5.923608,-0.397764,0.468594,-0.452557,-0.091309,0.376953,0.491455,0.193718,-7.104636,4.636838,-1.418791,-1.108667,-0.851876,0.509521,0.244873,-0.216309,-0.713158,-10.254967,5.578942,-0.453074,0.835391,-0.60065,0.141602,0.436523,-0.442139,-0.662767,-8.276763,8.055076,-0.999123,0.582447,0.006904,-0.220459,0.445557,-0.422363
2.530849,-8.251894,6.873763,-0.752955,0.368318,0.190937,-0.284668,0.508545,-0.008057,-0.217828,8.578207,7.024218,-1.010502,0.644562,-0.36057,-0.092529,0.358887,0.494141,2.760517,-8.893297,4.216999,-0.758836,-1.257517,-1.026576,0.494141,0.256348,-0.219238,-0.397628,-7.656656,6.381858,-0.604524,-0.052611,-0.969648,0.125977,0.444824,-0.432861,-0.790926,-6.973584,7.878421,-0.281572,0.016339,-0.20984,-0.218018,0.44458,-0.418701
2.383047,-8.602222,5.907784,-1.210752,0.593492,0.191782,-0.276855,0.51001,-0.010986,-1.064945,6.228617,6.738626,-1.251444,0.731971,-0.349853,-0.096191,0.34668,0.501953,2.025544,-7.991869,4.58602,-0.726978,-0.443888,-1.102312,0.481445,0.274658,-0.218506,0.697688,-9.361908,4.24606,-1.326462,-0.747421,-0.75473,0.104248,0.45459,-0.42041,-0.168725,-5.606042,8.243206,-1.057644,-0.166248,-0.118136,-0.217041,0.449463,-0.413818
2.271968,-8.923737,5.17894,-0.903439,0.80791,0.230783,-0.255859,0.51123,-0.008301,-1.038676,5.746025,6.759625,-0.332973,0.519155,-0.153549,-0.09375,0.333496,0.486572,3.443543,-8.928097,3.781587,-1.084091,-0.993216,-0.862854,0.473145,0.287598,-0.20874,2.04081,-8.558768,4.587253,-0.268861,-0.997717,-1.204491,0.08252,0.456543,-0.407227,0.169631,-8.027842,7.298357,-1.865057,-0.184986,-0.014616,-0.208496,0.464111,-0.386719
1.835572,-8.501483,5.19681,-1.304891,1.148421,0.336802,-0.249023,0.52002,-0.024414,-1.266596,7.049477,7.154392,0.025147,0.677398,-0.184159,-0.099609,0.340332,0.486572,2.191,-9.920435,4.425733,-0.319404,0.228832,-0.796292,0.462158,0.29834,-0.216797,1.11631,-7.313583,4.307713,-0.738978,-1.093549,-0.792867,0.052979,0.462158,-0.408936,0.353736,-9.469055,6.220207,-1.002035,-0.35901,-0.069325,-0.213623,0.473877,-0.387207
1.211425,-12.508804,3.699385,-0.854965,0.839948,0.130969,-0.233154,0.53125,-0.020996,-1.497148,8.772099,7.080992,0.019634,0.703212,-0.225299,-0.101807,0.321533,0.479736,1.159501,-6.87366,5.672319,0.174775,-0.944715,-1.118689,0.447754,0.318115,-0.218506,2.712047,-8.001838,3.317473,-0.685256,-1.55049,-1.038633,0.023926,0.479492,-0.387695,1.368539,-9.340819,5.798169,-0.541705,-0.42199,-0.086445,-0.211914,0.489014,-0.374023
1.258158,-8.756491,4.583408,0.828294,0.885433,0.299492,-0.2229,0.525879,-0.028809,-1.777189,8.27849,6.901575,-0.607205,0.736855,-0.298014,-0.105225,0.308594,0.469238,4.10894,-7.143326,5.316043,-1.361357,-0.156265,-0.629249,0.432617,0.327148,-0.193115,4.819307,-8.418144,3.901139,-1.262952,-0.582212,-0.628446,0.003418,0.484131,-0.358643,1.115164,-8.912094,5.720624,0.169752,-0.210816,0.011095,-0.215332,0.480957,-0.367676
1.64012,-7.125989,4.538959,-0.706167,0.591097,0.108646,-0.21167,0.533447,-0.032959,-0.798366,6.235576,6.141044,-0.402727,0.733188,-0.409905,-0.106445,0.292725,0.462646,0.037059,-10.758782,5.150959,-1.046005,-0.834054,-1.160586,0.415527,0.347656,-0.193604,3.20509,-12.817979,2.721036,-1.549631,-0.02793,-0.702863,-0.012451,0.502441,-0.34082,1.536508,-7.472267,5.455062,0.069968,-0.369884,-0.216142,-0.220703,0.477783,-0.372314
1.08851,-10.447758,3.270655,-0.565327,0.722942,0.175901,-0.189697,0.532471,-0.045654,-1.826568,7.270217,7.108199,0.140438,1.011367,-0.342288,-0.110352,0.294922,0.456543,6.501348,-8.572019,3.975532,-0.06151,-1.129197,-1.433344,0.398682,0.356689,-0.199707,3.953014,-10.461315,2.789118,0.21076,0.113873,-1.369967,-0.024902,0.495117,-0.344727,1.734066,-7.179915,5.987119,-0.622579,-0.134806,0.18388,-0.207031,0.482178,-0.366943
1.056476,-9.045856,3.787266,0.413278,0.491831,0.111034,-0.179443,0.520752,-0.055176,-2.529107,7.54505,7.440457,-0.007138,0.705685,-0.300624,-0.111572,0.27417,0.452637,3.689654,-8.320749,3.163394,-0.940503,-0.115388,-1.007652,0.378174,0.362061,-0.191895,3.163472,-6.512302,4.085003,-0.512824,0.117729,-1.058347,-0.046387,0.485596,-0.335693,1.640254,-9.486351,5.484334,-0.521179,0.011266,-0.026997,-0.207764,0.476074,-0.359863
0.471876,-8.891207,3.966002,-0.20728,0.282355,0.078101,-0.162354,0.521729,-0.057373,-2.373897,6.91829,7.176238,0.266772,0.601996,-0.410354,-0.108887,0.266602,0.438232,5.446041,-10.901132,2.276255,-0.770753,-1.027183,-1.060144,0.361572,0.375,-0.19165,3.097914,-9.561281,3.18898,-1.441624,-0.874087,-0.772787,-0.063965,0.498535,-0.309326,1.535291,-9.348789,5.14247,0.525679,0.203009,0.052382,-0.197266,0.471191,-0.372559
0.913352,-10.114871,3.825566,0.43007,0.115033,0.016262,-0.156006,0.519043,-0.06543,-2.973453,7.358239,7.25596,0.771051,0.517649,-0.438919,-0.099365,0.251953,0.425293,5.448013,-10.506319,3.191967,0.130219,0.181902,-1.098267,0.335938,0.378906,-0.195068,4.713031,-12.783049,2.339968,-0.623207,-0.959327,-1.114815,-0.092773,0.496094,-0.295898,1.076798,-7.095064,5.738048,0.756163,0.332855,-0.140349,-0.195557,0.459473,-0.38208
0.29618,-8.759526,4.61654,0.489061,-0.008533,-0.066678,-0.149658,0.516357,-0.068359,-3.185619,7.370715,7.007348,0.644446,0.376945,-0.531744,-0.10083,0.23877,0.405029,2.627264,-9.197473,3.734518,0.219686,-0.789823,-1.14555,0.302734,0.386719,-0.199951,4.520896,-10.442356,2.358713,0.673593,-0.62336,-1.406354,-0.125,0.483887,-0.296387,1.093458,-7.527833,6.268802,-0.100825,0.433815,0.081498,-0.190918,0.459229,-0.376953
1.085332,-9.475594,4.799602,0.506463,-0.082841,-0.063414,-0.121582,0.503174,-0.081055,-3.312211,7.700027,6.751746,1.190136,0.252306,-0.562136,-0.081543,0.223389,0.393555,7.997257,-8.258756,3.320844,-0.06906,-0.865117,-1.237373,0.289795,0.381592,-0.218018,5.270588,-6.175405,2.841707,0.093817,-0.97947,-1.296374,-0.137695,0.470703,-0.299072,0.314988,-9.315097,5.739723,0.462369,0.569793,-0.029162,-0.167236,0.443115,-0.394531
0.554643,-8.02535,5.38142,0.572798,0.013302,-0.117027,-0.115234,0.503906,-0.088623,-3.463621,9.599455,6.970007,0.710463,0.130619,-0.485423,-0.069092,0.194824,0.359375,5.36923,-8.464608,3.453185,-0.482178,-0.06266,-0.821552,0.260498,0.388428,-0.219971,6.862121,-7.443009,1.780317,-1.235148,-0.769521,-0.716518,-0.160889,0.477539,-0.274902,-0.070303,-6.886755,6.58788,1.196908,0.234107,-0.221264,-0.16748,0.432617,-0.408447
0.855491,-8.118805,5.548083,-0.169528,-0.083959,-0.115782,-0.106445,0.494385,-0.0896,-3.494402,8.389326,6.345795,-0.1144,-0.031567,-0.515046,-0.048584,0.160645,0.354004,5.186377,-8.307492,3.375423,-0.56383,-0.914663,-1.174988,0.225342,0.385498,-0.218506,5.610179,-10.128025,1.295219,-1.003368,-0.264809,-0.867051,-0.179932,0.466553,-0.257324,1.003888,-5.465757,7.084464,-0.091695,0.195975,-0.077863,-0.16333,0.422607,-0.404297
0.890743,-9.759051,5.05608,-0.190994,-0.104158,-0.168732,-0.096436,0.48999,-0.099854,-3.357359,7.267234,5.928577,0.213681,-0.075825,-0.578445,-0.038818,0.13916,0.323242,6.63755,-7.829444,2.85432,-0.761171,-0.494487,-0.952195,0.19458,0.385254,-0.229004,5.604961,-8.390774,1.348702,-0.426739,-0.344242,-1.022246,-0.199707,0.455322,-0.258301,0.681321,-8.344789,6.289117,-1.052442,0.549704,-0.00694,-0.152588,0.428955,-0.404541
1.396873,-9.167322,5.119534,0.340748,-0.103948,-0.116133,-0.084229,0.493652,-0.104492,-3.042326,7.871287,6.006952,0.610856,-0.113039,-0.614393,-0.013672,0.097168,0.296387,6.380524,-7.782398,2.693635,-0.88934,-0.750004,-1.154991,0.160645,0.394043,-0.22998,6.058634,-7.364215,1.345407,-1.229125,-0.332433,-0.898188,-0.217773,0.461426,-0.238281,-0.307747,-10.119536,5.782273,0.24989,0.217158,-0.074984,-0.147217,0.428711,-0.405273
1.384913,-9.301237,5.135623,0.130479,0.009334,-0.146329,-0.078369,0.480713,-0.106689,-3.011873,7.57679,5.998144,0.431766,-0.077065,-0.353577,0.005859,0.07373,0.280762,9.075293,-8.640649,2.255968,-0.698969,-0.263232,-0.959353,0.123779,0.386963,-0.223633,6.707676,-9.56898,-0.294242,-0.808351,-0.630281,-0.876618,-0.242676,0.445557,-0.217041,0.725477,-7.882953,6.146982,0.967533,-0.110621,-0.244898,-0.152588,0.399902,-0.414551
1.218959,-9.547239,5.05832,0.953944,0.050257,-0.131973,-0.057373,0.480713,-0.129883,-3.440382,6.915437,5.216536,1.101128,-0.095607,-0.40128,0.020996,0.053467,0.265869,5.257444,-8.208333,2.778372,0.099703,0.095623,-1.077205,0.095703,0.386963,-0.239502,7.439097,-7.750381,0.317055,0.090739,-0.000446,-1.228126,-0.256836,0.43457,-0.226562,0.447894,-6.854344,6.329775,0.685793,0.098463,-0.005427,-0.13916,0.394043,-0.429199
1.389239,-7.685108,6.014244,0.608156,0.011466,-0.189813,-0.042969,0.472412,-0.135254,-3.219046,9.067098,5.48667,1.475227,-0.093745,-0.37836,0.042236,0.028809,0.234863,7.489178,-5.807319,2.577197,0.006198,-0.72491,-1.213741,0.059082,0.378906,-0.243164,5.968872,-5.886521,0.720601,-0.495974,0.065023,-0.895576,-0.272949,0.424561,-0.216797,0.482396,-7.615319,6.414504,0.29725,-0.290378,-0.138754,-0.138916,0.384033,-0.424805
1.201126,-8.953889,5.738322,0.293854,-0.015129,-0.175017,-0.036621,0.476318,-0.153076,-3.688499,10.73867,5.491483,0.8003,-0.046236,-0.427363,0.068848,0.00415,0.216797,9.022818,-5.257299,2.403357,-1.043923,0.140753,-0.963789,0.02417,0.389893,-0.247803,7.57335,-6.494819,0.077326,-1.238728,-0.306959,-0.922372,-0.294922,0.425049,-0.206787,0.933115,-7.608651,6.525826,0.780526,-0.181494,-0.097672,-0.140625,0.373779,-0.440186
1.416938,-8.678436,5.744208,0.192169,-0.12623,-0.232999,-0.022461,0.477783,-0.155518,-3.76151,9.095392,5.591019,-0.216984,-0.144515,-0.341178,0.08252,-0.031738,0.201172,7.247514,-7.808508,2.268577,-1.587384,0.096484,-0.857382,-0.002197,0.39917,-0.235352,7.929969,-7.633991,-0.259458,-1.005536,0.220449,-0.745257,-0.304688,0.422363,-0.194824,0.666814,-6.217396,6.88354,0.242078,-0.368234,-0.295234,-0.141602,0.367676,-0.439697
1.344457,-9.672041,4.737594,0.68166,-0.165969,-0.264806,-0.014648,0.474609,-0.16748,-3.369179,6.265165,4.337016,0.770376,-0.118408,-0.377353,0.093994,-0.054688,0.175293,8.680654,-8.524464,1.695313,-0.255271,0.058004,-0.969822,-0.040283,0.396484,-0.238281,7.183354,-5.957569,0.078708,-0.373411,0.059018,-1.012998,-0.325195,0.411621,-0.191162,1.56365,-8.334158,6.155198,0.043318,-0.372265,0.00096,-0.146484,0.364014,-0.435547
1.665642,-7.369437,5.147075,1.058812,-0.245637,-0.25197,0.001465,0.463867,-0.18042,-3.095422,8.979378,4.790256,1.713836,-0.11953,-0.282864,0.115967,-0.079102,0.161865,9.156939,-5.562037,1.78758,0.072645,0.314283,-0.993004,-0.067383,0.389648,-0.244141,9.162056,-6.250169,-1.266161,-1.032226,0.022303,-0.579154,-0.330322,0.402832,-0.176025,1.177516,-8.471271,6.266524,1.150569,-0.211742,-0.312423,-0.140625,0.338867,-0.446045
1.445274,-7.167867,5.239109,0.66896,-0.309107,-0.236054,-0.000732,0.466309,-0.197021,-3.300506,10.069914,4.705914,0.632618,-0.175867,-0.112316,0.138672,-0.103271,0.142334,8.672697,-5.015941,1.976504,-0.613492,0.568151,-0.749357,-0.102051,0.397705,-0.252686,8.136593,-6.770789,-0.746204,-0.138425,0.666963,-0.885547,-0.351074,0.401611,-0.193848,1.598354,-5.895901,6.827814,1.457864,-0.356025,-0.147055,-0.14917,0.323242,-0.462891
1.707129,-6.917967,5.405466,0.491269,-0.428511,-0.217985,0.009766,0.459229,-0.196045,-3.341018,7.995862,4.404379,0.153061,-0.3058,-0.078493,0.157227,-0.13208,0.129395,7.744121,-6.067433,2.098378,-0.727815,0.386425,-0.679078,-0.126465,0.393555,-0.240967,8.073218,-3.060321,0.899422,-0.02097,0.342821,-0.77315,-0.357422,0.386719,-0.187256,1.819442,-4.824985,7.319718,0.270641,-0.056148,-0.144948,-0.141602,0.309814,-0.455078
1.900375,-7.540046,5.326699,0.252287,-0.444162,-0.218627,0.015869,0.463867,-0.214111,-3.059553,8.18801,4.277703,0.779302,-0.356505,-0.019383,0.168701,-0.143555,0.110107,9.203801,-5.762294,1.650829,-0.194779,0.19586,-0.609148,-0.154053,0.398682,-0.260254,9.539336,-2.948154,0.030672,-0.867858,0.529318,-0.293471,-0.364014,0.391602,-0.192383,1.299256,-7.116542,6.571292,-0.253173,0.054775,0.042139,-0.137207,0.312256,-0.463867
2.405718,-6.192618,5.772027,0.274251,-0.436628,-0.127937,0.023193,0.456543,-0.219971,-2.708113,10.710529,5.13482,0.188745,-0.451193,0.118813,0.189697,-0.172607,0.098389,9.966466,-4.36967,1.995954,-0.548674,0.447776,-0.464612,-0.174805,0.395752,-0.263428,9.302681,-5.875645,-0.058623,-1.42761,0.758355,-0.072022,-0.364502,0.394531,-0.187744,1.144737,-6.768223,6.8644,0.629931,-0.20549,-0.19356,-0.135254,0.299072,-0.467285
2.299769,-7.564174,5.469999,-0.644748,-0.354728,-0.165687,0.018799,0.459717,-0.218994,-2.624201,7.645752,4.51362,-1.341828,-0.530355,0.362894,0.203613,-0.200928,0.070312,7.868757,-6.513737,1.658485,-0.826763,0.656385,-0.219891,-0.203613,0.399414,-0.260986,8.328618,-8.05758,-0.446426,0.067986,0.978749,-0.264798,-0.375732,0.381348,-0.199219,2.035988,-5.140997,7.326656,-0.14487,-0.157014,-0.099181,-0.139893,0.291504,-0.459229
2.813066,-8.387303,5.254321,0.536777,-0.307243,-0.04546,0.028564,0.448486,-0.220947,-2.282777,5.486443,3.546891,0.496215,-0.57801,0.270567,0.212158,-0.22583,0.058838,7.834905,-6.082443,1.616092,0.448119,0.021432,-0.506955,-0.221191,0.386963,-0.27002,7.627814,-2.764303,1.436683,0.731103,0.864613,-0.670481,-0.378174,0.362793,-0.211914,1.347154,-7.205127,6.611644,-0.468455,-0.04299,0.156299,-0.13208,0.285156,-0.451904
2.661035,-5.654559,6.202547,-0.056035,-0.207484,-0.046824,0.035889,0.460449,-0.229492,-2.078463,10.198314,5.31499,0.546948,-0.567313,0.42454,0.218506,-0.249023,0.043701,10.171879,-3.984285,1.841895,0.183417,0.583942,-0.30326,-0.23877,0.39209,-0.28418,9.016563,-4.081269,1.330917,-0.755322,0.543854,0.222236,-0.375488,0.376221,-0.21582,1.431118,-7.3809,6.516845,0.316051,-0.396852,-0.160861,-0.136475,0.285156,-0.455811
2.576936,-8.075571,5.216778,0.072509,-0.195651,0.007843,0.04126,0.4646,-0.230713,-2.543935,8.493881,3.867341,-0.844944,-0.71956,0.439534,0.225342,-0.272949,0.023926,5.076697,-3.914604,2.104586,0.151736,0.521609,-0.015501,-0.250488,0.39624,-0.290771,6.862499,-4.184331,1.400438,0.669436,1.154214,-0.373408,-0.376953,0.37085,-0.234863,1.960682,-5.648473,6.731997,0.667799,-0.429866,0.122602,-0.13623,0.278076,-0.455322
2.60817,-4.386906,6.185592,-0.384868,-0.212331,0.144862,0.057617,0.469727,-0.239746,-1.606071,8.205583,4.461027,-0.546393,-0.794399,0.362644,0.236572,-0.29248,0.001953,10.532121,-3.772757,1.719884,-0.705563,-0.320649,-0.233732,-0.262695,0.400146,-0.291992,7.039145,-2.898954,2.434744,-0.957638,-0.055272,0.183677,-0.372803,0.380615,-0.22998,1.946483,-3.988675,7.421257,-0.74119,-0.385674,-0.096406,-0.130859,0.281738,-0.45166
2.453354,-8.567118,5.00332,-1.29343,-0.181693,0.025441,0.061035,0.468994,-0.237793,-2.245651,8.03644,4.70643,-0.836249,-0.738728,0.509916,0.237061,-0.311035,-0.014404,7.40515,-6.405135,1.748884,-0.555446,1.342329,0.296894,-0.268799,0.399414,-0.307617,8.476009,-7.8071,0.349666,-0.699928,0.203382,0.168544,-0.375244,0.373535,-0.234131,1.815022,-6.847645,6.003642,-1.345219,-0.346669,0.378546,-0.133057,0.286865,-0.443359
2.678091,-7.433119,5.129451,-0.264503,-0.143975,0.143155,0.070068,0.473145,-0.23584,-1.750999,8.154224,5.424422,-0.976824,-0.841654,0.312864,0.241455,-0.329346,-0.043457,5.276825,-4.779758,2.955254,0.130464,-0.194897,-0.325454,-0.280273,0.399414,-0.307617,6.566858,-4.207907,2.308585,0.73968,0.49721,-0.396968,-0.37793,0.366699,-0.245361,1.592046,-6.933275,6.57767,-0.449811,-0.565437,-0.209115,-0.131592,0.289795,-0.433105
1.958916,-8.373897,4.189324,-0.803839,-0.142467,-0.044324,0.08252,0.486572,-0.237061,-1.775844,5.429547,4.9088,-1.052152,-0.739537,0.479831,0.239258,-0.354736,-0.066406,9.384649,-5.085056,2.5549,-0.43468,0.401104,0.341755,-0.280029,0.414795,-0.316895,8.251309,-2.889238,1.851615,-0.485746,-0.062145,0.3859,-0.367676,0.380859,-0.245605,2.555613,-6.752395,6.405427,-0.448268,-0.454152,0.17627,-0.126709,0.297363,-0.428955
2.199675,-7.343395,4.428058,0.429402,-0.182598,0.048391,0.076904,0.471191,-0.244385,-1.866105,6.638121,5.063726,0.559231,-0.780231,0.212193,0.246094,-0.364258,-0.06958,2.987298,-6.056818,3.46098,0.07407,0.248908,0.025156,-0.299805,0.398438,-0.322021,8.804276,-6.859745,1.187486,-0.605631,1.378623,0.447869,-0.370361,0.374268,-0.254639,1.550141,-6.14817,5.99959,0.204047,-0.239396,-0.1127,-0.139404,0.275146,-0.431641
2.406091,-4.878242,4.983257,-1.15625,-0.249222,-0.111287,0.08667,0.474365,-0.236084,-1.036503,9.89199,6.633492,-0.842915,-0.854317,0.239709,0.24707,-0.371826,-0.09668,7.9577,-4.277106,2.539777,-0.141638,-1.344334,-0.06833,-0.313232,0.393311,-0.312744,6.279552,-6.243115,2.618442,-0.016184,1.781732,0.283034,-0.351807,0.372803,-0.272705,2.330489,-3.884082,6.123913,-0.415869,-0.463962,-0.185485,-0.138672,0.268799,-0.418945
2.374777,-10.122888,3.090365,-0.784958,-0.12922,-0.207572,0.096924,0.498779,-0.229492,-0.854646,5.102866,4.579218,-1.529087,-0.704691,0.385777,0.249512,-0.38208,-0.123779,8.743335,-5.602042,1.289326,-0.43147,0.145165,0.171554,-0.314209,0.417236,-0.306641,5.829939,-6.176759,2.095053,-0.081392,1.214094,0.342466,-0.335938,0.394043,-0.279053,2.241048,-5.537668,5.42346,-1.206582,-0.1296,0.044638,-0.130127,0.297852,-0.39917
2.402459,-6.24167,4.49987,0.295998,-0.195078,-0.181851,0.098145,0.488281,-0.231934,-0.752401,5.417,4.768609,0.490367,-0.632428,0.282923,0.237793,-0.392578,-0.125977,5.720076,-5.61479,1.80965,0.377376,-0.302718,-0.07134,-0.327881,0.411621,-0.312012,5.749913,-5.579889,2.643857,0.35102,0.766059,0.019183,-0.3396,0.383057,-0.290527,1.746064,-7.481841,5.377026,-0.623942,-0.230046,-0.351341,-0.137207,0.290527,-0.393555
2.621371,-7.318179,4.176506,-0.576537,-0.141872,-0.330627,0.099609,0.488037,-0.230713,-0.367502,8.276187,5.251058,0.179097,-0.527013,0.412031,0.243408,-0.404053,-0.134766,8.320403,-3.923693,1.849554,0.575737,-0.129254,-0.052681,-0.336426,0.4021,-0.318115,5.957813,-4.794733,2.710097,0.167932,0.272702,0.167065,-0.335938,0.379883,-0.294922,2.452539,-6.934984,5.782675,0.481396,-0.377501,-0.146763,-0.138916,0.27417,-0.391113
3.152967,-6.673023,4.894273,-0.010323,-0.102676,-0.176045,0.107422,0.483887,-0.237061,-0.513001,7.801621,5.321517,-0.674302,-0.574438,0.434358,0.240479,-0.410645,-0.152832,7.028439,-3.734939,2.340686,-0.195048,0.113692,-0.011434,-0.340576,0.405029,-0.324219,7.612914,-6.261993,1.630826,-0.270024,0.157649,0.059172,-0.333252,0.382812,-0.299561,2.55566,-4.000568,7.084668,0.07247,-0.163252,-0.493549,-0.141357,0.264404,-0.389648
2.746515,-6.589577,5.430406,-1.019433,0.042037,-0.292881,0.111328,0.489502,-0.227539,-0.312449,6.923788,5.20745,-0.557682,-0.482635,0.414931,0.233398,-0.417725,-0.168701,6.471154,-4.693722,2.42739,-0.343326,-0.054016,-0.031507,-0.349365,0.402832,-0.320068,6.441273,-5.508856,2.494953,0.18544,0.930215,-0.076468,-0.329102,0.376465,-0.312012,2.437639,-5.215908,6.980836,-1.418462,-0.169093,-0.006961,-0.141602,0.27002,-0.369873
2.9289,-8.608558,4.417656,-0.858598,0.126516,-0.233275,0.130371,0.491699,-0.219971,-0.608756,7.277475,5.690197,-0.753838,-0.4308,0.311002,0.228516,-0.427979,-0.189941,6.192771,-4.909305,2.402071,-0.4561,-0.121532,-0.180683,-0.345215,0.405029,-0.312744,4.837969,-5.592769,3.886366,-0.810312,0.544341,0.0446,-0.31543,0.381592,-0.300781,2.011451,-7.808969,6.558057,-1.166776,-0.088648,-0.39207,-0.130859,0.269287,-0.351562
2.567982,-8.228701,4.415903,-0.493824,0.279096,-0.248876,0.141846,0.49292,-0.216064,-0.01111,5.638786,5.335225,-0.853209,-0.390865,0.380835,0.230469,-0.431641,-0.193604,7.003504,-5.470011,1.789112,-0.37589,-0.279654,-0.257525,-0.354248,0.407227,-0.306396,6.035938,-8.931152,2.478969,-0.627706,0.161179,-0.053978,-0.315674,0.38623,-0.293701,2.216449,-7.764852,6.657263,-0.326508,-0.236808,-0.273222,-0.130615,0.26416,-0.344727
2.9512,-8.701601,4.019807,-0.233304,0.390128,-0.252393,0.143066,0.495117,-0.227295,-0.065265,5.3219,5.441721,0.182893,-0.198147,0.399354,0.221191,-0.436035,-0.20459,7.863089,-5.780611,1.684189,0.021276,0.058017,-0.406065,-0.370117,0.404053,-0.31665,5.659743,-7.689283,2.423355,0.726493,0.055674,-0.64337,-0.32959,0.375732,-0.313477,2.590703,-7.104878,6.621443,-0.062213,-0.11116,-0.384836,-0.138184,0.256592,-0.347168
2.761503,-7.735047,4.247417,0.17606,0.594133,-0.220016,0.149414,0.496094,-0.236328,0.228296,7.661294,6.320522,0.431558,-0.138501,0.511027,0.220459,-0.452637,-0.201172,7.795504,-4.783891,1.9876,0.402459,0.160173,-0.500125,-0.38501,0.400391,-0.32666,7.244176,-4.030905,1.662967,0.492675,-0.593214,-0.608366,-0.349609,0.366943,-0.31665,2.374587,-6.611528,6.150302,0.145596,0.002641,-0.346217,-0.142334,0.25,-0.348145
2.786245,-6.425471,4.938074,-0.387158,0.681371,-0.315264,0.168213,0.498779,-0.235107,-0.350615,8.651954,6.647611,-0.385786,0.010462,0.645027,0.209229,-0.455811,-0.212646,8.188184,-3.887693,2.595898,-0.258844,0.211049,-0.469507,-0.383301,0.395508,-0.326416,8.837863,-5.527375,1.697927,-0.923045,0.216532,-0.254109,-0.339111,0.372559,-0.311035,2.227225,-4.938557,6.313793,0.102737,-0.214969,-0.510085,-0.131836,0.239502,-0.340576
2.546138,-7.435787,4.646653,-1.13502,0.792316,-0.344204,0.186279,0.515869,-0.214355,-0.593281,8.131753,6.485654,-1.078183,-0.140485,0.636591,0.209229,-0.465332,-0.23584,8.046383,-5.789494,1.88135,-0.948915,0.244612,-0.381112,-0.387207,0.405029,-0.309814,6.619009,-8.394361,1.483047,-0.324553,0.501583,-0.422492,-0.340576,0.37793,-0.300781,3.274936,-4.622377,5.946652,-1.281212,-0.155426,-0.472162,-0.128906,0.245117,-0.311523
2.719391,-8.7541,3.754517,-0.908122,0.667476,-0.380991,0.19751,0.529297,-0.221191,-0.14342,6.887303,6.292238,-0.91704,-0.204686,0.611022,0.200928,-0.455322,-0.246094,7.903626,-6.526916,1.174551,-0.221698,0.134722,-0.523189,-0.395996,0.405762,-0.321289,6.992202,-5.603183,2.156631,0.187609,0.104882,-0.788024,-0.347656,0.370605,-0.31543,3.020301,-8.177631,5.147137,-1.929471,-0.008471,-0.239868,-0.126221,0.257568,-0.301514
2.605096,-8.711701,3.568201,-0.858277,0.671663,-0.359497,0.205811,0.519531,-0.215332,0.002942,7.597366,7.217287,-0.589707,-0.191508,0.600044,0.191406,-0.469727,-0.265381,10.793443,-5.360149,1.726977,-0.334865,0.312623,-0.586107,-0.405273,0.387207,-0.321533,9.059161,-5.699684,1.336865,-0.666553,-0.28629,-0.374427,-0.359619,0.354248,-0.307861,3.522276,-9.893627,4.458367,-0.701753,-0.067869,-0.554876,-0.126465,0.234863,-0.292969
2.035821,-9.810681,3.156278,-0.277705,0.46235,-0.385919,0.212158,0.534424,-0.212646,-0.936277,6.765614,7.134868,-0.612175,-0.412157,0.641932,0.178223,-0.464355,-0.273193,7.20325,-7.153443,2.266161,-0.525058,0.828217,-0.205808,-0.406738,0.397705,-0.31958,9.485896,-8.033587,0.619692,-0.239735,0.788311,-0.349188,-0.357666,0.363525,-0.309814,3.139632,-8.051642,4.60857,0.288359,0.264381,-0.431467,-0.120605,0.232422,-0.289307
2.347607,-7.285842,3.980041,0.011638,0.289796,-0.396564,0.215332,0.538818,-0.220703,0.035072,7.460487,7.492313,0.028772,-0.685354,0.499336,0.168213,-0.473633,-0.281982,9.831331,-7.319918,1.509902,0.041926,-0.540292,-0.714085,-0.422363,0.389893,-0.320801,8.445333,-6.625799,1.498052,0.397421,0.942696,-0.482944,-0.356445,0.35376,-0.327393,2.822063,-6.245237,5.180201,-0.233658,0.144396,-0.563446,-0.117676,0.220947,-0.286377
2.017971,-8.760783,3.829714,-0.815539,0.201195,-0.475481,0.219238,0.543213,-0.218018,-0.47018,8.108508,7.46724,-0.479203,-0.728898,0.617878,0.157715,-0.485352,-0.290283,9.886191,-5.863213,1.387224,0.456798,1.13239,-0.229697,-0.422607,0.375,-0.340576,8.566112,-4.939724,2.265781,0.346318,1.292205,-0.228667,-0.348145,0.341797,-0.348633,3.393347,-7.829188,4.315222,-0.927367,0.357333,-0.285493,-0.111572,0.212158,-0.280029
2.311661,-8.853162,3.607026,-0.136921,0.015051,-0.461591,0.227783,0.544922,-0.214844,0.077817,7.297052,7.46995,-0.650559,-1.005265,0.341327,0.147949,-0.480957,-0.310547,5.215235,-3.960033,2.491149,-0.157964,-0.227431,-0.446045,-0.425537,0.362549,-0.334961,6.239844,-4.851118,3.729269,-0.509758,1.26695,-0.157497,-0.33252,0.335205,-0.354248,2.135887,-8.353537,4.559427,-0.313779,0.426357,-0.529212,-0.092285,0.196777,-0.272461
2.145926,-8.676131,3.681079,-0.897057,0.033248,-0.524595,0.23291,0.561523,-0.20752,0.242535,6.295924,7.442106,-0.777387,-0.91891,0.456737,0.119629,-0.484131,-0.320068,11.854186,-6.17506,1.033222,-1.025643,0.169555,-0.047237,-0.425293,0.374268,-0.327148,7.201252,-7.325023,2.646652,-0.415026,0.523926,0.037595,-0.32666,0.345947,-0.35376,2.861386,-7.948985,4.935179,-0.718523,0.143308,-0.449563,-0.081299,0.195312,-0.26001
3.094592,-10.746474,2.955748,-0.181538,-0.055756,-0.424142,0.238281,0.568604,-0.205078,0.583802,5.785818,7.59862,-0.149862,-1.179591,0.355989,0.105713,-0.477539,-0.329346,6.694373,-7.973032,1.849914,0.08236,0.75878,-0.07855,-0.418701,0.370361,-0.33252,8.080122,-6.003446,2.742127,0.578101,0.570902,-0.372789,-0.323975,0.334717,-0.360596,2.944121,-9.854876,4.370322,-0.779764,0.407953,-0.305139,-0.065186,0.192139,-0.25
3.356996,-8.458766,3.568405,0.191333,0.139188,-0.355916,0.244629,0.573242,-0.210449,1.490468,6.343268,7.89621,-0.1084,-1.246201,0.606489,0.087158,-0.482178,-0.342041,11.258894,-6.328504,2.074005,0.5246,-0.202107,-0.230609,-0.421143,0.360107,-0.337158,9.485402,-4.7884,3.385539,0.137975,0.554387,0.206255,-0.308105,0.331299,-0.367676,2.687942,-10.221627,4.094783,0.123374,0.089368,-0.454148,-0.049805,0.179932,-0.249756
3.381671,-8.30309,3.456168,0.019589,0.119743,-0.256625,0.245117,0.580078,-0.220215,1.219894,6.096199,7.226377,0.021186,-1.522323,0.58522,0.065674,-0.48999,-0.338379,8.239251,-5.176823,2.141964,0.51661,1.088934,0.198704,-0.408447,0.356689,-0.36499,7.812647,-5.702123,3.448548,0.180486,1.290771,0.220824,-0.293701,0.328857,-0.391357,3.498216,-8.107424,4.524257,0.751173,-0.073574,-0.335199,-0.037842,0.168457,-0.259033
3.524097,-7.343904,3.961373,-0.400047,0.179727,-0.220198,0.248535,0.592041,-0.215088,2.371089,7.533297,7.673844,-0.280811,-1.681542,0.586275,0.039062,-0.48877,-0.348633,7.312733,-4.751851,2.357677,-0.291038,-0.316809,0.042351,-0.41333,0.35791,-0.357666,6.450262,-5.998707,4.731852,-0.302333,0.862729,0.313923,-0.280518,0.33374,-0.391602,3.786216,-6.101081,5.23643,-0.375319,0.018193,-0.329386,-0.027588,0.167725,-0.251465
3.2649,-9.562486,3.29808,-0.75105,0.157879,-0.241348,0.247803,0.603027,-0.202148,1.927209,5.874381,7.20385,-1.059127,-1.746892,0.540157,0.01709,-0.487061,-0.370361,9.135079,-6.76889,1.689731,-0.488009,0.531062,0.323263,-0.411377,0.358398,-0.353027,6.285496,-7.750959,4.409479,-0.276329,0.707556,0.316804,-0.276123,0.333252,-0.386963,3.382957,-8.29878,4.166136,-1.107603,0.104452,-0.019423,-0.015137,0.166992,-0.235107
3.455901,-9.333246,3.137493,0.222945,0.205663,-0.217896,0.25,0.613525,-0.210205,2.955678,4.034821,6.422701,-0.165434,-1.929745,0.430662,-0.006104,-0.487549,-0.371094,5.647368,-7.056869,2.286364,0.312884,0.092064,0.050323,-0.407471,0.355713,-0.360596,5.469586,-7.322609,4.914086,0.347519,0.458535,0.088373,-0.263672,0.331055,-0.397217,2.811076,-9.232983,3.928579,0.107591,-0.135201,-0.400408,-0.001709,0.165039,-0.241211
3.259722,-8.192175,3.437699,0.085966,0.210902,-0.282711,0.25293,0.623291,-0.214355,3.232789,5.599269,6.707437,0.65072,-1.792685,0.425269,-0.039307,-0.488037,-0.361328,8.792582,-5.556993,2.100539,0.631491,0.008759,0.018196,-0.407715,0.353516,-0.368652,5.617688,-6.182163,4.193923,0.415975,-0.102037,0.167778,-0.263428,0.329834,-0.40332,3.736026,-7.254427,4.235056,0.670467,-0.364344,-0.339425,0.010986,0.162598,-0.246094
3.255352,-8.812649,3.450158,0.210453,0.204527,-0.2734,0.256592,0.635742,-0.226318,3.33196,7.079004,6.65951,0.2785,-1.917587,0.395831,-0.05249,-0.494141,-0.365723,6.17988,-4.704857,2.523873,0.417974,0.465008,0.156637,-0.398682,0.352295,-0.383789,6.578971,-5.673237,3.796965,0.327694,0.084703,0.149301,-0.254395,0.327881,-0.413574,3.737115,-6.58363,4.570256,0.011141,-0.138357,-0.34473,0.028076,0.164795,-0.253906
3.207698,-8.223801,3.885839,0.04336,0.122086,-0.338741,0.24585,0.647949,-0.231934,3.962778,6.48279,6.274468,-0.173138,-1.915426,0.308304,-0.085693,-0.501709,-0.355957,7.27154,-5.271937,2.727083,-0.09008,-0.161444,0.104088,-0.405518,0.355225,-0.387451,5.199343,-6.368243,5.075503,-0.06209,0.183432,0.248936,-0.258545,0.333496,-0.421387,3.465773,-7.997856,4.080823,-0.371862,-0.259989,-0.271205,0.036133,0.173096,-0.258789
2.782473,-9.419301,3.189467,-0.035257,0.021067,-0.381874,0.242432,0.651367,-0.240479,4.193696,5.855972,5.862095,0.122658,-1.88113,0.127982,-0.107178,-0.500732,-0.340576,5.983393,-5.617414,2.917471,0.369215,0.393235,0.087796,-0.401855,0.34375,-0.404785,4.095331,-7.592564,5.817044,-0.004213,-0.180809,0.076992,-0.257812,0.326172,-0.42627,3.363373,-8.485471,3.780227,0.249816,-0.329218,-0.415147,0.047852,0.164551,-0.268555
3.723478,-9.003557,2.834491,0.417109,-0.087002,-0.427462,0.237061,0.651611,-0.233643,5.217161,5.848486,5.205594,0.029717,-1.679274,0.047685,-0.122559,-0.500732,-0.339355,6.52276,-4.176624,3.268022,0.353013,-0.506585,-0.264012,-0.405518,0.332275,-0.389648,5.439366,-7.309001,4.399575,0.406673,-0.774698,-0.230827,-0.264893,0.314209,-0.411865,3.895183,-7.535631,3.715673,0.298907,-0.460425,-0.488704,0.058105,0.162354,-0.259766
3.312396,-7.702658,3.516808,0.629594,-0.068319,-0.378189,0.232666,0.651367,-0.248535,4.448054,4.998856,4.183776,0.50961,-1.602524,0.171278,-0.13623,-0.510498,-0.337891,8.289556,-4.807012,3.246765,0.222308,0.349783,-0.083272,-0.400879,0.322998,-0.399902,6.354825,-5.998093,4.552646,0.575675,-0.411338,-0.230097,-0.27124,0.301514,-0.421631,4.195773,-7.824987,3.699897,0.38306,-0.404126,-0.34846,0.07251,0.161133,-0.270508
3.51232,-7.630928,4.367475,0.247719,-0.179848,-0.430018,0.217529,0.65918,-0.263184,5.437567,7.148971,4.280751,0.938665,-1.559439,-0.016128,-0.153076,-0.518799,-0.306641,4.683746,-4.473527,3.378814,0.681221,-0.033128,-0.469244,-0.411133,0.312256,-0.414062,4.519199,-6.698662,4.271213,0.138682,-0.377322,-0.300881,-0.28125,0.301025,-0.427979,3.795112,-6.883658,4.420206,0.721587,-0.394745,-0.530787,0.075195,0.165283,-0.289551
3.232077,-8.923017,4.62963,0.280683,-0.321431,-0.492311,0.209473,0.661865,-0.259766,5.406872,8.163191,4.55855,0.342567,-1.370389,-0.024395,-0.164795,-0.520752,-0.301758,8.624907,-2.16458,3.286599,0.680708,-0.291407,-0.670805,-0.417725,0.297363,-0.407959,6.049399,-6.025034,3.990045,0.763234,-0.99088,-0.732736,-0.297852,0.283691,-0.419922,4.146269,-6.225519,5.235482,0.262779,-0.677435,-0.397308,0.083984,0.16748,-0.288818
3.771994,-8.95647,4.550859,0.396504,-0.367748,-0.548717,0.196777,0.674561,-0.276367,6.231846,7.456594,4.394524,0.047785,-1.172609,-0.329629,-0.17627,-0.523193,-0.297852,6.346543,-2.010588,4.529666,-0.365886,0.37149,-0.464156,-0.413086,0.306396,-0.421631,7.231129,-3.477676,5.795961,0.250886,-0.161753,-0.77338,-0.300781,0.282959,-0.435547,5.006467,-7.76618,4.899881,-0.100074,-0.483656,-0.479462,0.092773,0.189697,-0.310303
2.689642,-8.838485,4.058023,0.517982,-0.508521,-0.646673,0.17627,0.664795,-0.279297,5.145619,6.394464,4.172148,0.165485,-0.801988,-0.422512,-0.168701,-0.520508,-0.29126,5.877034,-4.242345,3.789064,-0.218568,-0.639554,-0.718417,-0.429932,0.284912,-0.405762,4.33501,-4.648678,5.596923,-0.112855,-0.22911,-0.522839,-0.310303,0.268799,-0.425293,3.48333,-7.767378,4.965113,0.77125,-0.285512,-0.587988,0.09375,0.185303,-0.313232
3.463899,-7.917277,3.857423,0.672569,-0.559852,-0.697939,0.161377,0.67627,-0.284424,5.482611,6.428935,4.077768,0.490902,-0.689929,-0.567139,-0.167969,-0.535156,-0.280762,8.203087,-2.777225,3.520325,0.678276,-0.229063,-0.874839,-0.439209,0.282715,-0.40625,6.127052,-4.204622,4.792212,0.444296,-0.844747,-0.98778,-0.328369,0.268555,-0.423584,3.791701,-6.07124,5.374083,0.753324,-0.730064,-0.739544,0.092285,0.206543,-0.327393
3.69051,-7.698009,4.276244,0.512477,-0.522938,-0.708265,0.143555,0.667969,-0.298096,5.114188,6.65061,3.826221,0.499157,-0.321702,-0.392894,-0.170654,-0.541748,-0.277832,7.047504,-1.574786,4.469944,-0.007297,-0.265307,-0.756973,-0.447021,0.266357,-0.406982,7.115753,-3.141841,4.411523,0.248088,-0.519204,-0.749583,-0.339111,0.250244,-0.428467,4.685948,-6.618443,5.125663,0.125339,-0.397719,-0.549093,0.093994,0.207275,-0.34082
4.003019,-6.04068,5.314963,0.442373,-0.333105,-0.620744,0.129395,0.65918,-0.30127,4.317908,7.866729,3.776665,0.497881,-0.348426,-0.302635,-0.164551,-0.549561,-0.260254,8.771742,-2.863955,3.857698,-0.495137,-0.288171,-0.701823,-0.451416,0.253906,-0.401123,6.374956,-2.728692,3.846666,0.023048,-0.634046,-0.922563,-0.353516,0.233154,-0.42041,3.162547,-6.638719,5.654238,0.2961,-0.577567,-0.63774,0.091797,0.215576,-0.348389
4.499945,-6.854228,5.078815,-0.511358,-0.197029,-0.593512,0.119873,0.674316,-0.296387,4.89779,7.915138,3.785183,-0.352674,-0.357136,-0.064377,-0.174316,-0.54126,-0.268311,8.598056,-3.814961,4.065722,-0.446829,0.19057,-0.56028,-0.455078,0.261475,-0.401367,8.286561,-2.350982,3.772563,-0.314543,-0.757119,-0.65997,-0.364746,0.239502,-0.408936,4.940928,-6.220196,5.670915,-0.214884,-1.197219,-0.522002,0.081787,0.238281,-0.352783
4.245291,-8.015272,4.474746,0.082111,-0.038054,-0.453233,0.105469,0.674805,-0.297119,4.344164,6.393997,3.238047,-0.096532,-0.363615,0.049271,-0.170166,-0.540527,-0.273438,7.938575,-4.105948,4.119087,-0.235542,0.008135,-0.56161,-0.461914,0.253174,-0.394775,7.888764,-4.199911,2.992235,-0.592273,-0.115891,-0.496376,-0.374756,0.23877,-0.404785,5.444718,-7.03623,5.212099,-0.368859,-0.725486,-0.382157,0.074219,0.253662,-0.36377
4.385014,-6.46318,4.506158,-0.019168,-0.071146,-0.439229,0.092773,0.679932,-0.302246,4.974045,7.539345,3.689073,0.416931,-0.473962,0.100976,-0.184326,-0.555176,-0.258545,9.309477,-3.864555,3.778491,-0.009063,0.131617,-0.497328,-0.46582,0.249512,-0.399902,7.821238,-3.876161,2.479821,0.528168,-0.229961,-0.632965,-0.383057,0.230713,-0.412598,4.685206,-7.179646,5.085467,-0.001876,-0.968378,-0.459063,0.058838,0.272705,-0.372314
4.247727,-7.269083,4.11548,-0.099205,-0.105659,-0.426958,0.085449,0.689697,-0.296387,4.825953,8.333798,3.992131,0.127526,-0.417271,0.278447,-0.19043,-0.545898,-0.250244,8.783528,-3.179463,4.008359,0.132849,0.362685,-0.300205,-0.46167,0.250244,-0.400879,9.126123,-0.406435,3.735968,0.333427,0.139699,-0.489433,-0.380127,0.22583,-0.412109,6.13644,-6.027354,5.285649,0.330107,-0.997444,-0.433843,0.047363,0.288818,-0.375244
4.693603,-6.387313,4.43249,-0.193686,-0.09898,-0.447518,0.071045,0.685303,-0.297852,5.338637,8.408336,4.147466,-0.17556,-0.551678,0.413471,-0.202393,-0.545166,-0.25,10.036742,-3.272601,4.242407,-0.436674,0.451154,-0.193207,-0.460205,0.244873,-0.407959,7.948354,-3.374634,3.814286,-1.233054,0.150005,0.183244,-0.378418,0.234131,-0.405029,6.117123,-4.954945,5.742691,-0.35521,-0.494622,-0.399749,0.033447,0.30127,-0.381104
4.073008,-7.084493,4.253763,-0.695652,-0.138672,-0.516121,0.063965,0.699707,-0.286621,5.124626,7.898176,4.296413,-0.4248,-0.446829,0.556514,-0.213379,-0.541504,-0.254639,8.084064,-4.273891,4.256015,-0.331246,0.913763,0.018296,-0.449219,0.251953,-0.413086,7.933081,-5.798512,3.347671,0.035791,0.025627,-0.276354,-0.377686,0.233887,-0.411133,5.433754,-6.006113,5.565987,-0.916563,-0.424059,-0.270445,0.025879,0.332764,-0.37793
5.271963,-7.447441,4.344382,-0.693672,-0.12496,-0.562314,0.049805,0.69873,-0.281006,5.58592,7.529493,4.272421,-0.551157,-0.57343,0.630287,-0.22998,-0.53125,-0.269287,8.850803,-3.802675,4.59207,-0.353251,0.429511,-0.097819,-0.449951,0.244141,-0.422607,8.456658,-2.056385,4.679305,0.171336,0.249366,-0.255545,-0.378662,0.222656,-0.412109,6.054355,-6.483392,4.829681,-0.770372,-0.439054,-0.469241,0.010254,0.344482,-0.378662
4.811267,-8.554236,3.505579,-0.610841,-0.021396,-0.563338,0.047363,0.716553,-0.278076,5.697243,5.993636,3.85761,-0.514097,-0.510857,0.771926,-0.244141,-0.525635,-0.255859,8.427655,-5.339174,4.230217,-0.37734,1.037157,0.266279,-0.423584,0.263916,-0.43335,7.91375,-4.404366,3.692854,-0.860496,0.275134,0.431655,-0.359375,0.251465,-0.413086,6.20049,-7.052046,4.349492,-0.769458,-0.285378,-0.356911,0.008301,0.37915,-0.378418
5.101563,-7.254381,3.539336,0.137471,-0.099095,-0.5228,0.024658,0.709717,-0.274414,5.675711,5.961607,3.663496,0.233819,-0.598482,0.675775,-0.260986,-0.522705,-0.25,6.438612,-4.598983,3.829736,0.654321,0.438122,-0.091224,-0.430908,0.251221,-0.439697,7.887739,-5.89264,3.742166,0.480199,0.788945,-0.03305,-0.362305,0.238281,-0.419678,6.077199,-7.174042,4.155299,-0.138201,-0.22247,-0.537826,-0.019775,0.392578,-0.376953
5.41992,-6.553967,3.804239,-0.413941,-0.115719,-0.58688,0.019531,0.70459,-0.273926,6.186886,6.561861,3.656472,-0.006146,-0.606704,0.743058,-0.274414,-0.522705,-0.249512,9.20392,-2.740515,3.573282,0.280832,0.5493,0.116143,-0.418457,0.241943,-0.452881,5.895263,-3.416672,5.944478,0.443137,0.568848,0.078418,-0.3479,0.228516,-0.436768,6.595388,-5.896593,4.220371,-0.015155,-0.194732,-0.528341,-0.028076,0.396973,-0.385254
5.560114,-7.569074,3.612792,-0.030423,-0.053758,-0.530419,0.01416,0.715576,-0.27002,6.127762,5.614286,3.295141,-0.021368,-0.662951,0.678671,-0.286133,-0.513428,-0.245605,6.413122,-3.804616,3.414502,-0.023963,0.885156,0.155685,-0.404541,0.250732,-0.458984,6.61273,-4.65352,4.860087,-0.221908,-0.452163,0.142036,-0.345703,0.239502,-0.425537,6.561754,-5.644844,3.938238,-0.268618,-0.011431,-0.469163,-0.039795,0.421631,-0.37793
5.848156,-5.67204,4.489808,-0.330127,-0.096765,-0.610849,-0.006836,0.711914,-0.259277,7.0289,6.502607,3.558371,0.030297,-0.675157,0.500273,-0.290039,-0.513428,-0.238037,7.53766,-3.195871,3.372989,0.125591,0.178957,-0.111151,-0.408936,0.246338,-0.459229,8.077554,-5.648023,4.244907,-0.215151,-0.062209,-0.076261,-0.355957,0.238525,-0.422607,6.458858,-5.480311,3.917267,-0.467239,-0.143147,-0.543194,-0.064697,0.43457,-0.371338
5.625463,-8.224004,3.384653,-0.714505,0.023122,-0.643057,-0.020996,0.708496,-0.255615,6.375593,5.336504,3.290205,-0.705231,-0.527928,0.350568,-0.306396,-0.507812,-0.240723,6.558888,-2.981285,3.426945,-0.177399,0.598818,-0.037056,-0.404785,0.240967,-0.468262,6.540343,-5.46939,4.767286,0.130875,0.018,-0.157818,-0.357178,0.226318,-0.432129,6.788034,-6.156468,3.275364,-0.622087,-0.132809,-0.478089,-0.087402,0.445068,-0.374512
5.822477,-7.597146,3.745669,0.212194,-0.152302,-0.65403,-0.041748,0.706055,-0.256592,6.92749,4.114775,2.706154,-0.01578,-0.656645,-0.095894,-0.310059,-0.507324,-0.238281,5.610693,-3.104398,3.135162,-0.084282,-0.538231,-0.30315,-0.420898,0.241699,-0.461914,7.733863,-3.486549,4.90031,0.134627,-0.081979,-0.361388,-0.367432,0.228271,-0.43042,6.359714,-6.580778,2.922471,-0.339747,-0.130629,-0.639199,-0.114258,0.461914,-0.370361
6.516222,-6.998105,4.192832,-0.174122,-0.089723,-0.691859,-0.050293,0.709229,-0.252441,7.425668,5.958024,3.040625,0.419205,-0.410416,-0.296983,-0.315674,-0.512695,-0.230957,9.174349,-3.209881,2.706273,-0.162302,-0.366271,-0.315478,-0.424805,0.244385,-0.454834,7.166992,-5.074346,4.529593,-0.77627,0.045468,-0.015007,-0.361816,0.239502,-0.420166,7.123331,-6.739859,3.052179,-0.069211,-0.514174,-0.620273,-0.137451,0.472412,-0.364746
6.238902,-8.12165,3.615492,0.302274,-0.084964,-0.649184,-0.059082,0.712402,-0.259033,6.451439,5.964972,2.832347,-0.103128,-0.435491,-0.531995,-0.303467,-0.518066,-0.227539,5.805387,-3.823177,3.143483,0.074795,-0.276513,-0.466545,-0.42334,0.24585,-0.453125,6.748646,-7.73661,3.001291,0.079844,-0.310275,-0.50642,-0.366943,0.244385,-0.424072,7.223303,-6.457051,2.83874,0.223011,-0.322229,-0.710192,-0.161621,0.484619,-0.370117
6.628523,-6.395312,3.902701,0.50916,-0.095546,-0.660187,-0.080811,0.69165,-0.261963,7.468955,5.231494,2.456116,0.301686,-0.46692,-0.622443,-0.312256,-0.518799,-0.213379,9.292496,-3.115775,3.557442,0.178909,-1.015395,-0.782013,-0.447266,0.226807,-0.444336,8.026443,-4.689927,3.687944,0.709511,-0.281853,-0.878019,-0.38208,0.216309,-0.426514,6.759425,-6.079941,3.200786,0.173906,-0.711779,-0.668952,-0.19873,0.472412,-0.369873
6.572591,-6.522165,3.863507,0.361591,0.078491,-0.552534,-0.081299,0.695068,-0.273193,6.045303,6.643471,2.809745,0.729126,-0.250513,-0.525319,-0.297363,-0.53418,-0.209717,8.612569,-3.680608,4.363661,-0.096293,0.118064,-0.570915,-0.442871,0.230225,-0.449463,7.473653,-3.972753,4.048766,-0.107144,-0.270668,-0.593977,-0.38623,0.222168,-0.427734,7.759146,-6.58578,2.580397,0.256305,-0.754013,-0.644194,-0.221924,0.483154,-0.369629
5.653978,-5.724581,4.132185,0.140124,0.158704,-0.568179,-0.086914,0.679199,-0.27002,6.413359,7.783487,3.552782,0.050238,-0.60013,-0.477037,-0.295654,-0.531494,-0.197266,6.453999,-3.019782,4.59686,0.272731,-0.757082,-0.857973,-0.453125,0.210938,-0.437988,8.289732,-3.6925,3.42895,0.204599,-0.231058,-0.825402,-0.389648,0.205811,-0.419922,5.913313,-5.035542,2.927052,0.414232,-0.717466,-0.640497,-0.249756,0.46875,-0.361816
6.120198,-6.997831,3.700945,-0.359161,0.136095,-0.632293,-0.10376,0.676514,-0.264893,6.617277,6.687619,3.203266,-0.348699,-0.24006,-0.352643,-0.291748,-0.543945,-0.209473,9.965427,-1.767067,4.494227,-0.351794,-0.592756,-0.667131,-0.470215,0.203369,-0.427002,8.303191,-2.223275,4.896915,-0.237855,0.347324,-0.606908,-0.396973,0.197754,-0.421143,7.020564,-4.717629,2.535704,-0.496579,-1.512526,-0.56831,-0.293457,0.470215,-0.34375
6.049328,-6.904824,3.586843,0.193377,0.197571,-0.597723,-0.113525,0.669434,-0.271973,5.63025,6.656798,2.973407,0.255866,-0.433247,-0.377616,-0.291748,-0.535645,-0.200439,7.737496,-3.754815,3.78204,-0.730082,-0.332732,-0.468553,-0.479736,0.20874,-0.419678,7.040979,-3.369669,3.796978,-0.470897,-0.10734,-0.475494,-0.402344,0.200928,-0.419678,8.226192,-6.501158,1.920424,-0.59188,-1.024856,-0.52805,-0.327148,0.476318,-0.328857
6.676903,-6.247898,3.551454,-0.368302,0.022957,-0.71457,-0.126953,0.669189,-0.267578,7.663793,8.461466,3.736548,0.122204,-0.45073,-0.379436,-0.289062,-0.54541,-0.190674,9.883272,-3.744151,3.207061,0.0439,-0.661709,-0.672862,-0.491455,0.201416,-0.413086,9.579858,-3.161768,3.476025,-0.181424,-0.27633,-0.597929,-0.41333,0.19751,-0.417969,7.292053,-6.138606,2.018058,-0.065728,-1.303364,-0.666542,-0.366699,0.467529,-0.30957
6.424361,-8.624585,2.510023,-0.133578,-0.012009,-0.733453,-0.132324,0.6604,-0.264648,6.279478,7.072189,3.257995,-0.454441,-0.123252,-0.380786,-0.2854,-0.540771,-0.197998,8.762665,-2.540834,3.597542,-0.132778,-0.142808,-0.462826,-0.490723,0.194092,-0.410645,8.773709,-3.718916,3.505026,-0.353274,0.469004,-0.326924,-0.403564,0.195557,-0.422607,9.294717,-5.907097,1.427528,-0.40145,-1.2296,-0.66129,-0.392334,0.459961,-0.287109
6.43755,-5.689549,2.889886,0.529405,-0.234889,-0.73865,-0.141113,0.658203,-0.269531,6.185039,6.801824,3.10041,0.400168,-0.414338,-0.459368,-0.287598,-0.546875,-0.185303,9.389488,-3.360181,3.298282,-0.483131,-0.670481,-0.449278,-0.49585,0.200439,-0.397705,7.603854,-3.482069,3.833186,0.055474,-0.066823,-0.531052,-0.405518,0.197754,-0.419922,7.63058,-6.542156,0.97366,-0.424741,-0.539912,-0.587815,-0.411377,0.455811,-0.275146
5.858433,-5.35904,2.336849,-0.37358,-0.38294,-0.759315,-0.157959,0.650146,-0.270508,5.718159,8.432756,3.222612,0.021564,-0.228242,-0.288573,-0.281494,-0.555908,-0.192627,10.064894,-3.867469,2.868015,-0.168893,0.092112,-0.301428,-0.498047,0.19873,-0.410156,8.938321,-2.403426,3.034368,-0.227182,-0.249298,-0.356964,-0.408936,0.194824,-0.427002,6.791709,-6.322427,0.227121,-0.066643,-1.01032,-0.667251,-0.438232,0.444824,-0.264648
6.586307,-5.649281,2.08679,0.117367,-0.579026,-0.776077,-0.180908,0.630127,-0.250488,5.439852,6.713617,2.721488,-0.486117,-0.600842,-0.162985,-0.274658,-0.545898,-0.193604,8.234019,-2.939429,3.485573,-0.013393,-0.064014,-0.340405,-0.509033,0.180176,-0.39502,8.284696,-3.480042,2.936332,-0.46823,-0.060455,-0.219189,-0.423584,0.187988,-0.410156,8.039136,-4.328504,0.13473,0.261179,-0.900946,-0.624085,-0.473877,0.42041,-0.236572
6.398055,-4.203252,2.660862,-0.127118,-0.66399,-0.865771,-0.197266,0.630615,-0.249756,6.351068,6.210108,2.633706,0.191732,-0.450891,-0.028129,-0.286621,-0.560303,-0.177246,10.682977,-3.127701,3.640076,-0.397861,0.010101,-0.13679,-0.507324,0.189941,-0.396729,8.74765,-3.447919,2.931764,0.077146,-0.397085,-0.300112,-0.427246,0.192383,-0.4104,7.319177,-2.491495,-0.32295,-0.005941,-0.694962,-0.667519,-0.492188,0.409424,-0.227295
7.411329,-3.859395,2.74622,-0.013601,-0.57479,-1.000912,-0.204834,0.628174,-0.248291,5.487772,7.606126,2.790384,0.305397,-0.547972,0.185589,-0.279785,-0.553223,-0.168945,8.848932,-4.255988,4.097905,-0.025229,0.579338,-0.038788,-0.495361,0.197021,-0.406982,9.829234,-2.589346,3.404557,0.010303,0.069856,-0.124119,-0.420166,0.196045,-0.417236,7.310757,-0.714973,-0.602627,0.121823,-1.176145,-0.911857,-0.51001,0.393555,-0.205566
6.056702,-1.843262,3.218048,-0.020912,-0.478738,-1.295654,-0.231445,0.606201,-0.236328,5.693157,6.215186,2.30788,-0.445295,-0.632684,0.458222,-0.29541,-0.552979,-0.17334,7.741857,-3.216661,3.88029,0.441688,0.103688,-0.174511,-0.501221,0.184326,-0.409424,7.518784,-3.846924,3.368595,-0.227224,0.554497,0.077615,-0.417236,0.193604,-0.420654,7.809637,0.88326,-1.584648,-0.253253,-1.252065,-1.02888,-0.539551,0.36792,-0.176025
7.794145,-1.813952,2.910725,-0.967142,-0.518967,-1.551124,-0.256836,0.601074,-0.21875,5.544991,6.21015,2.003401,0.580893,-0.650252,0.490866,-0.312256,-0.543701,-0.15332,9.691971,-1.62648,3.403031,0.251876,0.328227,-0.112902,-0.501953,0.183838,-0.412598,7.146359,-3.299401,3.809118,0.418619,-0.114338,-0.200247,-0.423584,0.188721,-0.418457,7.848545,1.111062,-0.884121,-1.499136,-1.675949,-0.912243,-0.566162,0.35376,-0.119629
7.609525,-3.160736,1.920082,-1.019206,-0.325386,-1.914976,-0.273682,0.581787,-0.206787,6.783434,8.312422,2.932694,-0.169584,-0.61558,0.725012,-0.322021,-0.537598,-0.165771,8.756434,-2.307828,3.766942,-0.4671,0.773407,0.113355,-0.487305,0.187012,-0.427002,8.655579,-2.463551,3.685411,-0.261825,-0.22612,-0.046653,-0.422363,0.191406,-0.422852,9.856678,-0.772036,-1.91122,-1.967336,-1.671125,-1.082313,-0.575195,0.326416,-0.07373
8.035607,-2.184676,1.995804,-1.075778,-0.302254,-2.026654,-0.294922,0.564697,-0.192139,5.531428,5.350121,1.836879,-0.976174,-0.536323,0.95088,-0.338867,-0.5271,-0.168213,7.523564,-3.095218,3.652966,-0.123746,0.705107,-0.067926,-0.477051,0.188477,-0.435303,7.089052,-3.66295,3.253529,-0.334615,-0.022152,-0.050854,-0.419922,0.195557,-0.418945,8.837662,-0.617246,-1.508085,-1.732808,-1.316358,-1.293077,-0.581543,0.30127,-0.028076
8.943128,-3.026004,1.357327,-1.345968,-0.186208,-2.34884,-0.323242,0.549805,-0.173828,7.220248,4.121311,1.369609,0.100797,-0.671823,0.950606,-0.355713,-0.5271,-0.156006,8.710896,-2.323571,3.98712,0.009442,0.651706,-0.034859,-0.473633,0.196289,-0.439697,7.789772,-3.348261,2.994953,0.070007,-0.414529,-0.197302,-0.430664,0.19751,-0.409668,10.328672,-0.858103,-1.718636,-2.254681,-1.708435,-1.393853,-0.590088,0.276855,0.030273
8.875854,-3.561766,0.68045,-0.556801,-0.029271,-2.276903,-0.344971,0.503174,-0.176025,6.144917,5.481883,1.343078,0.33175,-0.35509,1.21099,-0.379639,-0.518311,-0.15918,7.383363,-2.85803,3.452487,0.03598,1.065468,0.009098,-0.463867,0.18042,-0.459473,8.199574,-3.018916,2.754312,0.175586,0.05348,-0.085212,-0.430176,0.177734,-0.423584,11.214261,-2.067092,-1.96261,-1.940086,-0.863683,-1.489637,-0.592773,0.234619,0.052246
9.238019,-0.662053,1.432116,-0.369199,-0.155247,-2.340234,-0.364502,0.477295,-0.163086,6.771971,4.849425,0.898484,-0.044819,-0.830453,1.150418,-0.388916,-0.501465,-0.14917,6.440723,-2.192319,3.238209,0.564209,0.624406,-0.145372,-0.457764,0.178955,-0.469971,6.75087,-2.810668,4.0739,0.237132,0.22546,-0.168078,-0.42749,0.179932,-0.421875,10.145373,-1.731272,-1.574441,-1.498534,-0.613211,-1.834459,-0.59668,0.206787,0.081787
9.200573,-1.424243,1.068048,-1.19127,-0.202108,-2.4147,-0.389648,0.449463,-0.149414,6.954365,4.656435,0.917389,0.098375,-0.427995,0.972756,-0.40625,-0.496826,-0.140381,6.607338,-0.205402,2.686924,0.292562,0.5762,-0.202402,-0.459717,0.174561,-0.471191,6.587847,-2.140447,4.299818,0.0937,-0.176167,-0.212698,-0.44165,0.178955,-0.415283,11.730467,-1.448008,-1.627436,-1.907663,-0.319057,-1.512141,-0.609131,0.178711,0.104004
9.227007,-2.4094,0.136461,-0.877371,-0.339066,-2.318221,-0.403076,0.422363,-0.137451,6.334782,4.220859,1.099532,-0.497133,-0.769758,0.696468,-0.414551,-0.487305,-0.139893,5.820007,-0.577241,2.370167,-0.37955,0.164157,-0.092938,-0.453613,0.182861,-0.472168,7.271394,-1.61783,3.780108,0.015668,-0.164551,-0.216585,-0.438477,0.180908,-0.415771,10.966002,-2.38588,-1.774241,-2.213593,0.79285,-1.607292,-0.610107,0.152832,0.10376
9.066962,-1.767095,-0.176475,-0.7085,-0.436762,-2.300101,-0.423584,0.390381,-0.12793,7.999192,1.819999,0.314839,-0.44725,-0.565902,0.473325,-0.428223,-0.484375,-0.140137,6.663974,-1.596504,1.953654,-0.079491,-0.186014,-0.240566,-0.463379,0.182617,-0.472168,7.384947,-1.824791,4.337066,-0.339046,-0.20467,-0.183101,-0.44873,0.18457,-0.412354,10.287517,-3.22666,-1.750024,-1.678138,0.891491,-1.637138,-0.620361,0.124023,0.0979
9.534192,-0.989017,0.334368,-0.770434,-0.492674,-2.09895,-0.433838,0.35083,-0.117432,7.167344,2.094637,0.129657,0.311923,-0.475935,0.234133,-0.436035,-0.467529,-0.131348,6.825575,-0.931372,2.414399,0.219399,-0.540066,-0.411795,-0.469727,0.167969,-0.468018,7.563857,-3.89767,4.149206,-0.292643,-0.311465,-0.227781,-0.452393,0.177734,-0.411377,11.64535,-2.555649,-1.777685,-1.295566,1.370803,-1.723791,-0.627441,0.079102,0.076172
10.139468,-2.339008,0.708414,-0.625673,-0.294471,-1.86699,-0.440674,0.318604,-0.106201,8.737337,2.594735,0.088492,0.245508,-0.57387,0.191045,-0.434814,-0.475098,-0.12085,8.016497,-1.210967,2.30872,0.238997,-0.817021,-0.42218,-0.480713,0.160156,-0.456787,7.982234,-3.381578,3.458735,0.804116,-0.599043,-0.65408,-0.462646,0.157959,-0.404785,10.769247,-3.179744,-1.85337,-1.415747,1.76613,-1.504472,-0.630127,0.050049,0.054443
9.10902,-0.750268,1.615512,0.212729,-0.044075,-1.577287,-0.442139,0.297363,-0.094238,7.57356,3.171803,-0.149223,0.684862,-0.227581,0.166121,-0.444336,-0.466797,-0.113281,7.710435,-0.184737,2.265085,0.745881,-0.895774,-0.596371,-0.491211,0.149658,-0.437012,8.028614,0.763847,2.912066,0.874569,-0.448171,-0.725005,-0.467529,0.147461,-0.390869,9.396824,-3.803707,-1.902036,-0.614638,1.546385,-1.532392,-0.630127,0.024414,0.041016
10.685653,2.200115,2.294774,-0.707797,0.127857,-1.28241,-0.453857,0.280518,-0.102783,8.934568,5.650689,0.129704,0.079868,-0.671369,0.19954,-0.444336,-0.466797,-0.094482,9.775623,1.730583,3.229498,-0.20698,-1.069488,-0.535588,-0.514404,0.149414,-0.430664,8.248766,0.622527,4.046766,-1.029127,-1.071621,-0.316588,-0.48999,0.157471,-0.378662,9.494005,-1.996154,-1.340523,-0.613599,0.834489,-1.236072,-0.640869,0.00293,0.017578
9.966064,-1.874504,0.643672,-1.478912,0.500607,-0.978091,-0.455322,0.270996,-0.106445,9.111709,3.539441,-0.054595,-1.081756,-0.26147,0.417212,-0.461914,-0.46167,-0.109375,8.670278,-1.214405,3.183779,-1.094699,-0.773408,-0.281015,-0.526611,0.158447,-0.414307,10.502818,-3.890904,1.884768,-0.743945,-0.97147,-0.291936,-0.506836,0.163086,-0.365234,10.73752,-2.690474,-1.584082,-1.46899,0.698131,-0.707143,-0.642822,-0.008789,0.008057
9.726936,-2.995321,0.310936,0.763186,0.468403,-0.648835,-0.445557,0.246582,-0.109863,8.255952,1.250156,-1.566297,0.462856,-0.551598,0.292235,-0.463379,-0.458008,-0.102295,8.689966,-3.100265,2.552852,0.286188,-1.482038,-0.624627,-0.53125,0.139893,-0.388672,9.262954,-1.704099,2.162824,0.941972,-0.044059,-0.862541,-0.502441,0.134521,-0.361572,9.277109,-4.797903,-2.037705,-0.221858,0.996013,-0.766688,-0.630615,-0.034668,-0.000488
10.013957,1.509995,1.367127,0.584401,0.504033,-0.462947,-0.446045,0.227539,-0.126465,10.02576,5.758172,0.482144,1.614254,-0.277472,0.413042,-0.472656,-0.446289,-0.075195,11.614523,0.004243,2.742679,1.225757,-1.050761,-0.687653,-0.54834,0.115234,-0.388672,8.43948,1.03706,2.274811,0.379126,-0.841747,-0.43354,-0.517334,0.121094,-0.359863,9.279327,-2.721001,-1.619074,1.247977,0.199679,-0.796652,-0.635986,-0.056885,-0.012939
9.589757,0.199942,1.404661,0.368197,0.47746,-0.274827,-0.442383,0.225586,-0.129639,7.991527,7.980014,-0.039157,0.204831,-0.132182,0.735959,-0.48291,-0.440186,-0.06543,9.511619,2.342438,3.406919,0.166088,-0.60389,-0.403367,-0.554932,0.111328,-0.373779,10.645077,0.16473,1.412654,-0.277765,-0.838261,-0.436252,-0.526611,0.120361,-0.342285,10.512037,-0.083251,-1.30734,0.613896,0.400391,-0.491536,-0.634766,-0.0625,-0.012939
9.990218,2.316618,1.321742,-0.49536,0.376478,-0.049962,-0.447021,0.22583,-0.133301,9.523494,6.456835,0.418838,-1.207149,-0.543838,0.696793,-0.493896,-0.42749,-0.087158,10.595146,0.813316,3.426842,-1.144262,-0.941718,-0.268159,-0.568848,0.119141,-0.35498,9.684058,0.124692,2.043864,-0.430425,-0.432882,-0.340199,-0.537598,0.119629,-0.331787,9.759243,-0.754797,-1.217453,-1.077001,0.391249,0.081659,-0.635986,-0.063721,-0.022461
9.2352,-1.243928,0.088685,-0.727689,0.210053,0.068533,-0.437256,0.237061,-0.131104,8.941549,3.515031,-0.639016,-0.821248,-0.001349,1.051487,-0.49707,-0.414795,-0.075195,10.24827,-1.49905,3.082076,-0.867931,-0.301428,-0.195354,-0.567139,0.124756,-0.342773,10.052241,0.144097,2.445965,-0.784025,-0.665157,-0.312889,-0.541016,0.130371,-0.315186,9.989509,-3.284663,-2.034274,-0.587054,0.369959,0.162517,-0.630371,-0.055664,-0.020996
9.119485,-0.454662,0.8732,0.021391,-0.022199,0.211189,-0.447021,0.229004,-0.125732,8.208402,4.830427,0.240793,-0.128416,-0.300484,0.81789,-0.517578,-0.397705,-0.085938,8.469119,-0.795133,3.10906,-0.294745,-0.65714,-0.36553,-0.584717,0.117188,-0.326172,9.915465,-0.816669,2.159065,-0.80907,-0.114677,-0.109903,-0.552002,0.128418,-0.305908,9.633036,-1.663339,-1.342216,0.441322,0.571594,0.092515,-0.639893,-0.064697,-0.023438
9.483023,-1.419037,0.894093,0.048767,-0.262947,0.304597,-0.442139,0.228271,-0.124756,9.424823,4.438258,0.232671,-0.358127,-0.053029,1.098268,-0.52002,-0.388916,-0.093262,10.415001,-1.053439,2.639729,-0.307256,-0.655022,-0.200034,-0.583984,0.112549,-0.320557,8.435019,-2.972152,2.042951,-0.453634,-0.272124,-0.143357,-0.550049,0.125244,-0.303467,9.870854,-1.231716,-1.475142,0.109859,0.47397,0.320197,-0.63208,-0.063965,-0.036133
9.030975,-0.554578,1.37238,0.739301,-0.300187,0.382778,-0.439209,0.228027,-0.122803,8.00953,3.922073,0.385629,0.114272,0.033607,1.106038,-0.532471,-0.368652,-0.092285,9.633955,-1.054832,2.608174,0.13651,-0.188613,-0.342056,-0.583984,0.107422,-0.321533,8.982676,-1.476196,1.544423,0.540556,-0.621041,-0.543601,-0.556396,0.114258,-0.295654,8.789398,-1.954767,-1.661268,0.450117,0.674705,0.333146,-0.626465,-0.058594,-0.051514
9.906973,0.592216,2.280251,0.250862,-0.302891,0.49867,-0.442871,0.242432,-0.109619,9.436173,5.055072,0.543861,0.153731,0.021245,1.322862,-0.539062,-0.352051,-0.083008,9.468583,-0.076914,2.771034,-0.036117,-0.087571,-0.290975,-0.591553,0.112793,-0.310547,9.275458,-0.013644,2.049139,-0.371631,-0.528482,-0.27282,-0.568359,0.121582,-0.279541,8.623932,-0.949023,-1.356226,0.776164,-0.150662,0.411598,-0.63501,-0.045654,-0.04126
9.280422,-1.102703,1.290802,0.237442,-0.307994,0.547881,-0.446777,0.247559,-0.10791,8.338705,3.972813,0.720995,-0.677783,0.213821,1.39501,-0.550781,-0.329834,-0.085205,8.731941,-0.554695,2.659753,-0.45455,-0.082995,-0.256858,-0.594727,0.111816,-0.308105,8.872887,-2.21778,1.696298,-0.620823,-0.536443,-0.201734,-0.572998,0.122314,-0.271729,9.733767,-0.463683,-1.548206,0.382688,-0.185855,0.587698,-0.634766,-0.040771,-0.036621
10.003285,0.505608,1.5904,0.322625,-0.168489,0.713615,-0.450195,0.257812,-0.101074,9.196571,1.949674,0.585691,-0.491379,-0.027964,1.505262,-0.57373,-0.298584,-0.09668,9.34415,-1.16178,1.814574,-0.377838,-0.084163,-0.277585,-0.602051,0.108643,-0.306396,8.84267,-1.339192,1.595241,0.098861,-0.475937,-0.501766,-0.585205,0.113037,-0.262451,8.642707,-0.934751,-1.382319,0.064916,-0.473028,0.73679,-0.639404,-0.030518,-0.028564
9.166907,-1.449306,1.263574,0.042025,-0.316986,0.661852,-0.438477,0.260986,-0.105225,8.973927,2.046669,0.674076,0.191445,0.288378,1.493461,-0.583008,-0.278564,-0.098633,8.195179,-1.165437,1.182668,-0.120169,0.046367,-0.204725,-0.592041,0.104004,-0.314453,8.486936,0.089742,1.630291,-0.330892,-0.628987,-0.246715,-0.580322,0.11084,-0.260254,9.900547,-1.620936,-1.973441,0.553623,-0.992684,0.742148,-0.631836,-0.024658,-0.022217
9.752003,-0.396712,1.498539,0.464966,-0.383228,0.715963,-0.446777,0.267578,-0.086914,8.945556,3.708707,1.671999,0.03341,0.064689,1.098891,-0.588623,-0.267334,-0.101074,8.359948,-0.48102,0.693926,-0.068689,-0.423855,-0.324867,-0.60791,0.09668,-0.293213,9.188127,-1.645244,0.626431,-0.669678,-0.6839,-0.135809,-0.595459,0.109619,-0.231201,10.271987,0.08561,-1.460766,0.822852,-0.755003,0.665024,-0.637695,-0.015869,0.008057
10.308509,-0.182551,1.007379,-0.104749,-0.738505,0.667124,-0.440186,0.281738,-0.070068,10.297926,2.207617,1.749741,-0.951256,0.086763,1.071625,-0.601807,-0.245361,-0.102051,9.990025,-0.368181,0.42991,-0.586597,-0.506567,-0.176733,-0.604492,0.102051,-0.281738,9.717103,-1.951311,1.199865,-0.412045,-0.590843,-0.320864,-0.594238,0.11084,-0.216797,10.522833,0.166734,-1.581284,-0.140598,-1.100394,0.830856,-0.633301,0.000732,0.030273
10.70518,-1.667472,0.078069,-0.404796,-0.559438,0.598527,-0.447754,0.290527,-0.07251,10.256849,0.086763,1.904929,-0.591029,0.195541,0.712148,-0.610352,-0.233643,-0.111084,9.645989,-1.993895,0.299266,-0.769226,-0.548906,-0.197488,-0.612793,0.10498,-0.280029,10.00675,-1.661961,0.873515,-0.540232,-0.766404,-0.193545,-0.607178,0.107422,-0.210693,11.749984,-1.52442,-2.162736,-0.198404,-0.851588,0.87151,-0.63623,0.013916,0.033447
10.249964,-2.539451,-0.417389,0.304748,-0.823823,0.521153,-0.446289,0.294434,-0.041748,10.338608,0.402479,2.227489,0.051242,0.304031,0.751194,-0.60376,-0.219727,-0.111572,9.644952,-2.46683,0.123038,-0.193299,-0.780378,-0.305013,-0.618408,0.100098,-0.25,9.799784,-2.949385,0.584242,-0.748314,-0.631254,-0.216789,-0.609619,0.109619,-0.181641,10.24566,-0.931542,-1.765302,0.6249,-0.560754,0.520002,-0.634277,0.02124,0.05835
10.464787,-0.106109,0.452588,0.319422,-0.802373,0.457714,-0.444336,0.304688,-0.03418,9.763146,1.375439,1.715279,0.083659,0.253575,0.507185,-0.608398,-0.208984,-0.111328,10.384855,-2.123072,-0.099319,-0.017582,-0.902056,-0.312009,-0.622803,0.096436,-0.243408,8.931316,-3.501011,-0.699093,0.186348,-1.02274,-0.366904,-0.614502,0.10791,-0.171631,10.954882,0.082257,-1.493058,0.232869,-0.958205,0.584247,-0.631836,0.035645,0.068359
10.747507,0.023752,-0.128181,0.416076,-0.891805,0.507511,-0.452881,0.320557,-0.022217,10.003917,1.191865,1.565991,0.012996,-0.012762,0.694055,-0.617188,-0.203613,-0.11499,11.07375,-1.81603,-0.096538,-0.024608,-0.678623,-0.187496,-0.634766,0.105469,-0.230713,10.39873,0.147858,-0.843691,0.425067,-1.256332,-0.557266,-0.628662,0.103271,-0.152832,11.359647,-0.909833,-2.228947,0.307153,-0.37044,0.644488,-0.636719,0.051025,0.072998
10.54198,1.823475,0.303154,-0.52013,-0.80345,0.487298,-0.455811,0.318115,-0.001465,10.071728,1.771585,1.72852,-0.459122,-0.180243,0.638176,-0.610352,-0.187988,-0.115723,10.073973,-1.018731,0.542443,-0.110536,-0.58699,-0.093739,-0.640869,0.09375,-0.215088,10.140613,0.256869,-1.10637,-0.814692,-1.097894,0.131602,-0.639648,0.101074,-0.127441,9.901024,0.912593,-1.44826,0.239139,-0.561836,0.57535,-0.640869,0.055908,0.086914
11.174995,-0.766904,-0.798825,-1.031796,-0.763639,0.424235,-0.450439,0.317871,0.018555,10.483703,0.779951,1.544191,-1.259478,-0.309906,0.930968,-0.625488,-0.174805,-0.118408,10.435031,-0.285542,0.934637,-0.821562,-0.792684,-0.101752,-0.641602,0.087646,-0.196777,10.961186,-2.504698,-1.536149,-1.207446,-1.087,0.00555,-0.641357,0.10083,-0.098877,11.567184,1.04205,-1.694746,-0.939813,-0.756104,0.838,-0.631592,0.057617,0.106201
10.076146,-0.43539,-0.858386,-0.529028,-0.555967,0.466773,-0.451904,0.327148,0.025146,9.374635,-1.831518,0.047994,-1.179268,-0.356096,0.985689,-0.629883,-0.144531,-0.114258,9.571221,-2.474983,0.55533,-1.096927,-0.750958,0.108225,-0.646973,0.096924,-0.18457,10.796816,-2.843189,-1.815356,-0.290987,-0.196847,0.027542,-0.644043,0.100586,-0.10083,10.383464,-1.03917,-1.994406,-1.070854,0.00128,0.762589,-0.633545,0.066162,0.104004
10.765835,-0.139808,-0.786429,-0.486385,-0.575852,0.406733,-0.447998,0.33252,0.041748,10.312918,-0.909891,0.378729,0.148281,-0.743897,1.129003,-0.639648,-0.124512,-0.095703,10.011268,-1.951975,-0.152973,0.156574,-0.983087,-0.303478,-0.648926,0.094238,-0.163818,8.472592,-0.44187,-0.019169,-0.277173,-0.227429,-0.235473,-0.645996,0.098389,-0.088135,9.471607,-0.693676,-1.892624,0.27932,-0.602495,0.509041,-0.629883,0.074219,0.117188
9.862992,-1.612217,-0.819395,-0.664748,-0.409472,0.288934,-0.450439,0.340332,0.049805,10.479359,0.573128,0.79406,-0.417296,-0.274308,1.334331,-0.648682,-0.105713,-0.102295,10.426326,0.380381,-0.199779,0.02464,-0.533186,-0.163889,-0.657715,0.094482,-0.155029,8.827029,-2.777394,-1.858545,-0.984714,-1.000589,0.176818,-0.651123,0.110107,-0.067383,11.491856,1.599251,-1.49999,0.022463,-0.320187,0.368472,-0.631104,0.084717,0.124268
10.37741,-1.582164,-0.803324,0.393035,-0.545721,0.165222,-0.453857,0.341553,0.057373,10.021944,-0.717381,0.359996,-0.031656,-0.588027,1.300453,-0.642822,-0.077148,-0.084229,9.599748,-0.036569,-1.01124,-0.265039,-0.619411,-0.349034,-0.664551,0.090332,-0.144531,9.776926,-3.643413,-3.04764,0.103532,-0.78297,-0.628144,-0.661377,0.098145,-0.055664,9.903582,0.524671,-1.919696,-0.374957,0.229195,0.366961,-0.635742,0.088867,0.118652
9.278125,1.572956,0.684194,-0.878859,-0.615215,-0.109741,-0.443604,0.33667,0.072266,11.425382,1.821516,1.516546,-0.212217,0.021008,1.060455,-0.644287,-0.061768,-0.092529,10.237415,0.554297,-0.958239,-0.46902,-0.435889,-0.540667,-0.659424,0.079102,-0.131348,9.413283,-0.270267,-0.796305,-0.304371,-0.677919,-0.587095,-0.65918,0.086426,-0.038818,10.039442,1.406304,-1.616292,-0.230712,-0.162865,-0.046613,-0.629395,0.083984,0.124756
9.868767,-4.388578,-1.087818,-1.248812,-0.855647,-0.390947,-0.44751,0.322266,0.080078,8.833923,-0.654693,0.771181,-1.317081,-0.071698,0.876718,-0.658203,-0.044189,-0.095947,8.428833,-1.124412,-1.067073,-0.796535,-0.734751,-0.587762,-0.664795,0.065674,-0.125977,9.745377,-3.485723,-2.435667,-1.364683,-0.844241,-0.371464,-0.66333,0.073486,-0.026855,10.76046,1.169197,-1.681183,-1.018819,0.326428,-0.00417,-0.628418,0.071289,0.111328
10.380541,-1.834083,-0.030583,0.816603,-0.981967,-0.514025,-0.445312,0.312988,0.104736,11.804064,-2.407464,0.598485,0.134823,-0.194134,0.472734,-0.658447,-0.043945,-0.091797,11.36259,-2.319449,-1.860074,-0.039841,-1.11202,-0.959831,-0.66748,0.056396,-0.098389,9.866348,-5.020303,-3.676338,0.419561,-0.350753,-1.0277,-0.663818,0.05835,-0.013672,9.968905,-0.841061,-1.996612,-0.452805,0.217832,-0.390572,-0.626709,0.063721,0.117188
11.229212,-0.537104,0.34034,-0.005764,-0.946294,-0.78647,-0.446533,0.303467,0.120605,10.233277,0.143807,1.532065,0.968044,0.24548,0.479115,-0.656494,-0.031982,-0.087158,11.10568,-1.002531,-1.308032,0.666699,-0.373915,-0.817748,-0.669434,0.043701,-0.093262,9.104557,1.442865,-1.339678,1.248679,-0.754852,-1.335221,-0.671875,0.038086,0.000732,10.871825,-0.390292,-2.382518,0.867902,-0.050282,-0.723821,-0.630127,0.049805,0.119629
10.767929,-0.573498,0.272125,0.342385,-0.675659,-0.812395,-0.445801,0.28833,0.128906,10.225123,1.615845,1.905802,-0.186369,-0.173241,0.39427,-0.651855,-0.025146,-0.078125,9.792559,0.49079,-0.412845,0.070274,-0.702485,-0.801206,-0.672852,0.026611,-0.079102,10.627126,1.980561,-1.984886,-0.818296,-1.025771,-0.460468,-0.675049,0.026611,0.02002,9.861458,2.628821,-1.3089,0.411089,-0.068135,-0.804795,-0.631104,0.029785,0.118652
11.000654,1.438583,0.862757,-0.433678,-0.676819,-0.884821,-0.444336,0.269043,0.145264,9.557693,-0.532295,1.247849,-0.768022,-0.279574,0.598647,-0.647949,-0.009033,-0.07959,11.002761,-0.417905,-0.678255,-0.671173,-0.71207,-0.43634,-0.671387,0.016846,-0.064453,9.921043,-0.887519,-2.984036,-0.4613,-0.586743,-0.535313,-0.672119,0.016846,0.03418,9.457289,1.223258,-1.814485,-1.268347,-0.805257,-0.557688,-0.623047,0.011475,0.139893
11.552607,0.626466,0.456468,-1.357083,-0.197996,-0.890095,-0.45166,0.253662,0.150635,10.611761,0.896527,1.552184,-0.574945,-0.616186,0.488807,-0.659668,0.003174,-0.069336,10.98768,-0.237532,-0.778444,-0.793845,-0.479823,-0.417624,-0.684082,0.017578,-0.055908,10.069506,3.009178,-2.325477,-0.205555,-0.822299,-0.571482,-0.68335,0.008789,0.049805,10.549152,0.115974,-2.286191,-0.984489,-1.224961,-0.731554,-0.626709,-0.008545,0.161133
11.104831,-0.470063,0.07983,-1.510251,-0.077571,-0.95997,-0.452881,0.228516,0.157715,9.733902,0.526826,1.189256,-1.993389,-0.637138,0.833519,-0.657471,0.012939,-0.057373,10.338805,0.123204,-0.519785,-1.381284,-0.414978,-0.062335,-0.686035,0.009766,-0.042236,10.564468,2.758799,-1.93208,-2.075539,-0.725659,0.277047,-0.684082,0.009277,0.070801,10.443857,1.304612,-1.710011,-1.442391,-1.472118,-0.775048,-0.624023,-0.036377,0.19165
11.19874,-1.520039,-0.315418,-1.229478,0.141094,-1.032951,-0.458496,0.217041,0.14917,10.660573,-2.745532,-0.126635,-1.361006,-1.077421,0.593914,-0.654053,0.026611,-0.041748,10.629253,-1.193987,-1.172669,-1.05439,-0.558484,-0.036067,-0.692383,0.019775,-0.036865,10.036653,-1.992148,-4.186435,-1.303869,-0.701854,0.244435,-0.690674,0.019531,0.081055,11.561987,-0.617684,-2.412476,-1.823137,-1.920653,-0.574584,-0.61792,-0.052734,0.220947
11.545931,-1.095939,-0.412338,-0.547812,0.116509,-1.152743,-0.453125,0.193359,0.140137,11.909601,-0.631604,-0.033778,0.076921,-0.658229,0.522027,-0.659424,0.030029,-0.024902,11.471751,0.256522,-1.37867,-0.101797,-0.347946,-0.035406,-0.688965,0.014893,-0.036865,11.397572,1.277459,-3.791922,0.345307,-0.467281,-0.293246,-0.687012,0.008545,0.080322,12.691783,-1.0094,-2.657776,-0.467109,-1.56193,-1.105356,-0.600098,-0.08252,0.23877
10.033342,0.307298,-0.33169,-0.430637,0.085648,-1.287642,-0.44873,0.163818,0.138672,10.17839,1.825965,0.280321,-0.654283,-0.549227,0.376746,-0.658936,0.044189,-0.017578,10.116673,3.346153,-0.928907,-0.271791,-0.182762,-0.053936,-0.684326,0.00708,-0.034668,9.893142,3.973786,-2.448542,-1.111281,-0.004393,0.293622,-0.682129,0.004639,0.083984,11.185362,1.723158,-1.730396,-0.288361,-1.280871,-1.062663,-0.58252,-0.112549,0.258301
10.01457,0.280291,-0.473916,-1.237379,-0.194399,-1.415553,-0.443848,0.143311,0.149658,10.625484,-0.458454,-1.117267,-1.54124,-0.401183,0.239998,-0.659912,0.04541,-0.012939,9.898889,2.682644,-0.987282,-1.189783,-0.306695,0.122962,-0.683594,0.015381,-0.016846,8.902395,-0.6033,-3.670152,-1.41337,-0.552191,0.361023,-0.67749,0.014648,0.106201,11.379631,1.353231,-1.65578,-1.889622,-1.26939,-0.989967,-0.56543,-0.138672,0.283447
10.274099,-1.233524,-1.241025,-0.5027,-0.309114,-1.475585,-0.448242,0.116211,0.15625,10.604122,-1.426482,-1.544619,-0.35123,-0.067127,0.005246,-0.659668,0.045166,-0.015625,10.671727,1.169107,-1.316494,-0.683174,-0.214695,-0.094503,-0.689453,0.010986,-0.015137,11.032862,0.679483,-4.148077,0.143437,-0.212869,-0.303466,-0.686523,0.007324,0.110352,11.953617,-1.723092,-2.533131,-1.343428,-0.601425,-1.036132,-0.55835,-0.169678,0.286621
9.945407,1.548628,-0.354905,-0.337423,-0.445616,-1.45341,-0.443115,0.087402,0.167236,10.116138,0.56412,-1.016241,-0.438053,0.203683,-0.042243,-0.66626,0.05127,-0.013428,10.096703,2.234412,-0.549055,-0.349603,0.157584,-0.132444,-0.692871,0.005615,-0.010742,9.139271,3.244851,-2.080773,-0.663261,0.231661,0.016174,-0.684326,0.001953,0.113037,10.463303,-0.250557,-1.585916,-0.264847,-0.225336,-1.415003,-0.546143,-0.196045,0.294922
9.938598,0.3217,-1.026818,-0.388598,-0.530213,-1.344517,-0.44043,0.076172,0.170166,9.390917,-1.366444,-1.957695,-0.750655,0.116963,0.006371,-0.667725,0.054199,-0.014893,9.239657,1.651934,-0.444174,-0.560207,-0.111543,-0.096757,-0.693848,0.013672,-0.012207,9.349387,0.065684,-3.461918,-0.915762,-0.393076,0.147859,-0.687256,0.011475,0.116943,10.779275,0.088709,-1.679643,-0.845528,-0.245312,-1.051212,-0.537109,-0.209473,0.292236
10.364188,3.163533,0.073475,-0.236056,-0.406327,-1.078735,-0.42627,0.045898,0.174316,10.463627,-0.924017,-1.507813,-0.226415,0.171776,-0.040006,-0.669434,0.051758,-0.020996,11.252423,1.077968,-0.616993,-0.588151,0.098283,-0.106259,-0.687256,-0.000977,-0.014648,11.079683,0.834655,-3.539366,0.181683,0.300377,-0.259125,-0.679443,-0.006104,0.111816,10.763006,-0.953791,-1.647653,-1.044083,0.223264,-0.957867,-0.523193,-0.243896,0.283447
9.615116,-0.130711,-1.051871,-0.468236,-0.339346,-0.862761,-0.434326,0.036865,0.178467,8.778023,-2.063001,-2.02044,-0.296627,0.036406,0.230604,-0.675537,0.05249,-0.01709,9.170749,-0.433779,-0.735178,-0.137047,0.347168,0.165844,-0.69873,0.007324,-0.02124,9.040416,2.779607,-2.465673,0.1594,0.516068,0.085551,-0.693848,0.005371,0.101562,9.223578,-2.692778,-1.921251,-0.402024,0.354378,-0.698566,-0.530029,-0.246094,0.27417
8.891885,3.030182,0.073336,0.887877,-0.128519,-0.468,-0.428467,0.033447,0.178711,9.213964,-1.176288,-1.691338,0.488532,-0.206307,0.080328,-0.676025,0.061279,-0.023193,9.547865,0.930311,-0.957352,0.428632,0.117211,-0.124228,-0.698486,0.007812,-0.029541,9.058686,0.98339,-2.804657,-0.687064,0.337866,0.281909,-0.689697,0.008545,0.094482,8.261546,-0.926837,-1.273714,0.717719,0.097636,-0.646646,-0.523193,-0.249512,0.271973
10.108234,3.430071,0.137323,-0.602842,-0.179196,-0.253903,-0.435303,0.033936,0.188232,9.346888,-0.033638,-1.391751,-0.28109,-0.425332,0.389352,-0.678711,0.056641,-0.007568,10.612492,1.936931,-1.46249,-0.24206,0.392854,0.186848,-0.701416,0.017334,-0.024902,8.460847,-0.73779,-3.278637,0.015018,0.196503,0.166368,-0.696533,0.015625,0.097656,9.454907,0.2324,-1.248755,-0.257611,-0.171969,-0.19942,-0.527344,-0.246582,0.279785
9.132568,1.43032,-0.302113,-0.223378,0.235876,0.144337,-0.436523,0.030029,0.19043,9.64732,-1.538451,-1.989123,-0.713477,-0.476624,0.220019,-0.680176,0.068359,-0.002441,9.419137,1.211139,-1.629815,-0.443142,0.677268,0.167249,-0.704102,0.015137,-0.031738,9.660308,2.859343,-2.546409,0.34864,-0.126838,-0.142597,-0.700439,0.004883,0.10376,9.352815,-1.210613,-1.716798,-0.644853,0.158864,0.296653,-0.529541,-0.251465,0.281006
9.422345,2.398202,0.265518,-0.593962,0.022789,0.331278,-0.441895,0.031982,0.178467,8.916784,-2.151563,-1.905053,-0.42559,-0.541121,0.077134,-0.685791,0.071289,0.007812,8.710084,1.061452,-1.706699,-0.36212,0.267067,0.111231,-0.708008,0.015625,-0.044678,10.139392,1.236054,-3.088107,-1.252409,0.350835,0.621665,-0.699219,0.01416,0.092285,8.545851,-1.197172,-1.391682,-0.24324,-0.057534,0.268887,-0.534668,-0.245117,0.274414
9.5522,0.481504,-0.528793,-0.241961,0.088691,0.518977,-0.44043,0.035645,0.190186,10.158309,-1.533035,-1.916263,-0.134008,-0.638943,-0.34494,-0.688965,0.065674,0.009033,9.959593,1.845254,-1.917633,0.001026,0.050598,-0.023786,-0.700928,0.005859,-0.028809,9.308938,-1.466152,-2.426419,-0.147048,0.413788,0.033173,-0.694092,0.008301,0.099854,10.073553,-0.644928,-1.70782,0.079671,-0.266413,0.649992,-0.532471,-0.240479,0.298096
10.703833,1.88151,-0.09244,-0.339609,0.117076,0.717012,-0.455566,0.051514,0.179443,10.601462,-1.269929,-1.916036,-0.522372,-0.305458,-0.49752,-0.681396,0.052734,0.022217,10.031297,3.031293,-1.462793,-0.17293,0.007901,-0.053315,-0.713379,0.012939,-0.03833,10.490856,2.216859,-0.992735,0.385047,0.229777,-0.162471,-0.705566,0.012451,0.090332,10.648306,0.114845,-1.771504,-0.214168,0.114104,0.630739,-0.551025,-0.224365,0.281982
10.061874,1.171096,-0.442595,-0.698166,0.220824,0.795916,-0.453857,0.063477,0.177002,10.55772,-1.491251,-1.657887,-0.500315,-0.141671,-0.755418,-0.689697,0.044434,0.033936,9.94947,2.639481,-0.746457,-0.650672,-0.19259,-0.150653,-0.707031,0.006836,-0.032227,10.02534,1.474178,-1.113777,-1.171711,0.233275,0.160891,-0.699463,0.009277,0.088623,9.871201,0.032819,-1.633271,-0.424936,0.106608,0.937843,-0.554199,-0.210449,0.285156
10.793401,-0.518136,-1.155129,-0.581775,0.320833,0.901565,-0.465088,0.080811,0.163574,10.609035,-1.75561,-1.474242,-0.51609,0.151953,-0.687689,-0.687012,0.023193,0.023438,10.28075,1.233112,-0.666371,-0.548448,-0.312217,-0.188684,-0.714111,0.008301,-0.032227,9.895507,-0.999777,-3.180803,-0.218462,0.092162,-0.130185,-0.705322,0.012695,0.081299,10.428879,-0.71718,-1.846379,-0.448113,-0.043188,0.879344,-0.563721,-0.19043,0.278809
11.128744,0.016554,-1.141425,0.239199,0.589551,1.013138,-0.469482,0.100098,0.160645,10.972842,-1.99973,-1.075029,0.010942,0.253561,-0.542353,-0.688965,0.021484,0.022949,11.580464,0.383928,-0.20065,-0.216308,-0.04946,-0.256567,-0.712646,0.001709,-0.023682,10.608989,1.24628,-2.512256,0.306128,0.250282,-0.410265,-0.708008,0.006104,0.084717,11.036717,-0.976406,-2.020726,0.345181,0.138078,0.88547,-0.571045,-0.168945,0.29126
10.258617,-0.299072,-1.318361,0.304402,0.796771,1.061306,-0.47998,0.123779,0.142578,9.750706,-1.502088,-0.766096,0.622645,0.487186,-0.232041,-0.696533,0.020264,0.009766,9.766701,-0.794363,-0.099247,0.197267,0.320368,-0.096764,-0.720947,0.006348,-0.037109,9.757986,0.429385,-3.354029,-0.10603,0.367453,0.029887,-0.71167,0.008545,0.069824,10.360595,-0.405186,-1.832012,0.788006,0.342942,0.75617,-0.586426,-0.142822,0.278809
10.522175,1.366194,-0.944361,0.884347,0.865961,1.139022,-0.485596,0.144775,0.127197,10.046073,0.927962,0.116788,0.815037,0.243522,-0.142799,-0.698486,0.017578,0.004395,10.801135,0.755699,-0.648979,0.745133,0.157136,-0.373378,-0.721191,-0.004639,-0.042725,9.510432,0.274769,-3.898123,0.568455,0.482064,-0.333701,-0.712646,0.000732,0.060791,10.657248,0.617417,-1.804531,0.951067,0.343903,0.753843,-0.592285,-0.118164,0.278076
10.035225,1.797994,-0.608656,-0.467228,0.840199,1.036242,-0.487793,0.158936,0.121826,10.257497,1.395833,0.431828,-0.375424,0.421528,0.157909,-0.705078,0.017822,0.00708,10.907046,2.514706,-0.722582,-0.062742,0.884837,0.153903,-0.720459,-0.004639,-0.049805,9.318681,4.361942,-2.155925,0.706396,0.348523,-0.156763,-0.7146,-0.007812,0.061768,11.519982,1.210099,-1.819358,0.109142,0.71404,0.866789,-0.60083,-0.103027,0.275879
9.777796,-1.291425,-1.085999,-0.477807,0.681114,1.009879,-0.49292,0.171387,0.105225,9.937299,-0.993284,-0.139684,-0.502622,0.330514,-0.10157,-0.706787,0.023682,-0.015381,9.276159,0.102781,-1.271999,-0.645277,0.680406,0.353604,-0.72168,-0.004639,-0.06665,10.324095,3.640164,-3.125862,-0.54444,0.160642,0.48832,-0.714844,-0.004395,0.053223,11.372265,0.157662,-1.9317,-0.350005,1.365785,0.923734,-0.61377,-0.0896,0.248779
8.71156,-0.877148,-0.736997,0.566472,0.225165,0.914712,-0.495605,0.191895,0.103027,9.355054,-0.587234,-0.082465,0.584853,0.398993,-0.32357,-0.718994,0.009766,-0.018555,9.608318,-0.046454,-1.85238,0.458772,0.622407,0.461253,-0.7229,0.006592,-0.078369,9.782888,1.753235,-2.809128,-0.030423,0.913547,0.550569,-0.715088,0.008545,0.037109,10.147191,-0.726491,-2.263013,0.464911,1.774607,0.662223,-0.628662,-0.065674,0.224609
9.314154,1.480178,0.469949,-0.349141,0.106497,0.743371,-0.493896,0.207275,0.105225,9.833325,1.606949,0.877763,-0.15578,0.434028,-0.787783,-0.709473,-0.004639,-0.022217,8.996051,2.39106,-1.115645,0.090526,0.657843,0.462693,-0.716064,0.015625,-0.088379,7.778563,1.183241,-0.265022,-0.30997,0.663983,0.678981,-0.70874,0.01709,0.025391,10.636386,1.727538,-1.618609,0.588443,1.805775,0.467687,-0.633545,-0.049561,0.188965
8.611717,-3.892507,-0.986886,-0.249237,-0.173981,0.60415,-0.501709,0.221191,0.104492,8.882148,-2.419557,-0.573126,-0.740985,0.63619,-0.719962,-0.713623,-0.013672,-0.041748,8.489195,-0.633491,-1.58364,-0.481116,0.444129,0.770186,-0.722412,0.028564,-0.096436,7.526709,-2.950173,-2.11781,-0.204862,-0.059175,0.727689,-0.713379,0.033203,0.027832,10.070375,0.454411,-1.876568,-0.492676,2.366606,0.619036,-0.651367,-0.032959,0.144531
9.207721,-1.239725,-0.148936,1.837206,0.030404,0.551251,-0.509033,0.239014,0.099854,8.939222,-3.029949,-0.657731,1.598605,0.725923,-1.113374,-0.713379,-0.035156,-0.049805,9.22408,-0.965346,-1.826808,1.561088,0.747505,0.32265,-0.726562,0.039795,-0.117188,7.343096,0.718169,-2.543063,2.618616,-0.087551,-0.264298,-0.719238,0.037109,0.020264,8.165799,-2.214354,-2.328817,0.806686,2.110037,0.324253,-0.664062,-0.015137,0.107666
10.823806,2.352652,1.044202,0.760399,0.050222,0.383347,-0.513184,0.249512,0.10791,10.141601,2.124704,1.03003,1.322045,0.800945,-1.009521,-0.714355,-0.054443,-0.060547,9.007269,4.745959,0.049639,1.391401,0.795519,0.454489,-0.724854,0.043945,-0.124756,8.807483,7.115339,0.259629,0.576692,-0.735717,0.375676,-0.720459,0.039795,0.039795,9.226515,1.236915,-2.017791,2.289476,1.223133,-0.017685,-0.669678,-0.005371,0.093994
9.883821,-0.551931,0.289579,-0.318838,0.723669,0.420892,-0.513184,0.258545,0.093506,9.354496,-0.560468,0.216566,-1.156149,1.098597,-0.93184,-0.711182,-0.058105,-0.088379,8.247331,2.603072,0.683039,-1.043672,0.659741,0.94133,-0.720215,0.061768,-0.135254,10.619736,-0.354725,-2.681535,-1.469626,-0.399064,1.275552,-0.713867,0.060547,0.05127,9.304918,3.899681,-0.934171,-0.318664,1.34558,0.225617,-0.669189,-0.000977,0.066162
10.117707,-1.809207,-0.027033,0.536669,0.914309,0.475379,-0.516357,0.26001,0.077148,8.759489,-5.666671,-1.218887,0.364794,1.028319,-0.956213,-0.708496,-0.083496,-0.099121,7.52815,-4.412428,-0.414767,-0.071207,0.191601,0.854363,-0.720215,0.068359,-0.138428,9.486253,-4.960186,-4.734471,1.874391,0.977939,0.343255,-0.712646,0.061035,0.024902,7.634524,-2.386355,-1.676329,-1.476972,0.811823,0.661977,-0.67627,0.008301,0.056641
9.899783,-0.235709,-0.360815,2.06766,1.000396,0.434773,-0.529297,0.271484,0.05249,8.630595,-0.071297,-0.608351,3.079658,0.812699,-0.914878,-0.714111,-0.111084,-0.110352,9.75779,0.653053,-0.677152,2.873562,-0.039923,0.35839,-0.731201,0.071045,-0.148926,6.466756,6.686898,1.53825,2.538524,0.995085,-0.136744,-0.724854,0.058105,-0.00415,7.565731,-4.335537,-3.477797,2.76217,-0.189704,0.015042,-0.686035,0.016357,0.052734
11.28346,4.52527,1.236548,0.093141,1.941316,0.57747,-0.517822,0.287598,0.017334,10.528303,4.322397,0.80235,-0.242962,1.097786,-0.577388,-0.711426,-0.11792,-0.131104,11.302979,5.540484,0.271383,0.120828,1.133843,0.695515,-0.714111,0.088623,-0.16748,6.214675,1.520045,-0.94709,-2.062892,-0.925069,1.656117,-0.708008,0.098145,0.025391,10.624234,5.544504,-0.25672,2.237372,-0.868561,-0.225021,-0.677979,0.022461,0.068848
9.353565,-0.816962,-0.743832,-0.139735,1.416766,0.677875,-0.521729,0.299561,-0.000244,7.879847,-2.540402,-1.507055,-0.91241,0.759264,-0.225241,-0.708008,-0.120605,-0.142822,6.574945,-0.819218,-0.024114,-1.325502,0.842627,1.120945,-0.71167,0.109131,-0.170654,10.073443,-6.779543,-4.198234,0.304765,-1.1089,0.297289,-0.710205,0.0979,0.047607,11.060246,2.011871,-1.828183,-2.167795,-0.203779,1.104652,-0.682129,0.037354,0.082275
8.988729,1.411998,0.352496,-0.169988,1.730814,0.745252,-0.524902,0.3125,-0.039307,9.971962,-1.228027,-0.868181,0.99014,0.832539,-0.979239,-0.703369,-0.139648,-0.157715,9.1499,-3.105633,-0.370831,0.608805,0.211438,0.432769,-0.71875,0.109375,-0.185791,11.266948,1.66862,-2.221244,2.651011,0.570878,-0.090752,-0.72168,0.092285,0.019775,9.381081,-4.969987,-2.295991,-1.012704,-0.176787,0.542959,-0.692383,0.043457,0.077881
9.890055,-3.260349,-1.914593,1.323709,0.6825,0.840581,-0.519287,0.327393,-0.060059,8.314565,-0.194929,-1.15452,1.287803,0.446627,-0.779819,-0.703125,-0.155518,-0.1521,8.906994,-0.25833,-0.091537,1.790187,0.134201,0.663565,-0.715088,0.118408,-0.195801,8.613588,2.733299,-0.235579,-0.206715,0.482762,0.800199,-0.711426,0.111572,0.011963,11.093681,-3.02099,-2.85195,3.248219,-0.313673,0.127589,-0.687012,0.057373,0.077148
8.309928,3.53553,0.388127,2.082796,1.051739,0.898381,-0.519287,0.340088,-0.079102,9.751402,0.960661,-0.703114,1.591206,0.443894,-1.326264,-0.69873,-0.18042,-0.157959,9.618897,0.915255,0.549246,1.100432,0.135233,0.564409,-0.716553,0.127686,-0.19751,8.930726,-5.500092,-2.996529,0.57622,0.230263,0.80802,-0.713379,0.127197,0.008057,11.123822,3.517878,-0.632279,2.1333,0.886418,0.101254,-0.693848,0.064453,0.063477
9.221886,0.493726,-0.914986,0.633186,0.098024,0.951033,-0.510498,0.347412,-0.080322,7.375974,0.997253,-0.652281,1.530966,0.159985,-0.889163,-0.695801,-0.202148,-0.150879,8.100132,-1.592341,0.870446,1.117492,0.166291,0.803769,-0.707764,0.129883,-0.199707,8.418918,-1.850216,-1.548608,3.190561,0.610277,-0.41241,-0.709961,0.113281,-0.015869,9.238044,-0.544634,-1.76772,-0.06576,1.359296,0.828308,-0.689209,0.077148,0.040527
7.913401,0.080015,-0.875756,1.609635,0.509172,0.931769,-0.513184,0.370605,-0.096436,9.19058,1.744191,-0.474868,1.388739,0.02405,-1.048668,-0.689697,-0.226562,-0.150635,9.444364,0.231771,0.896883,2.290667,0.038443,0.360304,-0.711182,0.135254,-0.210449,7.760761,5.278295,-0.745487,2.308409,0.419003,0.217746,-0.711426,0.123291,-0.031738,9.04651,-2.705638,-2.393346,1.852334,1.298162,0.400503,-0.695801,0.092773,0.011963
10.754491,2.581269,-0.01555,1.162268,0.083665,0.934225,-0.502197,0.365479,-0.098145,9.396402,2.041371,-0.059545,0.951116,0.071759,-0.321855,-0.687988,-0.235596,-0.144775,11.496197,3.55814,1.631778,1.057094,0.701451,0.543669,-0.697754,0.125244,-0.224609,7.858033,0.872987,-1.892382,-0.903705,-0.327894,0.83733,-0.701172,0.122803,-0.018066,10.663738,1.959963,-1.584483,2.510538,1.411535,0.2406,-0.688232,0.08252,-0.02124
7.910837,0.084767,-0.447013,0.193783,0.415869,0.888743,-0.508057,0.391846,-0.107178,9.383733,1.677991,-0.446706,0.556405,0.225747,-0.145784,-0.685059,-0.239502,-0.142334,8.451482,1.08434,1.543439,0.020971,1.223447,0.832469,-0.697998,0.149658,-0.242188,9.633051,-3.603521,-3.555406,1.223132,-0.305542,0.333298,-0.70752,0.138672,-0.019043,10.151725,2.443466,-1.606192,-0.064205,1.95094,0.797528,-0.692871,0.106445,-0.055908
10.893709,1.950447,0.755497,-0.049171,0.308566,0.850899,-0.501465,0.401611,-0.117432,10.352894,2.254451,0.245399,-0.286942,0.407738,-0.018383,-0.692139,-0.237061,-0.15625,9.626448,0.75208,0.996452,0.09164,0.682884,0.136992,-0.69458,0.148682,-0.258057,10.341379,1.963225,-1.513231,0.776211,0.577759,-0.114276,-0.70874,0.129395,-0.033936,9.810853,0.031421,-1.893427,-0.533214,1.760731,0.690528,-0.685303,0.116455,-0.087402
7.035946,-3.295271,-0.415482,-0.600982,0.153681,0.734052,-0.499512,0.416016,-0.113037,8.205688,-1.751026,-0.740831,-0.582546,0.667368,0.244613,-0.690918,-0.2229,-0.164795,8.239223,-0.020142,0.27482,0.017533,1.157899,0.57384,-0.685791,0.151855,-0.280273,7.528957,-1.146237,-2.622355,-0.75945,0.515824,0.835236,-0.703369,0.140625,-0.038574,9.303045,-1.305336,-2.182815,0.169692,1.848035,0.678901,-0.680664,0.123535,-0.127686
10.278537,-0.333241,0.654852,1.58997,0.196375,0.738654,-0.491699,0.42334,-0.130371,9.610812,-0.643927,-0.395893,1.429785,0.459593,-0.350691,-0.690918,-0.242432,-0.165283,8.41571,-0.490382,-0.40797,0.436665,0.498283,-0.129842,-0.680176,0.154541,-0.291992,8.968085,-3.91708,-2.646224,0.623623,0.477848,-0.233332,-0.69751,0.138672,-0.056152,8.859991,0.276043,-1.580157,1.091343,1.509312,0.345292,-0.668701,0.129395,-0.162842
8.056103,1.278698,1.592698,-0.084992,-0.124688,0.572671,-0.496338,0.433838,-0.118164,8.966682,2.066692,0.77676,0.469128,0.848443,-0.088054,-0.681641,-0.238037,-0.17041,9.350002,-0.025554,-0.946624,0.555052,0.818463,0.2511,-0.678955,0.151123,-0.295898,7.770026,-0.362039,-1.6348,1.051097,0.65744,-0.148887,-0.702393,0.134766,-0.060547,9.513759,0.947736,-1.67812,0.418116,1.363935,0.537131,-0.669678,0.137207,-0.178223
11.07261,-1.144721,0.771314,0.398753,0.097978,0.607842,-0.501953,0.448975,-0.125488,9.609722,0.048585,0.364589,-0.254722,0.345654,-0.719333,-0.688232,-0.249756,-0.187012,8.974303,0.278032,-0.71985,0.131212,0.387309,-0.313539,-0.688965,0.154541,-0.309814,8.718832,0.060968,-2.238688,-0.052823,-0.211049,-0.180341,-0.712646,0.136719,-0.057373,8.917995,0.584867,-1.639094,0.168927,1.005177,0.503675,-0.671143,0.14917,-0.200684
8.685522,0.987356,1.681659,0.15054,-0.133172,0.575316,-0.497314,0.453613,-0.133057,8.992031,-0.88785,0.749322,0.112246,0.632537,-0.514639,-0.679443,-0.26709,-0.187012,9.446254,-1.266827,-0.289349,-0.507685,0.475291,0.311416,-0.681641,0.157471,-0.325195,10.626222,-1.276265,-1.57364,-0.180656,0.221333,0.151436,-0.710449,0.134277,-0.071533,8.947895,-0.144049,-1.74721,-0.195079,0.629549,0.554235,-0.662354,0.155518,-0.218262
11.16115,-0.371635,0.882689,-0.172148,0.154917,0.614589,-0.490479,0.463623,-0.119629,8.816907,0.445088,1.08922,0.345112,-0.154873,-1.132159,-0.675293,-0.282227,-0.186768,8.48502,-2.974045,-0.221436,-0.101097,-0.131561,-0.170491,-0.678467,0.153809,-0.304199,8.790097,-2.447357,-1.653161,-0.181089,0.339884,0.013197,-0.702881,0.136475,-0.060791,8.20205,-0.084826,-1.657024,0.272856,-0.002664,0.617746,-0.653564,0.165771,-0.203857
10.42004,-0.170408,0.908734,0.040381,0.110561,0.594656,-0.490234,0.477539,-0.129883,10.53093,0.384033,1.341106,-0.517389,-0.106575,-0.568225,-0.676758,-0.293213,-0.191406,11.422802,-1.526691,0.357498,0.188166,-0.204787,0.018764,-0.682373,0.156006,-0.311523,9.209924,-2.012793,-0.910035,0.060448,-0.389106,0.011871,-0.70752,0.139648,-0.05957,9.406499,0.750906,-1.532822,-0.033904,-0.751902,0.484661,-0.660889,0.177979,-0.200195
11.485125,-1.410595,0.238168,-0.076456,0.769314,0.604808,-0.484131,0.486084,-0.141357,9.654525,-1.867357,0.635102,-0.023053,-0.401177,-0.714389,-0.673096,-0.303223,-0.181885,9.994128,-1.964394,1.396043,-0.140047,0.155615,0.110961,-0.684082,0.157227,-0.304443,10.80055,-2.173444,-0.757275,-0.030921,-0.553623,-0.029806,-0.710205,0.135254,-0.046143,9.920377,-0.594674,-2.06634,-0.11282,-1.04636,0.779152,-0.664795,0.188477,-0.172119
9.901766,-0.811357,0.039161,0.64826,0.620439,0.503987,-0.478027,0.487793,-0.155762,10.526532,0.659555,1.105316,1.050287,-0.388767,-0.304152,-0.671143,-0.30542,-0.172852,9.286992,-2.406923,1.868495,0.255666,-0.447075,-0.10681,-0.687744,0.150879,-0.302979,10.337196,-4.368412,-0.394631,-0.609499,-0.437331,0.048347,-0.709717,0.137695,-0.0354,9.319529,0.155756,-2.006928,0.950332,-1.470117,0.213425,-0.674316,0.186279,-0.149902
10.921411,-1.367684,-0.444122,-0.181948,1.023448,0.323056,-0.473877,0.491455,-0.167236,10.472601,1.471301,1.317921,-0.078133,-0.425228,-0.144207,-0.677002,-0.31665,-0.163574,11.400706,-1.68897,1.956296,0.595205,-0.457894,-0.359378,-0.696289,0.135986,-0.289551,9.970759,-6.086781,-1.251202,0.651963,-0.775884,-0.555079,-0.718018,0.11792,-0.018311,11.287675,1.567172,-1.751279,0.369334,-1.973088,0.372628,-0.681152,0.184814,-0.110596
9.867562,-2.929417,-1.310574,1.036463,0.748628,0.196557,-0.461914,0.497559,-0.19043,11.362267,-0.361436,0.412624,0.779794,-0.308629,0.255845,-0.679688,-0.306885,-0.153076,10.502033,-0.944232,2.444371,0.765885,-0.296029,-0.378355,-0.69751,0.132568,-0.288818,11.232934,-1.081497,-0.797243,1.270655,-0.958141,-1.06703,-0.721924,0.10791,-0.006836,11.605127,0.160044,-2.302635,0.443034,-1.162013,-0.001058,-0.683105,0.191406,-0.098633
9.025607,0.038371,-0.440692,0.737907,0.707957,-0.1105,-0.458252,0.480957,-0.199463,10.180687,2.709846,1.262539,1.436875,-0.023461,0.28069,-0.689697,-0.310059,-0.135742,10.340896,-1.520777,2.052506,0.3531,-0.522072,-0.558588,-0.700684,0.116211,-0.273438,10.551471,-3.232778,-1.522657,-0.971424,-0.623158,-0.311893,-0.721924,0.096924,0.015625,9.75434,0.786462,-1.559234,0.910081,-0.844933,-0.372982,-0.684326,0.176025,-0.077637
9.798819,-3.080502,-1.655575,0.630477,-0.104156,-0.343626,-0.463623,0.469482,-0.207764,11.16601,2.629168,0.968217,0.644922,-0.438578,0.587187,-0.69043,-0.302002,-0.12793,11.506306,-2.777589,1.7402,1.040127,-0.628521,-0.77286,-0.70752,0.093506,-0.270996,9.039418,-7.428685,-3.589265,1.058431,-1.163991,-1.329018,-0.730469,0.067871,0.030029,11.290943,0.869385,-1.810611,0.761395,-0.830927,-0.522104,-0.689697,0.159912,-0.072021
10.484043,-0.263071,-0.655027,1.681557,-0.286971,-0.606731,-0.468018,0.455322,-0.2146,13.247185,2.530037,1.066686,1.286728,-0.031508,0.578941,-0.686279,-0.301025,-0.123047,12.781323,-0.533372,2.539495,1.352894,-0.416312,-0.921062,-0.716064,0.075928,-0.268555,14.482591,1.353905,-2.783582,2.165244,-1.393735,-1.841227,-0.736816,0.044189,0.046875,13.506237,0.716234,-2.187772,0.866761,0.402066,-0.953606,-0.689941,0.149414,-0.085693
9.272433,-0.540231,-0.509112,0.546937,-1.139438,-0.909336,-0.482666,0.428955,-0.187988,9.416135,3.250092,1.457351,1.049988,0.026912,0.788139,-0.69458,-0.280273,-0.115234,9.784329,-1.028826,2.59357,0.628449,-0.477427,-0.553569,-0.722168,0.053955,-0.252441,12.358889,1.601156,-1.844466,-0.374477,0.381706,-0.527807,-0.741699,0.028076,0.048096,10.942921,0.461865,-1.861286,0.614884,1.451234,-0.948341,-0.691895,0.120361,-0.109863
9.929223,-0.610169,-0.177201,1.242354,-1.331228,-1.076672,-0.491699,0.401367,-0.171875,10.809838,2.876899,1.292358,0.685454,-0.471419,0.805176,-0.710449,-0.263184,-0.097168,10.661658,-1.680085,2.161539,1.063165,-1.028147,-0.725348,-0.727783,0.038818,-0.237061,7.892879,-3.193353,-1.9865,0.448097,-0.400992,-0.868863,-0.740479,0.012207,0.056641,11.142617,0.219984,-1.965233,0.74145,1.06281,-1.172967,-0.686768,0.09375,-0.135254
11.323089,-0.171147,0.556293,0.719202,-1.765063,-1.2836,-0.506592,0.374268,-0.143555,10.384292,1.392144,0.965153,0.699326,-0.211694,1.324046,-0.716309,-0.24585,-0.082764,11.749577,-0.35201,2.412431,1.238417,-0.573,-0.383709,-0.726074,0.022949,-0.227295,11.563091,1.90302,-1.550166,2.220276,-1.029757,-1.241242,-0.740967,-0.009521,0.069824,12.719166,-0.117772,-2.475437,0.722243,1.444333,-1.144498,-0.676025,0.070801,-0.162842
10.580631,-0.206286,0.956259,1.089864,-1.430377,-1.303472,-0.525391,0.337891,-0.125977,9.898111,2.255215,0.917927,1.179768,-0.458547,1.429644,-0.723633,-0.222168,-0.062256,9.064896,0.403394,2.604177,0.967219,-0.482479,-0.152494,-0.738281,0.014404,-0.225586,10.521588,5.320379,-0.259283,0.501207,-0.13423,-0.349341,-0.748291,-0.020752,0.068848,9.65336,0.258449,-2.077261,0.968263,1.443041,-1.217711,-0.675537,0.041016,-0.196289
11.312983,2.494824,2.288087,0.045418,-1.546264,-1.34542,-0.539062,0.323242,-0.105713,9.725551,3.601418,1.286253,-0.244862,-0.333083,1.817618,-0.731934,-0.188232,-0.063965,8.814523,1.534499,2.209744,0.176102,-0.909526,-0.077058,-0.744141,0.02002,-0.217529,9.013526,1.064018,-0.889317,-1.087283,-0.784031,0.348148,-0.751465,-0.006104,0.078613,8.980812,1.977993,-1.538889,0.422476,0.118566,-1.184239,-0.678223,0.022949,-0.209473
10.544357,-1.8792,1.463597,-1.104893,-1.306698,-1.356892,-0.554688,0.290283,-0.07373,8.921152,-0.464012,-0.255001,-1.143205,-0.687843,1.904424,-0.746094,-0.156006,-0.054932,8.770906,-0.131833,0.910214,-0.35503,-1.046782,0.20338,-0.759033,0.015381,-0.190918,9.29065,-2.266558,-3.531776,0.247198,-0.241951,0.018011,-0.759766,-0.019043,0.087402,9.435365,0.727692,-1.553327,-1.120998,-0.381058,-0.999448,-0.684326,-0.001221,-0.196533
12.509297,-2.532877,1.525329,1.047479,-1.150115,-1.398436,-0.550293,0.259277,-0.047119,11.911367,-1.721263,-1.152358,0.760342,-0.639125,1.913822,-0.750732,-0.118896,-0.046631,10.796666,-0.625078,-0.381798,0.651152,-1.012906,-0.019119,-0.753906,0.01001,-0.165283,7.994848,2.23898,-2.932186,1.375013,-0.496483,-0.378748,-0.749023,-0.022461,0.104248,9.366903,-3.130156,-2.607586,0.068912,-1.433886,-0.948196,-0.682617,-0.018799,-0.161377
10.706788,2.183912,3.196224,0.670718,-1.049301,-1.407211,-0.556641,0.231445,-0.029541,10.687368,2.605987,-0.020549,1.053489,-0.049505,1.759119,-0.753662,-0.081787,-0.034668,9.372162,2.798846,-0.094158,0.873397,-0.565564,0.002051,-0.760254,0.006104,-0.159424,10.553608,3.285225,-2.037481,-0.681207,-0.754733,0.317343,-0.755127,-0.020996,0.116699,10.201306,0.328547,-2.51358,2.236767,-2.468418,-1.366503,-0.692383,-0.055176,-0.115479
10.053971,-0.178552,2.001518,-0.468536,-1.056383,-1.351974,-0.562988,0.209961,-0.009033,9.00096,2.031016,-0.661252,-0.942652,-0.176109,1.533393,-0.756836,-0.061768,-0.04248,7.370695,3.105761,-0.31715,-0.552478,-1.224172,0.026577,-0.769531,0.009766,-0.132812,8.880052,-2.391886,-3.647811,-0.872763,0.151987,0.357879,-0.760498,-0.014404,0.115967,10.405557,4.163668,-1.374434,-0.014373,-3.09585,-0.874823,-0.704102,-0.069336,-0.059082
9.35657,0.437103,2.069422,-0.050155,-1.389558,-1.271523,-0.557373,0.185303,0.011963,9.575812,-1.030737,-1.589397,-0.640935,-0.235753,1.110365,-0.763672,-0.041748,-0.029785,9.461896,0.358679,-1.489686,-0.737822,-1.543653,-0.086763,-0.766357,0.015137,-0.10376,7.119968,-0.171442,-3.144103,0.817306,-0.120657,-0.420902,-0.751953,-0.014648,0.116211,11.190978,-0.675791,-2.745579,-2.00054,-3.815008,-0.490546,-0.698486,-0.071533,0.006104
10.854066,0.553841,1.388217,-0.185304,-1.438562,-1.281783,-0.560059,0.163818,0.041504,10.546768,0.560298,-1.534328,0.350397,-0.081263,0.796383,-0.763672,-0.014648,-0.030518,10.03909,0.756537,-1.029248,0.115923,-1.220839,-0.338676,-0.772705,0.012451,-0.079346,9.290423,3.177243,-1.281973,-0.613537,-0.600382,-0.064425,-0.753174,-0.01709,0.131592,13.070481,-3.378457,-3.935782,0.427499,-4.206466,-0.963282,-0.695312,-0.09082,0.090576
9.252288,1.023701,0.698916,0.119986,-1.530295,-1.125378,-0.561279,0.140625,0.069824,9.10273,1.208009,-1.199509,-0.511914,0.172691,0.671676,-0.760986,-0.006104,-0.037354,8.52708,1.808645,0.345199,-0.263938,-1.232364,-0.309703,-0.7771,0.003418,-0.058594,9.25249,-1.984546,-2.719835,-1.29811,-0.194109,0.18766,-0.756592,-0.018799,0.135498,13.250664,1.709144,-2.327184,0.963534,-4.207837,-0.778455,-0.685059,-0.104736,0.167969
9.537106,1.950759,-0.039226,0.045241,-1.797319,-0.951733,-0.561279,0.121094,0.100342,8.368863,-0.764607,-1.930861,-0.278331,-0.323759,0.633502,-0.753418,0.005615,-0.032471,8.627228,0.019219,0.271441,-0.520146,-1.63794,-0.275082,-0.782715,-0.001465,-0.029541,7.686742,-1.6708,-2.99471,0.687618,-0.001255,-0.59923,-0.763184,-0.028564,0.132324,12.753262,0.627402,-2.584114,-1.264194,-4.209721,-0.090957,-0.669922,-0.112793,0.237305
10.360362,1.526845,-1.009141,-0.120092,-1.80184,-0.761255,-0.55127,0.111816,0.14624,10.4893,0.419336,-1.598331,0.299793,-0.221886,0.831875,-0.770264,0.023926,-0.029785,11.253499,-0.346482,0.394909,0.158647,-1.234803,-0.4273,-0.778564,-0.006836,0.010986,9.032743,3.245127,-1.728671,0.493109,-0.386667,-0.425491,-0.759277,-0.031982,0.155273,13.585842,-3.380672,-3.563587,-0.463164,-4.081365,-0.226278,-0.638672,-0.117188,0.32251
9.801502,2.077906,-1.517666,0.485897,-1.768948,-0.48956,-0.543701,0.107422,0.18042,8.478451,1.107948,-1.192602,-0.137786,-0.278034,1.297825,-0.761475,0.038086,-0.014404,9.251832,1.712948,1.012101,0.186619,-0.629785,-0.267207,-0.776123,-0.00708,0.022705,9.138188,2.003695,-2.064605,-1.200257,-0.097013,0.095917,-0.755859,-0.030273,0.157959,12.682581,-0.591319,-2.618179,1.320216,-3.447811,-0.289595,-0.603271,-0.106689,0.381592
9.337174,3.562807,-1.19306,-0.531421,-1.801288,-0.354616,-0.53418,0.089355,0.203613,9.186165,0.474448,-1.290564,-0.716887,-0.504984,1.553938,-0.757568,0.068115,-0.012451,9.148317,1.99159,0.376124,-0.750755,-0.717911,-0.209605,-0.7771,-0.02124,0.02832,7.254063,-1.020905,-3.234363,-0.506703,-0.167037,-0.057743,-0.754395,-0.041016,0.153564,11.742176,1.950184,-1.527873,-0.530888,-3.189155,0.350655,-0.572021,-0.116211,0.421631
9.599934,0.760044,-2.179281,-0.863433,-1.969104,-0.238839,-0.529053,0.07666,0.240234,8.518357,-0.480358,-1.354256,-0.8061,-0.446364,1.822126,-0.75708,0.106201,0.002441,9.143544,0.542853,-0.736343,-0.845042,-0.209076,-0.074033,-0.778564,-0.0271,0.036865,8.163235,2.266148,-2.985935,0.043672,-0.470066,-0.414185,-0.759033,-0.052734,0.167969,11.781477,-1.602294,-2.398689,-1.415087,-2.486055,0.623947,-0.551025,-0.126709,0.4646
10.266002,0.21921,-2.365083,-0.152091,-2.087706,-0.158834,-0.519775,0.080811,0.281738,9.740212,-1.34449,-1.638144,-0.603914,-0.65413,1.784521,-0.752441,0.143799,0.018311,9.168705,1.152047,-2.106943,-0.125069,-0.235046,-0.255418,-0.780273,-0.025391,0.045898,8.372948,2.93907,-3.573219,-0.924912,-0.323612,0.13493,-0.75708,-0.049561,0.180664,11.454148,-2.139098,-2.343017,0.366402,-1.911656,0.214531,-0.52832,-0.111816,0.496338
10.301965,2.548876,-1.388846,-0.225656,-2.177209,-0.086354,-0.506836,0.077148,0.316406,10.066506,-0.925814,-1.153001,-0.515195,-0.177445,1.637313,-0.754395,0.175781,0.017822,10.286437,3.857383,-2.509561,-0.39642,0.250311,-0.259415,-0.783447,-0.03418,0.039307,7.810759,0.81481,-4.071386,-1.126802,-0.747865,-0.101315,-0.759277,-0.057617,0.192871,12.239229,1.636851,-1.557659,0.506489,-1.245623,0.286805,-0.515869,-0.101807,0.508789
9.927078,-0.001031,-1.940007,-1.247293,-2.395981,-0.155276,-0.491699,0.066406,0.358887,8.746259,-2.124388,-1.177902,-1.162837,-0.174129,1.266402,-0.741211,0.188721,0.032227,7.702299,2.574159,-2.881076,-1.189375,-0.001333,-0.042636,-0.787109,-0.038574,0.046143,10.501054,1.221102,-5.174772,-0.334435,-0.764345,-0.189675,-0.75708,-0.063965,0.214844,11.320222,1.107076,-1.66115,-1.375116,-0.316762,0.648921,-0.512939,-0.114014,0.516113
10.531867,-0.768623,-1.875089,-0.16446,-2.304835,-0.106594,-0.474121,0.067139,0.391602,10.126461,-4.192008,-1.540397,-0.746319,0.017677,0.716193,-0.74707,0.2146,0.032471,10.431249,1.018011,-4.324144,-0.472266,-0.600192,-0.40241,-0.786865,-0.041504,0.052979,10.100039,2.69052,-5.659644,-0.460119,0.390671,-0.250317,-0.761719,-0.064697,0.201416,10.523704,-1.913351,-2.332388,-0.732639,-0.145135,0.406945,-0.510742,-0.106934,0.51001
11.233074,1.720667,-0.95564,-0.318978,-2.100133,-0.059281,-0.457275,0.054199,0.437744,10.173424,-3.420267,-0.782004,-0.365051,0.30459,0.475025,-0.751221,0.227051,0.035645,11.087219,3.215544,-4.289828,-0.205054,-0.039428,-0.408935,-0.788818,-0.061768,0.063721,7.782594,1.591635,-5.675444,-1.125424,-0.186893,-0.062049,-0.762695,-0.08252,0.219238,10.636754,0.194298,-1.909044,0.580826,-0.107719,0.130139,-0.51123,-0.108887,0.519531
10.357696,-0.147011,-1.402799,-0.820786,-1.433086,0.028051,-0.444824,0.056396,0.44458,9.84633,-4.022498,-0.580936,-0.937204,0.475934,0.266824,-0.744141,0.224121,0.02832,9.713894,2.146723,-3.33344,-1.179935,-0.171284,-0.222529,-0.787598,-0.060791,0.055664,10.917533,0.604863,-5.66985,-0.455996,-0.563005,-0.333762,-0.760498,-0.083984,0.21875,9.259074,1.673943,-1.204748,-0.831333,-0.014344,0.432674,-0.507568,-0.105225,0.510498
10.957789,0.207036,-1.152963,-0.137663,-0.932396,0.235351,-0.432373,0.05249,0.456055,9.82069,-5.849295,-0.813584,-0.576544,0.343456,0.091064,-0.746582,0.234375,0.028076,10.56905,-1.469679,-4.134619,-0.72524,-0.490855,-0.204191,-0.786865,-0.07251,0.062256,10.994883,1.419571,-6.412285,-0.021797,0.578984,-0.198597,-0.761719,-0.09375,0.203857,8.307292,-1.743434,-1.853922,-1.204995,-0.563893,0.602765,-0.500977,-0.113525,0.508545
