# sampling frequency: 40
# units are seconds/meters/radians/a.u.
seg1_acc_x,seg1_acc_y,seg1_acc_z,seg1_gyr_x,seg1_gyr_y,seg1_gyr_z,seg1_mag_x,seg1_mag_y,seg1_mag_z,seg2_acc_x,seg2_acc_y,seg2_acc_z,seg2_gyr_x,seg2_gyr_y,seg2_gyr_z,seg2_mag_x,seg2_mag_y,seg2_mag_z,seg3_acc_x,seg3_acc_y,seg3_acc_z,seg3_gyr_x,seg3_gyr_y,seg3_gyr_z,seg3_mag_x,seg3_mag_y,seg3_mag_z,seg4_acc_x,seg4_acc_y,seg4_acc_z,seg4_gyr_x,seg4_gyr_y,seg4_gyr_z,seg4_mag_x,seg4_mag_y,seg4_mag_z,seg5_acc_x,seg5_acc_y,seg5_acc_z,seg5_gyr_x,seg5_gyr_y,seg5_gyr_z,seg5_mag_x,seg5_mag_y,seg5_mag_z
0.5354538406096634,-0.10121657087173357,9.755401002226886,-0.004007942726986633,0.0027338423233870704,0.008929608851906815,-0.3941766427646328,0.18814796537685585,-0.5191716105608555,0.13871525404334073,2.3308804041225586,9.538056465101219,-0.00901315750291863,-0.003210375604666213,-0.009154352424095638,-1.0284266678147256,0.2603555063985386,0.32133991533804385,-0.1416810976473995,1.7963161072499552,9.54492599254629,-0.005390819548550813,0.0025516684330584784,0.004270336029248201,0.6253802021808187,0.31020727666440223,0.9771447260926774,0.2376503451346632,1.8110665273320166,9.741831048321508,-0.0038208141173905565,0.003174629050513401,0.005959802586662196,0.34810275073942254,-0.006072459539636287,-0.6195414194545728,-0.7938961981780892,1.6363084373373114,9.657252628298489,-0.007272545314392853,0.005198149779735383,-0.003773716671603679,0.29567583842993045,-0.006861284591200476,-0.7138073999059663
0.5299994152751535,-0.08172574645352973,9.735022696292166,-0.0027225506690079617,0.00165350000046604,0.011976565977071354,-0.3976892684083196,0.19211192059986051,-0.5264193037164276,0.1235607627063958,2.3131792461825054,9.537060147431124,-0.010200374104466487,-0.0035682007959780397,-0.011595829819746026,-1.0336290201571419,0.2646737427638592,0.3137781510069781,-0.16382084811713343,1.8036522961258206,9.550879811313733,-0.004739504087002729,0.003298062152463676,0.0027064611668692175,0.6222743138367994,0.3040665684096888,0.9790883859716122,0.241716261515151,1.789557694797473,9.737319665386325,-0.00202945987953497,0.005650785318528778,0.00515961315228744,0.34614770309814,-0.010237374381312501,-0.6151610740250546,-0.8083282143286481,1.6496058243095773,9.644323658094338,-0.007264702773410898,0.004854902634384403,-0.0020227832371866672,0.2945362643039849,-0.00963111321296431,-0.7089524298527597
0.5356277394346172,-0.0958784740431976,9.743648178419482,-0.0029216991622578897,0.0002393879960052233,0.011197440751914258,-0.3923829135749468,0.19396200447234777,-0.5327821029468846,0.14101158622618154,2.319234474581707,9.527448355531856,-0.010256940345936287,-0.002552160438576145,-0.010474834167454454,-1.0251399791321834,0.26465430096099807,0.30638938889869,-0.1487649806839932,1.787330221493271,9.549515980486545,-0.005552239886276264,0.0030742314238609773,0.0029488045709725563,0.630485064113242,0.31244618555339465,0.9766167548456532,0.24943575585345887,1.8090908468241123,9.738486603715899,-0.0024959844870658444,0.0022991157496087358,0.0066399495638316194,0.35518641342863977,-0.00343583170942632,-0.6220241644254377,-0.80132708130134,1.6280908833990324,9.66468545288138,-0.00754852305298852,0.0033272419230061384,-0.002265007925878247,0.30467950719522935,-0.003128111038743036,-0.7138593324777658
0.5328057466872174,-0.09019531200819528,9.755537096461824,-0.0032859816103027084,0.0021982351870152308,0.010779611863110865,-0.39310416496777373,0.19728543171871976,-0.5261407446696632,0.12240266792832208,2.3220353634989626,9.53795264984689,-0.01079750959430297,-0.003430696262484238,-0.009833209125993,-1.029762603099125,0.2693075824984541,0.3110294324969148,-0.1299972349052235,1.8048487992384998,9.561153849886388,-0.005790137951579869,0.0029386045198489625,0.004965613152229815,0.6380224064345175,0.31883996996965547,0.9780454191065242,0.2562131283818396,1.8147404910620246,9.737792892971731,-0.004081868838197133,0.003912242789080907,0.0060825152812828695,0.36406816310420603,0.0028006201480049293,-0.6181483868350025,-0.8169698404581333,1.668468370934078,9.641260165042814,-0.00886801973137477,0.0037508370272993576,-0.0007720910817953376,0.3092874712026345,0.005407101787707773,-0.7108528302386766
0.5279699726770429,-0.09195926733896573,9.746829949953721,-0.006695470366774808,0.001373413035846841,0.009482275423156954,-0.39793243373940446,0.1904324175662107,-0.528881766138825,0.14960989310098524,2.322714814453545,9.54948559009664,-0.008421989561878129,-0.003353896841259585,-0.010915883326502021,-1.0307050970720018,0.2629640569553108,0.3120594566687565,-0.14875790698192992,1.790988393034723,9.562154646117698,-0.0064757335759843765,0.0052535492749347,0.0026698240894676385,0.6285234621128943,0.32118271018251054,0.9818294426357556,0.25173006813118,1.80159935062424,9.72677467420537,-0.004070097685999583,0.005315483504740489,0.006731831024116143,0.3536064466722103,0.0050830311500789154,-0.6163321865943564,-0.8128309324391252,1.6219339051817183,9.64341320743735,-0.008387199794398411,0.0037337221825419257,-0.0027095887644507212,0.3012129162127591,0.006575280415896407,-0.7114695144432104
0.5329610476854977,-0.08572351209883461,9.743782088925862,-0.0030386328799661645,0.0016313729297718544,0.01066140954962317,-0.3921869590819965,0.20123339337825974,-0.5285380475495468,0.14530981120128345,2.313097051603432,9.545570003752953,-0.009826710197793421,-0.003167573729849445,-0.010904585840578747,-1.029038250222111,0.2732236135971768,0.31197108760543335,-0.13906840762540656,1.7964254952845988,9.541940749824693,-0.004179780105856459,0.0023905554611186194,0.003332741192172371,0.6278054957565297,0.31460969283751516,0.9786152011554807,0.25942307140681486,1.8098396477521244,9.75683720736286,-0.002393735375735178,0.0043452619739547844,0.00596115302006722,0.3527821535361247,-0.0012295845285195716,-0.6200339923861443,-0.7959871120956628,1.658488601857849,9.640870082164534,-0.006918403004367529,0.00514794010586923,-0.0031346836420189927,0.30051884460950723,-0.0009709469307869201,-0.7132871630455889
0.5383415304127682,-0.09979501581907511,9.75241642020702,-0.001964016080063781,0.0021739614296732625,0.010438724900079698,-0.39428479180279113,0.1914554684356701,-0.5293827573770303,0.14548865908065783,2.310744861404182,9.546136032641432,-0.010206606483284199,-0.00341525104286707,-0.01010282729781997,-1.0306921138088736,0.26297666696888666,0.3137683608271095,-0.13689213963553576,1.8081889768739872,9.566424583338511,-0.005356259750738872,0.0034365287188409268,0.003923369323323551,0.6279999654198664,0.3173159313111011,0.9759475353454279,0.25254434655384156,1.7985298537621135,9.736430580515176,-0.0032393011891439856,0.004129773735991102,0.006020854565219828,0.3557094459800805,0.0009597105583309556,-0.6227292198292838,-0.8020753599499112,1.6219197905644516,9.642031699852556,-0.006776004856347692,0.004491525626479874,-0.0022083943790516826,0.3016883477683033,0.0022462593460258543,-0.7154490539156381
0.5320223316100695,-0.08711133915639967,9.74382073071701,-0.002096445417738347,0.0013468826178535665,0.011087946826359142,-0.4035654260355677,0.19112339949187682,-0.5302972804516342,0.13338134374720173,2.341301005419721,9.525008365677996,-0.010745899236834057,-0.004453741859938987,-0.010952115322477045,-1.0355872050073598,0.26367986772144647,0.3125802935478263,-0.1387862515733249,1.8004030925698609,9.55452970735892,-0.005988143773615079,0.0025782993894836017,0.0039900851375256965,0.6300681395163561,0.3097238854921633,0.9812409246367759,0.2576854274126806,1.8191318422349745,9.728370059032855,-0.004915653285743054,0.005102002518447448,0.0067905472589563365,0.3571922341116883,-0.005714117876346437,-0.6135137561197761,-0.816826798385296,1.658460153730722,9.670991345668142,-0.0070588451743577064,0.0029648881759266775,-0.002451615367201203,0.30329947502536997,-0.004453989353678958,-0.7077578515178564
0.5238193813807384,-0.0891444470876541,9.758764979901061,-0.005437215186826485,0.0011091154051569806,0.01121894340079256,-0.40089812857161117,0.1945350087368139,-0.52758564043153,0.12807416650940406,2.3178488052680066,9.545207861285819,-0.009991619719139047,-0.0036444744249786716,-0.009571739421536097,-1.0346028250892654,0.26344702972776274,0.31355058765043103,-0.1391803180449651,1.7989370933377202,9.554800395126081,-0.0063811262282160025,0.0018566971310928603,0.0020409886876132715,0.6371940559383334,0.31071740151607175,0.9860530869425623,0.2558519834319629,1.7932105555437121,9.755543962993071,-0.004929405438611057,0.0037007803695575407,0.0061412635245598505,0.3596434012740285,-0.0032853010830588246,-0.6149810279169934,-0.8023485499432375,1.6398584613210556,9.64421098774398,-0.009644249099215234,0.0029237248386385197,-0.0025727810595179514,0.3072139848303066,-0.004434298528279347,-0.7070730995492943
0.5311730350960007,-0.08955816500018707,9.743844891043253,-0.004792607212576024,0.003025502358778301,0.00915210170305112,-0.39477796162317047,0.19337417800654094,-0.5271568869605605,0.14365002776932773,2.330946926913505,9.547347005827763,-0.010209309927084539,-0.003578214747319749,-0.011592687869290562,-1.0289667322874712,0.2607928735067167,0.3147484213967615,-0.13968981083442494,1.7976164636698604,9.555041410432354,-0.0047405188466109645,0.0033000545387116024,0.0027064868568783423,0.6282575665513873,0.315122659506355,0.9756847018476672,0.25018802326195877,1.7950907196807073,9.737125514551071,-0.004344894346008825,0.0046538823460887295,0.006204274674027916,0.35133300380920185,0.0027078978831924306,-0.6224345386419824,-0.8051282997090372,1.6466117275210452,9.648785219687335,-0.004893705559144126,0.00462697873571392,-0.0033544505779118405,0.3036741341288915,0.0029445502085235307,-0.7122878276659916
0.5306809046494941,-0.09082784990041629,9.7438598535882,-0.0044950169452394,0.000823625237697543,0.011645467535905904,-0.39174549260692215,0.18579985059023385,-0.5243473929036042,0.14117385538041516,2.3141393975106177,9.531726957214797,-0.009943530893261195,-0.00129844601134954,-0.010150447592612391,-1.0262495526897024,0.25838445089974027,0.317675713930772,-0.14022056088367416,1.7963217186846347,9.555276847915467,-0.0061851460926786095,0.00221899442607281,0.003015553439964267,0.63367140519997,0.31149050388066457,0.9770627358087429,0.2529846878069014,1.8062034719729723,9.748571304428308,-0.0034604793996713765,0.00448921135472881,0.0051553634922305875,0.3578654244009092,-0.005424634233459097,-0.6205978773817957,-0.7979770799442177,1.6441658297005688,9.654179309854086,-0.006842286951299355,0.0032268685799350496,-0.0009909169712476033,0.306378049215506,-0.004067727296505648,-0.7153598518190284
0.5268281243028362,-0.08515146804517368,9.723383511907278,-0.0031545523334428507,0.003021382089694835,0.010124345106901559,-0.4003433406962668,0.1893949269992929,-0.526191637151414,0.13991463458703007,2.325428069667619,9.532059247637854,-0.010911535680705072,-0.00509161298947422,-0.011111159311886295,-1.036812876054757,0.2639153070758095,0.3120988407526439,-0.12865324119742866,1.8007297026285416,9.55896085603523,-0.005750267980065186,0.0027169261294593097,0.001973298650609762,0.6326704811997242,0.31052756422030087,0.974137493193808,0.24005453298390914,1.8019408617083847,9.730942141686256,-0.0030609144810846757,0.0041575396606968445,0.007874641294003103,0.35611349762072075,-0.006601484423642755,-0.6242537085029943,-0.8007223371071472,1.6508771556313746,9.658766475248955,-0.008175427945750723,0.004337911819048093,-0.0029958763248840842,0.3046684165207949,-0.0035971465916625183,-0.715087692216213
0.5384534881381454,-0.09187490990529648,9.761338077103709,-0.002007630576669411,0.0007679580654259303,0.010311656747456701,-0.3963280591107804,0.19758100585671456,-0.5327063686677028,0.13769111726490377,2.3084987199286213,9.516459179588871,-0.010323418968582807,-0.0015481232535276065,-0.009348674354740988,-1.0298010041970145,0.27049611033945536,0.3066257076046394,-0.1592568926157624,1.7884361216093974,9.544800192964917,-0.006025725578498013,0.00169641642648124,0.0043371068191363936,0.6296077181844714,0.3128602650680251,0.9859082446765056,0.23842704631490463,1.8050123087858045,9.752562279428483,-0.004944155918892006,0.002301582220664183,0.005490003235992458,0.3526170233604907,-6.514953004749507e-05,-0.6122114542328703,-0.8168796739569736,1.6539324745426742,9.665118801301,-0.007126011367336578,0.004536644047128165,-0.0028395550324384327,0.2996376542158026,0.0003500949249946074,-0.7044652796352666
0.5270378486573999,-0.08677822885637881,9.755783354560572,-0.0025459353235568814,0.0004956661513420428,0.010421993110469758,-0.40087797910033024,0.19186534829204435,-0.5288418028845749,0.14006950352490832,2.3205392682271744,9.533248210247859,-0.01005187766504666,-0.002792394407052792,-0.00993958942222446,-1.0360801511679203,0.2614683555469972,0.31089126158097313,-0.15242368277742513,1.8000266156522808,9.553065055767597,-0.005953591399721039,0.003464159620587281,0.003643125796381489,0.6260778724415426,0.3250551780991498,0.9840817797317465,0.26214397229956227,1.8040402684998431,9.736234537253868,-0.004398493959218417,0.003634843426518975,0.006542224022105242,0.3487933499959236,0.00777660982958042,-0.6111434345014103,-0.8077098858950214,1.6310843698048445,9.645251751827361,-0.006983625401033555,0.003880245039197676,-0.0019142655755721924,0.29737032326611207,0.007914605159056724,-0.7052967868711612
0.5399347958889256,-0.07941096587565515,9.737811609868412,-0.005710708089680322,0.0024920462918701773,0.010025849609566054,-0.4018590760928362,0.19473647151028528,-0.5251348067749233,0.1453900577534185,2.33246111524547,9.526250431144897,-0.009942008673927761,-0.004669535428255825,-0.010691615612797202,-1.0360739340322243,0.26539582909304815,0.3137913977661021,-0.1360696878660267,1.7900009769518042,9.563859841457246,-0.00533683956870355,0.0033276856620912953,0.002427232282298529,0.6259544581655245,0.30845403179753617,0.9837182052704673,0.23490034193507486,1.8043615374276611,9.743665303152428,-0.0035539280642809664,0.003850341018957639,0.00648253116858287,0.35057548385298976,-0.00833726230023259,-0.6134760951924527,-0.7986260453922882,1.638604700930569,9.631454770328485,-0.00649599493471868,0.0035209059001989596,-0.0021028018095040246,0.30114874634036853,-0.00864069022596222,-0.7065761971988889
0.5300983648374835,-0.10948713386540784,9.743807277155916,-0.003420393007400974,0.001364240155163268,0.011420756825795856,-0.39028599306067924,0.18343254973620246,-0.5287843376565867,0.12905384038428735,2.328293771496868,9.525007216702619,-0.010593169730854146,-0.003832900629947114,-0.010789847441658595,-1.028219680484063,0.25394746951638814,0.3130841621584759,-0.14749075445707888,1.7965446720001106,9.561127063742628,-0.006382159426859296,0.0018596967454232152,0.0020400218295923474,0.6312198698091328,0.3114792936285316,0.9761135753598618,0.2546675882601556,1.8093780990511008,9.739374672872174,-0.0026567428428038156,0.005087894066021536,0.006083919660889149,0.35881093941277153,-0.007867383625969525,-0.6216001561692259,-0.8068520885129804,1.6523688869705069,9.66396823402023,-0.007477057642431596,0.004583785167665237,-0.0034726721049427394,0.302266067265204,-0.009707281555684939,-0.7158851147990338
0.5258336142830423,-0.09023914957020901,9.75581682670118,-0.004116267634697576,0.0010838831766517543,0.01087405081002073,-0.3901683863595297,0.19371642376480697,-0.5308480635656255,0.12481234126446783,2.31838864070802,9.521146308743035,-0.01005585349857924,-0.002796403082921869,-0.009938529580020212,-1.026337868665081,0.2681032656887286,0.31125631369509316,-0.13007921895037766,1.8078092232692113,9.560628267186212,-0.0031374748308537984,0.0038605217552455558,0.00371999925578416,0.627043975360663,0.3134081513568685,0.9751965407808656,0.2575971066224844,1.7920178709478758,9.756250142506197,-0.0024901641639573737,0.003709426882189056,0.007287368773585954,0.34962411026629525,1.6411645843445594e-05,-0.6195095152757213,-0.8047497948101557,1.645056451657299,9.676406902276005,-0.006223902861535535,0.002898578977541041,-0.003751064259797067,0.2975561632956882,0.0009811575017419083,-0.7146861418578833
0.5277206246652572,-0.07683058304128491,9.732281774089028,-0.0022349157913987817,0.000171840398393317,0.008225275392522512,-0.3937063711433773,0.18268261802476612,-0.5302336341064481,0.14669051831280272,2.3318853692166623,9.516034226818249,-0.01162321890038586,-0.003245939024781443,-0.010086313659663467,-1.0289599274816918,0.2536915050044521,0.3118706064114537,-0.14383333917471258,1.7868937568875802,9.556991130964759,-0.008191541445425405,0.0020484403974760893,0.002696384187363865,0.6310102056064318,0.3082965281317492,0.9770687887991502,0.25084837808974864,1.8092988197656201,9.730382438140522,-0.004933355635228216,0.0037088394002890994,0.006138356985319866,0.3549615712981689,-0.0032040067543879216,-0.6200673853866633,-0.8052057217373462,1.6504386532103175,9.640822827044524,-0.008383040737973892,0.0037256313829868107,-0.0027017630879804977,0.3027264409260019,-0.003867958239751215,-0.7143350795399392
0.5444237560711128,-0.09683867726089304,9.746454523749485,-0.0035989976951222046,0.0025132103304659316,0.0129632268909151,-0.39787530248210035,0.18817512954647653,-0.5242721547869427,0.14118301641971429,2.308236229336529,9.536218696586554,-0.010274804394178166,-0.0025721809626676534,-0.010467550322624067,-1.0331194311893592,0.26077426558589856,0.31453609481919587,-0.14160000046626864,1.7982489666565031,9.581566370461395,-0.004364664816214358,0.0030279311630199953,0.0035074348053973654,0.6325713120777188,0.3031416719102475,0.9823865150915566,0.2585236852045503,1.7994140665536038,9.737187609602799,-0.004607901017548258,0.005397521760916265,0.006326048691949274,0.3590651886585273,-0.013538419510903,-0.6143198095900563,-0.7958598578813247,1.6088606067915896,9.635825736412281,-0.005865982931354901,0.002504183375949533,-0.00136706395924659,0.3067860569565027,-0.011040501794407706,-0.7064379711044765
0.5204700649312393,-0.09330715018591343,9.74712245061242,-0.002793284198803834,0.0010586073723606692,0.010534143525502986,-0.3956538421230726,0.18815436348441425,-0.5208700648933721,0.13649330419388933,2.3403492890436706,9.548083040499494,-0.009190697430054821,-0.0038642652415376492,-0.009309187552747435,-1.0298950247898002,0.2593654002830528,0.32038132226805704,-0.1379191716236507,1.8046362905482651,9.55377892028091,-0.004924411069114341,0.003938437690328746,0.0028811768744355375,0.6356018441150958,0.31127717353116163,0.9748427246022512,0.24799128474253523,1.8222975165281237,9.723426735438292,-0.0029841870837611522,0.0034012376660149746,0.0058952600272078005,0.3595779191958665,-0.006181596885200039,-0.6193971629606642,-0.8122029440862548,1.6613094430672943,9.63334580241668,-0.00628610597379977,0.006964469117283844,-0.0039924480711160705,0.3073517128988842,-0.0047815333900699634,-0.7161149027394705
0.5345696054726757,-0.10702461884758514,9.773182479469588,-0.005237092195179632,0.002518382712383781,0.011986997074044653,-0.39163246668883467,0.19154527848210545,-0.5340402269309228,0.13958587893257035,2.31054743397504,9.549104499237767,-0.010655424110284691,-0.002979821366919154,-0.011156689591954047,-1.028305885733735,0.2658740161252719,0.30811353718358064,-0.13974576202091155,1.7896866711913946,9.553540145061675,-0.0051569841128793975,0.0026942722195021666,0.002252622930436508,0.6338800752885863,0.31588787168815285,0.9768484435788723,0.2597058772852614,1.7959566458795637,9.746902479090705,-0.004495931288518894,0.0029990250830791553,0.007867448531765485,0.3605770848560006,-0.0020265910404915566,-0.6213281814520433,-0.8153141587807808,1.630616095978158,9.667623477900737,-0.007821379282102766,0.0014453131370917285,-0.0007535071739828776,0.3077831451093535,0.003270573157602313,-0.7155074627072839
0.5385880575713413,-0.10043511312191168,9.737780650674706,-0.0028830811109369654,0.0016325870957837553,0.011305375521513596,-0.3966964031933753,0.19496600015447024,-0.5197964386596027,0.1344193308360941,2.3212721783772805,9.532986712067274,-0.009248983572947012,-0.003007184681232524,-0.009678089489166588,-1.0326321444983253,0.2691093690282634,0.31886513435306707,-0.15153735127389478,1.8037985052929288,9.539065541883014,-0.00472841608574114,0.004298735094666233,0.00385572689722565,0.6302228975025153,0.3156146269432514,0.9771307624596651,0.251886668828215,1.8173433111465795,9.742457744131016,-0.002712342292956121,0.004068873855401744,0.0064218863922269505,0.35402221542341317,0.0016950092268534322,-0.6210001232684413,-0.8040285441516101,1.6482632499348793,9.634668637047387,-0.006494935236433042,0.0035178678800722313,-0.0020998611508613032,0.3039097282330055,0.001748338039755222,-0.7137744930168347
0.5291199102054207,-0.08822327621755867,9.752837135486198,-0.0005737059254675597,-0.0006552625287842692,0.010499745117356643,-0.40278166613188043,0.18792591390077765,-0.5279024380125402,0.143974094029828,2.3404950105802986,9.530527149218663,-0.012441000556736153,-0.0030491719556115225,-0.010342567211887144,-1.035828044865441,0.26245611524943196,0.31234613964545016,-0.14021424349179992,1.800822994552112,9.554464489216723,-0.0075109876164046714,0.0047892256320383325,0.003431912421907455,0.6268539089906482,0.3119129466410019,0.9790950850774769,0.24758731049310062,1.804191620183781,9.731414861775159,-0.005780882021976804,0.003499384232436373,0.006196119918284431,0.35202491610144415,-0.003908546104706984,-0.6200472717245988,-0.8231045354252277,1.6568738323829157,9.628812098066518,-0.009214848253552285,0.003783872784147941,-0.0013964760711837757,0.2980835117708428,-0.002447558293378345,-0.7137684351607054
0.5277937633212504,-0.09620242221580441,9.764608766026624,-0.005013887660641373,0.002771531866665658,0.01056353641724801,-0.3929874527940814,0.18774029248800886,-0.5243130835044426,0.1310732056996418,2.2880893932216972,9.541986479502578,-0.00968689767939861,-0.002555740546983431,-0.01073615301704324,-1.0267713762340058,0.2598203952985017,0.3140058771670622,-0.14184685759969282,1.7782449110902285,9.565969044938825,-0.004998567101670479,0.002170694052956027,0.003573179992465944,0.6320111406217945,0.3092594605093517,0.9799950313268955,0.2579319930684612,1.792841587777427,9.747523782402864,-0.003026006922166268,0.0037854320682538744,0.006883525053607129,0.3580940947679139,-0.006151648288863802,-0.6215812879911028,-0.7982099645982439,1.605835689863696,9.670081206968069,-0.0069131632094323195,0.00513876456936896,-0.0031208867554510314,0.30421237343297153,-0.005816580017099251,-0.7138952434868738
0.5510422867577514,-0.09474011818654342,9.719828253256576,-0.005351482976742182,0.0005312887327575532,0.010432688782479976,-0.39570574484222576,0.18896600237001038,-0.5269637656102708,0.13371954226259,2.3346109470128895,9.522530020609738,-0.007902561395177662,-0.002333427338596875,-0.010058310954177963,-1.030918210801665,0.2588266223592338,0.31404471546836293,-0.13329386927669207,1.83942236023303,9.540088116977747,-0.006371067592879055,0.002858377079744506,0.0031882729175774054,0.6294695748466786,0.3141655450383935,0.9741992514825039,0.26832118076061484,1.821808259242696,9.72927319840343,-0.002194239556776912,0.0025957058355391524,0.0061735105882166795,0.35494933681541235,-0.0027006013266062225,-0.6220166835405412,-0.8044191216511242,1.6861599174064628,9.638846521771153,-0.005937954326878398,0.00442213240330629,-0.003500927508466097,0.3026831743396863,-0.00284577460811216,-0.717249302871415
0.5271768950943638,-0.09878954592232934,9.76461641571906,-0.003175062243533953,0.0007944480357289161,0.011295530003864874,-0.3874538305378254,0.18986250872730134,-0.5326271834532496,0.12384924598011343,2.30373904262267,9.538141671887463,-0.01141592307836872,-0.003641146250261516,-0.011045026177106823,-1.026066920384075,0.2588157726408339,0.30985770548893715,-0.12605778472686985,1.7737240778092676,9.56539915261352,-0.008753339247776167,0.002962946262803086,0.0020681778107993045,0.6290639140419465,0.31483616538572595,0.9822653071270707,0.22784427694640708,1.79404510223039,9.745738000355638,-0.00600006981369761,0.0038578032133142607,0.005330604149446559,0.35306151982548595,-0.0017551249379379056,-0.6154019882028089,-0.8052003120286043,1.616216192589036,9.662685528907737,-0.011588645960394828,0.0015075715074484514,-0.00020454572729393267,0.30327217080575125,-0.003211508155959105,-0.7092035762333205
0.5347138192613426,-0.09904423583259364,9.749694082752969,-0.005620961722741123,0.001916197500597875,0.009244592443703596,-0.3978840496911796,0.1896271540703891,-0.5232760110883279,0.14364418729308953,2.3242012119219826,9.544835683239565,-0.010283732619801993,-0.0025821875354174527,-0.010463408428249141,-1.033623297840605,0.2641883682155755,0.3142707165386303,-0.14103596808829194,1.801116110711115,9.567743833123894,-0.0038079441615846196,0.0021194092959312986,0.004132740434454311,0.6247534606008918,0.31952633095024663,0.9708719512513911,0.26353661144879914,1.7967964685479896,9.74719767674297,-0.0002312835664849393,0.003690303997512007,0.006582704483555441,0.34884129474839287,0.0022824792219455882,-0.6277875444255535,-0.7915099606238777,1.6394603287001093,9.662975433831791,-0.005308788770345843,0.006244744985846106,-0.00436556100101691,0.29747559473504126,0.003016959372856112,-0.7200256989039877
0.53636587418137,-0.08571557692508808,9.72618668340152,-0.0014035349933848428,0.0016134180292158879,0.011618491846420744,-0.3993532983110345,0.19033674411576085,-0.5227680903656126,0.1332469798564138,2.320620478676062,9.536271611255964,-0.009748156201197455,-0.0017016572703402247,-0.011103010141909888,-1.0340804545313895,0.26348143861733914,0.317941611566169,-0.13685094069382855,1.799984269382891,9.551701092868084,-0.007185840093767563,0.0026365457985175924,0.0034286531465171294,0.6284966303189579,0.30929781867698886,0.9712442604475826,0.26059627076514025,1.797490172553239,9.738040568552218,-0.006409210403339249,0.0029335173353763995,0.007118413309774454,0.3512391164847861,-0.006809816997205871,-0.6229921376249072,-0.8105188058464292,1.636761146833507,9.636085019897527,-0.008589645881987254,0.003112359038733563,-0.0024076774775855913,0.3007514709354812,-0.004822537161013538,-0.7167682615346993
0.5024206208915828,-0.09722219215682538,9.765302470943135,-0.0035112080425545333,0.0019333403711983457,0.012181931295611341,-0.3979243768539451,0.19400776853865345,-0.5222423754656947,0.1375949979326978,2.304641360673854,9.513216189818051,-0.008868587208646807,-0.0061326302776842975,-0.011024993505660495,-1.031633428252678,0.26472308870143646,0.31937894049858406,-0.1554118518941912,1.7790667688569528,9.564269302134308,-0.0028844596630466825,0.004995837108194644,0.002854405023930906,0.6309732589876089,0.3107498408997599,0.9753779152350793,0.2490117123093667,1.7955880792040402,9.751177241314974,-0.0018151201944636539,0.00530941929534428,0.0060242967577864275,0.35321058298378377,-0.005858388888746582,-0.6220250396992744,-0.8018838509144717,1.6067203471779405,9.651965135463138,-0.005302927192724154,0.005897498035663416,-0.002615665519139035,0.3022325349418883,-0.0038642677028806784,-0.7148180994761679
0.5343619842303763,-0.09453449048475625,9.737984232625463,-0.0026608657853989443,0.0018827650034967654,0.009878882842391698,-0.3937255223915487,0.18846104007521333,-0.5240543168434652,0.15431116521902843,2.346015420902046,9.53144993744407,-0.010608053190020204,-0.003851923799537146,-0.010784593713268087,-1.0301828281755485,0.2600577559386547,0.31500709870950394,-0.1361269123217171,1.8253742888356634,9.553024142415241,-0.0049630148160040135,0.0030565617884542417,0.0032262096908734954,0.6251470444085414,0.30946992434676907,0.9776309667870952,0.2711287449288328,1.8389893667338713,9.721980553970988,-0.0037790572669547224,0.004216830345666121,0.0056151261792542154,0.3500575013209469,-0.006338319682532783,-0.6190722099614369,-0.8136079883433924,1.6940047702985084,9.648745748711368,-0.007120815870014503,0.004528514773783576,-0.002828741997597776,0.29717340123005154,-0.004232054872159703,-0.709389108070403
0.5191786276902787,-0.09029553810671778,9.756094105952272,-0.004679756259122295,0.001628722877787412,0.009669097586774972,-0.3931963618703196,0.1838439677412645,-0.5253395943255121,0.1240085401991233,2.3124923486523667,9.52879735062253,-0.010070733465835657,-0.002814418909339769,-0.00993228325526656,-1.029937382682993,0.25834440330632424,0.3142858357425699,-0.14003434492641398,1.7752268712544124,9.563569891054925,-0.007963053061526847,0.0032995973162567344,0.00332203378818748,0.6290144052328109,0.31754057278704517,0.9796003156663886,0.23642587555317665,1.7751176248574534,9.741130760439024,-0.006002039805173521,0.0038628363545153603,0.00532865822467036,0.35255998902651525,-0.00026219601836271426,-0.6185608289868276,-0.7992021252221935,1.607757673746451,9.645388241142744,-0.009285933333885546,0.0028604560642395563,-0.0019279997985447027,0.30100463088902646,0.0038698582895235756,-0.7102876048265097
0.526653941704067,-0.09058198910977208,9.741178803065031,-0.004364645339869019,0.0016449052639358973,0.010979182789708697,-0.3952237243703966,0.19185624210411412,-0.5235110977223695,0.14923045289775405,2.3202671127674908,9.552063677874093,-0.00839053839608229,-0.004238034119032999,-0.010539577469224324,-1.0289453327173423,0.2605686936684237,0.3174350636242457,-0.1288146316786512,1.78694151044485,9.555598924534117,-0.0041502569864961675,0.003280377951534546,0.0029858661123911383,0.6336870788506401,0.30613579778668176,0.9748263711283432,0.25882139966490825,1.8071464297025053,9.740795447214667,-0.0016515404755020776,0.00393198749769753,0.007226779322473372,0.35757776297852384,-0.010060022025476836,-0.6206296724078874,-0.817373002624431,1.6496373807461253,9.662267806719331,-0.005516437001673908,0.005635479567580943,-0.004072400870486682,0.3029647420546682,-0.008451437776267697,-0.7178275727626114
0.5475211601748663,-0.08965970922227338,9.752424643322703,-0.00353879809072883,-0.0006287527418148349,0.009855399183326586,-0.3913154403636098,0.19117638053997874,-0.5242802455468519,0.1441252313923283,2.3313378565101615,9.535909869797834,-0.008884003587298957,-0.0027705308211631633,-0.010474653083985371,-1.0250630349187115,0.26178745480882953,0.31495543803045495,-0.14044560438618492,1.8009131594684784,9.5411745355891,-0.007186876883610109,0.0026385527502879127,0.0034266790109052725,0.6290203619674133,0.3214242436730561,0.9828028131240713,0.2640778786269821,1.7991993803932742,9.738194195554806,-0.004530117192936592,0.0046472099852185485,0.004346702609052671,0.35435063089413665,0.004573778175520636,-0.614389243401224,-0.7937251138519262,1.6523479726296053,9.642362812088724,-0.007393824779018158,0.005144788248803274,-0.001177561468524175,0.30227066497516636,0.005271560261302942,-0.7056414400344427
0.5319874482820572,-0.10606363665570265,9.749770045690294,-0.0035333452686081767,0.002751399946118599,0.010874632754686605,-0.3925188609436714,0.18778068924310187,-0.5270022338869811,0.12697853804022832,2.320418820717146,9.54662630122065,-0.010236129097017498,-0.0036072640153565687,-0.01158426930939994,-1.026523374663594,0.2588444178681719,0.3140111947379493,-0.14404516531564845,1.7984730061747338,9.58154193373436,-0.003749946095612589,0.0028944493144598287,0.0022905853937417228,0.6237743291718029,0.3149061527390811,0.9674307888109298,0.24493743715606694,1.7909671536937557,9.752130267234667,-0.002703495551083598,0.00548014206576512,0.007071286710656186,0.3485766135781664,8.691796997706194e-05,-0.6278014967365434,-0.7982775987549203,1.637431129988894,9.64514402312715,-0.006635990814750027,0.004515384672114367,-0.004763226235377436,0.2989139454561376,0.0011287691138334843,-0.7234911054817004
0.5318263230200456,-0.0992345847057166,9.705650512169251,2.842580550943651e-05,0.0001881498494460882,0.011808567847445961,-0.39576281252118645,0.19313872964985823,-0.5286180244558061,0.1275033249059489,2.3247506118063415,9.535259714454819,-0.0111620177530086,-0.001375359199507512,-0.00959359201518654,-1.0312044984285427,0.26368684954419996,0.31108186260242227,-0.13431295950639816,1.8113445089855278,9.549694695683344,-0.006750991676825754,0.003138477283189017,0.00238642781628439,0.630457299959647,0.3122217531088279,0.9739301919430581,0.25230289146414814,1.8213059790311035,9.724638305027769,-0.004026285285333455,0.0063626583416416,0.006388173731877199,0.35662085137307775,-0.004653197600959465,-0.6242436772255108,-0.8147921958934995,1.6708657481050504,9.6576329031721,-0.007119743990012053,0.0045254612821979835,-0.0028248015328539854,0.30411098631829053,-0.003754337422785319,-0.7209434691597062
0.5443911931900046,-0.08534635825242315,9.764335888811086,-0.004324491188877099,-0.00033313028582096244,0.01007995144680733,-0.39545289263375827,0.18775840555872778,-0.5277134486780088,0.1411664713196829,2.3029699081406156,9.533351519521712,-0.009321158543723446,-0.002164108661397478,-0.010039782174152778,-1.0277631767375346,0.25980202900127936,0.31206043828590285,-0.15276216761501216,1.790010433900619,9.562314645225102,-0.006750991676825754,0.003138477283189017,0.00238642781628439,0.6251996564866097,0.312836175505463,0.9847355223049183,0.25977448168915773,1.7825582996759815,9.736885175938422,-0.00582765117994123,0.0038926543426425976,0.00718049447417344,0.35257890943670855,-0.0029849134150335575,-0.6134537940353177,-0.8086474444518493,1.6348614329053568,9.640320653441881,-0.007611362004728077,0.002390705036160234,-0.0027848328249752943,0.2981538037116477,-0.002778393637000087,-0.7081583221477201
0.5274941894193017,-0.08840477733075389,9.761812485689477,-0.006091587163983595,0.0022280807286800828,0.01077323057815411,-0.39937260874329,0.19180790787332014,-0.5232367835548634,0.14430889123810497,2.3220858441221197,9.53816386776424,-0.00855419010850918,-0.004875911907682002,-0.01070063660050226,-1.034093288179831,0.26297904551218904,0.3159923066989495,-0.1558367178834023,1.8233275967629468,9.568130659792851,-0.00477001597674884,0.0034178293421681565,0.0042017998725992645,0.6309646025402772,0.3180442096360495,0.9795825003281604,0.2593221155533686,1.7926324050360631,9.708286718024173,-0.002512873932877042,0.002317325253017327,0.006633229399711368,0.35109090063379733,-0.00024488351326209384,-0.6190360642670296,-0.8044173986448101,1.6375641024215033,9.633609637203127,-0.007889223737098067,0.0033562021565901826,-0.0028815290923583964,0.30247868179284876,0.0019353368072483734,-0.7108235950946641
0.5181516293681032,-0.09046870355943032,9.744380944586858,-0.003915123313338296,0.0024872406094868455,0.011636019233048493,-0.396686940771215,0.18896495348929862,-0.5276887852298566,0.1446246003813439,2.3197611855485576,9.5387256535359,-0.011269126628123308,-0.00302729217358179,-0.01087766138170759,-1.0309326410575812,0.26052836032112653,0.3130562132292317,-0.1432984010307653,1.786897286027671,9.554064009045991,-0.004965029487384674,0.003058546670307633,0.003226246341330862,0.6273678186532188,0.31238502788848244,0.9817780962877579,0.24563924129036963,1.8102222214562658,9.735404505953987,-0.003521980997173697,0.003484275851100605,0.005489485007629088,0.35303930659169575,-0.003212804392371753,-0.616388638181457,-0.8059567351135299,1.6470470063220233,9.654847221266518,-0.007957368785599002,0.004929903370386127,-0.0032664261462078343,0.29911834460298437,-0.001305865162612694,-0.7081472876084094
0.5390340189650105,-0.11060512707187183,9.767255852517831,-0.004816203395074984,0.0007986924579460574,0.01031130914166035,-0.4008727187730076,0.19137741878796313,-0.5288482159964177,0.1324562513988266,2.3229353885885424,9.541997858771001,-0.009643494382497533,-0.0034338515846309417,-0.010362982601040405,-1.0338999792268098,0.2648915261297351,0.3103604108781631,-0.14279954524545205,1.7995255869941724,9.554755543285866,-0.004528136944909989,0.003557478762282041,0.002185976821481296,0.6307823502914808,0.31824368801991604,0.9854454718010724,0.2607341664103969,1.8071556086624978,9.741316055631854,-0.002718264867636809,0.004078944059052051,0.006420011796912481,0.3552874946345502,-0.0008150072133569454,-0.6132160898032166,-0.797672770714041,1.647262161916491,9.676887910795163,-0.0055837200984182305,0.004367845977029474,-0.002856957714679679,0.303014474825964,0.0026041193785802524,-0.7064249220336207
0.5406670507899007,-0.09726192513878337,9.74376778247724,-0.0021405495566159897,0.003303217526449776,0.011960920222483976,-0.39821697392460603,0.1885886813456713,-0.5374497556131461,0.13450631668656998,2.313653015985554,9.530775145900432,-0.010952746636066395,-0.0017645585394362067,-0.010552363871997547,-1.0305133920232077,0.258011966301053,0.3025730077374504,-0.1373451366925328,1.7973703408862403,9.562579448356358,-0.006970469230347064,0.002891014547591535,0.0029050883970025616,0.6260955970838341,0.316540868788197,0.9798692095193372,0.26488783104312336,1.814181679201477,9.731375548657855,-0.0051185871047629075,0.003702174433269846,0.004279784984855894,0.34940023947698456,0.0014781776917991564,-0.6187647287985453,-0.8348572858345277,1.6665443565149252,9.664903882018395,-0.008795220120402722,0.0024950952399510964,-0.0021136661934270766,0.2963403511820703,0.003867020641589272,-0.7124282448623473
0.5356028889405987,-0.09843339327409867,9.735071024335724,-0.0034455591125533216,0.00217447729618123,0.010097376138893367,-0.3944443788552959,0.18842755560484664,-0.5220963530606608,0.12814484969264445,2.3104232561817,9.538732751274827,-0.011212819272065822,-0.0038913879626104255,-0.010509692702283925,-1.0304067127812104,0.2610561530551297,0.31817561048653137,-0.13809291927688389,1.7958647016870706,9.562851743799703,-0.005730076953251052,0.004716257114432889,0.004271837302658225,0.6210979116442434,0.30815739367152806,0.9859677364902619,0.2642611365429314,1.7842902518707942,9.737010303145667,-0.0036194465808825666,0.0028454577209312167,0.006814687579524862,0.3464402020936667,-0.006096185115226193,-0.6141559119485379,-0.8053671501383021,1.6244752836812886,9.646745250667536,-0.007538109907001833,0.00330501522656018,-0.0022454748678544974,0.2947794234426259,-0.006485871444055612,-0.7069533428490484
0.511946714823034,-0.12750275575012926,9.650010352457608,0.006352908868660278,-0.008032926921602804,0.012878682191073994,-0.3952817936032093,0.19243985471210584,-0.5308278691611936,0.13562446260161573,2.336704008403157,9.54813954129089,-0.009271575007754357,-0.0031861845281177903,-0.01116168029592174,-1.030709955660508,0.2636942306516064,0.3118100919411871,-0.12203543656654514,1.800452557248903,9.550306187161953,-0.006012415501307608,0.001593571711858963,0.0028350802526205254,0.6263378230510712,0.31605828053116697,0.9793749837055912,0.26718667916117445,1.8067572221530255,9.719653075033836,-0.0020362607324465216,0.005672856629721412,0.005158834935149812,0.35479876148653955,0.0021428269136326114,-0.6163642089539559,-0.794971222733118,1.6535640813263515,9.634873354612116,-0.007609075871478553,0.005226925175243801,-0.0043762887923999546,0.3010500557596521,0.0006698975415095985,-0.7086283445117011
0.5613154489966868,-0.08224209642605863,9.94069304887527,0.009730532019115421,0.0050364509839960535,0.009828731205540965,-0.39413727489786904,0.18161433535053498,-0.5236527508008193,0.1599698584904644,2.2674416566364353,9.551291824869208,-0.011921717133394617,-0.0018896983953831398,-0.007987935438260103,-1.0281893083184446,0.25471286508654706,0.31747252998179437,-0.1345760051216267,1.7859324592940127,9.558752313001396,-0.005487205433557678,0.00485691398426254,0.0022560106558724567,0.6294453590189446,0.32535681523075166,0.9796524970367883,0.2616852900192852,1.815793561834821,9.753309495917,-0.0025158540564896473,0.0023203604970227676,0.006632277476877821,0.3562935586683776,0.008009370073850908,-0.6192639087202186,-0.8130472004899706,1.6276953759411519,9.675130130188752,-0.005861768501645977,0.0024920622383603503,-0.0013573009368778438,0.3036270829717186,0.009771966390419324,-0.7116935091757894
0.544289926855392,-0.051642749997513684,9.641000201701765,0.0012802830916105127,0.014732661951977808,0.011510522490924624,-0.39496670711802595,0.18728754602566444,-0.5287002155929466,0.10511500477722349,2.4324900863442007,9.518051867752817,-0.006833144499021375,-0.0037935311118328756,-0.010390680437731205,-1.0294611330378138,0.2602957019291442,0.3137787914052108,-0.19367563780366176,1.8019754821820018,9.595427337561224,-0.00702221995186701,0.001013464986853954,0.0020989144022617976,0.6299634295954916,0.318781284056615,0.9778897487122471,0.25054317990194236,1.7835899325648727,9.536324463138293,-0.00833926571353307,0.010523194426983483,0.006440128602054117,0.3552777757433565,0.002884640728243439,-0.6183159803560977,-0.780839096878942,1.6526641860890285,9.266090771816502,-0.019469562655243185,0.0048396861034489145,-0.003076546835925533,0.3007025357983651,0.004907979748941299,-0.714418664544269
0.40413201680812083,0.06640926907235939,9.728068758969629,-0.05066156751024366,-0.012005590841956518,0.002568730803442474,-0.40071982411193546,0.20040220160644526,-0.5279983211194796,0.19555396195166724,2.3078975708277585,9.548352820138579,-0.01788691591464962,-0.0029160305245182604,-0.012725310646201613,-1.0366042588372169,0.27344156590466556,0.3125159889064055,-0.1049535183122459,1.644649504905082,9.58280518497884,0.026251826116070496,-0.006712846362818292,-0.0009001334794330541,0.6226733405903923,0.3174893884074642,0.9801578390828977,0.33763259502250875,1.5730884800791687,9.843912951909193,0.03739250925584387,0.03495488746354245,-0.004317248193318659,0.3464931178033974,0.0022258887487088797,-0.6170250211362254,-0.6022079908275519,1.4278464731342637,9.278138816373435,0.018081301385921424,0.05877813191322903,-0.006621161679231426,0.2934698624701579,0.0003847307273667829,-0.7097616364343835
0.4002802086124927,-0.32823430743399,9.376593647731433,-0.1405492649049655,-0.07299895908475836,-0.012754686911704937,-0.3972812576460358,0.1932216825005957,-0.5361748335196488,0.03179810461109027,2.223803769591489,9.567462437960176,-0.011606736998510614,-0.0015861984080720512,0.006329235171617067,-1.0317220120758348,0.26316626236493695,0.3069384029834982,-0.18939373264074635,1.9147374004432303,9.501064162518075,0.05976534273392964,-0.005026488314417258,0.00012308176530912796,0.6268044480971291,0.31388895533740524,0.9759357452331817,0.10175141092176136,2.0358453807748806,9.83277569970194,0.06890588308780463,0.02276144521911892,-0.0035270811483220426,0.35417691367457654,-0.00733602290852065,-0.6215562671535354,-1.0854194475621861,1.806094408955791,10.362011370609011,0.04761618264245677,0.058945585844808863,-0.00992699748022875,0.3042231820505764,-0.00607186822708481,-0.7131671836654114
0.7954121177733371,-0.2715574021632889,10.001748641831972,-0.026846134181771137,-0.05700971217855232,0.0024420497154977005,-0.40600785626748354,0.19445057185446385,-0.5253526517869253,0.16445630217715562,2.3890455032738385,9.54246198104086,-0.005628864124289497,0.0008613232348380867,0.0015514941042152528,-1.039719655594444,0.26417085441148347,0.31529321710287067,-0.1326303334449483,1.8983205574152715,9.527996695312705,-0.03233966339152045,0.007636258188686094,0.0070704546953414705,0.6185859635766194,0.31110091546673996,0.981621463909455,0.2126221254589476,2.0376033940967586,9.874336384732073,-0.03583372559830559,-0.016564729464658628,0.013133350239295722,0.34545603153307824,-0.004604101550115144,-0.6165775498121328,-1.0223716677395402,1.8906967761725504,10.381746088994529,-0.023711588509446418,-0.03220368899907932,0.0010918215098019261,0.2932521237027008,-0.003760028985944226,-0.7103112160446862
0.6279709123655439,-0.7465386208565166,9.455445825231797,0.4333585064284666,-0.027810655755902487,0.07875475672310399,-0.4065004399624891,0.19157947135400683,-0.5302701565626923,0.20260281651112189,2.4186037977267025,9.4749092952082,-0.01011370364556085,-0.007744379048194629,-0.025394447773630625,-1.0412509659601519,0.26606021588936907,0.3074784713763766,-0.09299378034049569,1.8551084858295759,9.518487561741733,-0.07122373280687397,0.015482708646979848,0.009556127825001216,0.6170885294392485,0.3159708850429795,0.9819174509543365,0.3384626180344659,1.778235061332272,9.600795934399184,-0.08226811276820625,-0.021563435907774858,0.018559126041087858,0.3460357336574629,0.0022033868048771986,-0.6133590071693165,-0.6986334058229825,1.7659089050094192,9.300697136515122,-0.06407965683123684,-0.062487263190131204,0.004049616327282909,0.2927490294577044,0.0008479537705148327,-0.7085244488251446
0.7408663450034637,-0.01608911619366722,9.524916368286355,0.6283567488302383,-0.10149982202408558,0.08054124291673115,-0.404400968593345,0.1815219706459446,-0.5250441071487015,0.21468331069263713,2.2354004361025575,9.549020458800085,-0.02940574163485681,-0.0020630321726594725,-0.020584536870151368,-1.0340888784353843,0.26371822109061605,0.31696287355311836,-0.061217728893863774,1.6406056323001934,9.685773957372739,-0.023405224735048837,0.0029393440269934166,0.002180407941839373,0.6308305857066869,0.30922362817212085,0.9836700947462154,0.377551497666926,1.5877040538668257,9.696291289015418,-0.020461721240112137,0.0069030913554422625,0.006715907059389829,0.3545001413493534,-0.005683579457667061,-0.6142223631787082,-0.576411199535718,1.229236478680994,8.897126903005471,-0.024284405246728275,-0.0006450060888033036,-0.001243394530341336,0.3025516775665058,-0.004440919152763748,-0.7089697748365382
1.142443759833129,1.108511364420724,9.721750897707905,0.461382334879253,0.019088017527522257,0.11955493605133098,-0.3973040872518133,0.17821653541931926,-0.5278247713115954,0.02933448296385026,2.705849665437941,9.57589180685536,0.005683828187680723,0.005139811686287998,-0.07467829258199751,-1.02700202347519,0.2647346632906239,0.31836661356722873,-0.21243361998749694,1.754899422368267,9.479501007671054,0.05228524583683623,-0.007533970492969939,-0.00017381137091064633,0.6177566303368645,0.3184474682478718,0.9777777671717451,0.16047259127250646,1.8028619753510897,9.786389733059552,0.06253545161386127,0.013388685971102609,0.0005878132506287701,0.34208202438870977,0.002773015364377046,-0.6194240954062984,-0.9277568423924792,1.6148969914914169,10.068804813983729,0.04036832606055981,0.045871229222668036,-0.01788052769550645,0.29046771770599744,0.002870077267103477,-0.7140814508276698
0.19407153522521473,1.3054055063750396,11.0420183189273,-0.26022172096021584,0.09901433118657516,0.20948317937290037,-0.3947388024087324,0.18109720363785584,-0.540502045517377,-0.032830009143599126,2.4120908147144284,9.356328283581062,-0.009016778047569132,-0.022653285896248074,-0.16351952050059262,-1.0285683746240668,0.2626685194266733,0.30398895205320386,-0.2718841026263487,1.9404823459258587,9.570049312679071,-0.021876662283923383,0.01911025318449943,0.004532544598731878,0.6229707566542414,0.3106538162700629,0.9803487978201881,0.10048600918744663,1.937075532799339,9.80224535168003,-0.02216658217842583,-0.01147206377061971,0.010531990427736304,0.3505389556775741,-0.006583259121075894,-0.619566204267002,-1.0067512593556516,2.0799894777197663,9.965149662246917,-0.013570709490546378,-0.02412782812309851,-0.0028925390205511476,0.2976159300447802,-0.0036873722150527304,-0.7128047340820121
-0.214948484901335,-1.0430385054024067,8.945533260193912,-0.24375462210822046,0.015945343314997515,0.04827725647181622,-0.3993008608833774,0.18018948464970372,-0.5309589475029758,0.16940933044907058,1.7000586343484418,9.549294489022271,-0.05736991971356261,0.004231796002623256,-0.049383155181210954,-1.035090821788559,0.2543763440812316,0.30873795395116693,-0.15477831257296074,1.8405373958808333,9.528210855603442,-0.045597509581432265,0.005720640906128117,0.0034162218303743237,0.6344963150587088,0.3048759112963073,0.9809128125180983,0.24003615828237218,1.9527370093351872,9.691249703750476,-0.05067970036111583,-0.01493994861581261,0.010146181925453253,0.3595462782541228,-0.01156845935052626,-0.6172395806029164,-0.928401171443092,1.4510946374674842,9.793766071917647,-0.0385526290107108,-0.03923373877029796,0.004299467695717568,0.30818015656895303,-0.009248378585195059,-0.7110661242646006
1.317973002035624,-1.1859880273771304,10.393968025523089,0.5483853539580409,0.06957409353238171,-0.05804459715134283,-0.3988191801002096,0.17398586765171764,-0.541542645049931,0.3335441788878421,2.328277394487349,9.7557197641063,0.016846809289796247,0.00033767977325360483,0.04307693906400466,-1.0339194325796652,0.258744511162059,0.30454658893780157,0.054736156441464325,1.648850238711258,9.593398701087475,-0.052203139257179565,0.00219127984068868,0.006013506577306569,0.6312226238523703,0.3107481107018012,0.9758641982500385,0.46418631169578806,1.6849038152416131,9.664593906775417,-0.055886839049961556,-0.001531293170572854,0.011970340313852752,0.3573623720132273,-0.0031925409533636023,-0.6247273023882827,-0.5813012625571036,1.8909184665423122,9.410031109602123,-0.0479270435028805,-0.028593164833321617,0.01607857331629584,0.3024273136134805,-0.00017445871887518047,-0.7164717061194313
0.7645698099774347,1.127278535243149,10.22551678607747,0.6658869637798439,0.2689965443863618,0.06362603637078788,-0.39129834081186377,0.15767158547425422,-0.5388797118113814,0.028332271755250278,2.429453525989965,9.364496979830317,0.053718721028522674,-0.004822625620922891,-0.028033088737778704,-1.0309124463148711,0.2551557501843327,0.31285169063784646,-0.20018116721788942,1.8411161185094738,9.469043029251525,-0.07215228121719917,0.026786034343980296,0.012325916812850607,0.6265496415005443,0.31462364545582633,0.9754548606022863,0.14139747674348832,1.8051441027818227,10.041933569442072,-0.08067171231094335,-0.04068843896644252,0.020420073537930083,0.35131444816004015,0.0032157156809434276,-0.6251157968861976,-0.899356337144559,1.050429870410898,10.442550186055055,-0.04724045556010547,-0.0813916775129813,-0.06930621654005184,0.29673772180958596,0.005677850032431926,-0.7187542959609117
0.23659799311214513,0.7878593982433674,10.443823694248717,0.056773770940173586,0.3673782953392764,0.10164350464658364,-0.38974580532404957,0.16754725191046785,-0.5458426625508107,0.07480020076805216,2.341352006898153,9.617213200860895,-0.03996925867915427,-0.010209149900980449,-0.030038709208921797,-1.0353557057402234,0.2590113914633245,0.30846175066026676,-0.24008416164998872,1.935533822821989,9.662290036115037,-0.026882835214986554,0.015047621319345488,0.0055161867656432825,0.6186208666277387,0.31180620597037806,0.9852885356407552,0.2609307526714299,1.9467465416429177,9.439389997461152,-0.04095948666576095,-0.025567961991284912,0.017491260237317403,0.34207146331029753,7.457022126758188e-05,-0.6177348472678499,-0.8451132432860543,2.549717752336505,8.85461968481242,-0.03644928051956321,-0.0590119717755086,0.05148699679310074,0.2880610397000696,0.001115512007289753,-0.7123699471832571
-0.12256545289705298,0.2134500927303894,9.888015250991602,-0.244583386171995,0.40450280522456006,0.10190344319551914,-0.37925041213803384,0.1686213163094513,-0.544684177532448,0.11036637597222379,2.194317829645465,9.45430577408737,-0.05023716232158803,-0.0019547745794844997,0.029604735165473402,-1.0309198074091392,0.2610307534262766,0.3150055180964512,-0.12903951752955972,1.7381122350882967,9.465702951740516,-0.10468181679284617,0.008121326142643251,0.006784819720066707,0.6208072742371061,0.30867198966401843,0.9820673455019012,0.213901814583638,1.6380422867341695,9.866083522808761,-0.11258269892651217,-0.009107413893170014,0.017105520997643224,0.342306274773666,0.0018028302195348756,-0.6206542817944423,-0.7583934799454188,1.3494428217823886,10.510585374974948,-0.08753141578967517,-0.06441855922780974,0.01626778813693409,0.28679717028163987,0.002852339416419875,-0.7147701452259303
0.24942282087875814,-0.054399619437926955,10.44310759837683,-0.5173368521443176,0.45838014677195726,0.03983606286679733,-0.37327183438440537,0.17441768476843758,-0.5534415348239766,0.24379005162051032,1.6044973465096017,9.757766218066282,0.0337269167286642,-0.01003704685140945,0.09361708617811368,-1.0331777848645898,0.2604726252897241,0.3067253257802145,-0.07058569502049829,1.697039199242604,9.658070723377287,-0.12390598103386012,0.024875859616546866,0.009454828204391166,0.6299249016908085,0.3055250504233884,0.9875604743035289,0.33587817422095756,1.8590486867217766,9.947658119462037,-0.12943142983889547,-0.054683082185579955,0.021360095752223987,0.3540729293865127,0.0018974754078987322,-0.6153837012277218,-0.764755529626782,3.634313090960404,10.515463097828459,-0.05820023417925912,-0.17368718199498673,0.1691265781422889,0.29446813110106523,0.0018147109550517085,-0.7070651503341084
0.6132939383790228,0.27492389373281656,9.722904147127817,-0.9466303452875443,0.5454626121365669,-0.08544483829897459,-0.3637493679481706,0.1848103693284108,-0.537502647516273,0.10658904506226208,2.43038239947648,9.461208033405494,0.0005356775865307628,-0.0025069734444009527,0.1416683732336627,-1.0330584792660158,0.2586277834574563,0.32138785403382963,-0.17561036579974482,1.6467782018015087,9.541781404379638,-0.1856828629861678,0.025179729887950638,0.025954959449590278,0.6215874958090375,0.3101032870660336,0.9874406435622807,0.33407871558572083,1.8122787221723966,9.60873396091227,-0.18872820559186315,-0.049723302074792475,0.028339510667165068,0.3446037115234864,0.010556204081390056,-0.6186562416509105,-0.6201230834936591,4.479527869837487,9.004166893293322,-0.14206600173063844,-0.19467412930894581,0.5519087295305937,0.28115707179869553,0.008399238227067011,-0.7131503064416281
0.4570926606299308,1.037491365784033,9.276303123189262,-0.3529824162166378,0.5450147653682089,-0.00874758352348716,-0.35342962009714646,0.19673332889821088,-0.5445030709597651,0.08699324074551212,3.338062245943336,9.482730710448196,0.0013408255262901628,-0.02019790456289525,-0.01901222036418219,-1.0323728232243548,0.26471291592350066,0.3184075782641688,-0.17484661628082576,1.7605163600471878,9.678748261507753,-0.19563613406518832,0.019538212008046132,0.03984772137219774,0.6270712776278674,0.2952506231688167,0.9875170773230098,0.3589666934897948,1.610791441390912,9.502281727374735,-0.22447816713765986,0.0007691251862330685,0.03324341837063019,0.3496191909527957,0.004450811577994835,-0.6248480299607335,-0.6029770280746792,1.0265325425975607,8.670123379056346,-0.2163484281552782,-0.0950498480603881,0.7414116944049625,0.2870641384247595,-0.0020091094887777737,-0.716068862882972
-0.6273016038192565,-0.12289635358085152,9.459386734181255,-0.08446663730982111,0.42953477598696216,0.07508797893405647,-0.3480374141892635,0.18741881506997446,-0.5558949070536784,0.29419444277243645,2.1720580144910993,9.492732634416962,-0.07016625605439585,-0.010624392886356292,-0.05253150029368381,-1.0360552433463062,0.25585435484090174,0.3111765117735801,-0.06658957546462456,2.1585437715215896,9.564833603944702,-0.4030853192417207,0.011275561910624995,0.005917665198351395,0.6215207292396792,0.29127859142217216,0.9907225693903884,0.4310140521587996,2.071327820377309,9.75579098285847,-0.40629208680197193,0.012181482803609435,0.02624205793767391,0.3478088381315242,0.014190066099793775,-0.618901025755074,-0.9187395959171998,-2.4575654040567354,10.739502081492855,-0.4123939777889273,-0.1331477548855137,0.3261829231602612,0.27846351554324367,0.008629422984086763,-0.7136020205949947
-0.4126279215121951,-0.1732692403649544,9.444522110245117,-0.24975696744912074,0.33107368000219095,-0.11490769470068446,-0.3406059919740564,0.20091120996108386,-0.5545510718845851,0.13159617271657814,1.9749093208189854,9.516926929120904,-0.028403815507937604,0.008758648682576066,0.08505392699838292,-1.0328879211335609,0.2651754990097954,0.31523390026660736,-0.20812575998140997,1.5680044765577268,9.492360566047736,-0.5696808309773214,0.029061926622920148,0.000868827918881581,0.6230559448980684,0.27496725718722037,0.9859484510049763,0.16080838533622202,1.4947156406708446,10.11708878339305,-0.563340619522561,-0.032195088314100895,0.029048292985725227,0.3460876138272763,0.01987761031911134,-0.6264126160426077,-0.7548116614663734,-0.03456198572499722,11.155832281513698,-0.4604417439240466,-0.3125164595382779,-0.16113735897625553,0.2746672489919805,0.014572771364215467,-0.7207892168706075
0.008397497537347351,-0.24338371832494093,9.389866268694961,-0.03872079845288684,0.32516524980733924,-0.16920758340246325,-0.3393341689108247,0.19748146492764396,-0.5526518380650078,-0.023996091203748793,2.524917234024862,9.66502398407496,0.006802469148635156,-0.0030559616838334723,0.038002001548192284,-1.0336100692204395,0.2664079022586088,0.31718340234994347,-0.2723575543289043,1.219469529212918,9.777506651744616,-0.5688586223515302,0.033173438951686514,0.015100955249188764,0.627613304055834,0.2673615291426446,0.9956087027314626,0.24704899729153917,1.282024234949034,9.770571201657791,-0.5690367030453961,-0.049845353016616016,0.03980459855185871,0.35058666161822694,0.029344184461073383,-0.6246723028554263,-0.5030796558390868,3.0848645346958974,10.222148792370481,-0.44136788007633193,-0.4118811063703126,-0.12673735730672275,0.2721705339303311,0.026709436026905127,-0.7173963728178469
-0.5805063171046342,-0.015066166861557387,9.94234182217845,0.3901444904385878,0.3107780801031,-0.14348896506995168,-0.3351189188826572,0.18615850444451068,-0.5608880755007206,0.2452671918172155,2.3727272740652046,9.403587678586891,-0.00888839106775708,-0.00821579017556136,-0.022594121072034772,-1.0341418131285351,0.2639117723938865,0.31012546411596575,-0.10701828435237096,1.4866004082932758,9.644331259218886,-0.7295119870834575,0.033902186047121564,0.04559953733067566,0.6208590102695736,0.25097979300840434,0.9919014745651626,0.434758188479069,1.8686522745599117,9.759329374136344,-0.7515058069317062,-0.04798344139537185,0.060555063246454086,0.340081741297044,0.035601917862863854,-0.6321049337972742,-0.5525652234837167,4.115474519709096,9.552844874216714,-0.6517989795853331,-0.43910659075511094,0.19247273128924555,0.25587913932356554,0.03841104577614558,-0.7243432216749282
-0.6141514138104315,-0.006727287417527109,9.786779038048456,0.16994110680286018,0.3140397544994876,-0.2107450892038066,-0.33007850180492043,0.18924269741583497,-0.568452968255948,0.21688577265436884,2.182726892720584,9.60921475901941,-0.04903259125196599,0.0014192722690819328,0.037496130884983894,-1.0322111302429597,0.27296677060243113,0.31199708855441466,-0.13290231448826534,1.4404755468398347,9.697989136896119,-1.0324869765100613,0.03772018571597527,0.040161173746102743,0.6189204481438362,0.22771467380506516,0.9995670621055327,0.43477262917982684,1.0230902417750003,9.497149376434164,-1.0347811362386423,0.00446330440577227,0.062183523536752286,0.3412000291470436,0.05048191772738367,-0.6317595335708217,-0.15674833262788895,-0.35507940297180357,9.285248267129402,-0.9028698535584265,-0.4849261867419795,0.4211196439733819,0.24677145133146627,0.048344021754781544,-0.7238344981287744
-0.4574777480590286,0.3120676696834692,9.828473842281017,0.18107336667620832,0.32778631065804203,-0.28292580425216246,-0.3260305861224327,0.17634385949870607,-0.5684066647452013,0.10043291551572132,2.515725895456733,9.460901069442299,-0.012269039160760125,0.010303310290771845,0.09599256721290357,-1.032907467037099,0.2654014792245147,0.31279124435547084,-0.2777271798787796,-0.11015980557689174,9.551127688002703,-0.7423084062513019,0.025895710219821046,-0.00707841082894497,0.6182987122947244,0.21719042339843517,1.0024265143104976,0.15950767687041836,-0.7115778138682628,10.60964476939807,-0.7091232201652078,-0.04579049172188583,0.029791844628926513,0.34323106982432955,0.05753411526692011,-0.6305048225959091,0.5259467915326748,0.7695066233303776,10.016083563084832,-0.5375749864830142,-0.3803540407619372,0.08331910984194305,0.24008812587591052,0.05952853705490145,-0.7240680882751953
-0.3274401481010448,0.5006895485615843,9.725982026145985,0.4172637360185843,0.3773584817762351,-0.2999731003879315,-0.3227805653297935,0.17193077706954224,-0.564337299521875,0.06715024757326403,2.143828065789955,9.642590189220487,0.009673371077559655,-0.0014194731541732116,0.019308067975859572,-1.0338125929343194,0.2703686245065804,0.32472513931298713,-0.27043441674041546,-0.3881210964736258,9.547221691096809,-0.10660031860717244,0.03070378544101596,-0.0086219284061852,0.6188610333971952,0.21763049691045525,1.0095041423228852,0.24953470565798472,0.09055315105177802,10.54293403490109,-0.0953217304579531,-0.17022824427812253,0.007643772660746515,0.3408603278051649,0.062172161024803066,-0.6272758792971889,0.0918277575670492,1.0891527330876516,10.230628869963805,0.024554988098059644,-0.25821126447278925,0.4250503899479065,0.23821734167953545,0.05868191917172818,-0.7177091643370997
-0.8030057775341993,0.2500744356404494,10.109010569682068,0.6025149140219027,0.4222895512310611,-0.325136641534368,-0.3158928760745285,0.15707123334923576,-0.5799638321874154,0.08740021237197967,2.2961635011596275,9.582149939821736,-0.028379140319537737,-0.013674927492293138,-0.00897500544871773,-1.0348828493051059,0.26904823286758206,0.3118022879550068,-0.30127733289435654,0.16411059876304698,9.695023087724685,0.2051170063835371,0.010952389606578645,0.010045251622617959,0.6193139804446702,0.21838567324394342,1.006819418747259,0.32692663921902654,-0.13771946320216868,10.207553265158172,0.20941031924714834,-0.22829889309877188,0.00032935039535961783,0.33787676884113155,0.06076897385801348,-0.6318998264944536,0.42903574135780276,2.320866146592436,9.515894915058789,0.3012755199107664,-0.13083980383717056,0.6446276569038503,0.23748216952674062,0.0499790984915299,-0.7236960148541971
-1.036596892097253,-0.012975658205997317,10.05545031817439,0.7040938359295611,0.4870378702011404,-0.44490950776302063,-0.308508953416994,0.14842692712933733,-0.5850125672927834,0.3002440900885664,2.141677906651031,9.479413090731976,0.00017833289233601233,-0.011079005883988226,0.006485756393980996,-1.0302379512513422,0.2734852803218637,0.31490843572332006,-0.04962314910385966,0.07643213591980756,9.826313993290096,0.6992794082199238,0.005252994882368704,-0.01850900208976355,0.6182100759895344,0.23814082138865786,1.008684613035883,0.4724937223581825,-0.8664680669800392,11.174492217340347,0.704724122332951,-0.3466557586006366,-0.06633395938784924,0.32880940949472137,0.05374689247279039,-0.6282103244274571,1.0527595759833595,2.960307022935852,11.286497289056735,0.8000085861224967,-0.01263366082021499,1.1338259084227011,0.23282977971486576,0.03393773020591302,-0.7150958565670742
-0.8874700762720368,0.9342785961182191,9.38468660893133,0.604582763392551,0.4596472345462145,-0.5856064992267794,-0.3029192995142488,0.12271851095599813,-0.5936907001625842,0.25086904349415856,2.1754843680161158,9.578623312356417,-0.017347403424636948,-0.017773240374692235,0.048941674286913234,-1.033140328343335,0.265411300897118,0.3142580231891078,-0.20045770155740827,0.47518428464871887,9.534094991801119,1.1766834972621218,-0.01883200494229471,-0.07487298371131935,0.6287215200166429,0.2731119704357654,1.0115087610118143,0.494974826833446,-1.041078500306218,10.363327998863461,1.1831689753233547,-0.48817230606808254,-0.2285982214201443,0.3303004841367464,0.052233999633399995,-0.6235960698106819,0.8715130238220983,2.1906417143956673,11.131666316507967,1.2826953251535627,0.029578131422805926,1.7192855532644167,0.24115711842582419,0.01383843104799093,-0.7059854968401851
-0.7116566807351634,1.3984650496877908,9.71879740714399,0.6945838355691701,0.4460910036788494,-0.5797908976474336,-0.28286337984062826,0.11951548191368556,-0.5936331501896402,0.026726667917264947,2.9418565610456997,9.39926731464301,-0.0429376848382669,-0.0102670948082846,0.017220919804916364,-1.0148014776526726,0.27531774768864553,0.3230791021090715,-0.39334263877973463,0.43197176776990887,9.470575397298811,1.680559033476769,-0.03878199584488458,-0.1489239792643052,0.6214327931624126,0.3034831469647083,0.9910564499909978,0.5580274810968398,-0.41976670798205307,9.356781273773029,1.6576811465260897,-0.5125804227163183,-0.36967532439278206,0.3187310299918362,0.026790709828822933,-0.6351591807981768,0.15748387474058106,1.2604530077343132,8.29434088672121,1.743717559860157,0.09716492525901252,2.1335375002665753,0.2299126042104364,-0.031016799775966948,-0.7163104972173958
-1.155168294705489,0.5782237283461462,9.688135987768014,0.8652127221741103,0.46091923534781254,-0.47697403030296504,-0.287103924714769,0.09358131239221298,-0.6117654054107076,0.2728408665553178,2.3204212853005526,9.597485019952856,-0.03307086391959976,-0.008691879498846549,-0.0429820374620474,-1.0251031822387624,0.2656698968084477,0.3117529164751342,-0.19878711687411815,3.605566447419837,11.212407747127207,1.598616683861984,-0.13615149591904957,-0.18832192858803934,0.6228960894101029,0.3250366901320903,0.9833846320171862,1.5243627823028034,2.848541037780403,8.769919465369792,1.7316991780863058,-0.3052937302085663,-0.398675776736626,0.31529549588016265,-0.005930985797955995,-0.6300001640627935,-0.3964365068637157,1.8134262169585231,9.268168714381023,1.8233789151240865,0.24536523454779458,2.19936272662565,0.23119413592198676,-0.08657369292974462,-0.7074179304016772
-1.5982850102513024,0.7832704346356322,10.779736367186105,0.7283924825878677,0.39579193901567766,-0.4817638801993077,-0.28792112691565175,0.08035670408620611,-0.6094910303942322,0.5775961444619221,2.8006541039365738,9.037946974678926,0.00862262211973247,0.027966884674696473,0.13970597254724842,-1.031925077184457,0.27496932907002647,0.3185725081023662,0.2611482023138046,2.4846318181320104,6.4441542647983905,-0.10490421912936587,-0.037246256593180274,-0.3159062670407996,0.6199271107507963,0.33354323479967146,0.9856764866240552,0.11740802633923128,2.842036127680857,7.512134845570727,-0.1488286562383427,-0.2092630514616186,-0.32329682509461977,0.31171491107124494,0.008798969226316358,-0.6364527952632467,-1.174616250866758,3.7390864528056316,11.691254886595626,-0.10016302003671584,-0.2876231722330003,2.042592263922673,0.2167143875154134,-0.08103236985413018,-0.7098422799338192
-1.0813760895045925,0.7120303055098711,8.952320084224663,0.525064600730851,0.4218218464480347,-0.5547298674783272,-0.276117318037284,0.06788345309521883,-0.6168199110508403,0.01982019026123181,3.787561567606209,9.988497715353867,-0.024125288718774434,0.08115436619741641,0.2922778658303284,-1.0242114057023166,0.28618112227780723,0.31159478882372105,-0.6195186540839296,2.9679002419992955,11.275934722489154,-0.45354623396012683,-0.060491607448924616,-0.28266832674148523,0.6178464203979838,0.3276190601006527,0.9922488343622091,1.10902647145677,5.344133760664416,11.765628044659534,-0.5382573521486643,-0.27443783612787737,-0.25521643521403,0.30855075958040873,0.010297164382099693,-0.6369024636057241,-0.8931017430560082,1.387535393615939,8.934893175514713,-0.5009719584071314,-0.3935219122043896,1.8240130146242717,0.203325839352305,-0.08287796091145996,-0.7077533333731739
-1.5067015633367429,2.6945010905520075,9.679845488782382,0.3232713007159568,0.5917337765817514,-0.5499045371959678,-0.2753459976184709,0.06183713525356542,-0.6205668808090884,-0.4730330065414458,0.7070624104534067,9.448067356778168,-0.04408072129654804,0.0042853359696954,0.17939832199494757,-1.0328390766569508,0.30273352484434096,0.3095850870612768,-0.42227985444697763,1.6223907228696264,9.023760723541644,-0.011952897532846533,0.027769352349796304,-0.06810403782920756,0.6160912696613619,0.3237502336212048,0.9854033949633351,0.48068003515159435,3.4975695944647898,8.824227055300542,0.00546732661473741,-0.2322751049901995,0.017107553521166715,0.3048287129399827,0.005952984595002989,-0.6391006318849679,-0.5451791015127689,1.541091819204287,9.497640738494868,0.06458502948720689,-0.24023449875613068,1.1410257089594988,0.19579331462076702,-0.09095983856186643,-0.709985045454207
-1.3677163286231995,1.6288274512095102,11.138787483537191,0.12690076735863942,0.5605023391220089,-0.4206832590055671,-0.2670210823687684,0.06092501783669206,-0.618685613442894,0.6022605155346563,1.8196370577350118,9.992747669776888,0.030602470393122146,0.02053143857823894,-0.13105232938313643,-1.033771484844186,0.2998302979225386,0.31376382663355207,0.4211076383880164,1.4859918521175346,9.957617773634995,-0.34030916558086066,0.037858003444198804,0.03457527072746384,0.6142173052518941,0.32392622525405124,0.9927499591492125,1.4654225507172616,2.012513728934176,10.622065706835075,-0.34017714149214445,-0.3380490210593114,0.16681149092935643,0.29682817529671773,0.015332770307672446,-0.6426245209869548,1.1263565640220148,1.370354777766258,11.202430570185324,-0.31927751190106646,-0.40409091723155216,0.8294453007879585,0.18670394074178373,-0.082499198647387,-0.7090102338182626
-1.7903554752960626,1.4897119628236355,9.863953488246512,0.13140214079604892,0.5206553092182548,-0.5606358723824751,-0.2519188537986157,0.05971412050257058,-0.6256471010612901,0.12700515376890992,1.813167828377475,9.267059218816401,0.0468953995653902,0.007024806537706511,-0.10002670681228187,-1.0303704524909203,0.30031770984940237,0.3117812814144979,-0.31675112975881564,0.7244755120152153,9.74700706971421,0.16297992988547508,0.017087344133935967,0.06375475877120132,0.6193063285240709,0.32253178084193035,0.9882893586384348,0.8837367906702127,0.6204152504842118,10.227664942576459,0.21398947545565808,-0.39533552012008705,0.1444131172386793,0.2938953389183908,0.01413204192807722,-0.6416310462080114,0.6896345377113089,2.344592403056846,11.34658742343978,0.2568303984350666,-0.36016330938406227,0.8929332517938868,0.18196392666019323,-0.08876091266969485,-0.7012358627177068
-1.6024728996956232,0.8739939792478927,8.56497321495628,0.13166373900007886,0.8985287909678789,-0.5371284799750623,-0.2409620652881308,0.05653407414330812,-0.634801668210503,-0.46483846532221723,2.1270224826963866,9.281908478712877,-0.0006032192321131279,-0.06785495023667411,-0.22498236049285397,-1.0335664931978057,0.293910251134128,0.30550548779042236,-0.6704466309379582,2.3618499345001713,9.196318659753828,-0.03830930895937502,0.02809717362866697,0.09816416541760893,0.6193487012593746,0.3305207781194659,0.9976248878173745,0.6531921335255857,1.7654202226239901,9.634130544950464,-0.020789025172898892,-0.4783988641526054,0.06395117127823052,0.2894025124448768,0.02414139579811618,-0.6356589133910667,0.37804534816869073,2.9096580463330812,9.917578421247706,0.01893796777779088,-0.4891964960763894,1.1765808573434426,0.17001650079608716,-0.07968984671859958,-0.6938685514216797
-2.666289644262708,1.2155766711046083,10.369270185857859,0.4240045509764482,0.8338913557102277,-0.6682124107572525,-0.23000698545466736,0.03520186456703667,-0.6376006611430547,0.4395579999099942,2.9429218145417972,10.07466305388712,-0.056912491321513804,0.014381005967347569,-0.0725238148813597,-1.0383499806109313,0.28148675263062334,0.3119808589845616,0.13783074247959043,1.6195941722241163,9.943083828416123,0.022078926187889984,0.006787018878111934,0.08055424976460185,0.6150747600623643,0.3124316763835424,0.9963191133223304,1.5657179271248571,2.2354857329450923,9.856434129119911,0.058037732831295756,-0.487272943277362,0.08447018921856321,0.2755054152687975,0.007236461774441382,-0.6432325653327531,1.1238515801032305,2.6277780693407733,10.249519489481843,0.10385595646139341,-0.4890471348611125,1.2586146275491261,0.15501456972426939,-0.10221475742585735,-0.6974529903940284
-2.1215704228603465,1.9826958525022391,9.120669421767658,0.42198753435559894,0.8922648919109041,-0.6074014858803891,-0.210350347269155,0.02274020748823764,-0.6393703933528185,-0.02158917585620472,2.1329274379778633,8.940185382149302,0.01049510555399996,-0.01857525941566765,-0.1782476682233208,-1.0342204465001645,0.275355744795493,0.3058913836415141,-0.38985714982856756,1.832648992258942,9.22199212811629,-0.05226513516774278,0.017495328777570776,0.09404432056675342,0.617155120825979,0.323942874866083,0.9934507811259542,1.3298008146216047,2.007941583823392,9.803357498088833,-0.03763439558232576,-0.5202418197572367,0.13268647591157054,0.26826100164445865,0.0192960038795398,-0.6469871753597536,0.9485147377103542,2.279672868473049,9.992575876855382,-0.015309111301276417,-0.5296040685041439,1.282189358843312,0.14368416159851286,-0.0900912340415852,-0.6976154294742889
-1.9080779218896644,2.787829244531173,8.678808383730509,0.8581769637945481,0.8411689729933461,-0.5652164190712176,-0.1930540823363223,0.01796828389201742,-0.6522548826933044,0.4281232744507956,2.2782612477589295,10.155358707968048,0.017344719770990415,-0.08043934657290146,-0.3862098974845032,-1.0332809840450283,0.273363527279908,0.30003861808444743,0.2785852871400152,1.4080811104167414,10.073630383787401,0.02527653699637838,0.02294525625925389,0.1323392193972289,0.623632521970447,0.31175750325042845,0.9969529939981316,2.053998775612952,1.6159850150908381,9.672365504835895,0.05081057120559859,-0.5366937485481588,0.13115110757094814,0.2630706109679918,0.01324581789973741,-0.6477202021228723,1.8074823636065753,0.5314794965199064,8.894012064294952,0.046060802070455556,-0.5445036793054386,1.2026038176708347,0.13380227614747434,-0.09782444712028757,-0.6919986061361433
-3.139777293656975,3.048846097939477,9.490041748849228,0.4513133633948075,0.7080929479601364,-0.4704737729601829,-0.1788007561052598,0.00311181646908653,-0.6620738376816064,0.18770904629701624,3.443929888767472,9.734167519634864,-0.022993326784653254,-0.04595289333593675,-0.5605776896830895,-1.0312611090732802,0.2516215927859816,0.29725454183543454,-0.236612808965121,1.8142161425331735,8.960004039092542,-0.003615634552037666,0.030100688491164262,0.14530171154925878,0.6204849389385106,0.3100158854967675,0.9981960895926851,1.5021867437839478,2.3554885004030113,8.216400415454322,0.02266957241411818,-0.4416554021575539,0.13681882133906287,0.25019349986029715,0.014298663284863834,-0.6414969818057771,1.2169372804247092,-1.1338662232281356,7.2696796331443565,-0.009808933636443872,-0.4509347361789849,0.8974678894941619,0.11873490703763906,-0.09633788214030795,-0.6851987418971837
-3.26797307611363,2.322691703049851,9.647299883827381,-0.10186952873709734,0.5228166863629705,-0.3210599812267562,-0.17125623575480403,0.00419228862908899,-0.663823315773215,0.545060555082481,3.298156045347823,9.235275349845223,0.0540771005741521,0.055733512438100666,-0.5360221186759042,-1.0361342206285482,0.24107176427334098,0.2929741656692793,-0.042894200926960974,2.415533671696818,9.781142052518598,-0.14315572006365487,0.020605112905852385,0.10743530637641219,0.6155396419920743,0.3109935343381444,0.9931302409121062,2.339903455089349,1.3829927241266915,10.196535365764372,-0.09390709486392863,-0.37499200616091033,0.1643436909943087,0.23941570968901218,0.02132131162191493,-0.6530718714535391,2.388155389794914,0.7349324133214945,9.850901723243256,-0.057572571493165636,-0.40203371785380765,0.4353296945963016,0.10565052801437598,-0.0882800886805298,-0.691751956538499
-3.4718913831792664,1.0893251892598446,10.228828862763056,-0.1640419746137321,0.31667827026021234,-0.2985012408061775,-0.1629653467871294,0.011719677413988468,-0.6537736371611069,0.6822872903650351,2.2595807243363493,10.381253329659234,0.08690897051051963,0.21200975835893524,-0.5307233436880157,-1.0324541673780028,0.23644595982456823,0.2927363269111533,0.22584715501499153,2.081430738853422,9.403639728880819,-0.07815314223536794,-0.025353099837243508,0.031978013593422436,0.6234403935936937,0.31342190903429323,1.0028267439139422,1.899238339160623,1.3941168655225136,10.4016465300698,-0.09182560158324826,-0.49325080500536783,0.06339284269877114,0.23249827760266348,0.029123169401166927,-0.6426998702713621,2.067124784506146,5.086229277712753,12.509184775851223,-0.17581954084934664,-0.48099005754286417,0.8531925990996622,0.09862884735652036,-0.07753227952796898,-0.6797788145465561
-3.7102830004887064,0.305258879137976,9.37226309435501,0.11459869154656281,0.22160116985001818,-0.3537506184346808,-0.15322249261164067,0.006599165040972288,-0.6648990216736959,-0.11997530033498424,3.016952647120906,9.212899253653202,0.05769912289273998,0.36433139662022895,-0.40603536328275885,-1.0267186631109149,0.22703629041788356,0.27152099466159574,-0.37347521030476855,2.6706777746325416,9.655495639589798,-0.5251689033415433,-0.003341506019385855,-0.05288514942366299,0.6232514991389904,0.2973506286988822,0.9968522603993937,1.9424074038692847,2.9644056574941335,9.747605588422037,-0.5513038243771824,-0.6268237161278094,0.08579857003363354,0.21922597434185545,0.028093374184728858,-0.6516266184455489,1.8878325758022867,1.6190793291601304,9.033898140596566,-0.6390248038007229,-0.5897443354053107,1.040378942334857,0.0807559761998806,-0.07277264443206825,-0.6807086340838994
-3.5435257170462346,0.6331702509977868,9.08162428974368,0.34789405961043207,0.2766727539313636,-0.41309290346580424,-0.15787406754365438,0.009445410262126943,-0.6623860179345589,-0.20090523963031587,2.6693169349924797,9.905895003565576,0.24145311782362355,0.35666992693132876,-0.21407004494335963,-1.034909839960365,0.24206987224131168,0.26194975955951383,-0.16452747925214783,2.8008891497132398,9.476529750254551,-1.2222463717289604,0.0010056013629188628,-0.13393516720895562,0.6222413157158584,0.2743670511847184,1.000358309472361,1.8387920691313562,3.364292902011027,9.473017015340721,-1.2007275281459666,-0.6157838259431199,0.18566136493716345,0.20740786213689397,0.04506172034669606,-0.6531083496757635,1.9476539701775053,2.4150667335810914,9.934464118475024,-1.232130023623753,-0.5125443946383871,0.757510529988659,0.0729862521635188,-0.04937284223678469,-0.6819611992999197
-3.913435668427448,1.3043426453626124,10.000169168556214,0.45158258401901963,0.1995275125183057,-0.5283912259093279,-0.14556014324535452,0.0010056680222674218,-0.6603878431923326,0.09717233373593885,2.019980489418031,9.853485759468514,0.22551864887123144,0.4621607091440295,-0.09668978155824964,-1.0182154894594695,0.24762859102255624,0.24493596301481815,-0.1628685158327129,1.699567585050322,9.573703287134695,-1.5119670746636436,-0.009376403773997328,-0.11186054471229404,0.6204946388200223,0.25235215009354406,1.0041235483449116,2.3157248518368925,2.9820247976501006,11.348018136754535,-1.4656327879294355,-0.7767939595561565,0.30088748732251946,0.19027668554334992,0.06818487538846103,-0.6544987548092793,2.612102827335606,2.500842629831621,12.714471109292441,-1.512480122749197,-0.6145425310949245,0.6340606787382547,0.055710118894424177,-0.018815420754205364,-0.6771260409152873
-3.7843425901460814,1.9265760679887278,9.818761217719349,0.4895964238717499,0.052418642107495646,-0.559636677259988,-0.14781226012280024,-0.011331379480711232,-0.6524748987037384,-0.15917669060410766,2.5789685798857214,10.069152791247115,0.27778653611482823,0.6058586912785552,-0.11297706256387482,-1.0161220846753505,0.2524392452084015,0.23389694450255735,-0.0256214093340697,1.4982526457733336,9.619983400689573,-1.608067744945139,0.017235801022870298,-0.0173829367816482,0.6269107264974693,0.2348636418375754,0.9983100028779668,2.3077180645120396,3.071670488283942,9.549077951088119,-1.5279158796219345,-0.9612561887973265,0.44361485123919003,0.18053430817017252,0.10078049610603661,-0.658813021277007,2.3187965193460864,0.4660650650687922,10.714289273165434,-1.5912223481155916,-0.7641661276163317,0.24897433107925607,0.04484035682529862,0.02121348639757881,-0.6815021714885724
-3.6102851672013836,2.189853049126377,9.163231744982312,0.33075966909732735,0.01459241622631817,-0.5194130976913313,-0.1457461584498643,-0.02204419357306963,-0.6531188234661592,-0.9023902661188877,2.952732887833735,9.115505645138724,0.28931200642920707,0.7020991308552811,-0.16663874980077545,-1.0138727676680575,0.25128121697699396,0.20800794920308763,-0.641452772450503,0.4356094007598827,9.901493423032365,-1.716246080411062,-0.002932690393199837,0.029499865639092356,0.6224368903627076,0.20176133787409675,1.0130124884347957,2.409549095688071,1.4013598462642571,10.169629906839138,-1.615586564699837,-1.0280026383194232,0.5686593545776634,0.1568077515689723,0.11633908577087865,-0.6523889841903215,2.40324548967103,2.0526843965032913,10.243876642938098,-1.6849786594645273,-0.8357860083889391,-0.002705420560320422,0.024856492453815916,0.0459058807585687,-0.6620749394288183
-3.3956829772709876,2.071764567763633,8.472730753205674,0.5582777805336158,0.13301676138757024,-0.5285244728122079,-0.1385684210301863,-0.028846879668820137,-0.6498410853105347,-1.2131977304001396,2.7953539072731153,9.249357589412083,0.2677954087718883,0.6346289765660853,-0.19364596817744617,-1.0055425199338899,0.26091213876596303,0.18492330711831284,-0.4907853868359552,-0.10403555784848084,9.98920734649754,-1.7097078733411664,-0.033062908544620795,0.042685564993277345,0.6215472649262316,0.18639163159762254,1.0104681320215383,2.715221587925349,0.43173782107164493,9.37896996590193,-1.591845344317565,-1.0304190500328958,0.6319258581810029,0.13937514016849414,0.151610569107439,-0.6453864258007995,2.4823665321213455,0.24127039624844346,9.36792674986584,-1.6588448371104894,-0.8644559372778776,-0.00648307349181102,0.01020848014028064,0.0896099804792387,-0.6534056543447845
-3.225933736876491,1.6818175295011917,8.513630954389061,0.30299596339482643,0.22601698671884354,-0.5564179116581124,-0.13310503376006633,-0.04140191577026882,-0.656148203751472,-0.9503359946993952,2.740253897743113,9.113240557291977,0.19441521755605806,0.5332363483079976,-0.12992479094377135,-1.001349649841153,0.2568133064761771,0.15635609545449022,-0.2682119849528277,0.030534529327612706,9.831515967175173,-1.5711254814813413,-0.04557511983552128,0.06296470839288214,0.6179342518028089,0.1610669935068488,0.9976273769136287,3.1292794484276785,0.05505311533828475,9.224889617246415,-1.4405131340806359,-1.0105848815196012,0.6227600396036962,0.12610731394997432,0.17178002995528321,-0.6485410960755568,2.9016381285211286,-0.6616274978574075,8.936858570724073,-1.494737714308613,-0.8839488220655215,-0.1257018797530107,-0.0033808920277637305,0.11581348558712079,-0.649415932407158
-3.246307837359115,1.8455865973844752,8.368517234809675,-0.0984086516486729,0.2719261601371014,-0.6457848051021189,-0.12290002526332022,-0.0337841235567589,-0.6514827451059444,-1.20296975576507,3.4510889034563785,9.424352300407588,0.34492643704569165,0.4373493727829475,0.026802076380889373,-0.9898113756725256,0.27310728838699,0.14125436569595964,0.05122372801682954,-0.11500000823470305,9.862480151842137,-1.4989350574395774,0.019117648115029744,0.022869168484227993,0.6134637478329121,0.1453742650343257,1.00220073239323,3.243919981374618,-0.2082698787425598,8.437285336675302,-1.3634511221817993,-0.9867296215242987,0.5893457908068122,0.1113180111469979,0.19451128972024298,-0.6328634908024356,2.976216283763522,-0.6079599306759507,8.41932104634206,-1.3798711644517199,-0.8785339031866872,-0.22499162701580494,-0.01996773463583424,0.14370275833286447,-0.6297355724508813
-3.159335823368039,2.7047966951936377,8.090357160909582,-0.13875010657278278,0.37353953883238605,-0.5653194584382618,-0.12168109072504414,-0.03592288736688069,-0.6549378602930127,-1.3031738889645572,3.7190375515546705,9.309961051777996,0.7475665560614561,0.2077243176973553,0.07024596765353971,-0.9829346866620614,0.284949019420265,0.12085060397443065,0.10859210238115226,-0.8444914397653026,10.026699838820377,-1.153799421278747,0.18069226203609615,0.051855695666990095,0.6089857068318107,0.1461258050900786,0.9951749192490416,3.7149661552951083,-1.045473581141124,8.307893184050023,-1.025385429085202,-0.9393637503788208,0.5055925963856596,0.09626425415827816,0.2180002480219578,-0.6203522071982297,3.410833018957487,-1.7759644960367766,7.92469002533892,-1.0381393572370263,-0.9028665404859667,-0.29564166748176085,-0.03465551171974013,0.16853322374950302,-0.6164749153583159
-3.336236183693516,2.858260056778854,9.07615133436451,-0.4101296992975829,0.4250649434661922,-0.28485633427423895,-0.10758343631635083,-0.026321647725272505,-0.6492984483097063,-0.5638657100652064,4.194679823822578,8.726706252345236,0.625381472247136,0.0991032134052828,-0.08241388341627602,-0.9628133448786389,0.2910203627769331,0.10527107058346737,0.20004211399974448,-0.6260705382217145,9.529462859646618,-0.6367549221368909,0.20003271081162172,0.13415341730196895,0.5953513548682914,0.140817907859167,0.972823498275847,4.398850227456689,-1.1124895734293034,9.028611308699546,-0.5246276743677072,-0.909793778707425,0.38332750758821904,0.07650600005880963,0.2186651701096532,-0.6189558331229441,4.24219894130603,-0.696744866952416,8.953542156529585,-0.5715770044860571,-0.8888433434869695,-0.27001426949820806,-0.059585466608781765,0.17151655734579485,-0.6166130959777455
-3.4565452036940254,1.5903195629664018,8.92476016912971,-0.4271973658345315,0.3207475433504883,-0.14047903108885723,-0.10899927172367821,-0.013536498207109289,-0.6571790876808213,-0.13888368443971688,5.22342981725789,8.553719238765886,0.45488514523552154,0.23615652011983518,-0.051607156567169916,-0.9579932922466646,0.3113322251834684,0.0757859261849236,0.38142519886636783,-0.09067324251690864,9.701437068713698,-0.8630173966836184,0.14063631613563224,-0.0003525723025298612,0.6012514195747072,0.16213277676532784,0.9687633854728221,4.744414449635118,-0.6938172411094718,8.564324293311337,-0.7643433189880867,-0.9232792330111709,0.38759004690856025,0.07736878632355275,0.24516321231728241,-0.6043624085754271,4.441166630231442,-1.1183179356690482,8.58549767466561,-0.7595185852735357,-0.8898263910541937,-0.304325680509477,-0.05929905092083754,0.19756799396473973,-0.595945523862405
-3.5986589729786767,1.7473793007825633,8.914415592442989,-0.07071759369377804,0.26619210595139337,-0.1082775342964729,-0.09311136829925787,-0.01363982374311145,-0.6548527365444056,-0.8048123059900003,4.483547765589289,8.927836563081135,0.5502933662300048,0.32237559582413644,0.03214354913949155,-0.9389462529883464,0.3293163495692308,0.0537782942230447,0.11599303597140286,-0.8606929532041553,9.567293269483057,-0.8237114857256724,0.14069386082226018,-0.10391814226366643,0.58651901764453,0.1707452405744873,0.9448162991886073,4.61051368609649,-1.645639223293889,8.038985346832686,-0.7637255001550096,-0.8972600620539376,0.29006781028742973,0.05206419120439977,0.25221998478049984,-0.6018938810268435,4.452998858652434,-1.5124441738914367,7.722839561442149,-0.7407223278380302,-0.9100962605086204,-0.3076969093238264,-0.08957909201988111,0.20459006156997528,-0.5915611692248632
-3.373318881760679,2.263458912698876,8.856048534574938,-0.27402774237654576,0.23367771606269866,0.005950350975718074,-0.08847095651521555,-0.012635852209212836,-0.653163891485307,-0.46350975551748286,3.975559268297995,9.17668388488647,0.5963035562628408,0.3050191940196711,0.03164504784132052,-0.9220704106484865,0.3451098742227359,0.03400144547661102,0.5864333015083781,-1.3930667315859089,10.122527574354466,-0.6360819010373615,0.14376657150024927,-0.10372750968166466,0.5869987497098856,0.19901727727318536,0.918891653018352,5.5139720152900935,-1.4742123303855459,8.554315930309444,-0.5992878896228657,-0.8506928807808998,0.20534177442027143,0.03861679858085822,0.265937678371708,-0.5906897800737976,5.418983095631446,-1.5721201415407602,8.203080058861092,-0.5869385810006448,-0.8632207342675707,-0.30546359356477437,-0.1027485581013021,0.22114752331600232,-0.5794232208949702
-3.394872559914729,2.346075316147166,8.965182423327702,-0.5308338340896442,0.1386461201517163,0.12128334097708497,-0.086692598140782,0.006130637665686887,-0.6490250818415363,-0.44188085172723945,4.56647512566974,9.257545978054086,0.6746188220192093,0.2578839486278174,-0.012868617390370984,-0.9013600359834307,0.36967367381473976,0.009491488095234715,0.7954001820805153,-1.1215955185256938,9.65326492491967,-0.2388627674194984,0.1856277711930756,0.02064978454100079,0.5763709104013647,0.2350621131861477,0.8872864702054037,5.332476987422453,-0.9443339269552586,7.970885094653241,-0.20252489310238952,-0.8774477895111213,0.120999380217059,0.021172953838992793,0.27410979829432786,-0.5838865063330158,5.1401974100284775,-2.078968416065581,8.285394425572468,-0.22028605905608872,-0.8702632835089004,-0.39399017447627377,-0.12709647784031022,0.2264318340646662,-0.5702540875501892
-3.6901108525273805,1.9354380255597659,9.464397090833781,-0.20169713311568901,0.07303126752662246,0.260859463254387,-0.07755160443204544,0.015092592227856166,-0.654589529652636,-0.6501697983495177,5.215404040069343,9.062103205803139,0.8439698642536352,0.23785862711835393,-0.08279833930141782,-0.8721233745559361,0.39376427817660975,-0.017764905944584724,0.4257611409245418,-0.9260376386238707,9.74378263579769,0.1737990803361493,0.2660380457495298,0.14362559697031668,0.5728408819148453,0.2793277174531579,0.840524652567925,5.4797138724340035,-1.548481893597624,8.0717140534696,0.2202746958950243,-0.8994593149851391,0.01733930837199117,-0.0006929422368318894,0.27963903357609476,-0.5773096586838681,5.371557401963148,-2.178988044169288,7.88428583958111,0.25041720737399503,-0.884630101601434,-0.5808806618718221,-0.14771382890417287,0.22513155440439958,-0.5597670166095244
-4.227996172186724,1.8869411568616339,10.097713388681425,-0.31528833408630236,0.048878547803839795,0.28968317052889336,-0.0826261113701536,0.018532466198191037,-0.6418115781578422,-1.0372546509804332,5.422524395444235,8.808690419087313,1.008738294225807,0.32692300421389964,-0.03600262947575138,-0.849011996055111,0.4153576251887602,-0.04910756916270408,-0.2978329562593106,-0.6270320651493752,10.10942457588098,0.3672954223706953,0.2857038861485597,0.11195267216615852,0.5762075150139718,0.331540810814866,0.7825127661723127,5.385019335132385,-1.9169221559710876,8.509577622002546,0.35821181447195816,-0.903452412304234,-0.13818662672403434,-0.012303140675052287,0.2882695831202793,-0.5739715201620985,5.498620686052046,-0.7407505114998962,8.129684205942022,0.3885740438331492,-0.8625576703613809,-0.4861287843297297,-0.16041778522533345,0.22407756192976847,-0.5610938246790901
-4.462051121502004,1.4547503008631744,9.580004093953834,-0.4641982388819301,0.06061138268566925,0.22505695531097422,-0.07494866563600998,0.036573359399931026,-0.6333292990724375,-1.6494811331006929,5.328246353926488,8.48688809248101,1.056556928336003,0.4609772814606094,0.1050278698983111,-0.8125159753176938,0.44064119249700806,-0.08424135666851273,-0.8097546076468557,-0.4740536021210322,10.139763203670231,0.2647577463556169,0.31177128664530424,-0.012586879209174192,0.5608472081520349,0.37895097473886563,0.7278464723267756,5.270414146676127,-0.8156122194938698,8.091356759030061,0.19891729759127483,-0.8638868093245906,-0.20280571920920418,-0.030715332367822326,0.2900455235272656,-0.5593946876618767,4.988436195260048,-0.8192105406370891,7.770451582996804,0.2104514773805271,-0.8302544581971262,-0.3785403065581656,-0.17801425041305366,0.22268345224848687,-0.5430755447086293
-4.417543571497771,2.0695351686286565,9.489505849367546,-0.2081147466020698,0.13616418402444577,0.2254015777334159,-0.08055824270361554,0.0309969921069355,-0.6409315497218311,-1.978860644234489,5.4172220424120825,8.574082761353457,1.2354491457292598,0.48790498806229887,0.10929937774649263,-0.7868839901289397,0.44762395442009034,-0.1450380151721595,-0.8671320335590482,-0.9200302131307735,9.99030325024137,0.2639047904517399,0.3250447147614058,0.018773917739767103,0.554781237798813,0.41467826691617804,0.6444262096662516,5.5170953219739935,-0.443388242627757,8.325501997823501,0.1715655629082555,-0.8036515878605958,-0.21994561142045227,-0.042652254831678824,0.2925964460869507,-0.5590278754669212,5.283202415245073,-1.672337066747862,7.7734502938705266,0.19098748564866,-0.8033818668247152,-0.5162341422182751,-0.18755155848792032,0.21876287210574394,-0.546926767764934
-4.698608453794409,2.7401824053825137,9.889680544648234,-0.26506841974312206,0.15919948042475124,0.3670969528290494,-0.07464592057873799,0.050556448183976685,-0.638032326021945,-2.095522705402887,5.783006926618497,8.783517810201642,1.441572401431446,0.4600827521037669,-0.046998015753843804,-0.7495150364311708,0.464231670901087,-0.19842644251199432,-0.9420585584508314,-0.6978265876167311,10.489880388518388,0.7031682749228684,0.3141520595550251,0.21119182721245028,0.5245591459719352,0.46139234009028113,0.5698978188940614,5.954313056913892,-0.528264420114128,8.814024994590621,0.6315934674538397,-0.7880497752436496,-0.3136619394986726,-0.06765723226917575,0.2993564257876511,-0.5497286851905377,5.777168837216596,-0.9229435163095603,8.044558713924436,0.5662572682923398,-0.7372416903072683,-0.6499122074526519,-0.2125161348888281,0.21398376971497676,-0.5347312313494333
-4.81331441415376,2.168821710579273,9.408438597496911,-0.841474861502782,0.17508143687949068,0.35743648021443886,-0.05614567951446539,0.06401740389476404,-0.6252934433819323,-2.4532662308218707,6.342405611367748,8.355544010084621,1.8164547653213179,0.43872848650537655,-0.006363151670215025,-0.6952139673621245,0.45206900405669875,-0.25588044611653965,-1.2779780680052346,-0.5556476420222948,11.266955789401974,0.5829904391476385,0.36676627618329616,0.21234187720061642,0.5030412084659999,0.49340819987354734,0.477585956731992,6.218744258281728,-0.07046544789707174,8.557361247933308,0.5676610025185458,-0.7373359655124397,-0.24228910028203451,-0.07510301306132412,0.30670557511788554,-0.5435067432495365,5.7571996694237235,-0.38943869807686066,7.5899339192594795,0.5962199654905261,-0.6637367486884534,-0.839776790403829,-0.21981558363945808,0.21123724384710907,-0.5344407479694276
-4.868428232389354,1.550919690723351,8.893256157855898,-0.814884509738632,0.20341001981529314,0.31034460396271013,-0.055236355271333096,0.07228635054504337,-0.6220176070435773,-2.481010231589547,6.1376547697169475,7.674542363060406,2.261577801590453,0.39700602859955053,0.05716166669113993,-0.6575470417500178,0.4255913392032593,-0.3250671136749713,-1.499687182710809,-0.8343017665361735,10.783701435119601,0.41909467325731214,0.40332288147200207,0.14820484921374227,0.45610685185751276,0.5105133619916536,0.39521233486394086,6.572786553892333,-1.3417175026552002,8.64587474231699,0.3998344633060389,-0.6422138458212854,-0.19220344814078155,-0.10178526655720467,0.31345445794038074,-0.530529935281866,6.522021180939065,-0.19454411866449453,7.603562026137043,0.4458564935787531,-0.5991091390966422,-0.8916522803686082,-0.24677135771193376,0.20189977263721356,-0.5283966727251889
-4.997951598453763,1.8591332092244617,9.14800603673813,-0.7495248524567767,0.16145861159441058,0.3285983008563071,-0.04765698994336644,0.08431553723866046,-0.60213789065437,-2.666466761205354,6.731463711327227,6.949978167438278,2.4784893790160196,0.41009949933551726,-0.014621846345200723,-0.6104355465179715,0.3900006659728012,-0.3771673321870241,-1.8718184984349857,-1.2835206463550752,11.084273158033856,0.4892928342203759,0.2638576000692455,0.11749123800220061,0.41769857821038453,0.5208932541348411,0.3063482527579341,7.061026209556852,-1.8031726263060552,9.222006080252156,0.41041465374438996,-0.5703906400988579,-0.28269746477194946,-0.11754267601517983,0.3199061323221332,-0.5244869727761445,7.210916874373678,0.2059050783518369,8.10726929546539,0.4240342210999152,-0.5052691674411217,-0.7088861682100616,-0.26131697549874866,0.19827153800526714,-0.5221704089454057
-4.875073612057518,1.8669090911311235,8.20229232987501,-0.8151027622284097,0.2398919891471202,0.3504422543367948,-0.03519647855492149,0.10402420042652367,-0.6051435901213491,-3.2924281538247304,7.085243117104391,6.935347378157863,2.769903588867944,0.3017403326893042,0.011154265194693667,-0.5607267384448095,0.34379433981049573,-0.44654392276719157,-1.8869409615426485,-1.317348631757906,11.191386711775404,0.46116134237408146,0.21903653636168485,0.04848267175405539,0.38154322463672663,0.5101959343054134,0.23048998814272748,6.596311452462924,-1.6581995818425994,8.35979541970792,0.3499877470706332,-0.4618726497484594,-0.3029593685855571,-0.1282424724813908,0.31898736690377844,-0.5185421223417186,6.639404088840847,-1.053648927308801,6.924857896082016,0.4067899182108012,-0.3999364829379999,-0.6225757171960953,-0.2682586185467245,0.1842636572076327,-0.5198611223989258
-5.224879471370158,2.0544605089254073,9.044729595749985,-0.9771501514569948,0.30040031563068464,0.3972893956834955,-0.014308294242273999,0.11665066025305491,-0.6012228094121204,-3.0559730536794665,7.08701745287714,6.079634949211163,3.5560943974165435,0.10629903443615049,-0.028553567090905084,-0.5093519047013101,0.273770668962285,-0.5020846557455133,-1.8565964185713286,-1.279518074630727,10.56201109904219,0.6949096848165706,0.24073309688182085,0.11066433883515715,0.34578298661473195,0.507095762739083,0.15126440590523552,6.733440413024247,-1.9553548917941208,8.361119973967462,0.5651920977414133,-0.36422305269180016,-0.42418580501771475,-0.14287026942723477,0.3245220857102425,-0.5220372951907395,7.073165083281048,-0.4210553807750681,6.902298713314873,0.6213893992042003,-0.27770816450731284,-0.5198659415855419,-0.27507632041245506,0.17814406423764093,-0.5223142257705026
-5.056496201100581,1.1101175093961224,8.318460421900951,-1.0581341206609358,0.2333148351347167,0.3902761145255604,-0.0038098676255921213,0.12849005589220125,-0.5830758130084753,-2.7368584738472634,7.474029777435774,5.0314802505000245,4.049481334771591,0.03141528283592268,-0.1150441385983327,-0.4718574666590606,0.18312574530701647,-0.5319763452164422,-1.789585517268725,-1.135245276311974,10.518095841501227,0.8261705503218582,0.1426579302010574,0.11205934863556988,0.3077094708099607,0.5012212963123369,0.08181095219366788,6.968732330541342,-1.615774645526581,7.931297221556653,0.6445832593716232,-0.2533331023385228,-0.5357446568388662,-0.15917615686341435,0.33029151114045846,-0.5220980415800716,7.1294949295525845,-0.026085509464604528,6.694774040384108,0.6761808567345335,-0.16176316425173137,-0.3596314880137994,-0.28458875685637997,0.1744334564018689,-0.5239650765782368
-4.430110373896643,1.1708454861720337,7.5138287177743095,-0.9655806587750222,0.18358129276812185,0.2916600529300835,0.015124716244635043,0.1442082170068529,-0.5744610324636683,-2.3881918935549873,7.918397649897455,3.922244416767104,4.8065636193271235,-0.056294316085298175,-0.06746084650694192,-0.4332762939472358,0.07911129731247195,-0.554452226457687,-1.3293407582607646,-0.9368380005545337,10.575856180465044,0.7524605038553842,0.11331363167297455,0.0252239947824012,0.273225597674358,0.48505402494433386,0.021032754498433344,7.023988542080314,-1.160156802683013,7.62130254122337,0.53187781192005,-0.1545703463111378,-0.5450792071556159,-0.17504518976944,0.33142591574085173,-0.5231738909329464,7.053413822520719,0.03188409011473839,6.721070812076019,0.5709642414858244,-0.0766949414871362,-0.2891629757244208,-0.29625516739102165,0.16315743024677054,-0.5269279907495785
-4.503885773318651,1.1982473306068346,7.935379589019636,-1.0507010353289354,0.11129897788534113,0.2528771665559809,0.022860063435001916,0.15998762376551495,-0.5611251752662785,-2.291026162033735,7.380313465396354,1.9984756668822004,5.844469279878848,-0.20111053159193515,-0.012446184806405712,-0.40052511044626565,-0.03422154446675411,-0.5460513290930779,-1.3793606415105775,-0.9733999414934686,10.203896452468246,0.7541080899101635,0.08490120449078697,0.007179352203259167,0.25102188838187584,0.4720891854315697,-0.031067631479630268,7.027739925839794,-0.8882863618312921,7.750607705667719,0.5058051363807025,-0.0866162567632876,-0.5548845828721637,-0.18717919719560594,0.3346777760027538,-0.5181618970563727,7.059557489481004,1.125462725924659,7.24940567210836,0.5079093350108931,-0.04299243879730087,-0.1795201722037186,-0.30128429565700404,0.16347621648076674,-0.5185591725402188
-4.455039161547849,0.8185876748223104,8.034480423168947,-1.0337725265823867,0.03302373402156886,0.2313740981543551,0.02750243963786613,0.1667327387381084,-0.5503273260268431,-2.1859450085918732,7.184905850200365,-0.5525848658431103,7.615407865179792,-0.2499093324259144,-0.0271347523150157,-0.38115711861921087,-0.1745358567672613,-0.5139113431375288,-1.566268007645617,-0.9896709190744846,10.48910562860748,0.5358486817001934,-0.07911630204914351,-0.0815947353463043,0.22258398306453425,0.45535701538015433,-0.0753140988474602,7.786073097758456,-0.23981526079865426,8.211308315842375,0.2931466686289231,-0.008939280967539178,-0.44912275768607823,-0.2054487369264626,0.332107292684593,-0.5104538745127039,7.556546140210503,1.5750216274346258,7.53154653596935,0.29538764802082235,-0.025631796655807,-0.08339005920924938,-0.30655199661789473,0.15701854594746834,-0.5142000672570209
-4.059886976896281,0.24422488640554074,6.867752657450993,-0.8233321742437064,-0.010351363248770612,0.21313004330460558,0.039844799075523955,0.18501280847597296,-0.5377250994025331,-2.3149701980067876,7.941555655103748,-3.155264632047381,9.484186207363509,-0.40191670065457846,0.050377096658388534,-0.3535916235509698,-0.3048871451996592,-0.42624003242725944,-1.5770058829749714,-1.1096703247605233,11.078821397575386,0.14134646830048325,-0.31663253511290795,-0.16734149747134924,0.19701910680532111,0.44038417871955254,-0.12348574239619184,7.937008733535994,0.23677516384657332,8.760351115186753,-0.020885917713985343,0.058779844559199025,-0.21182096437284256,-0.2244933324551347,0.34163939109544156,-0.52071784367844,7.707130038204285,0.42294334287220825,7.56446721706369,0.00801519624841202,0.057267912880726204,-0.20795294254562735,-0.3208611155841375,0.16265623678037816,-0.5227291881075212
-3.8382958704076575,0.8223620856558161,6.041060826840459,-0.6126914391564798,0.07684758359764512,0.3015682830812361,0.04923538444236708,0.19995297200847467,-0.5334471497663011,-2.1286176631092206,8.650398952426725,-5.830004617467561,11.110190822309518,-0.47961439404660994,0.44835596743401324,-0.3322718741998139,-0.41727963037699456,-0.2834746938003142,-1.5932987943544197,-0.7004560652957255,10.38472855801899,-0.09526886006393931,-0.36413503281732995,-0.18047324620629954,0.18290417352634228,0.42146359810666323,-0.1544767609144841,6.387594603179793,-0.17466749270190626,7.856840671921228,-0.17935738541720775,0.13229789528838018,-0.04065290342113321,-0.2291008991319128,0.34239587255158904,-0.517987344983046,6.321189996896428,0.5627530430752004,7.000502053950996,-0.13397903680639225,0.1571685512454401,-0.3882325564166932,-0.3183357394378598,0.1582180621924921,-0.5186768308124082
-4.010897117207509,-0.3836344896415018,6.701392341066668,-0.8871633287397022,0.22126254589474245,0.4769095389292064,0.064720889281961,0.20471544055072638,-0.5115211466593285,-1.6256576108179634,7.831026528906273,-7.949361642034775,12.024954097166441,-0.253687518951883,0.7284071993309104,-0.3082277868129586,-0.4855152310528659,-0.08026247769080891,-1.764155703876606,0.07406845705604373,9.31346784133547,-0.010752127574524673,-0.37171301407611307,-0.1964937933678124,0.1594065963084638,0.4110463784608231,-0.18920882674334258,6.19616480776998,-1.0936695496632138,7.465958115258433,-0.15350486259655483,0.21078145018708613,-0.11483430939506599,-0.24149045903066949,0.35501120024151933,-0.5243796512015244,6.216430882734837,1.2910473265746305,7.356631027888992,-0.15476157306935956,0.1613067783088805,-0.22517274791303446,-0.3275311066779281,0.16971303754516784,-0.524492098988654
-3.934878553119257,-2.0624538524158504,6.306332592853957,-0.6551100902934323,0.15671078042599962,0.3140548870261458,0.062287102060878397,0.20682815381442834,-0.5070805025137259,-1.0087987373352751,6.180472144930981,-9.72099550229502,11.329178175846478,0.2656578112544875,0.6379218932685823,-0.29419995601681953,-0.48637453672981296,0.09396406414455113,-1.4348376709319366,0.8747319737801112,9.240430037682142,0.11326394072877431,-0.5600706257523358,-0.3823788156187209,0.13608341222204018,0.3820512733426952,-0.22065982576180798,6.673133394145272,-1.4299523248231232,8.589734474155481,-0.18837708528627553,0.24814713650651102,-0.3376827198461097,-0.2523668503620477,0.34513669965918753,-0.5289971768220542,7.363211393071138,1.1378441723838075,8.082375717285888,-0.2241536901559723,0.17622450431682923,0.20572291639909293,-0.32703774806499425,0.1656015309136071,-0.5267591595299003
-4.091969796341054,-0.7260042876562078,6.974374470720751,-0.07482828441841964,0.13045732903190022,0.2330698277724052,0.0833297240047516,0.20625019125790325,-0.501624171236166,-1.349986047394181,5.817663798352866,-9.465930185338712,10.090452965962436,0.4646723201901255,0.31679902594230946,-0.26133541071787414,-0.42754202673123476,0.24074952310953432,-1.0036609470415607,0.6894634897670366,9.577218673863143,0.08418462715843672,-0.8944816985882393,-0.5996418826181951,0.11027361409892195,0.3669147579301753,-0.24685504738733402,6.605094926494602,-0.5315697087033,8.077883630108653,-0.37373309836993235,0.2582578420673612,-0.47488156162618106,-0.26778368691808535,0.3450672807055989,-0.5330160160342279,6.734624143938563,0.33567230841752,7.569318738952299,-0.42589905428743363,0.22010802130603055,0.45067695964827575,-0.3361666021367984,0.17725458150417456,-0.5269557028314423
-3.7036847088632565,0.8748851598763565,7.6004980328330864,-0.042928454293143216,0.1328578259626208,0.39961772171725246,0.08787275624737072,0.19669542078917887,-0.4954330655729975,-1.4251857713863596,6.519048495917245,-10.731037072806336,7.489097480601092,0.6491937279607853,0.4169216153004616,-0.24330958665630692,-0.3618376056077173,0.33412701157824876,-0.9727084432418698,-0.7700595202783064,10.805903499291013,0.02435202862059809,-0.9127783290833081,-0.6021622892791824,0.09457383267660603,0.35542980709044303,-0.2614150240871931,6.100185026873596,0.5632507268552873,7.9778787573573196,-0.3977819086387864,0.31741871843715946,-0.4430427175232603,-0.26935736617899564,0.35087325083728177,-0.523680916119723,5.657097743349678,0.08823315069013259,7.137319851550809,-0.4450674324088429,0.27950913648525455,0.36197828673453236,-0.3317538738863154,0.1888669465981443,-0.5177950209620757
-4.2319326681576355,-0.25056834116444976,8.044792086295784,-0.11711723313591546,0.05919058842564154,0.6377837564797444,0.08270312036375585,0.19839308232911543,-0.49879198565639654,-0.8953575675764077,4.208935260489721,-9.5497465443642,4.718382105550269,0.8882723610248591,0.6487246599724189,-0.2486600438585973,-0.2981117931625359,0.3708085093247698,-0.18984435286693024,-1.7508117087817998,10.50209008629378,-0.4399071566590198,-0.7823181161616483,-0.5658681449175827,0.07197006273894006,0.34952703363654297,-0.278300501639131,6.458294365987146,0.6254514056627384,8.223895694702188,-0.6892036798082771,0.374228584116983,-0.14084836352094382,-0.28004867852314674,0.35929762392556913,-0.5267006353830225,6.111030695521619,0.3501406820517587,7.979391537272116,-0.6751273867519838,0.30986359535302377,0.056426193486135805,-0.33163543521638694,0.20063045140977437,-0.5205449983852959
-4.027682682211742,-1.9581313492259012,7.478425149856846,0.47992099233732555,-0.1467980694301966,0.6076954248458054,0.10262998160578354,0.18468772912957895,-0.4986266988846023,-0.14702055677214768,4.54403890462909,-8.307457581111665,1.9750088517483502,0.9259348581573906,0.7438504892461367,-0.23113042580694784,-0.2630379809032556,0.38286821788526343,0.33748401051153926,-0.1251083846265003,9.059061294706103,-0.45428471690561895,-0.8298931817505215,-0.4804988089381466,0.047602902206693325,0.3419459826474223,-0.30128330935481434,6.146251363944832,-0.332556928399108,7.742409886781055,-0.633109405002993,0.3406227074876062,-0.05754214505533123,-0.288607263927164,0.3652967135829686,-0.5346399938687331,6.284320251111532,0.20025037850273963,8.537128695952111,-0.6144649352926261,0.3038034362033458,-0.04523225028525812,-0.33790238544073237,0.21142534535653812,-0.5268948746489486
-4.031760914301897,-2.483499125303293,6.539874483410695,0.9052284729965001,-0.34558363597445085,0.2633994589138389,0.08761461449472406,0.17521241911963498,-0.4959569234754025,0.34070098728161047,2.039075362470772,-8.115550932906158,-0.08493213947687916,0.9255972561227165,0.49623645375564496,-0.24091323662123132,-0.2493681779978064,0.3879689599977516,0.8789890521335038,0.29581140347939117,9.029775458114228,-0.43971693524071687,-0.8990927454239116,-0.4782000382283596,0.03192111268237037,0.34065323988248775,-0.30722350526560244,6.31215857912618,-0.2351908153431571,7.59202154286057,-0.6342355106268153,0.2611550716677661,-0.08453774846272448,-0.2950190250836361,0.37824770882688524,-0.5278965150139872,6.3497113725732985,0.07084120032849364,8.25675560700947,-0.6417730651771268,0.22486226682210325,-0.019952023626202887,-0.3394407709722626,0.22697590257981945,-0.5227277366620525
-3.6529481817532643,-1.8380335450782392,6.406178780832895,1.316253719350543,-0.35303542760427975,-0.16856364102654228,0.08613722892219758,0.1503614155516582,-0.5013985383583666,0.5620275875237319,1.718444078489325,-8.396119276836247,-0.40620505384897043,0.9375381330190852,0.22108462470882811,-0.23337663963661479,-0.2476520077052673,0.38472585971893275,1.116750392845313,0.045687824636423846,8.686115935291552,-0.17149457370330362,-1.0080597840292214,-0.3854150300056834,0.018127617878405215,0.3282425602146863,-0.3266946500002144,6.164819919950692,-0.1976174973269005,7.488229101933407,-0.3925537641573453,0.19318600193257127,-0.2355039673555584,-0.2955843195559442,0.3802863731723933,-0.5388632746013007,6.27707740891804,-0.6105513811715997,8.009652363035691,-0.43639679119836444,0.1570682781474407,0.025781136467760285,-0.3351570910253418,0.2329520281338866,-0.5280604938733247
-3.8671660101239156,-1.280421577783679,7.216539423228645,1.6003483619442231,-0.5374411049697871,-0.513087569006788,0.07530022046971535,0.13465428970841226,-0.5042109153859476,0.7890255269718941,1.1372530498088975,-9.306801478999919,-0.6712492820180355,0.97984956465696,0.020740729997713928,-0.23465859809489004,-0.24207897648620458,0.3795671883257726,1.4174581809360878,0.2861360626512972,9.664331020967037,0.19629416530655056,-1.0715030641753043,-0.2219010516098074,0.002708750532266977,0.31430613496197124,-0.33956742739818413,6.457290456806878,1.3847308512671128,8.306217660744503,0.01616863922306939,0.10680799285694398,-0.2923285519300932,-0.3105308780365024,0.3738287363411658,-0.5380500906471868,6.236519287507126,-0.4224799134217153,9.065089818755839,-0.06978652790681704,0.10882625309858071,-0.191552321171618,-0.3441239089718144,0.2269957381499936,-0.5263340803821256
-3.4540630476541683,-0.17343704045423525,7.482135364414191,1.7891031571163771,-0.7727031033003058,-0.5480399953181236,0.06624224948818062,0.10950673733893852,-0.5117989844764508,0.6183529058355713,0.9944037680552196,-10.151517225645451,-0.2155308946889681,1.0403620736965828,0.027219506265162362,-0.23156481350555405,-0.23822151693917737,0.3712137537771671,1.366138741558026,-1.10105632925421,9.43113338729251,-0.14957387995465055,-1.0563647282229118,-0.1628638782629386,-0.020321995296212304,0.3081155970494477,-0.3510788289174428,5.654992286448383,0.6589360166833792,7.764739212229714,-0.21567014056389186,0.021031571554444996,-0.049622058029684626,-0.3254224039705876,0.37962878536088074,-0.5439831849261757,5.279372023502891,-0.7812793559068897,9.535195517851832,-0.2192529339151002,0.009334765323631271,-0.6191537536613771,-0.35730038860939534,0.22736764301484347,-0.5254346399272223
-4.130603146404738,-1.309336816191057,8.15671082809161,1.9128835209589943,-1.0378955283088402,-0.4117258826258489,0.03642268114342033,0.07030358611647565,-0.5074576530031722,0.648761759792144,1.2832398151120363,-9.799973730103803,0.0013303288006046533,1.0340199555778014,0.13308774585274133,-0.2425364190028903,-0.23849738098196818,0.37300824112477243,1.4408947015291407,-0.8753459837457979,9.296027956405108,0.047195573080674735,-0.9823879800469585,0.0032099180430726123,-0.02568392031811733,0.301510320860345,-0.3547301896946246,5.858544856207413,-0.4822161158372735,8.388310777072967,0.018914561748364086,-0.11061625833528797,-0.0032471824353049886,-0.32788467383628406,0.3764706214820704,-0.5430082418390877,5.898644266522715,1.952237516523431,9.36864491862159,-0.025824597551072824,-0.11643443534695844,-0.6433255627812096,-0.3596278409153314,0.22261174873463888,-0.5191306458473464
-2.410618024504747,-0.9177774887012344,7.447633571878726,1.805406734285057,-1.294834584008966,-0.4079662492431121,0.022808560080332767,0.03729691064461363,-0.5153595795388203,1.862053587962895,1.5092780195402555,-8.82202510089113,-0.4326493158205,1.0773489770462494,-0.08888946906384998,-0.23406212995396186,-0.24490423573581868,0.3602944225686393,2.3744321930546954,-0.7727868419306348,9.03871841061189,-0.44150806664596387,-0.9916594169498064,-0.15418319880036596,-0.03917521423894252,0.3007238155606978,-0.3609348504231038,6.447609963170538,-0.9877051921931939,8.829501451097657,-0.46521003719945625,-0.28843123233319623,0.08330007954758716,-0.3348413203415167,0.3852909262792115,-0.5382437340274915,6.6752096043280655,1.9432064272919214,10.869040220507914,-0.45887108932083615,-0.3229043295225647,-0.3620501645270889,-0.3711203076213193,0.23100390679639504,-0.5149539990968705
-1.886244323357707,0.753940659372619,7.831738264664276,2.0340957508343824,-1.3702558569138186,-0.47831534704197587,-0.0018669055027669332,0.012685848605626372,-0.520874800710304,1.43785492798757,3.053406611385641,-8.377895053805004,-0.556722079947366,1.1145904456688303,-0.0775280414355801,-0.23977385607505966,-0.24036378808270578,0.35005073793727204,1.7091593651152794,-2.6877710023262127,10.522879499693374,-1.025265295113624,-1.150181790455339,-0.2666183282925672,-0.05797636273684295,0.30325693167293816,-0.3592451581665659,6.817428739627038,-1.143495672658474,8.835710158097855,-1.0245820631338955,-0.3682559538812755,0.25879043366647525,-0.3513117462078156,0.3929631468977034,-0.5312085349141796,6.616934659186243,0.6419828438119772,9.374558503835097,-0.9777064232793612,-0.46580617068086694,-0.18725386655795812,-0.38856697104426824,0.2350509117904511,-0.501248198172283
-2.439504410188237,1.241665869662258,9.239590035472625,2.553533778591794,-1.2379776272498317,-0.5093550288291953,-0.024316304174795314,-0.02604123762568267,-0.5094986083201813,1.177860100215451,3.4727368624754615,-9.512054545678474,-1.1280849583306523,1.2894780158515498,0.21833476718718436,-0.24325885902001268,-0.24534512407182196,0.3386383287158497,1.4892089216052704,-3.0539331037125987,10.351548670202426,-1.002510138981464,-1.2565595377034227,-0.10003317825564527,-0.0802779907221025,0.3097067385748694,-0.3623708032415684,6.338002073554356,-1.9299421846608649,9.45955344243993,-0.990226346334481,-0.3688622631602505,0.3384748554078462,-0.36799199485228984,0.4092217623099964,-0.5294803824227421,6.530422828417956,-1.0593614105943479,8.801297934200567,-1.0193522610777026,-0.47210919350550473,-0.14882461432289176,-0.4098261235536813,0.24941095063537627,-0.49319749342339586
-1.777134890309996,1.9974720814797033,9.687015004795336,2.8376033863898127,-1.0346516022918606,-0.45963242883411864,-0.03234823398033629,-0.0720574063281784,-0.5076006537521491,1.6228268005702333,1.6727333742541344,-9.013978531579792,-1.0675153772954986,1.3059051454512163,0.36122642478601596,-0.24432025343140698,-0.25744135714083843,0.32115666490934974,1.7799751269825286,-1.6830531180700696,9.979317183269561,-1.0350207206182283,-1.4366582435596018,-0.04239366069547752,-0.09192276257598359,0.3258478839853208,-0.34454442833499466,6.237068157680129,-1.2078319952942178,8.721067290334721,-0.9691296744041129,-0.35012478375748046,0.40700891044687904,-0.36955263421186846,0.4310526126487224,-0.5078191141940005,6.260766518475136,-0.26830452524949466,8.579427594644956,-0.9390905935484813,-0.39655563087357326,-0.28603602053626603,-0.4177279074838362,0.26703629620713665,-0.4686537873218885
-0.6567657331218746,2.5561175614599954,8.79192637141808,1.6591870101012807,-0.8216622606871218,-0.31072744510696254,-0.05183962441798528,-0.08881942137901414,-0.49302947523966495,2.7175804944956945,1.5632295768431836,-8.93000167576738,-1.4150345926659869,1.465910205336811,0.359863837802569,-0.25905157455188704,-0.25929787696852447,0.30931861328863497,2.8981033033709727,-1.3886184402902055,8.663502442616108,-1.4159225902535235,-1.417770993906262,-0.1804834706304212,-0.11508653931539324,0.3207964323188501,-0.3450591100114644,5.639588271727871,-2.210069173838214,7.075832596062002,-1.3626739623954427,-0.3929903696805996,0.4358622077604452,-0.3828842968594725,0.4384800305368671,-0.5047190432971747,5.901536273529538,1.3662208101294029,8.787496471581964,-1.3126800482959387,-0.5634184935686514,-0.01600931362063311,-0.4348074845902533,0.27414138667449733,-0.46296369933341464
-0.30164600297627586,2.0847048926096132,9.156533726849476,0.2718807256921787,-0.7274290220978976,-0.021562135047132426,-0.06850950038233812,-0.10152515709341954,-0.48745865049921816,3.415826421853807,1.3842879902662284,-7.810120105535004,-1.7914222133319175,1.5298278580047353,0.3553033743543928,-0.26889483647092743,-0.27853106550864676,0.28902616833063943,3.5520110772291917,-1.2469707029363415,7.196597259780039,-1.957523047807072,-1.3309914299593968,-0.422393775338549,-0.13386033000146114,0.3398310634603244,-0.3295753398121967,5.563870813520563,-2.6447403503120426,6.16102556869531,-1.9707797250366104,-0.5061976756598469,0.3635869642082781,-0.39197997111178096,0.4652751771490161,-0.48442218617767613,5.921306972954433,-0.33188970175760757,8.061260567222998,-1.871823164097424,-0.7864034860771176,0.34929493843894244,-0.4472085354197724,0.3034679597998201,-0.4394053404336784
-0.013509500687419712,0.8160483466572859,8.359235239963885,0.9208382525375897,-0.6775183505735992,0.18776398266320315,-0.07229306479821487,-0.10825116983702864,-0.4804384587010035,3.72493729903178,1.7690130113719267,-7.349767331178768,-1.8796760297160466,1.4518641729370232,0.38189259144138143,-0.27032152717303654,-0.2882944546516217,0.2568812442510378,3.744523151289247,-1.5724284716550438,7.035447434946938,-2.1641989942903463,-1.365220690495483,-0.5763639236868429,-0.1532599475047664,0.3546606433463475,-0.30727870643113414,6.213124865950948,-1.783991186745254,6.343760345661261,-2.215872454744952,-0.62745285301211,0.2523915864159209,-0.40475671606526914,0.48498435411619595,-0.45877363599116655,6.13733466313683,-4.06819249273613,6.807582837369921,-2.09309446231312,-0.9399229324059167,0.267763424060517,-0.46115861701217176,0.3250856783216085,-0.407644788510292
-0.6695162069203091,2.345154905799868,9.722080785762678,2.163377951494413,-0.41096444566516177,0.09982834099073051,-0.08293875308061208,-0.13914313839796424,-0.479544182220156,3.4071525148417012,3.1150747073948244,-8.02692413727188,-1.8146121643235915,1.410163305078666,0.4501488231645897,-0.27222026294082213,-0.2953496981282007,0.228137114711768,3.5168796348331903,-3.3672384785212244,7.273996581259688,-1.9257148950320078,-1.454660810561434,-0.5624170089912058,-0.17333221936075024,0.3568125469840205,-0.2882422764277525,5.733493188641467,-2.9947059534439346,5.971106136185434,-1.9773612020841242,-0.6349197932402875,0.17377071626179627,-0.4119953787542235,0.49978464169923387,-0.43662836010815004,5.861399801849357,-5.193834726507242,5.36152548121836,-1.7946197171191947,-0.9134434886113816,-0.3081194982186152,-0.47849361168626,0.33599908703720605,-0.38015944278105557
-1.0738863547429178,3.9034544801213134,8.630639061784926,2.859586968952968,-0.08326051611330045,-0.08598605678205648,-0.07919076539004079,-0.17748575136562708,-0.45736465751642674,3.427128607079191,3.5044834226430215,-7.9190081315374785,-1.202050343070534,1.4678308800063025,0.623936435148594,-0.27664839531782287,-0.30177291773098297,0.22040471588694066,3.537355126146471,-4.628476479595766,7.276446959797075,-1.1175659038166095,-1.3902544683841709,-0.4333145524193835,-0.19601347806334685,0.3636719801204717,-0.281105861871938,5.5111650417039435,-5.12737356798897,5.8290113912716315,-1.1965441547844275,-0.6599945069807974,0.019938715189150125,-0.4312965598744675,0.5088769490797248,-0.4197916202853041,6.218070015501202,-4.343605077494961,5.492318279303728,-1.064679104474039,-0.8395973648543158,-0.5094559597109914,-0.5014226707779212,0.3349983730690788,-0.35865143960258505
