# sampling frequency: 40
# units are seconds/meters/radians/a.u.
seg1_acc_x,seg1_acc_y,seg1_acc_z,seg1_gyr_x,seg1_gyr_y,seg1_gyr_z,seg1_mag_x,seg1_mag_y,seg1_mag_z,seg2_acc_x,seg2_acc_y,seg2_acc_z,seg2_gyr_x,seg2_gyr_y,seg2_gyr_z,seg2_mag_x,seg2_mag_y,seg2_mag_z,seg3_acc_x,seg3_acc_y,seg3_acc_z,seg3_gyr_x,seg3_gyr_y,seg3_gyr_z,seg3_mag_x,seg3_mag_y,seg3_mag_z,seg4_acc_x,seg4_acc_y,seg4_acc_z,seg4_gyr_x,seg4_gyr_y,seg4_gyr_z,seg4_mag_x,seg4_mag_y,seg4_mag_z,seg5_acc_x,seg5_acc_y,seg5_acc_z,seg5_gyr_x,seg5_gyr_y,seg5_gyr_z,seg5_mag_x,seg5_mag_y,seg5_mag_z
0.072896,-1.185686,9.770921,0.001265,0.001944,-0.001389,-0.080078,0.480957,-0.533691,-0.270437,3.173523,9.238996,-0.003931,0.003286,0.004865,-0.83252,0.096191,-0.15625,-0.685472,3.865841,9.021785,-0.007602,0.005706,-0.000328,0.106934,0.455566,0.841553,-0.242322,3.63884,9.136355,0.000305,0.001001,0.010259,0.511719,-0.232178,-0.289307,-0.837336,3.010985,9.270582,-0.006198,-0.00137,-0.001041,0.355225,-0.145752,-0.62793
0.040633,-1.174726,9.759195,0.002088,0.004782,0.000153,-0.089111,0.48877,-0.543213,-0.260137,3.220221,9.279261,-0.006159,0.007817,0.004747,-0.838379,0.101074,-0.162842,-0.65796,3.876531,9.010343,0.003762,0.001179,0.003325,0.108154,0.451904,0.843018,-0.227798,3.681391,9.15734,-0.005656,0.000122,0.008025,0.518555,-0.228271,-0.289307,-0.869544,3.005123,9.268228,0.009584,0.003399,-0.005756,0.354248,-0.149414,-0.623535
0.063132,-1.177615,9.792107,-0.000529,-0.000201,-0.002265,-0.077148,0.489502,-0.549072,-0.263529,3.183362,9.254579,-0.019918,0.005281,0.005193,-0.827637,0.10376,-0.170166,-0.655555,3.893524,9.035734,-0.005353,0.011229,-0.000792,0.116943,0.456299,0.835205,-0.217313,3.665274,9.121777,-0.008872,0.002829,0.011406,0.525635,-0.220215,-0.290527,-0.859589,3.036897,9.297361,0.001497,-0.005388,-0.002265,0.36377,-0.145508,-0.625
0.061408,-1.193206,9.765456,0.000182,0.004163,-0.001409,-0.081299,0.492432,-0.543701,-0.243744,3.18541,9.251175,-0.002802,0.006869,0.002037,-0.829102,0.108154,-0.164551,-0.668947,3.875571,9.015392,-0.009139,-0.000469,0.003887,0.12207,0.463867,0.841064,-0.228632,3.643409,9.166824,-0.010195,0.002472,0.010065,0.518311,-0.218018,-0.287598,-0.84922,3.017338,9.249636,-0.000467,0.001666,-0.003343,0.371338,-0.140869,-0.624512
0.052381,-1.1784,9.793025,-5.1e-05,0.001073,0.000466,-0.080811,0.486572,-0.545898,-0.272621,3.199402,9.267303,-0.008399,0.007479,0.00655,-0.833252,0.10083,-0.16748,-0.644725,3.873139,9.042965,-0.007374,0.007101,-0.000363,0.113037,0.465576,0.841797,-0.22289,3.65657,9.134077,-3.3e-05,0.001539,0.00824,0.517578,-0.222168,-0.29126,-0.84526,3.016644,9.280629,-0.008121,-0.004244,-0.000829,0.360596,-0.135742,-0.623779
0.052055,-1.200788,9.773592,-0.00339,0.000801,-0.000736,-0.081055,0.496826,-0.543945,-0.263588,3.188473,9.263324,-0.015255,0.004522,0.005074,-0.830078,0.110596,-0.165527,-0.67912,3.862086,9.002383,0.000534,0.005577,0.00136,0.11377,0.458496,0.838623,-0.233954,3.682419,9.157465,0.002223,0.003017,0.010817,0.51709,-0.219727,-0.291748,-0.840597,2.999,9.264839,0.005447,0.000905,-0.004556,0.359375,-0.137939,-0.626953
0.059243,-1.186975,9.758174,0.005169,0.000416,-0.000814,-0.084717,0.485596,-0.545166,-0.264702,3.185913,9.264173,-0.007143,0.008644,0.005235,-0.831787,0.098877,-0.165283,-0.647903,3.912069,9.01279,0.000907,0.002502,-0.001025,0.11499,0.462402,0.837891,-0.236463,3.656281,9.143488,-0.008784,0.002462,0.008219,0.522461,-0.22583,-0.285889,-0.876564,3.044307,9.308686,0.009641,-0.001241,-0.004509,0.361816,-0.139648,-0.628906
0.068697,-1.17078,9.770279,0.00127,0.002254,-0.00058,-0.088379,0.48584,-0.545898,-0.262784,3.204233,9.256635,-0.008084,0.004133,0.004261,-0.83667,0.101562,-0.166992,-0.6551,3.892304,9.004258,-0.008216,0.006248,0.002919,0.114014,0.456055,0.84375,-0.22189,3.65364,9.135273,-0.01386,0.00101,0.009338,0.523438,-0.226562,-0.284668,-0.864319,3.028108,9.269976,-0.006526,-0.003703,-0.001931,0.36377,-0.143799,-0.621582
0.047734,-1.173064,9.7584,-5.6e-05,0.000764,-0.000343,-0.087158,0.487061,-0.543945,-0.271472,3.200323,9.263499,-0.015601,0.007882,0.004426,-0.835693,0.101074,-0.165527,-0.677917,3.876607,9.028748,-0.009556,0.001285,0.000638,0.120361,0.457031,0.845947,-0.22774,3.645919,9.147164,-0.006313,0.002523,0.010315,0.516602,-0.222656,-0.291016,-0.852726,3.021874,9.290858,-0.00571,0.001853,-0.002524,0.366699,-0.143311,-0.619385
0.060737,-1.192094,9.77922,-0.004427,0.001637,-0.002032,-0.086182,0.488525,-0.543701,-0.260117,3.171589,9.275264,-0.007931,0.005614,0.00483,-0.829834,0.10083,-0.163818,-0.655185,3.870866,9.032593,-0.004072,0.005488,0.003033,0.114258,0.462402,0.838135,-0.230673,3.670132,9.131279,0.004785,0.000785,0.00993,0.521729,-0.226807,-0.294678,-0.860994,2.999779,9.258136,0.001429,-0.005884,-0.002615,0.36084,-0.136475,-0.626221
0.069993,-1.191715,9.778263,0.00127,0.002255,-0.00058,-0.07666,0.482422,-0.54126,-0.258778,3.206918,9.238286,-0.005266,0.007468,0.004705,-0.828613,0.095947,-0.16333,-0.668625,3.887641,9.02673,0.002471,0.00384,-0.001381,0.120117,0.455811,0.83667,-0.231808,3.676586,9.159862,-0.007284,0.003473,0.010152,0.519531,-0.229248,-0.294434,-0.848927,3.035001,9.296277,0.012248,0.00121,-0.00426,0.365479,-0.14502,-0.628906
0.057539,-1.186532,9.758238,0.002297,0.000799,-0.000902,-0.088867,0.488525,-0.544922,-0.280863,3.191653,9.257937,-0.014336,0.008076,0.004082,-0.835449,0.101807,-0.164062,-0.676414,3.879805,9.036509,-0.007467,0.00512,0.000754,0.115967,0.456299,0.83667,-0.250071,3.66032,9.142908,-0.010723,0.002441,0.008098,0.517334,-0.223145,-0.280029,-0.871698,3.03319,9.280262,-0.007622,-0.000873,-0.001456,0.364258,-0.145996,-0.62915
0.050043,-1.170046,9.799622,0.004142,0.001872,-0.000491,-0.082764,0.494141,-0.549316,-0.253338,3.194808,9.248655,-0.009178,0.004453,0.006148,-0.83374,0.108887,-0.170898,-0.671873,3.882053,9.003846,-0.005267,0.003018,0.002721,0.11377,0.461426,0.848389,-0.235921,3.660694,9.143875,-0.004968,0.000886,0.011226,0.511719,-0.215088,-0.283203,-0.857229,3.006978,9.276014,-0.001024,-0.002056,-0.002208,0.360596,-0.140137,-0.615723
0.059126,-1.176181,9.792304,-0.000682,0.003019,-0.000868,-0.087646,0.485107,-0.544189,-0.269398,3.182262,9.275806,-0.006252,0.008295,0.005191,-0.834717,0.099854,-0.165771,-0.656063,3.86929,9.01719,-0.006132,0.005062,0.000431,0.109619,0.468506,0.846436,-0.230034,3.669673,9.15228,-0.003754,0.002215,0.009224,0.514893,-0.22998,-0.287109,-0.85348,3.019431,9.281648,0.003968,-0.00393,-0.002713,0.356934,-0.131836,-0.616943
0.046475,-1.164387,9.778652,-0.001546,0.001873,-0.000326,-0.090088,0.486572,-0.539795,-0.277381,3.208589,9.273272,-0.010969,0.004199,0.004281,-0.838135,0.101807,-0.165283,-0.664794,3.879157,9.00018,-0.001561,0.003682,0.002963,0.111328,0.453125,0.844971,-0.229358,3.6668,9.14305,-0.002451,0.004564,0.011,0.519775,-0.22998,-0.292969,-0.845722,3.020356,9.258911,-0.002324,-0.000712,-0.002782,0.358643,-0.145508,-0.621338
0.056913,-1.192267,9.765598,-0.000575,0.001182,-0.000991,-0.080811,0.477051,-0.542969,-0.258657,3.189774,9.264277,-0.00964,0.009257,0.004966,-0.828369,0.092529,-0.163574,-0.659938,3.887926,9.030848,-0.001017,0.003434,-0.000826,0.115723,0.45459,0.841064,-0.248742,3.655783,9.144759,-0.008799,0.002541,0.008861,0.512451,-0.224121,-0.293701,-0.870974,3.02666,9.292986,0.002879,0.004039,-0.003138,0.360107,-0.145996,-0.626221
0.056709,-1.177408,9.778546,0.002302,0.001109,-9.3e-05,-0.078857,0.492676,-0.541748,-0.296368,3.188864,9.266445,-0.010317,0.00478,0.005094,-0.829346,0.10498,-0.165771,-0.66048,3.8753,9.012736,-0.007552,0.006217,0.002758,0.11084,0.460938,0.837646,-0.222017,3.669993,9.133016,-0.000855,-0.002478,0.01056,0.519531,-0.227539,-0.290527,-0.865249,3.018828,9.273507,0.001028,-0.003327,-0.000823,0.358643,-0.13916,-0.627441
0.056383,-1.184414,9.772126,0.00028,0.001708,-0.003151,-0.082031,0.478271,-0.546143,-0.247893,3.197807,9.252586,-0.003123,0.007303,0.004315,-0.829102,0.091553,-0.168701,-0.659132,3.866177,9.018301,-0.002004,8.7e-05,0.000484,0.114502,0.456543,0.838135,-0.236727,3.673197,9.161799,-0.011553,0.006115,0.009598,0.523438,-0.233643,-0.2854,-0.863444,3.028924,9.269791,0.008807,-0.001954,-0.006526,0.360352,-0.14624,-0.625977
0.047546,-1.176283,9.793304,0.005123,0.001801,0.000462,-0.085693,0.484375,-0.543457,-0.299153,3.20195,9.238315,-0.016332,0.006816,0.005021,-0.834229,0.098145,-0.164551,-0.658567,3.890084,9.03906,-0.009212,0.010012,-0.00128,0.11792,0.452393,0.844482,-0.252694,3.641521,9.138513,-0.006029,0.000816,0.007286,0.521484,-0.227051,-0.292725,-0.862762,3.022337,9.282531,-0.014045,-0.003639,-0.000468,0.366699,-0.150391,-0.62207
0.084787,-1.174154,9.77594,-0.005286,0.0008,-0.000682,-0.082031,0.483398,-0.538574,-0.253005,3.172601,9.262341,-0.009094,0.003023,0.003748,-0.831055,0.09668,-0.15918,-0.677638,3.875207,9.006363,-0.00174,-0.002221,0.003476,0.120117,0.455078,0.838867,-0.223639,3.684298,9.150205,0.004734,-0.000927,0.012053,0.52417,-0.222168,-0.292969,-0.847427,2.966228,9.256786,0.001396,0.004192,-0.003048,0.368164,-0.145264,-0.626953
0.046662,-1.184299,9.786765,-0.000215,0.003675,0.000245,-0.081299,0.488525,-0.550293,-0.255616,3.201522,9.26739,-0.004949,0.011411,0.004886,-0.830811,0.104004,-0.169434,-0.638362,3.892285,9.037784,-0.002034,0.006868,-0.001651,0.117432,0.461426,0.836914,-0.250106,3.677157,9.14049,-0.01194,0.006881,0.009494,0.519775,-0.2229,-0.292236,-0.88232,3.065669,9.302691,0.020063,-0.001955,-0.005644,0.366943,-0.13916,-0.626709
0.053164,-1.185518,9.758387,-0.001144,0.002674,-0.001173,-0.084717,0.491211,-0.535889,-0.277661,3.194408,9.272405,-0.016777,0.001408,0.004282,-0.831787,0.104492,-0.157715,-0.688009,3.895779,9.008137,-0.010434,0.00721,0.001781,0.114258,0.464111,0.835205,-0.239337,3.654336,9.136637,-0.003591,-0.002821,0.011066,0.516846,-0.227539,-0.291504,-0.84057,3.031849,9.285451,-0.015966,-0.006515,-0.000255,0.361572,-0.141357,-0.628418
0.055293,-1.183206,9.785902,0.005165,0.000108,-0.001621,-0.088135,0.485107,-0.545166,-0.236419,3.193274,9.279351,-0.000341,0.008688,0.003768,-0.83667,0.0979,-0.167236,-0.641571,3.886601,9.014955,0.004045,-0.003878,0.002057,0.111328,0.459961,0.840576,-0.212594,3.660684,9.157072,-0.016435,0.007174,0.010467,0.521484,-0.232422,-0.29126,-0.858538,3.005029,9.266593,0.004855,0.007262,-0.003856,0.359131,-0.141602,-0.624512
0.056066,-1.181633,9.799712,0.000243,0.003711,-0.000259,-0.081299,0.485352,-0.542969,-0.305701,3.204527,9.275842,-0.018677,0.008912,0.005316,-0.832275,0.099854,-0.162598,-0.669602,3.877371,9.050678,-0.019278,0.016091,-0.000167,0.11792,0.455566,0.840088,-0.249559,3.631437,9.121829,0.008134,0.000775,0.008213,0.518066,-0.22583,-0.292969,-0.853036,3.014065,9.293967,-0.00752,-0.010455,-0.000671,0.364258,-0.148682,-0.626953
0.069968,-1.176353,9.749461,0.000285,0.002018,-0.002342,-0.083008,0.481934,-0.544434,-0.230143,3.167492,9.255819,-0.005092,0.000694,0.003786,-0.833008,0.096924,-0.164551,-0.683322,3.844294,8.988217,0.005109,-0.009879,0.005078,0.114502,0.458008,0.836182,-0.226757,3.713369,9.174016,0.004186,-0.002813,0.010925,0.518799,-0.224854,-0.285156,-0.850484,3.000327,9.256246,0.014663,0.007464,-0.005103,0.362305,-0.142822,-0.62915
0.064917,-1.195926,9.785842,-0.004194,-0.0008,0.000956,-0.077148,0.484375,-0.547119,-0.276603,3.227047,9.258821,-0.000945,0.018322,0.005467,-0.82666,0.0979,-0.16748,-0.622471,3.921508,9.029025,0.004618,0.013359,-0.005394,0.11499,0.458252,0.845215,-0.25383,3.663035,9.144601,-0.031707,0.009298,0.007311,0.512451,-0.219971,-0.298584,-0.894215,3.09036,9.328125,0.010429,-0.006101,-0.004163,0.362061,-0.14209,-0.618896
0.041594,-1.170919,9.772309,0.003974,0.004166,-0.00152,-0.084717,0.487793,-0.539795,-0.279295,3.172963,9.263428,-0.029544,-0.006785,0.00612,-0.83374,0.101074,-0.162354,-0.710268,3.870954,9.02204,-0.022328,0.007145,0.005761,0.107666,0.465576,0.832275,-0.234084,3.626747,9.114447,0.005508,-0.002466,0.012268,0.514648,-0.229492,-0.29248,-0.81279,2.982988,9.255218,-0.038098,-0.008581,0.004052,0.35498,-0.13501,-0.629395
0.071366,-1.189134,9.76401,0.000518,-0.000418,0.000648,-0.088623,0.485596,-0.536621,-0.229078,3.19342,9.270339,0.006664,0.015062,0.003903,-0.835205,0.100342,-0.157227,-0.614935,3.883808,9.010905,0.00697,-0.012457,0.00262,0.112061,0.455566,0.836182,-0.229285,3.684822,9.171368,-6.5e-05,0.005516,0.009122,0.520508,-0.229492,-0.291748,-0.894476,2.977216,9.262301,0.035442,0.015664,-0.010374,0.358887,-0.148193,-0.630371
0.041913,-1.168909,9.786172,0.003974,0.004166,-0.00152,-0.085205,0.486328,-0.537842,-0.31868,3.222402,9.276137,-0.015162,0.006512,0.006081,-0.834717,0.102051,-0.160645,-0.664751,3.893771,9.04453,-0.009195,0.029435,-0.003216,0.116455,0.45459,0.83667,-0.245494,3.661402,9.115746,-0.004334,0.000481,0.009376,0.513916,-0.229004,-0.286621,-0.868112,3.077574,9.306775,-0.008652,-0.023334,0.000792,0.361816,-0.147705,-0.625488
0.067978,-1.175685,9.749556,-0.00339,0.0008,-0.000738,-0.081299,0.484131,-0.541992,-0.220633,3.167313,9.232957,-0.013685,-0.001522,0.002393,-0.829102,0.093994,-0.162109,-0.705114,3.864287,8.994813,0.005509,-0.017792,0.006538,0.11084,0.457031,0.841064,-0.227794,3.6808,9.162622,-0.008124,0.00146,0.012911,0.517334,-0.221924,-0.287109,-0.816132,2.978249,9.236585,-0.000615,0.016182,-0.003665,0.357178,-0.14502,-0.624756
0.062968,-1.180375,9.798883,0.001378,0.000418,-0.000703,-0.081055,0.481934,-0.543213,-0.289504,3.213749,9.268789,-0.001537,0.017738,0.007609,-0.831055,0.095215,-0.162842,-0.583858,3.936211,9.045498,-0.008296,0.013653,-0.003125,0.112549,0.461914,0.841553,-0.248795,3.635955,9.122204,-0.019833,0.00794,0.006937,0.519043,-0.232666,-0.292725,-0.933605,3.049766,9.318349,0.007659,-0.004456,-0.003793,0.359619,-0.137451,-0.625244
0.050635,-1.182921,9.772338,-0.001027,0.001456,0.000321,-0.081055,0.482178,-0.541504,-0.273761,3.183399,9.253089,-0.018286,-0.007054,0.002002,-0.83252,0.09668,-0.163574,-0.747963,3.845151,9.004981,-0.019655,0.010104,0.006008,0.117188,0.451416,0.835693,-0.224646,3.665997,9.11666,0.013754,-0.007442,0.009445,0.51709,-0.217773,-0.28418,-0.794712,2.976862,9.243569,-0.018868,-0.015995,0.002075,0.36377,-0.147949,-0.626465
0.062642,-1.188366,9.792345,-0.004781,-0.000547,-0.002462,-0.077148,0.48584,-0.540039,-0.221062,3.185561,9.275859,-0.007618,0.014913,0.006499,-0.827637,0.101807,-0.161621,-0.612525,3.876666,9.024749,0.015404,-0.01958,0.001319,0.114502,0.467773,0.84668,-0.215671,3.697925,9.179798,-0.003993,0.007617,0.010591,0.515381,-0.220703,-0.296387,-0.88369,3.016102,9.278665,0.028686,0.021091,-0.008151,0.360352,-0.133545,-0.621338
0.053644,-1.210052,9.787618,0.00594,0.004332,0.001196,-0.080566,0.481934,-0.54541,-0.317518,3.199546,9.253717,-0.003103,0.00731,0.004332,-0.829102,0.097168,-0.16748,-0.672116,3.906246,9.035565,-0.010425,0.035688,-0.003936,0.109863,0.461914,0.831299,-0.265484,3.658722,9.116288,-0.01699,0.007305,0.00978,0.518555,-0.22583,-0.296143,-0.872673,3.063386,9.291697,-0.013036,-0.022533,0.000557,0.359131,-0.139648,-0.636475
0.044442,-1.148824,9.749861,0.007887,0.003259,0.000675,-0.08374,0.486328,-0.544434,-0.220795,3.211195,9.254202,-0.01189,-0.000287,0.003293,-0.833252,0.101074,-0.166992,-0.745801,3.859272,8.990566,-0.001803,-0.016001,0.004102,0.115479,0.45874,0.833008,-0.230461,3.659163,9.138571,-0.004538,-0.007779,0.010234,0.512939,-0.22583,-0.283691,-0.812944,2.975831,9.258131,-0.003034,0.009933,-0.002823,0.364258,-0.142334,-0.632568
0.061031,-1.186439,9.792589,-0.007144,-0.001204,-0.003522,-0.081299,0.483887,-0.544189,-0.298213,3.190689,9.265892,-0.016877,0.015512,0.007708,-0.830566,0.100098,-0.167969,-0.582376,3.891346,9.020986,-0.007657,0.001156,0.002981,0.111816,0.459229,0.845215,-0.236931,3.661577,9.127769,-0.004907,0.008348,0.008516,0.519287,-0.22168,-0.290771,-0.916336,3.034519,9.310208,0.014818,-0.001763,-0.004827,0.357666,-0.143555,-0.617432
0.071493,-1.200138,9.792412,0.001172,0.004714,0.00116,-0.08667,0.485596,-0.541748,-0.271705,3.173338,9.25088,-0.001634,-0.002687,0.002572,-0.838135,0.098877,-0.161377,-0.719488,3.835359,9.005573,-0.014574,0.024315,-0.001156,0.115234,0.462402,0.840088,-0.246264,3.671095,9.145231,-9.8e-05,0.003736,0.010608,0.514893,-0.227295,-0.286133,-0.814567,3.024371,9.241874,-0.013512,-0.015486,0.000245,0.361572,-0.138916,-0.624512
0.043881,-1.177506,9.737729,0.001621,0.004131,-0.000962,-0.083984,0.485596,-0.544922,-0.248388,3.232131,9.278566,-0.003013,0.013164,0.004416,-0.834961,0.100586,-0.166016,-0.662191,3.89444,9.021504,0.015161,-0.020173,0.003896,0.112305,0.45874,0.844238,-0.232499,3.673891,9.155605,-0.012822,-0.002117,0.007159,0.517822,-0.222412,-0.28418,-0.861817,3.015596,9.285412,0.005981,0.020141,-0.00532,0.361084,-0.14209,-0.620361
0.059323,-1.194466,9.786056,-0.004211,-0.00204,-0.00228,-0.088867,0.487549,-0.545166,-0.291649,3.175873,9.263152,-0.031624,0.002678,0.007048,-0.837402,0.102295,-0.167725,-0.623713,3.908353,9.029262,-0.014974,0.020095,0.000274,0.112793,0.463135,0.843994,-0.242473,3.650401,9.130631,-0.001467,0.007444,0.010779,0.516602,-0.219727,-0.29248,-0.899297,3.033326,9.286327,0.001727,-0.014123,-0.001634,0.361328,-0.137207,-0.618652
0.055388,-1.189792,9.751343,0.004903,0.005169,-0.000101,-0.083984,0.482666,-0.554932,-0.243912,3.162417,9.244284,0.007042,0.007333,0.002118,-0.836182,0.095703,-0.175049,-0.719768,3.846361,9.008323,-0.008681,0.001513,0.001263,0.110107,0.46582,0.837402,-0.253894,3.675018,9.154589,-0.007049,0.001993,0.009046,0.51001,-0.230469,-0.287354,-0.818852,3.030786,9.282418,0.007728,0.001179,-0.004345,0.355957,-0.137451,-0.625732
0.043754,-1.161117,9.764478,0.003745,0.001385,0.001166,-0.080811,0.48291,-0.537598,-0.295255,3.255389,9.278996,-0.004952,0.007521,0.005843,-0.830078,0.097412,-0.158447,-0.622845,3.885353,9.01724,0.00284,-0.007484,0.002565,0.105957,0.453613,0.845947,-0.214277,3.651519,9.132393,-0.010938,-0.0038,0.0094,0.518555,-0.219971,-0.287354,-0.879466,3.030051,9.283852,-0.010391,0.000762,-0.001081,0.353271,-0.147217,-0.621094
0.048169,-1.210367,9.656002,-0.016125,-0.008393,-0.000971,-0.083496,0.483887,-0.544434,-0.242383,3.179121,9.237483,-0.027069,-0.001995,0.004912,-0.833252,0.099365,-0.16626,-0.6603,3.896039,9.030012,-0.008157,0.016142,-0.001143,0.112793,0.462158,0.84375,-0.256488,3.646493,9.14148,9e-05,0.017898,0.010437,0.521484,-0.212646,-0.288574,-0.828004,2.992578,9.266001,-0.000684,-0.010098,-0.00259,0.36084,-0.137207,-0.619141
0.046945,-1.290411,9.975272,0.060608,-0.005668,0.000355,-0.082764,0.478271,-0.541504,-0.315129,3.163334,9.306169,-0.023106,0.018536,0.00558,-0.832275,0.091553,-0.158203,-0.717299,3.871088,9.012918,-0.001425,0.001152,0.002328,0.115967,0.472412,0.841064,-0.219193,3.682754,9.095206,-0.008782,-0.009112,0.0088,0.518555,-0.21875,-0.289551,-0.877121,3.026843,9.305583,0.008825,0.014008,-0.003589,0.361328,-0.130615,-0.623291
0.162989,-0.933468,9.76804,-0.018934,0.038462,-0.000242,-0.082031,0.482422,-0.543213,-0.195252,3.137414,9.151126,0.037405,0.000952,0.00855,-0.830078,0.099609,-0.165283,-0.587141,3.896351,9.026085,-0.00961,-0.00019,0.004827,0.115967,0.464844,0.842041,-0.072702,3.504919,9.326182,-0.068803,0.002116,-0.006622,0.509277,-0.220947,-0.287598,-0.866248,3.061388,8.923981,-0.002558,-0.023297,-0.005866,0.36084,-0.13623,-0.625244
-0.100104,-1.08285,9.585819,0.032979,-0.018995,0.001488,-0.089355,0.496582,-0.544678,-0.263919,3.395733,9.338916,-0.016163,-0.006655,-0.00864,-0.838867,0.108398,-0.166748,-0.677782,3.835478,9.097591,-0.009593,0.003054,-0.004113,0.105225,0.463623,0.843994,-0.333629,3.350987,8.894271,0.167291,0.127314,-0.009402,0.519043,-0.229248,-0.28833,-0.459139,2.740801,9.208038,-0.112447,-0.013409,0.005931,0.351807,-0.136475,-0.62085
-0.290391,-0.768591,9.619469,-0.296327,-0.066894,-0.05817,-0.084717,0.490723,-0.548584,-0.306952,2.938929,9.298872,-0.141613,0.040229,0.039733,-0.832031,0.099609,-0.169922,-0.737399,3.678568,8.876366,0.075464,-0.006388,0.016385,0.113037,0.457275,0.837891,-0.661179,4.345879,9.266711,0.262729,-0.064329,0.052377,0.511475,-0.232666,-0.286377,-1.04702,2.657439,9.415958,0.207503,0.281197,-0.034336,0.364258,-0.144531,-0.626465
0.486512,-2.317322,9.847032,-0.064856,-0.107274,-0.031117,-0.094971,0.490723,-0.538818,-0.371115,2.986008,9.208453,0.14998,-0.024778,0.002582,-0.841797,0.099121,-0.162598,-0.625294,4.179166,9.001516,0.125278,0.010016,-0.034049,0.104248,0.460205,0.841064,0.071376,4.361267,9.214313,-0.312906,-0.168603,-0.006316,0.507324,-0.222168,-0.2854,-1.839305,3.971694,10.174599,0.283394,-0.145751,-0.048575,0.355713,-0.151367,-0.621582
0.164485,-2.564822,9.272879,0.233862,0.03084,0.101915,-0.09375,0.48877,-0.545654,-0.104098,3.844728,9.279519,0.102418,0.020226,-0.017129,-0.842773,0.103271,-0.171143,-0.622024,4.315237,8.972009,-0.130414,0.032018,0.020163,0.106934,0.462891,0.844238,0.172624,2.900272,9.119602,-0.469491,0.140525,0.003633,0.517578,-0.226074,-0.2854,-0.186455,3.709629,9.005752,-0.359906,-0.255125,0.078966,0.348145,-0.138916,-0.62207
0.017897,-1.44565,9.228489,1.201845,-0.201311,0.08517,-0.09375,0.471436,-0.545898,-0.292763,3.254874,9.334565,-0.318992,-0.00399,0.008241,-0.832764,0.103516,-0.161133,-0.71388,3.602061,9.182701,-0.273825,-0.050241,0.028378,0.115723,0.45166,0.843262,-0.608076,2.644286,8.85521,0.326557,0.096471,0.013388,0.506348,-0.219238,-0.288818,-0.476474,1.974818,8.622865,-0.433685,0.191205,0.040316,0.36377,-0.138916,-0.620605
1.316458,0.863146,10.613852,0.470851,0.000249,0.133117,-0.085693,0.467529,-0.546387,-0.14652,2.774585,8.915947,0.25387,0.018325,-0.046643,-0.827393,0.103516,-0.162598,-0.499142,3.220893,8.819496,0.104776,-0.007132,0.010992,0.104736,0.461426,0.838623,-0.579108,4.599526,9.3646,0.567578,-0.112309,0.04138,0.514893,-0.233154,-0.286377,-1.190897,2.034868,9.447379,0.441591,0.031125,-0.071636,0.351074,-0.13501,-0.625977
-0.619209,1.147965,11.172311,-0.108692,0.244621,0.2356,-0.083008,0.466797,-0.561035,-0.764287,4.698395,9.465693,0.255425,0.038979,-0.189553,-0.830566,0.099854,-0.174805,-0.827103,4.183627,8.995428,0.345417,0.13932,-0.073162,0.108154,0.460693,0.840088,0.027503,4.762536,9.274352,-0.431493,-0.091602,-0.002878,0.522217,-0.231934,-0.28833,-1.268547,4.336498,9.650866,0.492628,-0.029402,-0.084578,0.359131,-0.1521,-0.625
-0.803741,-1.371938,8.843605,-1.103222,-0.079545,-0.025485,-0.088135,0.480225,-0.544434,0.118773,2.644386,9.393711,-0.97526,-0.113287,-0.013539,-0.834473,0.096191,-0.168213,-0.928647,4.715947,9.237122,-0.131547,-0.045545,0.006196,0.119141,0.453613,0.841064,-0.012948,2.867194,8.967731,-0.572226,0.072908,-0.008065,0.519531,-0.219482,-0.293945,-0.641008,3.925183,9.618333,-0.610656,-0.130178,0.12989,0.364502,-0.14917,-0.625977
1.078954,-5.758971,10.050761,0.432937,-0.124614,-0.071765,-0.089355,0.474365,-0.553223,-0.311312,0.132046,8.719637,0.205856,0.071664,0.134335,-0.833496,0.098145,-0.170166,-0.385177,3.68639,9.100853,-0.437006,-0.128003,0.088464,0.116455,0.452393,0.837891,-0.468358,2.809563,9.038502,0.350897,0.048729,0.053727,0.51709,-0.217529,-0.293945,-0.76555,1.737819,8.582597,-0.260468,0.014888,0.005018,0.362305,-0.137939,-0.628906
0.609191,0.672979,10.915437,2.143224,0.490421,0.175559,-0.077637,0.4375,-0.561768,-0.22735,5.274629,9.517937,1.240065,0.011279,-0.167159,-0.83374,0.085205,-0.167236,-0.379605,3.021514,8.561799,0.018433,0.109296,-0.025968,0.112793,0.459229,0.838135,-0.509413,4.406083,9.227246,0.227994,-0.149045,0.041795,0.506348,-0.22583,-0.288574,-1.174855,2.709991,10.315366,0.347333,0.000588,-0.056463,0.356445,-0.135986,-0.629639
-0.641371,3.036863,11.681304,-0.777613,0.237526,0.148946,-0.080322,0.456299,-0.562988,-0.558572,5.289652,10.060744,-0.980082,0.015186,0.112374,-0.836182,0.099365,-0.168213,-1.199341,3.952789,9.1037,0.30723,0.126687,-0.06113,0.102295,0.462891,0.843262,0.236508,4.426344,9.415048,-0.355212,-0.026366,-0.013756,0.50708,-0.221191,-0.292236,-0.730251,4.099136,8.355595,0.306469,-0.288923,-0.072028,0.345215,-0.14502,-0.624756
-0.001629,-3.780365,8.90362,-0.60297,0.54925,0.046647,-0.06543,0.46582,-0.560059,-0.134189,0.128714,8.244688,-0.671838,-0.055961,0.008732,-0.831787,0.102783,-0.163086,-0.605162,4.974722,9.228166,-0.03745,-0.104529,0.005949,0.105469,0.462402,0.838379,-0.447134,2.959225,8.9912,-0.482663,0.113973,0.034867,0.518311,-0.218994,-0.289551,-0.636115,3.544436,10.128317,-0.64818,0.14293,0.215881,0.346191,-0.133057,-0.62793
-0.521191,0.760977,11.044066,0.499895,0.253289,0.163518,-0.062012,0.456543,-0.571045,-0.216671,2.223081,9.678141,0.944222,0.065317,0.100967,-0.833984,0.097168,-0.172852,-0.534008,3.666147,9.142142,-0.666862,0.026529,0.07114,0.114014,0.445068,0.848877,-0.360603,3.147255,9.050122,0.136721,-0.223233,0.034216,0.509277,-0.212891,-0.293945,-1.433861,2.42495,9.391236,0.232367,-0.133009,-0.00554,0.356445,-0.14209,-0.62085
0.160427,0.969168,10.464293,-1.826544,0.737304,-0.17082,-0.049561,0.480957,-0.54834,-0.176763,4.619777,9.400332,0.065155,-0.009864,0.144724,-0.83374,0.094482,-0.157227,-0.64094,2.76657,8.769619,-0.128219,-0.027032,0.010774,0.108643,0.450195,0.845459,0.334768,4.43539,9.244473,0.033431,-0.039302,0.044019,0.51416,-0.223389,-0.295654,-0.3393,5.92905,8.581566,0.94368,-0.445392,0.559237,0.340332,-0.155518,-0.624756
0.425009,-4.382734,8.00352,-0.385027,0.465069,-0.014404,-0.04248,0.495117,-0.550049,-0.550226,3.996842,8.885549,-0.001168,0.028432,0.03119,-0.834961,0.101318,-0.159668,-0.606444,4.056153,9.210026,0.270618,0.137661,-0.042538,0.110596,0.447998,0.841309,-0.233513,4.124989,9.060809,-0.621606,0.176272,-0.004273,0.511475,-0.210693,-0.290771,0.127949,5.909043,9.206063,-1.2847,0.171865,0.876513,0.34375,-0.145508,-0.630371
-1.589365,1.56126,9.969269,0.812615,0.644818,0.277721,-0.030518,0.475098,-0.566162,0.005587,4.163033,9.631098,-0.287767,-0.082878,-0.096943,-0.835205,0.092773,-0.163086,-0.94838,5.208772,9.07385,-0.175152,0.002375,-0.035381,0.107666,0.449463,0.8479,-0.449056,3.509174,9.435701,-0.771753,-0.055184,0.001443,0.509766,-0.208984,-0.300293,-1.605341,-1.326478,9.767662,-2.367411,0.266325,0.720733,0.342529,-0.107178,-0.627686
-0.865692,-0.716135,9.297925,-1.191256,0.098558,-0.273679,-0.029053,0.503662,-0.555176,-0.060722,1.333928,8.95755,-0.664314,0.094074,0.191588,-0.833496,0.10791,-0.165283,-0.481652,4.584965,9.096166,-1.121223,-0.06597,0.032138,0.108154,0.425537,0.842529,-0.264473,2.925636,9.249348,-0.692678,-0.079723,0.02291,0.514648,-0.197754,-0.295654,-1.906081,-2.466163,9.668807,0.740509,-0.554832,-0.468584,0.336426,-0.120361,-0.633545
-0.497311,-3.15478,8.935412,0.204527,0.529329,-0.059311,-0.020752,0.495605,-0.557617,-0.817338,2.58469,9.018205,1.004479,0.017264,-0.007896,-0.836182,0.101807,-0.164307,-0.995983,2.155792,9.180486,-1.112618,-0.011975,0.082689,0.116699,0.407715,0.853271,-0.048753,3.345033,9.073834,-0.365492,-0.081047,0.016841,0.508057,-0.19458,-0.308105,-0.074036,6.12415,9.894518,1.930905,-0.685981,-0.340414,0.330078,-0.144287,-0.62915
-0.781892,-0.535824,10.050998,0.687599,0.238662,-0.113058,-0.018311,0.479004,-0.568848,0.21995,5.903285,9.84545,0.020794,-0.061642,-0.051578,-0.835449,0.094971,-0.166992,-0.298604,2.672488,8.855196,-0.120654,-0.0774,-0.08701,0.109131,0.405518,0.844971,0.11761,4.592226,9.503128,-0.95188,-0.036407,0.077938,0.504639,-0.18457,-0.306885,-0.025035,8.729629,9.605921,-1.211095,-0.381495,0.400047,0.317139,-0.128174,-0.639404
-1.476167,-0.268371,10.020454,0.085517,0.383831,-0.179808,-0.013428,0.486816,-0.573975,-0.412617,1.951479,9.157847,-1.174894,0.070801,0.167944,-0.834717,0.113037,-0.16748,-0.597005,5.353733,9.627206,-0.420407,0.266753,-0.091446,0.10376,0.399902,0.852051,-0.184325,1.870263,10.477191,-2.275703,0.193316,-0.086105,0.505859,-0.164795,-0.311768,-0.506789,2.765045,9.156407,-2.980163,-0.302114,0.720946,0.30835,-0.084473,-0.64209
-0.585327,-1.339588,9.742277,0.15275,0.277748,-0.235093,-0.008057,0.4729,-0.570312,-0.148282,1.240469,8.497013,0.763315,-0.028861,0.021444,-0.834961,0.101074,-0.163086,-1.558366,3.563005,9.818057,-2.17814,-0.147183,0.080131,0.108398,0.36084,0.859131,-1.09021,-2.398756,9.091075,-0.513562,-0.022596,0.00919,0.503174,-0.154785,-0.307617,0.08872,-5.097764,8.787669,-1.888904,-0.56758,0.323108,0.298584,-0.055664,-0.643555
-0.972333,-0.442408,10.026906,0.495989,0.460686,-0.292376,-0.00415,0.468506,-0.566895,-0.539477,5.635247,10.090779,0.5245,0.113876,0.068922,-0.836182,0.10498,-0.157959,-0.237299,-1.902134,8.780574,-1.309854,-0.430645,0.276644,0.119385,0.337158,0.867188,-0.383456,1.37405,9.75781,2.035509,-0.612559,0.154338,0.503662,-0.177734,-0.30957,0.779131,0.951297,9.599171,3.18072,-0.106643,-0.059362,0.298096,-0.104736,-0.63623
-1.245922,-1.308346,9.975696,0.673212,0.46775,-0.18289,0.000488,0.454102,-0.581543,-0.290667,3.613094,9.361211,-0.983485,-0.094013,-0.017959,-0.836914,0.108643,-0.164795,0.058658,-0.168743,8.938589,1.717073,0.39882,-0.292431,0.108643,0.371826,0.858643,0.579939,4.440213,11.606511,0.445004,-0.335227,0.026935,0.496094,-0.17749,-0.310303,0.168449,8.414068,11.048867,0.777187,-0.293721,0.717489,0.290039,-0.119141,-0.640625
-1.018176,-0.559914,10.062928,0.663696,0.53915,-0.402988,0.01123,0.44751,-0.590576,0.136451,0.675143,8.531794,-0.03251,0.014657,0.076775,-0.832764,0.111084,-0.164551,-1.259241,4.614481,10.296619,1.506708,0.29389,-0.144023,0.098877,0.403076,0.859375,-0.592257,-0.203203,9.848523,-0.56,-0.173785,-0.105107,0.502441,-0.160889,-0.30542,2.526292,2.501895,10.801378,-1.631626,0.222154,1.24077,0.286865,-0.096924,-0.635254
-1.921052,-0.007584,9.638992,0.953588,0.398332,-0.503138,0.010254,0.421875,-0.598389,-0.374968,3.722384,9.588079,0.77444,0.03303,-0.017648,-0.838379,0.098633,-0.166016,-0.983978,3.172184,9.438678,0.119001,-0.323382,0.261845,0.115967,0.408447,0.866211,-0.478848,-2.185203,8.489934,2.137475,-0.85996,-0.223401,0.487305,-0.188721,-0.319092,0.120121,-2.278097,9.672388,1.336302,0.602032,1.908291,0.299561,-0.114746,-0.620117
-0.704756,0.698952,10.084631,0.548179,0.554332,-0.528359,0.035156,0.418457,-0.594482,-0.226633,5.001607,9.153814,-0.178591,-0.01953,0.090576,-0.821289,0.110352,-0.159424,-0.152293,0.159656,8.784592,1.210382,-0.046344,-0.113193,0.109619,0.42334,0.847656,1.364708,3.193268,7.611533,4.429132,-0.860571,-0.172837,0.487793,-0.245361,-0.307129,0.710826,2.696465,8.60646,3.265598,-0.075074,1.728111,0.283203,-0.185303,-0.624756
-1.999297,-1.277981,9.413974,0.700079,0.510975,-0.382643,0.033203,0.396973,-0.611328,-0.443201,3.153594,9.482096,-0.494741,0.016221,-0.041091,-0.829102,0.104248,-0.168701,-1.262961,2.336265,8.233533,3.639588,0.231582,-0.207263,0.105713,0.480713,0.83374,1.534427,12.370196,7.402193,1.35266,-0.031256,-0.213111,0.48999,-0.24585,-0.306641,1.611028,4.085003,6.800044,1.9022,0.877617,2.459832,0.287354,-0.239746,-0.610352
-1.912754,-0.013127,10.501008,1.248587,0.533258,-0.386333,0.036377,0.375244,-0.615967,0.905998,1.725476,8.507566,-0.090569,-0.151169,0.080185,-0.835693,0.106201,-0.15918,0.184548,11.828127,8.041534,2.12702,-0.10117,-0.750727,0.095947,0.542725,0.820557,-1.188394,8.318316,11.504734,-2.892241,0.073057,-0.323787,0.482666,-0.219971,-0.312988,-3.50645,7.342384,10.782249,0.970766,0.71859,1.525472,0.284912,-0.251709,-0.604492
-1.980557,0.828531,9.837994,0.282801,0.180766,-0.494582,0.041992,0.368896,-0.623535,-0.786286,3.902172,9.583707,0.812293,0.464377,0.409579,-0.829834,0.113281,-0.172363,-2.101002,9.138958,10.156042,-2.61504,0.427862,0.027292,0.085449,0.48877,0.845215,0.582809,0.667981,6.426469,-1.554296,-0.624468,-0.04576,0.47583,-0.209717,-0.325195,-0.590279,7.700846,10.145415,-1.299695,-1.150278,2.463862,0.247803,-0.247803,-0.614014
-1.092949,0.246716,9.509135,0.682124,0.998888,-0.515302,0.048096,0.362061,-0.624268,-1.367161,6.050242,10.389077,-0.280654,-0.085762,0.159155,-0.838623,0.125488,-0.166992,-2.334841,-0.604269,7.898194,-2.962609,-1.240114,0.232814,0.109375,0.418213,0.843994,1.124021,2.344551,8.981754,1.41088,-0.286217,0.395452,0.472168,-0.222412,-0.322021,0.867624,0.987514,7.292653,-1.436776,0.593989,1.066183,0.253906,-0.229736,-0.618652
-2.353773,3.143228,12.098645,0.309076,0.254093,-0.264502,0.053223,0.35791,-0.62207,0.743595,0.067126,8.617922,-1.474193,-0.156611,-0.135618,-0.835449,0.132324,-0.159912,3.341956,-1.313278,8.62554,1.027316,-0.219527,0.129127,0.11499,0.442871,0.839355,0.394026,6.046792,11.099008,-0.02638,-0.168586,0.176423,0.473145,-0.224121,-0.322021,-1.995166,2.043664,11.010691,0.927405,-0.35156,0.688154,0.240967,-0.240967,-0.613525
-2.309247,-1.615243,9.759683,-0.590553,0.919594,-0.70031,0.071533,0.369385,-0.623779,-0.302574,1.669161,8.696559,1.648348,0.279938,-0.063168,-0.835205,0.124512,-0.169922,-1.834432,4.969573,9.669425,1.675993,1.624377,-0.715563,0.082031,0.483643,0.843262,-0.055418,2.832192,8.233789,-0.939002,-0.448597,0.157,0.466797,-0.204834,-0.322021,3.591739,4.665004,10.455648,0.196364,-1.163592,1.03725,0.222168,-0.243652,-0.611816
-0.372568,0.596056,9.244983,0.870717,0.56933,-0.197252,0.078857,0.356934,-0.632568,-1.455087,6.553414,10.103433,0.155979,-0.127319,-0.287362,-0.838623,0.120605,-0.171631,-3.055027,6.555778,9.360642,0.244709,-0.719941,0.594677,0.104004,0.496094,0.842041,0.547085,2.130698,9.125844,0.55034,-0.732609,0.133988,0.455566,-0.225586,-0.328613,0.335512,4.224972,9.52608,0.048834,1.044808,1.073153,0.229492,-0.238281,-0.5979
-5.89311,0.138837,10.08647,0.055373,1.481779,-0.795673,0.0979,0.34082,-0.63208,0.781487,2.087782,8.966262,-1.24852,-0.233998,0.086043,-0.838135,0.114502,-0.162354,1.041399,4.517911,9.229446,-1.524725,-0.391001,-0.027313,0.106445,0.445801,0.846191,1.845934,5.213991,9.229186,0.867061,-0.574094,0.316938,0.448975,-0.224609,-0.331787,-1.587241,3.668284,9.605046,-0.10927,-1.25536,1.570086,0.196289,-0.255615,-0.60791
1.17787,0.680963,9.068346,0.780795,0.359907,-0.279284,0.111084,0.329102,-0.632324,-0.65899,1.630931,7.921971,0.845061,0.286831,-0.226755,-0.833984,0.109619,-0.169678,-0.876445,0.962815,8.06555,-0.230033,0.586667,0.294137,0.098877,0.452637,0.845215,0.991001,4.97777,9.941964,-0.882455,-0.385224,0.223301,0.445068,-0.2229,-0.339844,4.662088,3.820567,8.874755,0.398802,-0.47855,1.127221,0.185303,-0.251709,-0.604004
-5.876098,0.961994,8.62719,0.955366,1.252532,-0.67387,0.130615,0.320068,-0.644287,-0.528129,6.221347,10.427855,0.54438,-0.369062,-0.398278,-0.833984,0.105957,-0.170166,-1.052807,3.422608,9.741159,1.039912,-0.378508,-0.165042,0.106445,0.462402,0.84082,1.693181,1.826062,7.005077,-0.468823,-0.546995,0.135201,0.434326,-0.216309,-0.338379,-0.460469,3.711485,9.848561,-0.562703,0.400571,1.492912,0.185791,-0.249023,-0.603516
-0.95142,3.444761,9.32938,0.90141,0.684562,-0.155458,0.144531,0.299561,-0.651611,0.806361,3.835396,9.32597,-0.91564,0.034,-0.52031,-0.828857,0.094482,-0.179688,0.670432,5.872116,8.802624,0.244467,0.431435,0.233326,0.100342,0.468018,0.848389,1.68591,3.335731,9.98926,0.848646,-0.299752,0.37699,0.426514,-0.223633,-0.345459,1.894829,0.223819,6.643232,-0.791707,-1.212831,1.02157,0.155518,-0.236572,-0.60083
-6.292918,2.247561,9.630065,-0.652933,0.606658,-0.447097,0.151855,0.310303,-0.647705,-0.866567,3.170191,9.084884,0.657937,-0.069349,-0.456475,-0.833984,0.084229,-0.178955,-2.375092,4.223204,8.614022,-0.664048,0.081945,0.053757,0.097656,0.457764,0.844238,1.597646,5.039639,9.714741,-0.140631,-0.475644,0.072216,0.419678,-0.210938,-0.336914,2.928821,0.043221,9.064493,0.526206,0.112479,0.35837,0.150146,-0.236328,-0.604248
-2.070994,-1.129667,9.310654,-0.286439,0.335808,-0.24369,0.158691,0.320312,-0.637451,1.767191,5.260905,11.149921,0.025886,0.105109,-0.720361,-0.825439,0.075195,-0.172852,0.603455,3.658773,8.495122,-0.15547,-0.588837,0.159232,0.114014,0.461426,0.853027,1.183468,4.244171,8.613908,-0.711152,-0.517127,0.194665,0.406494,-0.215088,-0.348633,1.412047,5.865052,11.200979,1.942656,-0.415527,0.496051,0.142334,-0.256592,-0.58252
-6.052171,-0.120674,9.470481,0.205672,0.247292,-0.266553,0.171875,0.310059,-0.64624,-1.071463,2.022629,8.421465,-0.579589,0.624331,-0.151463,-0.809814,0.073975,-0.191895,-0.193405,4.807803,8.709034,0.124098,0.643951,-0.199771,0.100342,0.459961,0.849609,1.389827,5.528046,8.367163,-0.476314,-0.719701,0.291576,0.39917,-0.213135,-0.357666,2.427313,9.114209,10.026004,-1.039152,-0.771553,1.597329,0.116943,-0.250488,-0.593506
-2.268852,-0.612124,9.027971,0.358246,0.328471,-0.482345,0.165771,0.31543,-0.644531,-0.941033,2.226905,9.652623,0.685793,0.143864,-0.472087,-0.81543,0.07373,-0.198242,-2.673883,7.124802,9.40291,-0.405008,0.007117,-0.412591,0.097412,0.456787,0.848145,2.07051,6.472962,10.607398,-1.756887,-0.736058,0.349209,0.383057,-0.188965,-0.363037,2.505905,2.666594,8.125256,-3.15195,0.0628,0.788124,0.113525,-0.195557,-0.605225
-6.218313,0.504501,9.504635,0.763479,0.303722,-0.365085,0.17749,0.301514,-0.64624,0.553118,4.162288,10.190193,0.407694,0.456193,0.074081,-0.798828,0.078857,-0.202148,0.107738,6.465446,8.988613,-2.827494,-0.670202,0.154541,0.107178,0.408691,0.855713,1.657473,4.064536,8.173525,-2.320694,-0.752025,0.596426,0.374268,-0.153809,-0.374512,0.955126,1.973258,11.516416,-0.275436,-0.694324,0.750617,0.095703,-0.184082,-0.599365
-2.918707,1.227083,9.50521,0.466093,0.030895,-0.635145,0.17749,0.292725,-0.637695,-0.896115,3.107945,10.069283,-0.028463,0.723776,-0.241494,-0.791504,0.077637,-0.204834,-0.274731,0.732409,8.393618,-2.965624,-0.01942,0.032898,0.117188,0.366699,0.856689,1.806106,2.597621,9.698825,-1.836539,-0.983663,0.655043,0.350586,-0.137451,-0.375,3.377291,6.685763,10.567033,-0.915904,-1.147399,0.276846,0.078857,-0.156738,-0.604492
-5.416236,1.502741,9.49021,0.483217,0.049246,-0.442267,0.175293,0.278564,-0.639893,-0.924956,3.347765,8.400567,0.737896,0.671578,-0.137251,-0.780273,0.069824,-0.220215,-1.029359,0.934433,9.260992,-0.787854,0.085188,-0.117665,0.109375,0.361328,0.867188,2.459359,2.196566,9.361211,-1.810622,-1.044031,0.790734,0.336182,-0.101562,-0.378418,2.66141,4.319886,9.499911,-3.01965,-0.378029,0.237047,0.067383,-0.107666,-0.594971
-2.318953,0.827356,8.63709,0.316922,0.134584,-0.530582,0.182617,0.278564,-0.63623,-2.149295,5.019545,9.394664,0.322551,0.7985,-0.270505,-0.765381,0.073486,-0.234375,-1.36488,4.082616,10.539342,-1.270677,0.069567,-0.199805,0.105957,0.358154,0.868408,2.951446,1.26106,8.78498,-1.751354,-0.923919,0.699738,0.321777,-0.085693,-0.385254,1.396842,0.081081,8.708606,-2.431819,-1.022133,0.284317,0.051758,-0.052002,-0.590088
-4.526583,1.380071,8.655497,0.820337,0.270318,-0.484127,0.18457,0.258545,-0.642578,-1.231914,3.190122,8.142871,-0.29268,0.272335,-0.170861,-0.757324,0.066895,-0.249512,-0.926142,2.471733,9.594009,-2.55727,-0.450383,0.284285,0.116699,0.318115,0.858887,2.94841,1.135194,8.702715,-1.31301,-0.854781,0.760868,0.310547,-0.064697,-0.375977,3.843824,-0.343612,8.315672,-1.131794,-1.213719,-0.097091,0.031738,-0.031006,-0.588623
-3.019461,2.752331,9.118616,-0.317588,0.351076,-0.648389,0.194336,0.272461,-0.636719,-1.37387,2.158384,8.146629,0.513508,0.708985,0.080712,-0.745605,0.078613,-0.257324,0.040559,0.471762,9.620084,-1.658438,-0.142586,-0.069942,0.116699,0.299072,0.864502,3.262409,0.872187,8.642928,-1.389306,-0.997963,0.597028,0.294434,-0.038086,-0.375488,3.052472,1.699706,8.721436,-1.022345,-0.622632,-0.105595,0.024414,-0.008301,-0.572266
-3.738451,-0.168423,7.829566,-0.239403,0.430311,-0.608311,0.195557,0.275146,-0.63623,-2.735377,4.725451,8.196658,1.296184,0.087712,0.039575,-0.73999,0.071289,-0.266113,0.028026,1.318859,10.525908,-0.905978,0.320156,-0.086423,0.110352,0.305176,0.856201,4.293595,-0.913117,8.67304,-0.982357,-0.954044,0.500479,0.276123,-0.031006,-0.379395,3.016087,0.101298,8.105144,-2.086222,-1.237281,-0.068554,0.003906,0.036377,-0.561035
-3.514328,2.949606,9.518367,0.187416,0.530895,-0.188866,0.210693,0.27124,-0.634033,-0.330564,7.112935,8.837398,0.935824,-0.032914,-0.032849,-0.731445,0.067139,-0.267334,-0.826654,0.470922,9.209758,-1.062719,0.102618,0.166508,0.103516,0.291504,0.832764,4.604434,0.461322,8.569557,0.222899,-0.91775,0.506279,0.274902,-0.018311,-0.373535,5.115722,-3.317615,7.905011,-0.753015,-1.032621,-0.085204,-0.017578,0.04126,-0.559326
-4.49064,0.816192,8.717916,-1.353889,0.297355,-0.209538,0.208252,0.303223,-0.63501,-0.308319,5.773873,8.214578,0.163818,0.237957,-0.077238,-0.726807,0.078857,-0.281006,0.523755,1.616851,9.187728,0.017134,-0.020286,-0.091064,0.118652,0.323486,0.824463,4.457654,2.440752,9.049411,-0.983888,-0.813427,0.528489,0.251709,-0.007812,-0.376953,4.242616,1.201219,8.66646,1.026418,-0.85338,-0.423403,-0.020508,0.045898,-0.547852
-3.56455,-1.735192,8.062025,0.414939,0.336032,-0.082092,0.222168,0.291748,-0.633789,-0.978174,4.346766,8.032994,0.274926,0.449427,0.13625,-0.707764,0.085693,-0.291992,-0.243205,3.661805,10.262726,-0.910448,0.500062,-0.373336,0.099854,0.325195,0.802979,4.918786,-0.94997,8.470925,-1.811062,-0.954528,0.176783,0.23584,0.023926,-0.37085,4.923858,2.969038,8.643146,-1.710624,-1.161883,-0.118496,-0.047852,0.062744,-0.537598
-4.442572,3.898109,9.534919,0.227283,0.171163,0.070978,0.223145,0.282959,-0.626709,-1.404016,5.104464,8.699481,0.859607,0.196119,-0.056417,-0.700195,0.084961,-0.295898,-1.186254,0.251596,10.423863,-1.895265,-0.351941,0.21433,0.11499,0.328125,0.782471,5.778734,-2.134656,7.268797,0.241369,-0.900357,0.342158,0.213867,0.029541,-0.371094,5.771069,-3.45121,7.376515,-1.964426,-0.914278,0.19259,-0.060791,0.101807,-0.525879
-3.375059,1.150873,8.700697,-1.333786,0.216081,-0.012497,0.230225,0.315186,-0.624268,-0.109939,5.846377,8.651389,0.796352,0.286227,0.08557,-0.689941,0.102051,-0.304932,2.271798,-2.149441,9.403356,-0.533575,-0.227714,-0.071112,0.117676,0.346924,0.755859,4.829715,1.275766,8.643501,1.175428,-0.746401,0.195269,0.195068,0.021484,-0.378662,5.26595,-2.771568,7.714769,0.968351,-0.804179,-0.646197,-0.080322,0.093262,-0.518311
-4.686942,-1.391746,8.674864,0.009961,0.004242,0.2948,0.236572,0.315186,-0.628174,-1.680665,5.964559,8.337453,0.999316,0.274076,-0.101989,-0.672852,0.105713,-0.320557,0.142423,-0.118033,9.840578,1.18288,1.0647,-0.03258,0.108887,0.394287,0.717773,5.238229,1.327259,9.235117,-0.368398,-1.110061,0.028391,0.180908,0.043945,-0.379883,5.199881,1.201178,8.346461,0.64425,-1.131229,-0.414779,-0.10376,0.088379,-0.511719
-4.214504,3.314052,10.715804,0.289633,0.150947,0.331339,0.235107,0.310547,-0.616455,-0.52713,6.11749,8.393874,0.907654,0.25524,-0.005091,-0.659912,0.111572,-0.322754,-1.605926,2.993726,10.489908,1.076355,0.282315,-0.063279,0.125488,0.443604,0.665527,5.518426,-1.179158,7.772672,-0.098355,-0.756326,-0.109488,0.158691,0.050781,-0.369873,6.673389,-0.707342,8.187747,-0.339851,-0.984787,-0.39073,-0.113281,0.10083,-0.506592
-5.654939,0.679184,9.663244,-1.45885,-0.049854,0.083992,0.239258,0.34375,-0.605957,-2.312697,5.858188,8.07347,1.038781,0.664662,0.146675,-0.634521,0.126953,-0.337402,-0.762939,3.175027,10.287279,-0.163094,0.284665,0.061275,0.131592,0.470215,0.62085,4.849825,0.755646,8.278685,1.146711,-0.861578,0.008834,0.143066,0.044678,-0.381836,4.833136,-0.739393,6.886827,0.875592,-0.516246,-0.229853,-0.127441,0.092041,-0.498535
-4.026233,-1.35811,8.898973,0.35457,0.221614,0.267558,0.231445,0.327637,-0.612549,-2.203585,5.92442,7.339213,1.34603,0.349244,0.151893,-0.626953,0.124268,-0.364502,-1.69137,0.36223,10.082839,-0.628729,0.389474,-0.070495,0.138672,0.488525,0.557617,5.690651,2.44297,9.009973,0.563646,-1.138462,-0.177883,0.112061,0.05542,-0.379395,4.95059,1.844562,8.672393,0.492829,-1.279749,-0.540007,-0.142822,0.081543,-0.497559
-6.030522,4.056865,10.607823,0.206078,0.113584,0.388723,0.233398,0.334473,-0.606445,-2.435226,7.249054,7.889801,1.72111,0.604977,-0.048297,-0.602539,0.129883,-0.386475,-1.128432,-1.462001,10.101097,0.572061,0.167409,0.345152,0.135986,0.517822,0.48877,6.867669,0.932895,8.869957,0.193549,-0.740443,-0.180385,0.099121,0.068848,-0.376221,7.407771,-0.228125,8.194045,-0.255652,-0.79454,-0.37915,-0.164062,0.091553,-0.481934
-4.596589,2.332898,9.503223,-1.515589,0.178948,0.280195,0.250244,0.360596,-0.594482,-2.867397,6.837134,7.460495,1.505412,0.341114,0.064237,-0.563965,0.119141,-0.403809,-1.165509,1.829692,11.123993,2.064009,0.76045,-0.095363,0.138916,0.55835,0.393311,5.929724,0.412406,9.038021,0.323788,-0.534567,0.106328,0.06665,0.078613,-0.373291,4.971515,-0.61005,6.518787,1.267285,-0.512134,-0.84992,-0.169189,0.080811,-0.481445
-5.930043,-0.823684,8.301325,-0.892611,0.178798,0.242089,0.248047,0.368896,-0.587646,-2.78832,5.701507,6.218516,2.23096,0.405473,0.191735,-0.545898,0.0979,-0.430908,-2.82919,4.506974,11.355684,0.407833,0.771634,-0.044705,0.12085,0.563232,0.312256,6.781335,-0.066826,9.483911,0.248308,-0.995247,-0.335597,0.036377,0.092529,-0.370605,6.491768,2.951419,8.23946,1.062385,-1.218108,-1.055583,-0.200928,0.065918,-0.472656
-5.028282,1.613128,9.218267,-0.274959,0.191065,0.335033,0.253174,0.373779,-0.570801,-2.693743,7.740546,5.988513,3.146301,0.357864,0.016212,-0.517822,0.062744,-0.441162,-2.924493,0.783943,10.785419,-0.998199,-0.13811,0.461117,0.120605,0.554199,0.235596,7.72051,-0.188281,8.753611,0.358206,-0.353335,-0.132061,0.020508,0.089111,-0.365967,9.183623,1.379502,7.851381,-0.470674,-0.684044,-0.341838,-0.213135,0.07959,-0.467041
-5.618078,1.421175,8.540412,-1.354318,0.149881,0.267828,0.26001,0.397949,-0.570801,-3.789546,8.543885,5.574379,2.447256,0.467438,0.186312,-0.488525,0.033447,-0.477051,-1.520675,-1.692915,10.616642,0.435763,0.186264,-0.080333,0.114746,0.531982,0.15625,5.577937,-0.229876,8.953557,0.521886,-0.150284,-0.28926,0.004883,0.094971,-0.369385,6.283938,-0.963852,7.03748,0.063749,0.102808,-0.662098,-0.217773,0.069336,-0.466797
-5.234936,0.531578,8.577238,-0.537685,0.422718,0.411257,0.283203,0.406738,-0.567383,-3.747188,5.523249,3.760903,3.060199,-0.205975,0.217887,-0.452637,-0.009521,-0.494385,-2.477656,0.608227,10.468358,1.425082,0.619351,-0.051683,0.106445,0.517822,0.063477,6.780995,-0.36103,8.395147,0.660583,-0.834704,-0.590965,-0.024658,0.101318,-0.372314,6.620037,-0.727426,6.89258,0.952467,-0.869326,-0.504848,-0.22876,0.061035,-0.464111
-6.203516,2.445159,8.764183,-1.362259,0.102444,0.322233,0.290527,0.422852,-0.545898,-2.225831,7.830966,3.250849,4.970283,0.060994,0.009631,-0.435059,-0.088135,-0.489258,-3.018575,2.049959,10.892673,0.983976,0.119103,0.176235,0.095215,0.498291,-0.013916,8.060238,0.294712,7.721597,0.830466,-0.173356,-0.433123,-0.049072,0.095947,-0.373535,9.000618,1.11352,6.548046,1.208757,-0.197727,-0.422976,-0.241699,0.049072,-0.467529
-4.313047,-1.372474,6.607823,-1.23871,0.188971,0.198364,0.300293,0.440674,-0.535156,-3.206637,8.84459,2.583417,4.308052,-0.206309,0.286741,-0.414307,-0.153809,-0.48291,-1.45689,1.526317,10.565901,0.442626,-0.108041,0.057715,0.086426,0.468506,-0.074951,6.265568,0.896606,8.306699,0.512307,0.130553,-0.536539,-0.065918,0.097656,-0.371094,6.415514,2.048363,6.94321,0.449102,0.265548,-0.304444,-0.247559,0.042236,-0.471924
-5.299108,1.803804,8.031593,-0.407723,0.137307,0.274629,0.309082,0.446289,-0.522461,-1.728835,5.40017,-0.138301,5.093778,-0.35959,0.329174,-0.39917,-0.232422,-0.457275,-1.654582,0.353228,9.750431,0.474815,0.277861,0.041895,0.080566,0.442627,-0.124023,7.051351,0.649036,8.395973,0.317681,-0.579362,-0.478781,-0.095215,0.100098,-0.361816,7.250605,0.797253,6.558521,0.359926,-0.468987,-0.131335,-0.255127,0.044189,-0.461914
-4.853647,0.528626,7.7103,-1.792111,0.021804,0.070302,0.309326,0.463135,-0.507812,-2.385144,4.581422,-3.245249,7.678856,-0.37958,0.457404,-0.399414,-0.343018,-0.402344,-2.660817,0.934639,9.944253,1.098948,0.021987,-0.091597,0.067383,0.408447,-0.173584,9.439499,1.463871,8.726248,0.370288,-0.16643,-0.251348,-0.119873,0.099121,-0.374512,8.123501,2.477683,6.731365,1.186034,0.067483,-0.197779,-0.266113,0.030518,-0.460449
-4.600917,-2.156899,6.351637,-0.773828,-0.073673,0.176914,0.31665,0.486084,-0.493164,-1.789802,6.182848,-6.668531,9.557178,-0.590585,0.504895,-0.391602,-0.440918,-0.29834,-2.185359,2.636798,10.855312,0.388776,-0.344633,-0.166745,0.052246,0.385498,-0.221924,6.76738,2.23452,8.118193,-0.254551,0.959903,0.069426,-0.117188,0.096924,-0.371338,7.804024,4.80046,8.024106,0.104173,-0.15552,-0.177781,-0.278564,0.035645,-0.46582
-3.775241,0.557489,6.528505,-0.186576,0.07456,0.270214,0.322998,0.491943,-0.492432,-1.657342,5.617555,-9.768957,10.754874,-0.693756,1.155757,-0.392334,-0.518799,-0.142334,-2.331769,1.754371,10.713256,-0.597268,-0.45695,-0.009415,0.050293,0.357422,-0.246826,3.933075,0.707179,8.001036,-0.740778,0.152179,-0.137855,-0.139893,0.11084,-0.377197,7.726495,1.885904,6.61525,-1.30374,0.460378,-0.323514,-0.27002,0.045166,-0.465576
-4.433933,0.511735,6.783531,-1.344891,0.219269,0.458985,0.337158,0.504883,-0.466797,-0.06243,6.107229,-12.708122,12.336556,-0.63047,1.360176,-0.383789,-0.542725,0.088867,-1.843798,0.794147,8.521796,0.078761,-0.47108,-0.135269,0.032227,0.339844,-0.280273,7.291773,-0.656812,8.59761,-0.248505,-0.503014,-0.476925,-0.15918,0.10083,-0.374023,4.790336,-0.412257,6.634042,-0.166611,0.383011,-0.301954,-0.280762,0.055908,-0.47168
-4.718148,-4.842283,5.344538,-1.312413,0.124251,0.16418,0.332275,0.516113,-0.457764,0.593952,8.429175,-12.203556,11.622772,0.183107,1.156916,-0.375488,-0.481445,0.265869,-2.549434,2.772048,7.965067,1.122826,-0.400166,-0.327105,0.023193,0.30127,-0.316162,7.893459,1.002339,7.687909,0.352253,0.50268,-0.466815,-0.176758,0.09375,-0.384033,7.847602,1.794712,7.866435,0.604812,-0.631775,0.11036,-0.294189,0.038818,-0.467041
-3.982934,-2.264955,6.508038,0.804735,0.112457,0.38467,0.351074,0.503174,-0.462402,-0.756719,5.861207,-12.995839,9.236017,0.383321,0.753968,-0.341553,-0.380127,0.383789,-1.943354,4.707819,9.078538,0.13419,-1.116694,-0.452288,-0.000244,0.276855,-0.344727,4.582618,2.804324,8.280391,-0.248668,0.747059,-0.519686,-0.177979,0.091797,-0.375488,8.991657,3.084013,7.276047,-0.544404,0.749071,0.530574,-0.297607,0.050293,-0.476562
-4.500687,1.610799,7.998275,0.050738,0.102846,0.286444,0.352783,0.493652,-0.454102,-0.336342,6.491924,-12.635926,8.537801,0.414092,0.687299,-0.31958,-0.274414,0.456055,-1.219125,1.822817,11.215909,-1.260446,-1.285209,-0.13874,-0.011475,0.27002,-0.344971,5.945239,1.858092,8.338536,-1.074114,-0.342098,-0.286241,-0.195312,0.10376,-0.376953,3.893735,0.815551,7.058552,-1.195077,0.858863,0.418816,-0.284668,0.072998,-0.469971
-4.72659,-1.651148,7.391157,-0.846977,0.043498,0.676187,0.348389,0.505127,-0.452881,0.185468,8.23448,-9.552876,4.136969,0.946067,0.775459,-0.319824,-0.204102,0.4646,-0.419953,-1.168106,10.365149,-0.567565,-1.026434,-0.394217,-0.027344,0.261719,-0.363525,7.864446,0.515392,7.217293,-0.891951,0.467423,0.006689,-0.205322,0.108154,-0.384521,6.154181,1.18652,6.982696,0.196703,-0.532961,-0.033331,-0.298096,0.072998,-0.472168
-4.821039,-3.998996,6.166979,0.544482,-0.298866,0.576885,0.364258,0.491211,-0.459717,-0.003231,3.290486,-9.495406,1.587492,0.813769,0.872695,-0.298096,-0.172119,0.46167,0.162099,0.949878,8.902022,0.439495,-0.863656,-0.540628,-0.045898,0.23999,-0.390869,4.685999,0.972339,7.376713,-0.305449,0.783851,-0.207207,-0.208496,0.116699,-0.386719,8.376278,3.590546,8.818813,-0.591127,0.604746,-0.238761,-0.30127,0.079834,-0.480225
-4.608594,-1.588915,6.304471,1.101114,-0.38182,0.313587,0.350586,0.479492,-0.459473,1.378885,5.949601,-7.678452,0.243748,1.004242,0.314987,-0.304443,-0.158936,0.460205,0.272189,3.4323,8.86098,0.038093,-1.008608,-0.199613,-0.059082,0.23291,-0.397217,5.499175,1.730905,7.727177,-0.4209,-0.494053,-0.173741,-0.218018,0.115723,-0.393311,4.662995,1.144369,7.618083,-1.543705,0.512625,0.257921,-0.297607,0.109863,-0.478271
-3.662444,-2.174477,5.69012,1.16613,-0.415736,-0.141736,0.350342,0.458984,-0.465332,0.420363,1.151,-8.570106,-2.091227,0.91813,0.297697,-0.302734,-0.179688,0.443848,0.695761,2.331342,8.99404,-1.121764,-1.208465,-0.264693,-0.070068,0.231201,-0.409912,7.593394,1.265893,7.181383,0.108929,0.109791,-0.522539,-0.232178,0.104248,-0.394043,7.176425,-1.15522,7.39105,-0.727699,-0.409339,-0.113328,-0.303711,0.116943,-0.479492
-5.075716,-1.860395,6.172533,1.83218,-0.417199,-0.569197,0.335205,0.442627,-0.475586,1.768217,-1.041433,-9.931343,0.075944,0.913752,-0.172428,-0.300049,-0.170654,0.438721,1.217384,-0.970469,8.524168,0.014695,-1.329158,0.37994,-0.084961,0.213623,-0.418945,5.311667,3.118744,7.644196,0.253477,0.536381,0.175839,-0.240234,0.104492,-0.404297,6.78782,0.322595,7.958559,0.947454,0.542456,-0.049014,-0.307373,0.098877,-0.484619
-3.579815,-0.738156,6.988787,1.743197,-0.943229,-0.489213,0.323975,0.416992,-0.489258,0.865264,1.101954,-9.185204,-0.609529,1.180543,-0.014241,-0.297852,-0.173096,0.422119,1.604737,2.042447,10.388501,0.842939,-0.837567,-0.478805,-0.10083,0.197021,-0.433838,3.928881,1.305012,8.388272,-1.073379,-0.3032,-0.074668,-0.245361,0.110596,-0.394531,4.439766,4.740043,9.770253,0.392196,-0.116698,-1.000177,-0.322998,0.087646,-0.487305
-5.509434,-2.060333,7.006137,1.647948,-0.740643,-0.505201,0.297607,0.387451,-0.489014,0.973688,-1.172707,-11.045671,-0.08271,0.949919,0.131036,-0.30835,-0.177979,0.422852,0.554877,1.535543,9.503321,-0.654662,-0.882241,0.617748,-0.101074,0.194824,-0.432129,7.209332,-0.914465,8.103082,-0.528737,-0.735326,0.037056,-0.263672,0.123291,-0.393799,6.794125,1.761953,8.351943,-1.282198,-0.433298,-0.314685,-0.326416,0.103027,-0.474609
-2.383553,-2.113973,6.269627,2.151383,-1.745444,-0.389083,0.277344,0.347412,-0.506836,2.619253,2.863975,-8.294728,0.807374,0.927453,-0.291135,-0.298096,-0.177979,0.409424,1.880469,1.058774,8.664104,0.011942,-1.60543,-0.08718,-0.117676,0.190918,-0.438477,7.109007,0.782347,9.073238,-0.309798,-0.11305,0.434051,-0.273193,0.120117,-0.391602,6.095429,1.309684,9.638663,0.419363,-0.235989,-0.471171,-0.337158,0.099121,-0.471436
-2.605638,0.399979,7.981474,2.301448,-1.080728,-0.572029,0.254883,0.317871,-0.519775,1.891306,2.713563,-8.156221,-1.444592,1.303806,-0.098075,-0.303711,-0.185547,0.387695,2.736104,1.930687,10.837569,-1.297682,-0.572548,-0.13109,-0.130127,0.191162,-0.438232,5.700341,0.892664,9.831853,-1.770546,-0.022195,0.335134,-0.287842,0.145508,-0.391846,7.101305,5.159409,9.010659,-0.310273,-0.813916,-0.167021,-0.358154,0.095947,-0.460449
-2.005198,0.037145,9.640858,2.352655,-1.450119,-0.493636,0.227295,0.285156,-0.518555,1.92354,1.543397,-9.74274,-0.655301,1.207799,-0.017892,-0.30835,-0.192383,0.380371,-1.095343,-2.659126,10.904596,-2.626189,-1.535562,0.348946,-0.152832,0.219971,-0.428711,5.917774,-1.686312,8.932794,-1.293421,-0.592173,0.420768,-0.292969,0.170654,-0.370605,7.674388,1.627857,8.912933,-3.092348,-0.374271,0.301041,-0.377197,0.141602,-0.452637
-3.009174,-0.007773,9.818996,3.111055,-0.94089,-0.466058,0.216309,0.229492,-0.523438,1.777298,1.990346,-8.621949,-1.465839,1.420749,0.411124,-0.308105,-0.208984,0.357178,3.140603,-3.394608,8.696157,0.190316,-1.99538,0.202801,-0.168457,0.224121,-0.420166,6.091433,-0.194135,7.101407,-0.588442,-0.075309,0.521021,-0.30127,0.171143,-0.376953,5.844122,-4.056349,7.314951,-1.217529,-0.115217,-0.190991,-0.379395,0.164795,-0.431885
0.309195,4.801932,9.807149,2.419867,-1.097757,-0.237363,0.190674,0.198975,-0.514648,3.547181,0.29012,-9.084064,-1.408716,1.214739,0.029004,-0.320801,-0.212158,0.344482,2.80496,3.610497,9.57796,0.392472,-0.898185,-0.396424,-0.185791,0.203125,-0.432861,4.453783,0.703389,6.591326,-2.399878,-0.289478,0.44923,-0.309814,0.200439,-0.362549,5.131959,2.66697,7.861351,1.36982,-0.775538,-0.422207,-0.400635,0.131836,-0.436279
-1.616064,2.230407,9.684216,-0.966613,-0.464328,-0.224702,0.175293,0.203857,-0.509277,4.03366,1.755808,-7.734614,-1.505731,1.778578,0.356334,-0.33252,-0.235352,0.317871,2.192373,4.264335,8.260769,-2.764607,-1.795188,0.107683,-0.203125,0.232422,-0.412109,5.731322,-1.808575,5.928728,-2.92161,-1.01464,0.159162,-0.324219,0.228271,-0.333008,7.299655,6.300461,8.635403,-2.713519,-1.048319,0.778716,-0.412842,0.177002,-0.406006
0.497742,-5.244477,7.565301,0.477745,-1.067958,0.184004,0.163818,0.198242,-0.51123,3.595528,1.162435,-7.656118,-2.171629,1.349796,0.063168,-0.325684,-0.250977,0.286621,4.539149,-1.322248,6.047761,-3.915823,-2.08611,-0.093756,-0.227295,0.265625,-0.379883,6.981213,-2.086392,6.2381,-1.723355,-0.539097,0.351358,-0.331543,0.242676,-0.31543,6.069143,-3.236763,5.65944,-5.206857,-0.423087,1.023976,-0.420898,0.242432,-0.36499
-1.251149,2.061338,11.041541,3.79673,-0.141976,0.251213,0.157227,0.143066,-0.510498,4.568931,1.323038,-8.392461,-1.414999,1.601637,0.398074,-0.332275,-0.260742,0.257812,3.923877,-4.27088,7.443961,-1.894662,-1.15451,-0.420536,-0.241699,0.272217,-0.363525,4.375553,-3.43192,6.827063,-2.314379,-0.077078,0.099532,-0.345215,0.263916,-0.296875,5.066527,-8.740817,4.563605,-1.689978,-1.094592,-0.383705,-0.438477,0.250244,-0.342529
-0.588475,4.441034,9.607886,2.220158,-0.375975,-0.060725,0.151611,0.110352,-0.49292,3.211503,2.760602,-7.562877,-1.158941,1.467401,0.382961,-0.333984,-0.266846,0.244385,3.042852,-3.972758,8.269064,-1.181287,-1.731991,-0.206082,-0.265869,0.280518,-0.354248,4.985876,-6.70161,7.472992,-1.48059,-1.126835,-0.164626,-0.354736,0.272949,-0.270996,7.005629,-3.440976,5.76888,0.556924,-1.124312,-0.698571,-0.466064,0.23584,-0.330322
-3.98987,2.473986,9.397409,2.841509,0.363074,0.006687,0.146484,0.080566,-0.485107,4.070116,1.711021,-8.796727,-0.738785,1.555679,0.619084,-0.341309,-0.259521,0.222656,3.692912,-3.357802,7.335642,-0.333757,-1.472085,-0.224077,-0.272949,0.281738,-0.335693,5.41492,-5.627296,5.19027,-0.526043,-0.284246,-0.236451,-0.368652,0.282715,-0.268311,7.463107,-1.077465,7.32921,-1.257055,-0.861351,-0.184564,-0.471436,0.243652,-0.298828
-2.563952,8.800055,12.128908,2.311166,-0.262328,-0.332826,0.138916,0.039307,-0.466797,3.086488,3.326568,-8.720027,0.452471,1.37519,0.264457,-0.344727,-0.268066,0.218506,3.191974,-1.768251,8.513782,-0.980062,-1.660078,-0.671702,-0.297363,0.285889,-0.329102,2.634602,-4.359441,5.603753,-0.643026,-0.862083,-0.52238,-0.378906,0.284424,-0.254639,5.928262,-5.781361,6.88798,-2.324468,-0.291078,0.090316,-0.482666,0.266602,-0.282227
-3.935254,7.515031,10.378272,-1.122938,0.611913,-0.543262,0.146729,0.067383,-0.464111,5.209011,3.907191,-8.886277,-0.157267,1.375511,0.417115,-0.344727,-0.257812,0.209717,5.666528,-4.422221,6.416605,-1.176085,-1.734289,-0.014754,-0.307373,0.300293,-0.308105,7.76621,-2.589712,5.287727,-0.358633,-2.278593,-0.585577,-0.401367,0.273926,-0.22168,4.277745,-6.555401,5.218826,0.124367,-1.300729,0.449792,-0.488037,0.275635,-0.259766
-2.996604,0.775962,7.534046,-1.063456,-0.144004,-0.09881,0.148193,0.08667,-0.467529,4.530569,2.320114,-9.446425,-0.536223,1.184072,0.385376,-0.344727,-0.258545,0.1875,5.65308,-2.751075,7.074947,-0.219328,-1.029891,-1.21516,-0.323242,0.28418,-0.292969,9.270518,-1.381377,5.104652,-0.475668,-0.288083,-0.229552,-0.410645,0.273682,-0.213867,8.612862,-0.685003,5.346541,0.354804,-1.731524,-0.31476,-0.503662,0.258057,-0.227295
-3.695747,1.817306,9.182767,1.227053,0.299188,0.40829,0.143066,0.070068,-0.471191,6.039266,2.593604,-9.641783,-0.457219,0.849366,0.741667,-0.346191,-0.258789,0.172852,6.052258,-2.8133,7.662811,-0.907208,-1.423978,0.007621,-0.336182,0.293701,-0.27417,4.443321,-2.563191,5.5255,-0.432733,-0.4813,-0.254581,-0.420166,0.270264,-0.20459,7.438492,-1.752241,4.711477,-1.6228,-0.259848,-0.248874,-0.512695,0.269287,-0.206299
-4.552084,4.91652,9.373503,0.629926,-0.118805,0.457792,0.141357,0.063232,-0.450439,5.204812,1.610798,-9.001616,0.428211,1.046053,0.59497,-0.345703,-0.256592,0.178467,6.44508,-4.120897,7.12245,0.579943,-1.064865,-0.350393,-0.346191,0.281738,-0.275635,7.445139,-3.919435,4.662847,-0.01403,-1.99444,-0.605276,-0.437256,0.266357,-0.188232,5.367175,-5.617756,3.761937,-0.09347,-1.244338,-1.031182,-0.533447,0.245605,-0.187744
-3.988624,2.254575,7.914355,0.509617,-0.317344,0.076565,0.130859,0.068359,-0.447754,6.371512,3.755042,-7.462616,1.018106,0.855789,0.03573,-0.346191,-0.25,0.17749,6.46599,0.271326,7.528005,1.495685,-0.658426,-0.771776,-0.354248,0.268799,-0.287354,8.634446,-2.330642,3.33413,0.716621,-0.271082,-0.443071,-0.445557,0.256592,-0.183594,9.832701,-2.207514,3.57628,1.678169,-1.383345,-1.097579,-0.54541,0.222412,-0.181885
-3.173008,4.614943,8.235678,1.578389,-0.574206,-0.021611,0.123535,0.046143,-0.434814,5.14011,3.10511,-7.979568,0.539656,1.363965,-0.087621,-0.343506,-0.250244,0.179443,5.282127,0.391143,7.648395,-0.864867,-0.830793,-0.088775,-0.36084,0.275635,-0.267334,3.986393,-1.50561,5.085693,0.167233,-0.660189,-0.206853,-0.44873,0.25293,-0.18335,5.830182,1.339082,3.945476,0.259478,-0.039135,-0.836334,-0.551025,0.207031,-0.171387
-4.061398,5.705313,7.567212,0.273581,-0.417424,-0.120096,0.119141,0.042725,-0.432129,4.770947,2.863091,-7.724457,0.359885,0.807558,-0.014172,-0.33667,-0.256836,0.170898,6.095692,-6.354866,4.42669,-0.751158,-0.871565,-0.067353,-0.361328,0.275391,-0.266113,8.7181,-3.036098,4.735721,-0.769057,-2.190988,-0.517497,-0.470703,0.256104,-0.150635,5.667663,-1.450461,3.291764,-0.264551,-1.578477,-0.855064,-0.563232,0.192383,-0.149658
-1.9343,3.025187,6.36232,1.033153,-0.94545,0.455275,0.098633,0.03833,-0.422363,6.198529,2.934709,-7.219615,0.193143,0.573588,0.230437,-0.341797,-0.248535,0.170654,6.121883,-3.7735,6.508751,1.406934,-0.902887,-0.586627,-0.378174,0.270508,-0.265625,11.027204,-6.103952,2.708115,0.1137,-0.138765,-0.251527,-0.474854,0.249268,-0.146484,10.833276,-0.532002,2.116483,0.806048,-1.356924,-0.624879,-0.574219,0.186279,-0.128662
-1.879872,5.353125,7.319257,1.07372,-0.591039,0.955725,0.081787,0.028076,-0.414062,6.753658,0.89404,-8.211982,-0.070516,0.55281,0.560682,-0.342773,-0.249512,0.168213,7.947,-2.761902,7.470337,0.067729,-0.947883,0.073706,-0.384033,0.267578,-0.256348,4.885141,-3.032366,4.134697,2.048767,0.069724,0.010797,-0.478027,0.236084,-0.159424,8.897937,-0.620319,2.179683,0.443181,0.206023,-0.30941,-0.577881,0.176514,-0.12915
0.056974,4.712339,6.634953,1.068788,-0.863588,0.742533,0.068848,0.020752,-0.403076,7.015812,0.896312,-6.214278,1.284937,0.871329,0.582415,-0.345459,-0.240479,0.174805,6.415122,-3.529108,5.501516,1.248655,-0.574547,-0.038865,-0.391846,0.254883,-0.261475,8.013295,-0.021034,5.396827,0.309884,-2.412137,-0.479467,-0.488037,0.23291,-0.133057,6.151738,0.882107,3.378578,1.471718,-0.930352,0.003682,-0.585205,0.163574,-0.116699
1.026674,5.150443,5.963585,-0.277007,-1.724652,0.144219,0.043701,0.031494,-0.396973,7.708764,2.848778,-2.1546,0.615206,0.792581,0.250973,-0.341797,-0.231934,0.17334,7.405716,1.348958,5.907493,1.411296,-0.783144,-0.845932,-0.395264,0.240723,-0.265137,15.971818,-2.127885,3.792456,-0.371424,-1.185937,-0.696602,-0.510986,0.217041,-0.120117,12.423589,1.933656,2.416749,0.22741,-1.406782,0.923058,-0.580322,0.181885,-0.093506
4.987754,-0.703366,-0.122221,0.298435,-1.560217,0.481327,0.019775,0.036621,-0.374512,11.317605,-0.547448,-2.944996,0.584129,1.030754,0.150384,-0.339355,-0.233398,0.178467,8.42175,2.072393,5.904743,0.056391,-1.673749,0.280416,-0.411377,0.23584,-0.250977,10.317596,-1.704373,2.49645,0.948352,1.568482,-0.109791,-0.503906,0.220947,-0.147705,12.456669,-0.884476,1.334052,-0.356435,0.220191,1.481085,-0.578857,0.199707,-0.099121
5.351104,1.604986,-0.364176,0.152811,-3.445557,1.164391,-0.015137,0.047119,-0.347412,10.070392,1.017213,-2.801355,1.46922,1.827134,0.158743,-0.330566,-0.231689,0.182373,10.025696,-2.661384,4.539594,-1.075523,-1.531359,-0.45277,-0.418213,0.248535,-0.231445,4.434812,1.809937,4.023278,1.577933,-0.421589,-0.377069,-0.510498,0.203857,-0.147461,8.707767,-1.700724,1.726357,0.571729,0.23743,0.53425,-0.577148,0.214111,-0.102539
5.831893,-0.381381,-1.459507,-0.558801,-3.695577,1.538564,-0.058105,0.063477,-0.316406,8.722297,1.797911,-3.124426,0.725535,1.768623,0.245782,-0.330078,-0.236572,0.17627,6.968633,-3.265015,2.994033,1.955413,-1.337489,0.304197,-0.422363,0.236328,-0.230713,11.35918,2.33055,3.480867,0.212077,-1.836847,-0.227941,-0.526611,0.204346,-0.131348,7.955523,0.92961,2.653442,1.501184,-0.375283,0.471122,-0.573975,0.21167,-0.100342
7.053631,1.591731,-1.262336,-0.798954,-5.993252,2.200157,-0.118164,0.093262,-0.253906,9.978877,0.534882,-4.632576,0.847726,1.741299,0.091403,-0.334961,-0.235596,0.188965,8.888823,3.36885,3.70153,1.83907,-2.137526,-0.615032,-0.443604,0.223633,-0.227295,10.840729,1.031422,1.298406,0.040601,1.216747,-0.003366,-0.518555,0.197754,-0.148926,10.06709,2.517889,3.11662,0.507258,-0.417464,-0.060399,-0.583496,0.210693,-0.100586
10.632363,-0.204662,-3.120762,-1.733408,-7.187783,2.551603,-0.164307,0.132568,-0.172363,8.828119,2.732509,-5.059303,1.173792,1.77443,-0.228473,-0.335693,-0.238525,0.198486,9.198025,3.262909,4.027233,-0.312116,-1.879724,1.095395,-0.439697,0.233643,-0.211426,2.905465,0.350868,2.109391,-0.13301,0.150671,0.186848,-0.525635,0.208008,-0.143066,8.118228,0.858324,3.265935,-0.20788,0.36281,-0.045275,-0.578125,0.203369,-0.104492
16.933841,0.97212,-4.147905,-1.975032,-9.378544,2.599598,-0.174316,0.161133,-0.068848,8.835935,2.552466,-5.765698,-0.556767,1.712021,-0.634687,-0.320312,-0.251953,0.192871,8.483168,-0.915293,2.795115,-0.487084,-1.682458,-0.130902,-0.456299,0.242188,-0.189697,8.638869,-2.394322,1.457333,-0.271482,-2.430693,-0.353545,-0.533936,0.209229,-0.11377,5.779825,-1.072217,2.670988,-0.239077,-0.622237,-0.692162,-0.592285,0.202148,-0.087402
23.417783,-1.665081,-6.252222,-2.558871,-10.366814,2.805445,-0.161621,0.184326,0.0271,8.610984,0.077652,-5.032499,-1.176282,1.57403,-0.688977,-0.328125,-0.261963,0.191895,9.382819,-0.859788,2.940201,1.064884,-1.390604,0.435705,-0.452393,0.248291,-0.187988,12.434517,-2.544272,1.349008,1.075957,-0.052948,0.03558,-0.53833,0.196289,-0.123779,9.711463,-2.19514,1.654025,0.622252,-1.112517,-0.425101,-0.59375,0.197998,-0.076904
30.025377,-2.03931,-6.141982,-1.414848,-10.51019,3.415847,-0.116699,0.185303,0.088135,11.043984,-0.279152,-2.190765,-2.435344,1.549438,-0.24046,-0.333984,-0.277832,0.179443,9.402448,-0.006387,2.878614,0.414426,-1.219496,-0.218532,-0.460449,0.23877,-0.182617,5.531545,-0.204026,4.013171,0.589195,0.120656,0.176172,-0.541016,0.193604,-0.124512,8.708027,0.08557,2.617644,1.461745,-0.217932,-0.820971,-0.602295,0.168701,-0.077393
27.084195,-3.338046,-5.120699,-0.307142,-8.847765,3.966108,-0.08252,0.165771,0.0979,10.672635,-2.627155,0.029087,-3.818118,2.231116,0.895959,-0.347168,-0.29834,0.159912,8.771675,-0.98227,1.902974,0.098648,-1.129501,0.341389,-0.468018,0.238037,-0.169678,9.582455,-2.573689,1.991785,-0.840282,-2.466096,-0.510122,-0.560059,0.195312,-0.088135,8.414105,2.306685,3.138161,0.284047,-1.132141,-0.171793,-0.609375,0.165527,-0.053711
26.757704,-2.331299,-3.220262,1.111918,-7.181387,3.726834,-0.081299,0.150146,0.048828,13.986429,-2.493051,3.459232,-3.928949,2.158145,1.493517,-0.362305,-0.305908,0.115967,9.785104,-0.796222,1.066869,0.9058,-1.888679,-0.265156,-0.479736,0.236816,-0.162842,14.039403,-4.838631,1.060973,0.622837,-0.416173,-0.388407,-0.575195,0.188232,-0.095703,12.264674,-2.295662,0.6888,-1.077682,-1.06293,0.578031,-0.612793,0.181396,-0.032715
20.492462,-1.891836,-2.248661,2.536994,-4.889679,3.993359,-0.125,0.136719,0.02002,12.662149,-2.225519,1.614816,-5.180432,3.634457,2.258509,-0.394287,-0.3125,0.070068,11.493164,1.347283,-2.325016,1.116062,-1.322457,-0.369496,-0.498291,0.22876,-0.166016,7.255959,-1.067151,2.808148,2.851189,0.476874,-0.681969,-0.575195,0.162354,-0.125244,10.029616,-5.105622,0.499972,0.77979,0.103644,0.337743,-0.625244,0.18457,-0.044922
19.316334,-0.235424,-1.850881,3.191159,-3.498346,3.450101,-0.201416,0.138428,-0.004883,10.340879,-3.232474,3.790824,-4.940984,2.600692,1.831613,-0.429443,-0.317871,0.02124,6.280405,2.445551,-4.012816,1.628641,-1.910079,-0.735608,-0.505127,0.212402,-0.164307,9.114363,1.943652,-0.944311,1.866863,-2.11379,-1.083169,-0.589844,0.144043,-0.102051,8.91137,-2.920603,0.72157,1.906089,-0.939486,0.432439,-0.616455,0.185303,-0.040283
16.340345,0.437046,-0.943087,2.864571,-2.842423,2.124849,-0.269043,0.155029,-0.00708,13.964191,-4.186068,2.473157,-3.830635,1.888889,1.413936,-0.449219,-0.313477,-0.005127,11.70303,1.624983,-4.742299,0.915982,-4.730707,-0.193173,-0.52417,0.208496,-0.115967,15.123068,1.266379,-4.366518,1.402607,-0.938842,-0.667107,-0.601807,0.125,-0.097656,11.758872,-1.257209,-1.19684,1.890222,-0.672486,0.14796,-0.621582,0.186035,-0.036621
15.8855,-1.880316,-1.903909,4.013576,-0.418045,1.95988,-0.342041,0.179443,-0.026123,16.924036,-0.525981,2.139847,-4.106155,2.384594,1.328161,-0.480957,-0.314697,-0.052734,16.292902,-0.917886,-5.04299,1.338297,-3.262804,-0.260494,-0.541016,0.199951,-0.090576,8.20029,-0.53128,-4.392533,1.155517,0.390023,-0.147154,-0.603027,0.126465,-0.116943,10.042612,-0.131993,-0.048815,2.043135,-0.36813,-0.767219,-0.62915,0.167236,-0.040283
11.852749,1.149031,-0.695206,4.353196,0.544329,0.307958,-0.401855,0.187744,-0.064209,10.74896,-1.536974,1.368203,-5.01071,2.582043,2.717862,-0.525391,-0.289551,-0.126465,10.51271,-1.4946,-3.923483,1.760267,-1.51089,-0.930237,-0.555664,0.192139,-0.098389,5.652512,-1.14868,-1.657423,1.618266,-2.345685,-0.059311,-0.617432,0.109131,-0.09375,8.726659,0.357659,-0.016062,1.880033,-1.283073,-1.201399,-0.636475,0.149902,-0.033447
12.445989,-0.982072,-1.850055,4.413386,1.725439,-0.238397,-0.448242,0.185059,-0.112549,8.918072,-1.343374,-0.420571,-4.690082,1.688037,2.147802,-0.559082,-0.263184,-0.176514,8.624718,-0.748158,-5.540293,1.640087,-2.54062,0.112815,-0.57251,0.17749,-0.080078,11.297001,0.816079,-1.878524,1.174828,-2.923178,-0.107149,-0.634521,0.115234,-0.062744,7.610324,2.686676,1.777836,2.201495,-1.514774,-0.918148,-0.645264,0.119629,-0.011719
12.085731,1.229273,-1.450863,5.093788,1.826889,-0.542419,-0.484619,0.170898,-0.166992,7.972108,0.076026,0.63589,-5.491587,0.50387,2.533108,-0.600586,-0.213623,-0.214111,10.725864,-0.714188,-6.074961,0.3055,-2.433698,-0.362601,-0.594727,0.182861,-0.063721,10.11506,-2.744755,-2.924391,-0.454349,-1.520088,0.277695,-0.649902,0.119629,-0.0354,7.853744,3.657018,2.267674,0.513374,-2.365587,-0.266443,-0.654541,0.123535,0.019775
10.746263,0.3797,-1.835767,4.034809,1.805024,-1.48637,-0.507812,0.136719,-0.209961,11.65452,-0.959325,-0.763707,-5.584072,0.023231,1.479138,-0.637207,-0.171387,-0.23291,10.609373,-3.426227,-5.567301,0.946069,-2.171824,0.284282,-0.617432,0.184082,-0.037109,5.14005,-5.383392,-2.157638,2.034226,-2.513322,0.155385,-0.6604,0.111572,-0.010986,9.328867,-2.058374,0.916511,-0.256844,-2.215374,0.442489,-0.658203,0.134033,0.070068
7.107257,1.472685,-0.91242,4.242028,0.897393,-1.570518,-0.527832,0.091309,-0.243164,8.144261,0.270935,-0.146579,-5.381924,0.507959,1.597905,-0.666748,-0.116211,-0.263184,9.609294,-1.50235,-3.353286,2.484061,-1.609504,-0.907792,-0.642822,0.160645,-0.036377,8.625561,-0.052246,-2.157354,3.935217,-4.471973,0.297188,-0.670898,0.112061,0.048828,4.138905,-2.164935,1.37667,3.067504,-1.890942,0.422357,-0.658447,0.140381,0.08374
9.995062,1.073082,-1.234949,3.077023,-0.109059,-2.121057,-0.563477,0.036133,-0.22876,10.001906,-0.11503,0.289766,-5.974619,-0.527493,0.931399,-0.712891,-0.06665,-0.24707,9.908927,1.177619,-2.139857,2.132584,-1.889981,0.033751,-0.662354,0.157471,-0.00708,13.345206,4.707767,-0.938729,1.962608,-3.47039,0.423156,-0.673584,0.116455,0.096436,5.463539,3.294585,0.956737,2.62844,-4.092654,1.447123,-0.64624,0.171143,0.155518
11.880337,0.50927,-1.233824,3.059959,-0.792326,-2.043956,-0.591064,0.0,-0.219482,12.58888,-0.883697,0.240115,-4.998164,-0.15677,0.955525,-0.739746,-0.003906,-0.246582,12.968193,-0.011483,-1.979006,0.734371,-2.046113,0.025642,-0.682861,0.146729,0.021973,10.47838,1.224988,-0.52685,0.118028,-2.045227,0.947729,-0.676514,0.130127,0.122559,10.00398,0.063688,-1.572894,-0.303628,-3.109919,1.539613,-0.624512,0.192627,0.210449
10.885486,0.501209,-1.30284,2.798991,-0.771824,-1.494124,-0.610352,-0.032715,-0.192383,10.579611,-0.272549,0.813359,-4.906479,-0.299321,0.354701,-0.760498,0.043457,-0.230469,12.333489,-3.401518,-0.915281,1.323916,-1.019866,0.524685,-0.695068,0.155273,0.03125,8.87176,-3.081055,-1.211817,2.395516,-3.020351,1.034126,-0.678711,0.156738,0.153564,5.891332,-5.462938,-3.409226,1.174853,-2.449775,0.212012,-0.615967,0.199463,0.237061
10.886112,0.993817,-0.91352,2.651213,-2.348709,-0.838611,-0.652344,-0.055664,-0.136963,11.010157,-0.285966,0.600875,-4.400309,-0.810385,0.247303,-0.787842,0.073486,-0.198975,10.364042,-2.464987,-0.060365,3.658468,-1.543694,0.461157,-0.718506,0.170654,0.041992,12.651578,-0.633108,-2.803755,4.186839,-2.874581,1.07929,-0.666748,0.190186,0.179443,7.474932,-2.439146,-4.988517,4.104952,-3.790827,-0.603379,-0.607422,0.214844,0.268066
12.633491,0.128093,-1.792065,2.464449,-1.592081,-0.738363,-0.675293,-0.066895,-0.103271,12.302041,-0.611775,0.037158,-4.100705,-0.358928,0.61933,-0.799805,0.114746,-0.182129,14.004062,2.868438,1.321653,4.656506,-1.307342,0.727618,-0.723877,0.187988,0.047607,9.360305,3.821522,0.930427,2.465494,-1.223268,0.948708,-0.662842,0.217529,0.189941,10.87578,0.980571,-3.506746,3.186961,-2.376169,-0.672428,-0.594482,0.224609,0.290771
9.564278,1.732611,-0.671669,2.055575,-3.008648,-0.809329,-0.714844,-0.058838,-0.036377,7.471043,-0.439523,1.062393,-2.713261,-1.03974,1.351541,-0.823486,0.174316,-0.147461,10.846047,8.563344,1.168468,2.572418,0.656871,0.045573,-0.738281,0.197266,0.030518,9.068094,3.658724,2.578967,-1.244536,-2.769081,0.647828,-0.663086,0.215088,0.250244,6.659145,1.890036,-2.954701,1.673857,-1.851568,0.665326,-0.578125,0.251221,0.310791
13.637303,-1.687546,-1.749345,1.789695,-2.595168,-0.010152,-0.734619,-0.05249,0.033203,13.306835,1.017055,-0.325077,-2.780323,-1.421534,1.181449,-0.828369,0.212158,-0.0979,6.502046,5.882483,3.961368,-2.241039,-0.798999,0.750711,-0.752686,0.200439,0.07373,13.879871,-3.681246,0.448083,-0.596647,-1.29198,0.477171,-0.665039,0.220215,0.271973,10.136725,0.225055,-4.123464,-1.140886,-3.03991,0.820812,-0.562744,0.244873,0.369385
9.904389,0.224578,-0.788077,2.914224,-2.534371,1.142362,-0.762695,-0.006592,0.104004,9.42841,0.476068,0.063937,-2.32358,0.224149,0.950746,-0.83667,0.246582,-0.076904,9.93122,-6.917548,-0.571038,-1.607332,-2.238441,1.792675,-0.753174,0.230225,0.125977,6.956489,-1.904616,-0.019855,3.776102,0.967761,0.862787,-0.664307,0.256348,0.221436,11.434711,-7.291635,-5.785512,0.121035,-0.216277,-0.237027,-0.570801,0.23999,0.367432
11.003038,-1.157439,-1.507046,2.676091,-2.002108,1.955965,-0.793213,0.068848,0.168701,7.497791,0.982691,-0.464495,-1.864237,-0.82064,0.674869,-0.850098,0.275879,-0.031982,7.425305,-3.600307,-0.304211,5.369079,-0.717517,-0.411308,-0.759033,0.244873,0.103027,4.663987,1.864337,-0.408066,2.580483,-1.552151,0.488042,-0.646973,0.269531,0.240967,3.59767,-2.965641,-3.477564,4.04998,-0.463708,-1.575714,-0.580078,0.249756,0.341553
11.249907,0.381265,-0.862265,3.456553,-1.664795,1.959026,-0.80249,0.139893,0.20874,7.772723,-0.367079,-0.128598,-1.415723,-0.827282,1.22194,-0.847168,0.305664,-0.000488,9.025058,8.87053,2.555554,4.818385,-1.789751,0.650891,-0.746826,0.270264,0.119141,12.39527,1.811156,0.121392,0.137722,-1.354084,-0.030798,-0.656982,0.272461,0.257324,9.731389,2.565826,-3.641459,3.033811,-1.734571,-1.106279,-0.566895,0.249756,0.356934
11.095513,-1.339684,-1.047911,3.292789,-0.241032,1.901792,-0.81543,0.224365,0.208252,7.671924,0.358546,-0.5827,0.22478,-2.064564,1.288957,-0.845215,0.349609,0.048096,9.296953,8.983844,2.698008,-1.305946,-0.902515,0.622193,-0.756592,0.280762,0.147461,9.648929,-0.237805,-0.545422,-1.353124,1.566032,0.358803,-0.656494,0.275391,0.239014,9.992421,3.986055,-3.794029,0.210561,0.373007,-0.349291,-0.586182,0.249268,0.346924
11.719654,-0.622056,-1.42219,4.793552,0.845495,2.471034,-0.821533,0.31543,0.161377,10.028349,1.718694,-0.313626,0.230492,-1.699364,0.798081,-0.841553,0.371338,0.087402,6.966618,-3.007534,-0.594574,-4.149746,-1.093705,0.73083,-0.745117,0.280029,0.197266,4.337418,-4.037576,-1.746203,0.057516,0.265582,0.082027,-0.668213,0.272949,0.229492,6.866876,-1.525189,-4.214438,-2.333059,-0.059761,-0.358149,-0.581055,0.226562,0.361572
11.500361,-0.414295,-1.672281,4.621769,2.091931,2.385251,-0.821533,0.397461,0.072266,7.920016,0.365399,-1.168202,1.071278,-1.791386,0.848533,-0.835938,0.397217,0.115723,8.174744,-9.096274,-4.156045,2.061063,-1.768052,0.759453,-0.740479,0.300781,0.206543,10.641393,-3.272728,-2.643502,2.078709,-1.075292,-0.00215,-0.665283,0.275146,0.227539,7.92765,-5.97057,-6.428892,1.06735,0.15586,-1.157905,-0.602051,0.209961,0.34375
14.832537,-0.201959,-2.899384,5.820615,3.005612,2.573812,-0.807129,0.475342,-0.056396,11.623841,2.153303,-0.380807,1.973551,-1.970713,0.218913,-0.839111,0.425781,0.139893,9.756181,3.779101,-2.57288,4.392884,-0.468673,-1.474389,-0.75708,0.292725,0.186768,11.996695,-0.659017,-3.553172,1.143014,1.320935,-0.350935,-0.677246,0.269287,0.194336,9.065174,1.547127,-4.520829,3.171824,0.240515,-1.80328,-0.618652,0.194824,0.321289
14.909662,0.330907,-2.957725,5.41651,4.001924,2.497192,-0.757568,0.510742,-0.206055,10.169296,2.140427,-0.584462,0.590203,-0.522169,0.617351,-0.826904,0.437744,0.151855,8.045141,6.778755,-1.135321,-0.054161,-1.357498,0.992132,-0.742676,0.308838,0.217041,6.6778,-0.656655,-4.730776,-0.173022,1.208997,-0.437372,-0.687988,0.262451,0.168701,11.739433,4.095488,-4.696629,-0.114645,0.401291,-0.117197,-0.625732,0.191406,0.320312
13.017054,0.94504,-3.26874,6.114038,4.866663,1.60782,-0.693359,0.503662,-0.378174,7.869477,-1.025678,-0.607093,1.234694,-1.223894,0.395442,-0.817871,0.459717,0.165039,10.18775,-1.96263,-4.423546,-2.508323,-1.280084,-0.502129,-0.741943,0.282959,0.252197,9.784004,-3.185904,-6.114518,0.119482,-0.647529,-0.608606,-0.697998,0.245361,0.182373,8.511831,-2.203745,-6.824734,-1.483339,1.602088,-0.163756,-0.640869,0.175293,0.291504
12.525668,0.801094,-2.844049,4.87472,4.271372,1.147074,-0.632812,0.468262,-0.522705,10.847104,1.237095,-0.148834,0.859758,-0.73404,0.320546,-0.825439,0.468994,0.169922,9.799232,-5.994978,-6.681036,1.47834,0.07961,-0.070726,-0.751465,0.286621,0.241455,13.050136,-2.502694,-5.522253,1.79608,0.830147,-0.54652,-0.702393,0.243896,0.153809,7.616966,-3.792337,-6.544532,1.267119,0.066288,-0.851648,-0.652344,0.163818,0.289307
11.951711,-0.010655,-3.04385,5.6746,4.798597,0.403203,-0.530273,0.382324,-0.645264,9.5925,-1.785249,-0.940913,-0.356276,-0.219173,0.773541,-0.805664,0.480713,0.182373,9.014463,2.114843,-5.780421,2.480477,0.119902,-1.734759,-0.764404,0.275391,0.224121,8.570569,0.929908,-3.65022,0.617184,1.237357,-0.527762,-0.720459,0.242676,0.13208,11.999657,1.880106,-6.190288,2.211295,0.47534,-1.380478,-0.664551,0.153564,0.270264
11.902867,0.608791,-2.597964,4.846789,3.986272,0.764155,-0.453125,0.303467,-0.73877,10.720526,-0.895326,-1.000221,0.092145,0.58288,-0.376739,-0.822021,0.475098,0.168701,9.28042,1.161271,-5.098555,-1.699895,-0.069198,0.309525,-0.768799,0.274414,0.241211,10.814355,-2.439235,-5.634932,-1.622982,-0.297306,-0.818598,-0.71875,0.2229,0.137207,9.344147,3.576918,-4.870396,-0.63476,1.125524,-0.982716,-0.683838,0.135498,0.256104
7.895677,0.832172,-2.06002,5.043177,4.28336,-0.313909,-0.361328,0.182617,-0.818359,8.249165,0.233358,-1.306027,-1.572605,0.871507,-0.196479,-0.831543,0.458252,0.160645,10.653394,-7.02225,-5.683021,-1.432297,-0.244165,-0.387351,-0.764893,0.256348,0.240967,13.040724,-6.758336,-5.459844,-0.704864,1.043932,-0.53045,-0.736572,0.209717,0.124023,10.810892,-1.406229,-7.051199,-1.293973,0.053805,-0.618978,-0.68335,0.116699,0.251465
6.810259,1.35679,-1.731805,4.138599,3.013056,-0.566187,-0.294678,0.082031,-0.849365,9.540249,-1.240754,-1.672554,-1.916582,0.31606,-0.89801,-0.849854,0.431396,0.173828,11.240597,-4.964817,-5.496783,1.183962,1.55524,-0.950147,-0.794922,0.241699,0.205322,7.973119,-7.425695,-4.303415,1.872339,1.347399,-0.260226,-0.74707,0.202881,0.09375,11.348028,-1.768349,-6.275653,0.724839,1.100209,-1.053958,-0.706055,0.09668,0.232422
5.473129,1.379277,-0.543015,3.062625,1.414654,-1.327316,-0.265869,-0.006592,-0.848145,11.071346,-0.064325,-1.734586,-2.434902,1.181026,-0.952394,-0.870605,0.394531,0.170898,7.650924,-3.67092,-4.448134,0.939052,1.203014,-0.855349,-0.80957,0.223389,0.180176,8.735487,-2.016888,-2.752994,2.639259,-0.224594,-0.797213,-0.75415,0.194336,0.075439,9.582797,0.496975,-4.821101,1.288067,0.778064,-0.715728,-0.717041,0.082764,0.220215
6.662412,-0.237055,-1.211883,2.866929,1.19649,-1.377477,-0.230713,-0.08252,-0.841797,9.408771,-0.95759,-3.950105,-3.571262,1.273685,-1.216867,-0.888428,0.352295,0.171143,10.384197,-2.571659,-4.040405,1.273509,1.008269,-1.061082,-0.816895,0.210449,0.146973,11.35012,-0.063568,-2.397257,-0.01942,0.753374,-0.794686,-0.764404,0.175293,0.06958,11.218486,1.644722,-4.174725,0.978133,0.771639,0.077732,-0.724609,0.092285,0.197754
3.353395,1.444345,-0.370633,2.710951,-0.230113,-0.33712,-0.240723,-0.148193,-0.816895,11.304505,-0.007846,-1.668161,-3.747422,1.467124,-1.477045,-0.904297,0.303223,0.161621,8.7172,-1.115856,-3.376763,0.218288,1.801299,-1.232047,-0.831787,0.184082,0.117188,8.184681,-5.539583,-3.917903,-0.481634,1.267814,-0.756921,-0.770996,0.160156,0.047363,9.134777,0.860086,-3.486599,-0.400338,1.382769,0.668523,-0.730469,0.0979,0.178955
4.228429,1.427293,-0.479487,1.273036,-1.7707,-0.549482,-0.291992,-0.190674,-0.784668,11.646502,-0.9903,-3.382615,-5.176916,2.077191,-0.924972,-0.924316,0.251709,0.135742,9.542256,-3.311426,-4.663987,0.515495,1.056338,-0.998851,-0.839111,0.161377,0.093018,8.02405,-4.211404,-4.091088,3.272271,0.164522,-0.995773,-0.788574,0.1521,0.024414,8.86411,-4.362676,-5.13918,-0.232187,0.733049,0.729221,-0.730713,0.111084,0.165527
4.120187,0.958448,-0.681935,0.686889,-3.619026,0.419335,-0.384521,-0.198242,-0.71582,10.769146,-1.159569,-4.974066,-4.935621,2.164336,-0.769779,-0.932861,0.2146,0.10498,10.234163,-2.429553,-3.592895,1.696321,2.095126,-1.558065,-0.858398,0.141113,0.03833,10.547375,2.566786,-2.546242,2.862697,0.122846,-0.895562,-0.797607,0.131104,0.011475,8.441765,-2.641227,-3.979453,2.82408,1.229748,-0.062434,-0.749756,0.125488,0.127197
8.047005,0.71262,-1.83736,0.038882,-4.750448,1.026832,-0.50415,-0.186523,-0.634521,11.686824,1.328998,-4.738877,-6.526489,1.975492,-0.290625,-0.9375,0.183594,0.082031,9.633814,-0.058591,-2.535445,1.637375,1.812849,-1.522431,-0.865723,0.109863,-0.003662,10.436124,0.983314,-0.710004,-0.339609,1.085326,-1.162862,-0.806152,0.106445,-0.015869,8.842799,2.226295,-3.323305,1.766692,0.472623,-0.306165,-0.759033,0.12207,0.119141
11.098873,0.998283,-2.297479,-1.004499,-7.360186,1.700248,-0.645752,-0.133301,-0.486816,12.432697,-1.121168,-9.326534,-7.429766,2.289559,0.518549,-0.93042,0.188477,0.052979,10.794547,-0.896955,-3.622105,0.617269,1.729926,-1.086713,-0.868652,0.085693,-0.047852,8.495411,-3.75972,-1.64391,0.097904,1.114397,-0.949753,-0.80957,0.090332,-0.036133,10.66476,-1.059716,-3.704373,-0.174295,1.075907,-0.092429,-0.767334,0.122559,0.091309
15.901246,0.05851,-4.190986,-1.264756,-8.258428,2.202946,-0.776611,-0.079102,-0.28418,8.78908,2.161419,-8.471239,-7.297174,2.231077,1.095917,-0.921387,0.195557,0.029297,8.776477,-2.165748,-2.049382,0.417256,2.017492,-1.501614,-0.865723,0.053467,-0.086914,8.420726,-3.816268,-2.143951,1.888104,0.6501,-1.069766,-0.820557,0.065186,-0.056396,7.3561,-3.078346,-2.930107,0.940117,1.538982,-0.809119,-0.773193,0.103271,0.058105
23.457816,0.92291,-6.082325,-2.24149,-10.891867,1.99311,-0.869141,-0.01001,0.008301,9.564883,2.67463,-7.792551,-8.892223,1.382082,1.343604,-0.918213,0.223389,0.032471,9.213741,-4.697271,-2.318205,0.838758,1.008563,-0.733776,-0.871094,0.037598,-0.114258,9.522377,-2.015834,-0.52868,1.972895,0.634279,-0.953309,-0.827148,0.040039,-0.068115,7.973534,-1.393215,-2.075866,1.709421,0.472429,-0.979215,-0.787842,0.081543,0.042236
29.654325,-0.282561,-7.386715,-2.31412,-10.442976,0.397354,-0.857422,-0.005371,0.311279,10.906897,1.163951,-4.748655,-7.954263,1.48921,1.330399,-0.913818,0.242676,0.039307,11.154228,-4.059981,-1.978087,2.002643,1.663074,-1.511921,-0.869141,-0.001709,-0.14502,9.624767,-3.240159,-0.77883,0.750036,0.743649,-1.037613,-0.831055,0.016357,-0.087891,10.185455,-0.75322,-1.481753,1.620638,1.053143,-1.030888,-0.796875,0.05957,0.023682
30.207141,-0.953974,-6.327265,-2.042988,-9.673962,-0.362752,-0.756592,-0.036133,0.574707,13.05675,1.012373,-0.688906,-7.796735,2.000782,1.643014,-0.902832,0.269287,0.042236,9.12882,-2.434973,-1.98959,1.835905,1.73011,-1.240019,-0.864258,-0.038086,-0.182129,9.049244,-4.939806,-1.213193,1.879562,0.764894,-1.253438,-0.834229,-0.02002,-0.104736,8.909557,-0.70157,-1.09695,1.2342,0.958217,-0.52568,-0.804443,0.043945,-0.003418
24.945067,-0.271101,-4.23346,-0.926958,-7.603777,-1.658207,-0.608398,-0.076416,0.755371,12.078114,-3.124876,1.980035,-7.639275,2.545528,3.009129,-0.882568,0.333252,0.037354,9.353283,-1.535721,-1.206621,1.771212,0.847929,-1.407564,-0.858398,-0.077881,-0.196289,9.37211,-0.997351,-0.932447,3.688026,0.458656,-1.321819,-0.84375,-0.055664,-0.113525,9.772927,-2.399091,-1.672653,1.455362,0.861539,0.082159,-0.803711,0.041992,-0.022217
23.946551,-1.411237,-3.308238,-0.500862,-6.29314,-1.353629,-0.450928,-0.100342,0.881104,11.786621,-1.972899,-0.722313,-6.760997,2.300819,3.432826,-0.85498,0.40332,0.051758,10.68049,-0.579727,-2.083208,2.730966,1.147173,-1.507172,-0.857178,-0.115234,-0.209473,9.631618,2.85373,-1.104246,1.638456,0.492289,-1.794546,-0.845703,-0.101562,-0.124268,8.929839,-0.956293,-1.821526,2.695129,1.050673,-0.187854,-0.815674,0.034912,-0.047363
20.123598,0.724561,-2.490354,0.458879,-4.874041,-1.955813,-0.291992,-0.108398,0.942871,9.627122,-2.054941,-1.638363,-8.46201,1.670273,4.009993,-0.80835,0.467285,0.0979,10.439267,7.676236,-0.691404,4.199128,0.944085,-2.675482,-0.846924,-0.193604,-0.220947,10.066848,1.693051,-2.965495,1.327148,0.177315,-2.649134,-0.847168,-0.171143,-0.132812,9.53965,0.755037,-1.35362,1.405081,0.750483,0.466409,-0.81543,0.04126,-0.067139
21.050849,-0.517841,-2.798818,-0.263019,-4.8885,-1.354882,-0.140869,-0.113037,0.980225,9.346138,-6.065091,-4.048124,-6.942501,-0.261148,2.006933,-0.774414,0.479248,0.193604,12.774823,14.020117,-0.288501,2.660677,1.399113,-3.152605,-0.822998,-0.27832,-0.239258,11.351678,6.23965,-2.299513,3.888026,0.412899,-2.99113,-0.844971,-0.247803,-0.128418,9.620027,-2.463259,-1.838312,0.637556,0.793663,1.447169,-0.818604,0.063477,-0.092041
15.368531,-1.114407,-1.280081,0.967193,-3.183482,-0.638095,-0.04126,-0.075195,0.991943,13.934713,-1.254839,-1.382541,-5.870888,-0.69403,1.957214,-0.742432,0.483887,0.271729,10.908541,7.187391,1.785907,-2.429878,0.909249,-2.256868,-0.80542,-0.309082,-0.272461,9.575149,11.298394,-0.475345,2.866147,1.147505,-2.094535,-0.824463,-0.303467,-0.138184,9.179219,-1.427206,-4.354295,3.278392,0.442088,-0.048396,-0.825928,0.052002,-0.111816
13.02276,-0.351502,-0.54564,1.044884,-2.418639,-0.804678,0.029053,-0.036865,0.989502,9.533164,-1.101591,-2.80397,-7.639967,-0.618395,2.090811,-0.710938,0.464355,0.370361,11.218731,-6.546334,-1.230849,0.39532,0.652091,-1.169189,-0.779053,-0.332031,-0.27832,9.260818,8.54449,-1.531252,0.335904,0.526657,-2.024851,-0.82251,-0.345703,-0.143311,10.595951,5.894765,-3.185375,3.991544,0.415293,-2.19959,-0.825195,-0.007812,-0.125
12.175398,-0.890743,-0.904186,1.586484,-0.931638,-0.878427,0.061035,0.003906,0.968262,12.804751,-3.157341,-4.18838,-7.057967,-1.718361,1.775967,-0.671143,0.419434,0.456543,10.978158,2.863199,-1.303822,6.275389,1.18197,-3.212941,-0.758301,-0.426514,-0.243896,12.015587,5.893539,-0.397306,0.705509,0.542613,-1.437806,-0.80835,-0.37207,-0.15918,10.036318,7.792864,-1.852549,1.427862,0.509942,-2.470501,-0.838623,-0.068359,-0.133057
14.006883,0.334382,-0.425051,1.760232,-0.379685,-1.323463,0.079102,0.050293,0.97583,11.132877,-1.212821,-2.72643,-6.77496,-0.372093,1.792827,-0.647461,0.365967,0.534424,10.897115,14.418798,0.408773,2.884955,1.500654,-1.723456,-0.730957,-0.464844,-0.248291,10.568335,5.496986,0.760773,-0.836288,1.306384,-1.73618,-0.796143,-0.407471,-0.187744,10.931301,4.996291,-1.23893,-0.035492,0.551189,-3.279057,-0.830322,-0.138916,-0.154297
12.125107,-0.884304,-1.208853,1.748526,0.522375,-0.633592,0.060303,0.082764,0.972656,10.519015,-5.34733,-3.870953,-5.644417,-1.839544,0.01711,-0.623779,0.276611,0.599609,9.148364,10.494888,2.386256,-3.086903,0.148777,-1.243277,-0.719238,-0.471924,-0.28125,9.802506,0.105056,-0.184931,-0.463439,0.964614,-1.936373,-0.775879,-0.445557,-0.210693,9.854053,3.598134,-0.611006,-0.081668,1.188698,-2.481131,-0.827148,-0.198975,-0.183594
11.74804,-0.272964,-0.62174,2.228269,0.414156,-0.332833,0.048828,0.130859,0.965088,13.590656,-0.815525,-1.95718,-3.316902,-0.345068,0.052939,-0.615479,0.223389,0.619385,12.855571,-4.110682,-2.676405,-2.910618,-0.119504,-0.707078,-0.710693,-0.467041,-0.311523,9.406036,1.667024,-0.063525,2.358568,1.035127,-1.423485,-0.758789,-0.482666,-0.206787,8.649584,2.642751,-0.648883,1.275322,0.665039,-1.720608,-0.816895,-0.250488,-0.186279
9.549365,-0.055428,-0.584202,2.291574,2.094029,-0.970972,-0.000732,0.167236,0.949707,6.964107,1.815167,-2.647874,-5.838005,-1.125843,-0.416172,-0.597656,0.115967,0.65332,8.541064,-3.856216,-1.945074,3.49842,1.42785,-1.966589,-0.679932,-0.517334,-0.28833,7.479506,6.8998,0.269665,0.937045,1.083857,-1.357918,-0.736816,-0.511475,-0.212646,9.676507,8.028948,0.108201,2.598369,0.775478,-1.7355,-0.807861,-0.301514,-0.190186
11.115868,-0.69524,-1.369843,2.51105,2.114445,-1.432753,-0.051514,0.21875,0.923584,11.481761,-3.079793,-3.634078,-5.652312,-1.420722,0.262139,-0.572754,0.029785,0.667725,8.54884,7.188775,2.851872,2.04823,0.5117,-2.127691,-0.651367,-0.560791,-0.266113,7.010605,4.524248,-1.181403,-1.288249,0.584757,-0.815832,-0.726074,-0.524414,-0.237061,8.288869,9.314988,0.927812,-0.4564,1.156704,-0.56385,-0.796631,-0.307861,-0.21167
9.352957,0.442498,-0.951476,2.685792,3.027256,-2.060433,-0.118408,0.260742,0.905518,6.783326,0.655859,-0.391996,-4.41152,-0.933311,0.069157,-0.552246,-0.036621,0.681885,8.87617,3.567595,0.467457,-2.424078,0.262945,0.432488,-0.656738,-0.543457,-0.303467,8.14835,3.635051,-1.744819,-0.25192,0.289601,-0.472691,-0.720703,-0.529785,-0.246826,7.457171,5.184687,-0.599286,-0.600224,0.589114,-0.299071,-0.793945,-0.318115,-0.230957
9.881552,0.413007,-1.139941,2.261819,2.486398,-2.592009,-0.183838,0.279297,0.881836,9.769796,1.007376,-0.065502,-5.451344,-1.746163,0.71794,-0.530762,-0.125244,0.691895,9.267129,-1.590482,-0.906414,-1.163117,1.286527,-1.515219,-0.62793,-0.554932,-0.340576,8.427369,5.871064,0.447469,0.107485,0.572357,-0.418884,-0.717285,-0.536865,-0.252686,9.531434,7.56332,-0.602151,0.539666,0.535786,-0.177096,-0.788086,-0.323975,-0.244385
8.476695,-1.274365,-1.27135,2.052399,2.20541,-2.056233,-0.237549,0.294189,0.84082,10.45737,-3.969843,0.628259,-4.625992,-0.246282,-0.594292,-0.526367,-0.210693,0.654297,6.638245,3.726785,-1.672867,1.940685,1.053131,-0.192635,-0.620361,-0.56665,-0.323486,8.369501,6.742234,-1.45426,0.240351,0.671547,-0.218518,-0.714355,-0.542969,-0.273193,9.090379,7.914333,-0.211451,-1.045338,0.769157,0.717459,-0.794189,-0.298584,-0.260986
5.84167,0.767156,-0.446438,2.645482,0.681361,-0.388052,-0.259521,0.345703,0.828613,8.499279,-1.877485,1.092266,-0.908472,0.182662,-0.866621,-0.533936,-0.227295,0.652344,7.769289,7.434107,-0.340308,-0.342331,0.504758,-0.797462,-0.613525,-0.575684,-0.352295,6.522643,8.689256,-1.140894,-0.004393,1.040168,0.351894,-0.709961,-0.538818,-0.288818,9.696426,3.785407,-1.215852,-0.3845,0.722541,0.704516,-0.795166,-0.281982,-0.293701
6.736027,-0.167062,-0.906721,1.74904,0.629373,-0.092244,-0.278564,0.368896,0.814209,8.004713,1.201642,2.818173,-2.224255,0.639226,-1.407879,-0.539062,-0.286621,0.626221,7.106736,2.185791,-0.07416,-2.457846,0.591283,1.253695,-0.627197,-0.535645,-0.385254,5.701008,7.982088,-0.466514,-1.500148,0.31416,0.966365,-0.726562,-0.504883,-0.315918,8.042951,8.46674,-0.247758,1.527921,0.889027,-0.106309,-0.785889,-0.297607,-0.298828
6.462372,0.706015,-0.554604,2.216838,-0.21693,-0.127591,-0.286377,0.393311,0.804688,7.653586,-2.93062,1.351529,-1.307661,0.470706,-0.610097,-0.552734,-0.325439,0.611572,7.127013,-0.94676,-0.739138,-0.648241,0.500622,0.386189,-0.636963,-0.520508,-0.407227,7.543427,5.338368,-0.563256,-1.569379,0.397095,1.280139,-0.738525,-0.469238,-0.33667,8.222833,10.993411,1.051832,-1.366688,0.288573,-0.168565,-0.790527,-0.287354,-0.317383
6.848329,0.311826,-0.713206,1.277391,-0.385376,0.320736,-0.289062,0.420654,0.802002,9.414515,0.416811,2.143926,-0.119059,1.169841,-1.006234,-0.573486,-0.337402,0.5896,8.164141,3.768533,0.155283,0.247806,1.122061,1.229002,-0.642578,-0.50415,-0.421387,6.262293,4.036004,1.057975,-1.230868,0.596292,1.949228,-0.73999,-0.421875,-0.363281,7.888173,4.719986,0.939343,-2.857965,0.593199,-0.236694,-0.785156,-0.266357,-0.342773
8.459793,0.221297,-0.891498,1.562437,-1.184255,0.154174,-0.266357,0.442383,0.814697,8.379146,-0.681561,0.633958,-1.353291,1.190318,-0.285155,-0.589844,-0.371826,0.565186,6.455054,4.431663,0.761076,-1.670021,0.883588,1.548076,-0.645508,-0.466797,-0.458984,6.272156,2.307161,1.830964,-1.449247,-0.067252,1.600034,-0.759277,-0.37793,-0.375732,5.478148,1.864131,1.950855,-0.749145,0.262791,-1.278175,-0.764404,-0.287842,-0.358154
8.235609,0.284809,-0.692598,0.930484,-1.865256,1.225916,-0.243408,0.484863,0.830811,10.68622,-0.547666,0.005821,-0.518084,1.887689,-0.875125,-0.629395,-0.382324,0.527832,7.016081,1.598269,-0.244993,-1.450586,0.443396,1.843507,-0.666016,-0.420898,-0.486328,8.319655,1.268485,2.30679,-1.329258,-0.231428,1.751646,-0.781006,-0.334961,-0.374268,6.756296,5.434083,2.671952,0.245304,-0.692314,-0.407659,-0.778076,-0.29834,-0.344482
12.659154,-0.549719,-1.152017,1.372543,-1.570738,0.894764,-0.217041,0.498047,0.839111,8.919925,-0.089664,-0.810067,-1.666708,2.106079,-0.719604,-0.657227,-0.435791,0.473145,7.383571,2.104978,1.077285,-1.146771,-0.013048,1.537864,-0.691162,-0.383545,-0.490967,8.190383,0.806896,2.648224,-0.964745,0.129833,1.897168,-0.796875,-0.278809,-0.385254,8.656703,6.89953,3.198759,-1.307353,-0.226117,0.339598,-0.785889,-0.279297,-0.345215
8.137721,1.164102,-0.37029,1.143102,-1.210518,0.248297,-0.200684,0.51123,0.847412,10.360353,-1.253284,-2.001938,-1.551457,1.921282,-0.673127,-0.676514,-0.472168,0.416992,8.023533,0.62766,0.311212,-1.712913,-0.269666,1.968743,-0.72168,-0.325195,-0.503418,6.781395,0.479451,0.941261,-1.334672,-0.087162,1.820292,-0.804932,-0.235107,-0.391846,7.273835,3.386594,3.182556,-2.112977,0.021907,1.03676,-0.796143,-0.23291,-0.355957
9.685802,0.229689,-0.911205,0.571459,-1.348363,-0.621162,-0.186768,0.516357,0.876953,8.925506,0.825857,-2.29839,-1.768146,1.804015,-0.480596,-0.693359,-0.499512,0.373047,8.528151,-0.866057,2.174926,-1.277195,-0.989279,1.875429,-0.749023,-0.280518,-0.499756,7.620148,-1.154184,1.51027,-0.736341,-1.127828,1.893299,-0.820557,-0.184082,-0.363037,6.429109,0.383147,2.871221,-1.087842,-0.482552,1.356256,-0.806885,-0.196045,-0.351807
8.584027,1.15262,-0.539312,0.573202,-1.247117,-1.582244,-0.189941,0.504883,0.886475,10.820919,-1.006949,-2.536215,-2.315471,1.549614,0.554658,-0.72583,-0.520508,0.304688,11.110155,0.564999,1.226589,0.075196,-0.258491,1.661811,-0.762695,-0.248047,-0.48999,10.328323,1.08878,2.299929,-0.188387,-1.030899,1.839222,-0.830078,-0.144531,-0.353516,7.604615,1.970111,2.714765,0.171945,-1.027892,1.574532,-0.815186,-0.160889,-0.31958
11.174172,0.048453,-0.7902,-0.245211,-1.438222,-2.510181,-0.181396,0.462891,0.92627,9.928543,1.030695,-2.776112,-1.590068,1.590807,0.359185,-0.740967,-0.53125,0.253906,8.920431,3.020441,2.678045,-1.137063,0.13033,1.51551,-0.768066,-0.200928,-0.509033,9.083284,1.609436,2.698545,-1.099244,-0.487459,2.066152,-0.839844,-0.091064,-0.342041,8.685339,3.452789,3.886839,-1.103714,-0.940561,1.837973,-0.822021,-0.106934,-0.311768
11.996742,-0.439122,-0.964861,0.67813,-0.245158,-3.413703,-0.2146,0.437012,0.929688,10.288375,0.857073,-2.13668,-2.339219,0.977553,1.081646,-0.774414,-0.525879,0.190186,8.811192,0.174176,0.922379,-1.504477,-1.034782,2.168865,-0.792236,-0.141113,-0.497559,8.413061,-1.239319,2.774834,-1.395617,-1.28249,1.523273,-0.848877,-0.046143,-0.314453,7.928825,-1.338092,3.531655,-2.189566,-0.887199,1.64171,-0.833008,-0.053467,-0.290771
13.745924,-0.548022,-0.852289,0.357534,0.104774,-3.559714,-0.260498,0.387695,0.944824,12.897406,0.644232,-2.538621,-1.59376,1.516342,0.212471,-0.803955,-0.540527,0.133789,10.58982,1.85625,1.5633,0.401626,-1.011989,1.209572,-0.810303,-0.121338,-0.483887,9.579413,-2.574306,1.551904,0.384417,-1.323609,1.305197,-0.864746,-0.018799,-0.297607,8.662998,-4.415987,2.61273,-0.360165,-1.494084,1.449883,-0.837646,-0.015137,-0.26001
12.225802,-1.108153,-1.365087,1.509418,1.045164,-3.378219,-0.312256,0.371826,0.951904,9.926403,1.540833,-1.228392,-1.653885,2.071815,1.219391,-0.836914,-0.521484,0.070557,9.363535,4.02934,2.240176,0.027443,-0.588819,1.282868,-0.830322,-0.092285,-0.476074,9.23111,2.132384,2.558442,1.540945,-1.300975,1.330485,-0.874512,-0.011719,-0.270264,8.724654,-1.482491,2.32397,1.317818,-1.135164,1.230482,-0.850586,0.001709,-0.239014
13.735983,0.16829,-0.716455,1.102729,1.044786,-3.939266,-0.362305,0.318848,0.954346,11.484782,0.306073,-1.975809,-1.042442,1.624682,0.567958,-0.854492,-0.524658,0.013916,8.705404,1.862565,3.068056,-0.973261,-1.423705,1.550167,-0.855225,-0.054688,-0.452881,10.464482,3.263831,3.250179,-1.035373,-1.54843,1.281281,-0.884766,0.027344,-0.223877,7.878756,1.579708,2.925865,0.285958,-1.489594,1.016987,-0.858643,0.019287,-0.202881
14.909693,-1.964409,-1.888374,1.944012,2.12962,-4.105586,-0.425537,0.285645,0.934326,11.316261,1.420837,-0.4115,0.105327,2.08552,1.336195,-0.877441,-0.498047,-0.037598,11.056593,-1.024135,2.202979,-0.64913,-1.482922,1.36804,-0.87085,-0.01416,-0.411865,11.25976,-2.242031,1.26658,-2.203888,-1.00892,1.256518,-0.88208,0.067871,-0.19873,10.139712,-1.156692,0.969532,-0.946222,-1.675361,0.565848,-0.864014,0.039795,-0.153809
16.164257,0.407886,-1.116801,2.079918,2.201397,-4.643956,-0.496582,0.235107,0.909668,11.639032,0.792984,-1.220778,0.14824,1.482866,0.905197,-0.898926,-0.484131,-0.077637,10.859333,1.36202,4.601661,0.194271,-1.325,1.042732,-0.883545,0.008301,-0.389404,9.326057,-5.037536,1.469941,-0.114343,-0.772899,1.084419,-0.885986,0.091309,-0.187012,10.265637,-2.817817,0.359674,-0.36059,-1.146315,0.18108,-0.861084,0.042969,-0.130371
15.508309,-1.808427,-2.136757,2.216502,2.660257,-4.713911,-0.564697,0.175049,0.890869,11.278758,0.083148,-0.662722,1.602528,1.882245,1.950037,-0.922607,-0.451904,-0.100098,10.769677,-0.068726,3.595477,-1.328902,-1.140033,1.325254,-0.896484,0.050537,-0.369629,9.786167,-2.24942,2.915738,0.796328,-1.483235,0.974346,-0.895264,0.103516,-0.148682,9.093458,-1.858334,0.034369,0.295188,-1.317596,-0.159709,-0.869385,0.035889,-0.104248
16.755721,-0.11234,-1.431459,2.669647,2.306706,-4.923876,-0.613037,0.108887,0.858887,11.738331,1.001263,0.768745,1.748262,1.324518,1.536734,-0.945312,-0.428955,-0.123047,8.901413,-3.254278,2.176577,-0.114461,-1.468385,1.184152,-0.918701,0.073242,-0.328369,12.188418,-1.045815,1.956202,-0.504889,-0.949452,0.609655,-0.897705,0.130859,-0.133789,11.328625,-1.165178,-0.404128,0.175508,-1.475907,0.114688,-0.876465,0.03125,-0.063232
16.447788,-2.221842,-2.603289,2.825528,2.87858,-4.623165,-0.660889,0.050293,0.82251,13.207051,-0.321087,0.267183,2.372804,1.885249,1.966494,-0.964111,-0.396484,-0.152832,10.75777,-0.123608,2.488141,0.39603,-1.910065,0.474923,-0.934082,0.094727,-0.296875,10.923087,-1.769856,1.620504,-1.657033,-0.252132,0.936308,-0.894043,0.153076,-0.119385,11.307963,0.848694,-0.698163,0.52535,-0.665951,0.659131,-0.876709,0.054932,-0.057373
16.877877,0.305689,-1.529961,3.433455,2.296884,-4.733781,-0.698975,-0.005615,0.804443,11.818201,-0.524149,1.406149,2.941172,1.374482,1.853462,-0.987061,-0.365479,-0.159424,11.776013,0.642156,2.603085,-2.083223,-2.078533,1.235783,-0.943604,0.129883,-0.23999,10.314675,-5.077351,0.218881,-0.895537,-0.65102,0.557032,-0.901367,0.169678,-0.096191,10.660805,0.868991,-0.146726,-1.904796,-0.987142,0.728294,-0.872314,0.070801,-0.0271
15.801216,-2.131207,-2.490417,3.283446,2.641842,-4.162691,-0.73584,-0.058594,0.772705,14.979928,-0.500777,1.077281,3.689851,1.550096,2.129368,-1.007812,-0.333252,-0.178467,11.312189,-7.626693,-1.263022,-1.475422,-1.950144,1.321141,-0.961914,0.174805,-0.18457,10.219987,-4.294335,-0.802535,1.168333,-0.400928,0.758815,-0.900391,0.184814,-0.101807,11.796614,-5.775439,-1.910196,-1.192356,-0.508565,0.568708,-0.87915,0.087402,-0.012207
14.844325,-0.645644,-1.825076,4.474801,2.439614,-3.57577,-0.761475,-0.078125,0.75415,11.918776,0.152427,1.793724,4.236269,1.917558,1.87724,-1.019287,-0.307129,-0.203125,10.290494,-3.88271,-1.990865,2.628234,-1.971076,0.193995,-0.969482,0.17334,-0.154541,8.215019,1.6765,-0.79701,1.701801,-0.445174,0.639573,-0.886963,0.195801,-0.095703,8.844027,-2.640671,-0.83386,2.340795,-0.237843,-0.282188,-0.880859,0.07959,-0.014893
13.013102,-1.730102,-2.271932,4.274336,2.657804,-3.143622,-0.790039,-0.099121,0.743896,12.565045,-1.080175,1.642125,4.279041,1.86069,1.657448,-1.025146,-0.29126,-0.213135,10.322863,4.912447,0.046423,0.953009,-1.79969,0.640971,-0.968506,0.190674,-0.113281,9.671458,3.789027,-0.682995,-2.739685,-0.985925,0.62098,-0.882812,0.212402,-0.052002,8.19592,5.21625,-0.21213,0.941095,-0.983982,0.176291,-0.873291,0.082275,0.009277
13.83233,-0.335221,-1.877082,5.376503,2.574866,-2.829829,-0.821777,-0.094482,0.721436,11.961304,-0.700977,-0.18796,5.646256,1.981367,1.583007,-1.031738,-0.284668,-0.23877,9.404243,1.089345,-2.120902,-3.753466,-2.418221,1.646054,-0.95874,0.235352,-0.029541,10.134228,-6.619189,-4.048815,-3.755089,-0.407006,0.554395,-0.883301,0.231445,-0.015137,10.241938,0.205732,-0.946044,-4.174062,-1.111678,-0.058408,-0.868896,0.078125,0.049561
12.901005,-1.331441,-2.699709,5.222561,2.72577,-2.429123,-0.850586,-0.07959,0.698486,12.602462,0.411168,0.098582,5.552547,2.124506,1.112305,-1.027344,-0.285645,-0.256348,11.471019,-8.502204,-5.74366,-1.299802,-2.144643,1.164523,-0.952637,0.264648,0.027832,7.929227,-8.640421,-2.465341,0.969755,-0.745065,0.414405,-0.87915,0.246094,-0.005615,9.074232,-9.698591,-3.417045,-1.582072,-0.561421,-0.751019,-0.870117,0.056885,0.065186
12.39845,0.205623,-2.363015,6.047829,2.544887,-2.396049,-0.875244,-0.073486,0.679932,9.123699,0.426434,0.274516,5.414853,2.182252,0.847506,-1.014893,-0.313477,-0.273682,9.064782,-1.72103,-4.536877,2.178023,-1.24395,-0.341735,-0.954102,0.270264,0.043701,9.410565,-2.609409,-2.512244,1.743397,-1.714433,0.166068,-0.881836,0.247803,0.024658,8.213354,-2.510721,-2.517189,3.191599,-1.581575,-2.022735,-0.870117,0.020752,0.102295
9.902555,0.019128,-2.157591,5.410738,2.209691,-2.580385,-0.897949,-0.06665,0.669922,10.467239,1.080824,1.040928,4.114987,1.245812,0.25623,-1.013672,-0.338379,-0.268555,9.388835,2.039375,-2.417296,-0.011746,-2.277176,0.734848,-0.948975,0.285645,0.105957,9.985292,-0.769425,-2.189077,-0.570988,-0.528038,-0.192694,-0.88501,0.23999,0.034424,13.230012,3.52294,-2.929089,0.533657,-1.540146,-0.747665,-0.874268,-0.000488,0.138916
9.264535,-0.15702,-1.969567,5.71182,1.602087,-2.741772,-0.906494,-0.06958,0.662842,8.962382,-2.111767,-0.490924,3.358824,1.89994,0.740294,-1.01001,-0.351318,-0.301025,9.365176,-1.937646,-3.539041,-1.151832,-1.543225,0.142189,-0.943848,0.287354,0.14502,7.25305,-4.492141,-2.792679,-1.785014,-0.764935,-0.269664,-0.894043,0.23584,0.071045,8.899133,-0.671773,-4.063793,-1.442401,0.09288,-0.026122,-0.87085,-0.01123,0.134277
7.973269,0.012353,-2.136668,5.68087,1.079845,-1.886089,-0.909424,-0.041016,0.682373,8.339612,0.112949,0.619697,4.416629,0.818446,0.322238,-1.002441,-0.37207,-0.279541,8.508609,-2.395483,-3.399013,-0.018685,-1.561475,-0.37033,-0.948242,0.283691,0.184082,9.133836,-7.233344,-3.865214,1.118487,-1.656768,-0.592404,-0.891357,0.2229,0.098633,7.918953,-3.910587,-3.85762,-0.011627,-1.675627,-0.231371,-0.873047,-0.013672,0.181396
8.681747,0.550761,-1.80401,5.634591,0.439524,-1.716857,-0.908691,-0.008545,0.702393,10.728646,-0.990016,0.100579,2.666665,1.647974,0.821149,-1.004639,-0.375732,-0.297607,9.886998,-2.339154,-3.416645,0.340881,-1.365824,-0.239057,-0.936768,0.276855,0.215576,9.153226,0.470617,-1.86461,3.368027,-0.880692,-0.138255,-0.898682,0.22998,0.096436,10.964003,-1.072281,-4.052089,2.394206,-0.675881,-0.306412,-0.864502,-0.015137,0.187744
7.225334,-0.048645,-1.917086,5.479277,0.038362,-1.187552,-0.901123,0.054932,0.735107,6.002174,-1.759033,-0.434695,4.014355,0.836603,0.997264,-1.002197,-0.369141,-0.27417,7.917283,-1.707525,-2.829688,1.095191,-0.592273,-0.842895,-0.946533,0.269775,0.2229,7.637933,3.103977,-0.894589,-0.615984,-1.123141,-0.446042,-0.903076,0.224121,0.124268,5.714033,4.145698,-1.848222,1.454533,-0.303864,-0.769539,-0.869385,-0.023926,0.200684
9.043755,0.549123,-1.695701,5.538424,-0.628397,-0.638238,-0.904053,0.124023,0.773193,11.77347,1.370232,1.660643,3.237961,0.889942,0.941638,-1.021484,-0.377686,-0.268555,8.334967,1.294478,-2.232079,0.941666,-1.339579,-0.378449,-0.944336,0.2771,0.240234,9.506242,-3.845782,-2.931175,-2.101723,-1.193326,-0.802278,-0.900879,0.197754,0.164551,9.787615,1.078354,-4.052424,-0.52182,-1.822131,0.243225,-0.863037,-0.017578,0.23877
9.366724,-0.64348,-2.102758,5.595796,-0.061352,-0.317736,-0.903809,0.204102,0.781494,6.805685,-2.507404,-1.231381,3.246363,1.396507,1.575036,-1.026611,-0.36499,-0.270752,9.391455,1.672217,-2.048068,-0.728251,-0.610187,-0.777031,-0.940918,0.253662,0.266113,9.098143,-5.845612,-2.585902,0.455903,-0.501889,-0.811225,-0.909912,0.179199,0.172607,9.809824,-0.541789,-4.754259,0.499299,-0.05406,-0.017711,-0.858398,-0.012939,0.240234
9.451873,0.603948,-1.799144,5.993408,-0.251521,0.025922,-0.897217,0.317871,0.775146,10.102884,1.140535,0.872823,4.241984,0.466241,0.470618,-1.026123,-0.368408,-0.246338,7.786282,-1.775871,-3.030467,-0.892216,-0.671149,-0.559744,-0.947754,0.229736,0.282959,7.952892,-2.974721,-2.204621,1.883886,-0.74376,-1.143892,-0.911865,0.156494,0.174561,7.382963,-0.404502,-4.209451,-0.532398,-0.958884,0.424845,-0.859131,-0.009766,0.263428
9.227417,-0.011207,-2.307789,5.825526,0.256033,-0.00264,-0.888916,0.412109,0.746826,7.861931,-0.310739,0.654843,2.982651,1.185891,1.147088,-1.019287,-0.362061,-0.241943,9.18156,-2.307699,-3.187928,1.256719,-0.770129,-1.454661,-0.94458,0.205078,0.289551,9.210245,0.913665,-1.223073,1.393978,-0.788515,-1.267692,-0.913574,0.142578,0.187744,11.307285,-4.558747,-6.080074,0.790273,-0.411362,0.203907,-0.852783,-0.00415,0.268555
8.506736,0.951745,-1.491932,5.677807,-0.184212,-0.59029,-0.901367,0.488281,0.715576,8.520794,-1.418546,-0.976553,4.226295,0.046234,0.506724,-1.030518,-0.366699,-0.204346,8.285504,2.521885,-1.557884,1.160568,-0.297564,-1.641985,-0.952393,0.18457,0.295898,9.539033,-0.88917,-2.577225,-1.125312,0.004809,-1.547488,-0.925049,0.101074,0.192871,7.099789,1.526312,-5.165882,2.587775,0.512775,0.096245,-0.855469,0.017334,0.259033
9.430051,-0.538022,-2.28398,5.779696,0.387936,-0.410255,-0.916992,0.566406,0.654541,10.357283,1.815204,-0.555983,4.338006,0.499775,0.897678,-1.042725,-0.352295,-0.173096,8.2776,1.362035,-2.767348,-0.883997,-0.989515,-1.114626,-0.951416,0.146729,0.318848,8.850547,-4.279303,-4.400147,0.086438,0.180442,-1.637681,-0.937988,0.057617,0.194092,9.312377,2.160871,-5.1395,-1.216171,-0.706184,0.985039,-0.847656,0.033691,0.271484
9.264534,0.629525,-1.890978,5.870959,0.167448,-0.606086,-0.924072,0.613525,0.588379,8.126236,-0.84949,-0.768135,3.622992,0.440692,1.001246,-1.048584,-0.345947,-0.151611,10.806239,-3.343646,-2.928212,-1.100847,-0.478534,-1.437604,-0.956543,0.099365,0.338867,8.381426,-2.246335,-4.480244,2.345242,0.222532,-1.322061,-0.943115,0.03833,0.180908,9.264042,-5.939632,-8.137268,-0.674286,1.140518,0.705552,-0.860596,0.041504,0.253174
8.331533,-0.166676,-2.033692,5.752267,0.301238,-0.563918,-0.937012,0.654541,0.511963,10.801328,0.168568,-1.397995,4.929458,0.554964,1.019367,-1.060303,-0.33252,-0.126221,7.6839,-5.13487,-2.928989,1.060621,0.544042,-1.617787,-0.966309,0.071533,0.324951,9.300495,2.367107,-4.328663,1.953146,0.166141,-1.202552,-0.933594,0.022705,0.167969,5.111767,-1.371816,-6.927657,3.491909,0.418301,-0.449602,-0.865723,0.056641,0.238525
10.287471,0.018007,-2.201294,6.124405,0.518355,-0.378198,-0.949707,0.696533,0.418457,9.725563,1.770534,-1.066611,4.352904,1.157287,1.614343,-1.069336,-0.298584,-0.121094,9.345182,-0.650256,-2.157151,1.914869,-0.218484,-1.691497,-0.956787,0.052979,0.31958,9.686669,0.316902,-4.25166,-0.088615,0.752731,-1.038969,-0.944336,-0.005371,0.158203,10.316753,4.757771,-5.579302,1.271002,-0.261369,-0.305927,-0.85376,0.056885,0.234863
8.455891,0.614644,-2.061746,6.02003,0.350684,-0.487014,-0.955566,0.723633,0.32666,10.237102,0.284465,-3.118646,4.396767,1.229564,1.176823,-1.069336,-0.264648,-0.130371,10.361423,0.12622,-3.545274,0.607914,1.231478,-1.160387,-0.971436,0.026367,0.299072,8.586932,-2.554786,-3.686132,0.43211,0.744041,-1.148274,-0.952637,-0.031982,0.144531,9.133268,-1.50335,-6.292526,-1.140023,1.701248,-0.588765,-0.871094,0.036865,0.209229
7.892298,1.632853,-1.642322,5.479583,0.135315,-1.397381,-0.976074,0.696045,0.256592,9.565593,0.935125,-2.182855,4.727475,1.432541,1.754815,-1.074951,-0.227539,-0.139404,7.565673,-0.694387,-3.898383,0.491313,1.075627,-1.605478,-0.986328,-0.008301,0.270996,8.765159,-2.161155,-3.335097,1.448376,0.830895,-1.310814,-0.954346,-0.04834,0.119141,6.30009,-4.170645,-6.486774,1.413755,0.369002,-0.642304,-0.878662,0.0271,0.195801
6.667993,1.056689,-1.668589,4.705192,-1.262283,-1.312496,-0.991211,0.651367,0.245605,8.533796,2.824633,-1.808202,4.142533,0.665023,1.758305,-1.083496,-0.199463,-0.129395,8.6958,-0.506704,-4.762602,0.813908,0.81433,-1.315652,-0.986816,-0.025635,0.249023,8.259021,0.85656,-4.593704,1.648039,0.907386,-1.368237,-0.955078,-0.092041,0.09375,10.024308,1.129786,-5.483812,2.314882,0.783295,-0.785034,-0.880859,0.02832,0.17334
8.960676,1.785888,-1.446184,4.052211,-2.679672,-1.624451,-0.991455,0.606934,0.285645,10.868508,0.710945,-2.813713,3.79721,0.450855,2.007214,-1.083252,-0.151855,-0.133057,9.244183,1.049589,-3.241974,0.845833,1.167437,-1.930216,-0.989746,-0.084229,0.217529,9.254415,2.043823,-5.228061,0.429641,0.444741,-1.457609,-0.96582,-0.115479,0.085938,7.201901,2.972806,-3.911122,0.296158,1.512483,0.043928,-0.883789,0.018799,0.133789
11.517619,0.905475,-1.613545,3.217297,-2.748747,-2.784665,-0.996094,0.525879,0.344971,10.800676,0.665486,-4.127737,4.383797,0.618587,1.90855,-1.081787,-0.115479,-0.138184,10.670228,0.649801,-3.482636,-0.265373,1.33938,-1.342658,-1.005859,-0.105957,0.18457,10.182988,-0.356994,-3.21991,-0.152323,0.888842,-1.261468,-0.958252,-0.14917,0.060303,8.417268,-1.649764,-5.229239,-0.348163,0.33793,-0.038057,-0.898438,0.026367,0.130859
12.468455,1.049411,-1.678923,3.397919,-3.156465,-2.625235,-0.989502,0.456543,0.428467,12.79871,4.51024,-0.039046,4.258194,0.500549,1.77571,-1.088379,-0.074463,-0.134521,10.584687,-2.151533,-5.25793,-0.225142,2.06265,-1.52008,-1.000977,-0.150879,0.130127,8.273637,-0.173537,-3.137578,0.999318,1.22645,-1.113972,-0.959229,-0.171143,0.034668,9.767801,-0.894286,-5.241837,1.832751,1.18542,-0.446384,-0.895264,0.013916,0.093506
15.270201,0.437606,-2.057396,2.691086,-3.616157,-2.784091,-0.947266,0.391846,0.520264,11.970301,2.443715,-2.735731,3.052243,1.050237,2.793061,-1.072754,-0.006592,-0.162598,8.195999,-1.67765,-3.716426,0.681141,2.124681,-1.509635,-1.003174,-0.181885,0.078857,9.082019,2.977844,-3.705302,0.736752,0.384944,-0.955818,-0.957275,-0.198242,0.0271,7.220235,4.198563,-3.462788,1.014733,1.011767,-0.313612,-0.902588,0.011719,0.067871
13.76595,0.602636,-1.778728,3.405622,-3.032175,-2.990437,-0.912109,0.342529,0.589844,13.325569,1.646349,-0.4628,3.767706,1.045032,1.88841,-1.066895,0.032715,-0.196533,11.46468,0.114493,-2.933469,-0.122813,1.241842,-1.022793,-1.000977,-0.207764,0.048584,10.593669,2.400758,-2.516204,-0.313179,0.981221,-0.661181,-0.960205,-0.21167,0.000977,10.38801,1.658249,-3.533563,-0.854676,0.495557,-0.162974,-0.90332,0.005859,0.059814
16.095017,1.018523,-1.486711,2.537455,-3.016398,-4.298783,-0.869141,0.246826,0.660156,14.689598,1.885619,-2.339284,4.547296,2.288214,2.016797,-1.05249,0.055176,-0.259033,11.836803,-0.699135,-3.467711,0.11518,2.901548,-0.919404,-0.998535,-0.22876,-0.025391,9.149118,0.114381,0.063598,-0.133893,1.159661,-0.604854,-0.946289,-0.22168,-0.029541,9.123999,-0.778145,-3.19995,0.427404,1.467655,-0.582708,-0.90625,-0.008301,0.02002
16.154618,0.312144,-2.309132,3.370547,-2.465317,-4.452104,-0.817871,0.188232,0.716797,11.647387,3.742887,-0.957518,4.797882,1.995911,1.696452,-1.030762,0.076172,-0.313477,6.991624,0.643202,-4.43015,0.946012,2.317599,-1.226849,-0.980713,-0.254639,-0.076904,9.770955,1.87962,-1.950374,0.707495,0.690165,-0.874902,-0.953369,-0.24707,-0.041992,8.726647,1.623623,-1.355286,0.879843,0.520216,-0.558129,-0.897949,-0.021484,0.003906
17.15035,1.029449,-1.927475,2.550017,-3.224468,-4.169559,-0.737793,0.106201,0.791504,13.684126,2.332388,-1.554833,4.46407,2.203351,2.477748,-0.998779,0.081543,-0.371826,10.499899,5.726107,-1.249029,0.740398,0.557462,-0.905208,-0.984619,-0.276123,-0.080566,10.321866,3.454422,-1.994623,-0.161568,1.090913,-0.881151,-0.942139,-0.268066,-0.057861,11.359336,1.720864,-1.819037,-0.34297,1.162074,0.061893,-0.90918,-0.021973,-0.020996
15.544037,1.908396,-1.579145,3.031061,-2.621773,-5.697769,-0.665039,0.038086,0.857422,10.787939,-0.885662,-1.97064,5.580489,1.891924,1.532995,-0.981445,0.071777,-0.4104,12.889224,4.295301,-1.719996,-1.300896,1.937872,-0.95648,-0.966553,-0.296143,-0.129395,8.623157,4.191203,-0.991758,-0.691237,0.915063,-0.763676,-0.933105,-0.276611,-0.098633,8.336855,-0.313105,-1.075807,-0.29721,1.521629,0.068853,-0.902344,-0.019531,-0.049316
19.587926,0.447611,-2.352192,1.969038,-3.26078,-5.604052,-0.558594,-0.032471,0.911621,11.826101,2.086631,-0.542093,7.354322,1.378953,0.921064,-0.956543,0.018555,-0.448975,9.773565,2.979783,-0.840895,-0.822899,2.296107,-1.231178,-0.944336,-0.31665,-0.202393,10.798471,2.666888,0.412082,-0.84756,0.182668,-0.865642,-0.938721,-0.296143,-0.100342,9.635264,2.300769,-0.607773,0.242733,0.411413,-0.049625,-0.897705,-0.013672,-0.07373
17.365454,0.133457,-1.60648,3.025226,-2.058106,-6.37844,-0.461182,-0.084229,0.949219,14.296792,0.319085,-0.507881,6.307325,1.616359,1.137935,-0.926758,-0.030762,-0.477783,10.279851,2.342313,-1.173702,-0.79973,1.568782,-0.916815,-0.939453,-0.332031,-0.239258,12.720409,2.6018,-0.361495,0.352029,1.302623,-0.681005,-0.918701,-0.316406,-0.130859,12.015783,0.159401,-1.136365,-1.524314,1.097525,-0.147319,-0.907715,-0.016357,-0.095703
17.866774,-1.127425,-2.2126,3.275843,-1.822109,-4.653447,-0.391846,-0.078369,0.981445,13.183686,-0.287373,-2.077867,8.57613,2.426304,0.533885,-0.9021,-0.108643,-0.505371,11.252802,1.260652,-0.707773,0.158482,1.356553,-0.523434,-0.914795,-0.345703,-0.263184,9.496818,4.831921,-0.078268,0.064552,1.390676,-0.48545,-0.91748,-0.327393,-0.159424,10.203471,-2.358561,-1.332653,0.718758,1.288928,-0.798206,-0.891357,-0.037109,-0.122803
15.560681,0.289436,-1.490671,4.272042,-1.081119,-4.979925,-0.324219,-0.048096,1.00415,12.564582,0.665731,-0.720259,8.13015,2.248796,0.657669,-0.865723,-0.190186,-0.510498,11.899342,5.100785,1.886405,0.559274,1.658922,-1.310007,-0.898682,-0.380127,-0.294434,10.319031,3.487627,-0.120857,-1.331106,0.648746,-0.677456,-0.905762,-0.333008,-0.185547,11.095308,3.924852,0.058379,1.417692,0.755231,-1.121457,-0.897217,-0.073486,-0.14209
14.317155,-0.681741,-1.860067,4.179605,-1.023198,-4.227804,-0.27417,-0.016846,1.019775,10.661545,-1.860563,-2.635452,9.256884,2.200724,-0.119404,-0.832031,-0.307373,-0.487549,11.382269,4.992829,3.327686,-1.483591,1.803328,-0.344419,-0.876465,-0.37085,-0.348145,11.023017,1.964481,0.410293,0.097779,1.262731,-0.224196,-0.903076,-0.34375,-0.221924,11.317893,4.213159,0.701153,-1.239623,1.34001,-0.315866,-0.884766,-0.072021,-0.178711
13.040222,-0.447678,-1.690734,5.064487,-0.580997,-3.997047,-0.246338,0.045898,1.035889,10.674416,0.998497,-2.836764,10.301937,1.529911,-0.107468,-0.816406,-0.420898,-0.412354,11.04628,-0.354714,1.298326,-1.220407,1.974475,-0.374118,-0.864014,-0.373535,-0.409912,9.766858,5.437932,2.765884,0.716954,0.944452,-0.09129,-0.895264,-0.334229,-0.231689,9.55872,0.595647,0.417252,-0.165206,1.098795,-0.622176,-0.887695,-0.092041,-0.213135
12.431446,-1.229818,-2.117358,5.502931,-0.370682,-3.17834,-0.224854,0.137451,1.03418,11.815227,0.281499,-2.589971,10.018901,1.58773,-1.014014,-0.789795,-0.519043,-0.321533,10.159393,1.581468,1.676468,0.803124,2.050792,-0.538797,-0.837646,-0.373291,-0.436523,12.327959,6.40408,2.497236,-1.4069,0.571992,0.145234,-0.895996,-0.329834,-0.251465,11.814378,5.282866,1.825279,1.521593,0.497721,-0.688299,-0.882568,-0.101318,-0.21875
12.918676,-0.620141,-2.386598,6.392596,0.268183,-2.424377,-0.236328,0.240479,1.018555,11.392372,-0.311474,-4.153679,11.164615,1.742414,-0.750774,-0.773438,-0.614258,-0.191162,11.16871,5.901733,3.92558,-0.548899,1.402937,-0.180839,-0.824951,-0.374023,-0.468506,11.990232,2.918108,1.063224,-2.211149,1.45303,0.606036,-0.884033,-0.301514,-0.295166,13.190313,7.969944,2.688583,-0.774891,1.156405,-0.115095,-0.878662,-0.105469,-0.247803
12.200555,-0.314437,-2.601605,6.7123,0.265161,-1.928103,-0.245605,0.367432,0.976074,10.558201,1.113868,-4.418785,11.320973,1.285836,-1.244659,-0.750977,-0.656738,-0.036133,12.118906,3.492636,3.613801,-2.621288,1.495781,0.484329,-0.804932,-0.331299,-0.515625,10.277691,2.601086,2.782093,-1.17679,0.905025,0.8233,-0.88623,-0.266846,-0.320557,11.42772,4.393724,1.638794,-2.228269,1.423308,0.424271,-0.86499,-0.080566,-0.281494
11.788168,-0.189611,-2.716493,7.064941,0.55856,-1.219201,-0.246826,0.48877,0.927002,10.821381,0.131186,-5.637953,11.778676,1.127826,-0.68057,-0.731934,-0.653076,0.147705,10.537078,0.137342,2.657224,-2.266212,1.758432,0.369068,-0.787598,-0.287109,-0.561523,12.23172,3.857954,3.224909,-1.369082,0.721108,1.131799,-0.88208,-0.230225,-0.334229,11.719774,3.307869,1.329523,-1.101356,0.899876,0.609775,-0.86377,-0.05249,-0.299561
11.21462,-0.031242,-2.844549,7.241471,0.581136,-1.221764,-0.274414,0.600586,0.839355,9.161379,1.079801,-6.359435,12.379739,0.964021,-1.220365,-0.72876,-0.606934,0.319092,9.096014,-0.054974,3.128217,-1.645244,1.201063,0.788171,-0.773682,-0.248535,-0.584229,10.14122,3.221833,2.332083,-1.84825,2.014781,1.50075,-0.871582,-0.173828,-0.390625,11.977083,4.537789,1.745076,-1.200364,1.443183,0.84517,-0.848877,-0.023926,-0.328857
8.875223,0.435445,-2.665798,7.398239,0.713418,-0.888373,-0.281982,0.712158,0.739258,8.151896,0.713075,-6.488214,12.101726,0.50084,-0.765785,-0.716553,-0.499756,0.476074,8.61316,1.216883,3.382334,-1.48014,0.678999,1.12612,-0.773438,-0.199707,-0.608398,6.962217,2.162698,2.76006,-1.745515,1.127253,1.697492,-0.854248,-0.127686,-0.412598,8.65505,3.597592,2.182684,-1.764399,1.730699,1.109477,-0.835205,0.01709,-0.371582
9.467003,0.610022,-2.728959,7.203695,0.235315,-0.88521,-0.291504,0.796875,0.63916,9.285103,0.42341,-7.365688,12.62233,0.265545,-0.771409,-0.713379,-0.3479,0.612549,8.40476,0.975104,2.570501,-2.236571,0.461216,1.467441,-0.767334,-0.143555,-0.621094,9.115059,2.868206,2.193178,-1.275868,0.637489,1.867809,-0.845947,-0.063232,-0.428955,8.145391,2.60467,2.431279,-1.462397,0.978123,1.17417,-0.81665,0.054443,-0.390381
8.883646,0.226183,-2.646666,7.088484,0.007234,-0.717931,-0.299072,0.868896,0.525391,8.448704,1.439656,-6.887758,12.434712,0.519718,-0.655226,-0.723633,-0.156982,0.678223,7.496326,0.610884,1.73837,-1.632058,-0.006972,1.805593,-0.77002,-0.072021,-0.621338,7.975083,3.711519,1.525639,-1.593038,1.376414,2.089886,-0.826904,-0.003662,-0.454346,8.139629,3.549215,3.264045,-1.230876,1.303466,1.318314,-0.795166,0.104492,-0.415771
9.636223,0.622555,-2.12568,7.11821,-0.17828,-0.45237,-0.295898,0.919434,0.395264,9.017955,1.002838,-7.657627,12.447821,0.356114,-0.825728,-0.726074,0.037842,0.68335,8.702593,2.628359,1.749391,-1.571673,-0.370516,1.701766,-0.7771,-0.013916,-0.613281,6.91255,2.352199,0.977434,-2.272911,0.40935,2.017576,-0.820312,0.07251,-0.455322,6.272301,3.110393,2.993499,-1.994404,0.949321,1.425442,-0.779541,0.151367,-0.424561
12.1512,-0.523922,-3.516513,7.306587,0.141543,-0.141132,-0.299805,0.956055,0.263184,9.025236,2.610515,-7.724782,11.893692,0.39906,-1.54883,-0.740479,0.20459,0.645508,9.324655,3.307693,0.220224,-1.469827,-0.483176,2.182641,-0.786865,0.054443,-0.599609,8.019049,1.420377,0.619467,-2.065228,0.226696,1.789222,-0.806152,0.131836,-0.444336,7.912742,0.62716,3.277974,-2.237699,0.266562,1.600272,-0.771973,0.216064,-0.418945
8.963648,1.738342,-2.222659,7.432711,0.369082,-0.318746,-0.303711,0.963623,0.105957,6.415253,2.002423,-3.709434,10.250255,-0.167697,-2.021438,-0.746582,0.315918,0.575928,8.481963,5.169849,0.821574,-1.916577,-0.127031,1.433485,-0.78125,0.112549,-0.587158,5.579834,1.467415,1.33728,-2.369549,0.532398,1.942366,-0.786377,0.207764,-0.439941,6.80243,-0.210725,3.18459,-1.926429,0.789275,1.71748,-0.746094,0.274414,-0.415771
