# sampling frequency: 40
# units are seconds/meters/radians/a.u.
seg1_acc_x,seg1_acc_y,seg1_acc_z,seg1_gyr_x,seg1_gyr_y,seg1_gyr_z,seg1_mag_x,seg1_mag_y,seg1_mag_z,seg2_acc_x,seg2_acc_y,seg2_acc_z,seg2_gyr_x,seg2_gyr_y,seg2_gyr_z,seg2_mag_x,seg2_mag_y,seg2_mag_z,seg3_acc_x,seg3_acc_y,seg3_acc_z,seg3_gyr_x,seg3_gyr_y,seg3_gyr_z,seg3_mag_x,seg3_mag_y,seg3_mag_z,seg4_acc_x,seg4_acc_y,seg4_acc_z,seg4_gyr_x,seg4_gyr_y,seg4_gyr_z,seg4_mag_x,seg4_mag_y,seg4_mag_z,seg5_acc_x,seg5_acc_y,seg5_acc_z,seg5_gyr_x,seg5_gyr_y,seg5_gyr_z,seg5_mag_x,seg5_mag_y,seg5_mag_z
1.810503,-7.319426,6.281548,0.0,0.0,0.0,-0.291016,0.521484,-0.049072,-0.04871,8.335938,5.159884,-0.012209,-0.000172,0.004467,-0.083252,0.452148,0.465576,-1.348736,-7.102948,6.67704,-0.002748,-0.002901,-0.001787,0.649658,0.105469,-0.114502,1.982518,-7.234742,6.355132,-0.004844,-0.000228,0.009822,0.152832,0.319336,-0.572998,0.697382,-5.917167,7.773614,0.003423,-0.003472,-0.000542,-0.245361,0.395996,-0.462402
1.790781,-7.330704,6.273498,-0.001473,0.004056,-0.001722,-0.289307,0.520264,-0.047852,-0.02059,8.331549,5.148796,-0.007887,0.01076,0.005573,-0.08374,0.454102,0.460938,-1.300328,-7.126527,6.652791,-0.007496,0.008193,0.000721,0.651855,0.105713,-0.114258,1.982859,-7.269863,6.339086,-0.010334,0.000955,0.012124,0.151611,0.320068,-0.574707,0.705424,-5.880782,7.794778,0.006489,-0.000132,-0.00883,-0.246582,0.397705,-0.460449
1.79765,-7.33702,6.301506,0.004092,0.000511,-0.000115,-0.289062,0.524414,-0.050537,-0.052596,8.331753,5.133174,-0.008688,0.004564,0.005143,-0.072754,0.449463,0.461426,-1.357145,-7.124363,6.663448,-0.001595,0.005861,-0.000769,0.651855,0.111084,-0.117432,1.986193,-7.243238,6.355149,0.005451,0.002744,0.005017,0.154541,0.324463,-0.576904,0.698131,-5.926436,7.795616,-0.013125,-0.004166,0.003194,-0.244385,0.4021,-0.464355
1.815111,-7.301981,6.305719,0.000676,0.002001,-0.000166,-0.289307,0.526123,-0.04541,-0.032165,8.334115,5.147473,-0.008224,0.003615,0.003309,-0.071045,0.451416,0.461914,-1.32002,-7.116247,6.650175,-0.006052,-0.00153,-0.001939,0.651367,0.112549,-0.112793,1.980228,-7.260717,6.371423,-0.014017,-3.1e-05,0.013343,0.1521,0.325439,-0.571777,0.705339,-5.924919,7.818414,0.01198,0.001699,-0.006621,-0.246338,0.401611,-0.461426
1.785587,-7.325966,6.255618,-0.004508,0.001607,-0.00152,-0.281982,0.52417,-0.043945,-0.064147,8.346008,5.144384,-0.01579,0.011302,0.006693,-0.075439,0.448486,0.465576,-1.337924,-7.10956,6.672091,-6.4e-05,0.012039,0.000644,0.659424,0.107178,-0.110352,1.979263,-7.266561,6.349644,0.007513,0.003158,0.005926,0.161621,0.321533,-0.572266,0.71743,-5.879384,7.804714,0.002372,-0.00289,-0.001276,-0.23584,0.398682,-0.458496
1.803348,-7.303968,6.277344,0.00938,0.000376,0.001648,-0.281738,0.520508,-0.050293,-0.05186,8.327974,5.139312,-0.002458,0.002335,0.004568,-0.07251,0.455566,0.461914,-1.331368,-7.114579,6.682024,-0.010399,-0.003078,-0.001404,0.658691,0.106934,-0.117188,1.961997,-7.235892,6.359094,-0.014331,0.000624,0.013269,0.1604,0.317871,-0.574707,0.697737,-5.914486,7.787952,-0.004224,5e-05,-0.002491,-0.240479,0.396484,-0.4646
1.80141,-7.293254,6.291004,-0.00546,0.003015,-0.0012,-0.287354,0.519775,-0.047363,-0.047186,8.32894,5.171186,-0.010628,0.008562,0.005188,-0.074463,0.451904,0.46582,-1.311342,-7.134534,6.651802,-0.001144,0.007173,0.000763,0.654785,0.10498,-0.11084,1.98522,-7.288793,6.348158,-0.000967,-0.000802,0.006688,0.155029,0.319336,-0.571777,0.698591,-5.913957,7.788276,0.008964,-0.003001,-0.005177,-0.24292,0.398926,-0.459961
1.796118,-7.344998,6.27958,-0.002092,-9.2e-05,-0.000941,-0.287109,0.52124,-0.044189,-0.051161,8.315884,5.153235,-0.014982,0.005735,0.00553,-0.071533,0.450439,0.463135,-1.354132,-7.092201,6.686273,-0.000506,0.003445,-0.000523,0.650635,0.105469,-0.108643,1.976931,-7.228615,6.365524,0.001044,0.00404,0.006555,0.154785,0.321289,-0.572021,0.714201,-5.900621,7.812465,-0.005346,-0.002969,-0.001246,-0.24585,0.397461,-0.458252
1.811812,-7.299211,6.297446,0.011104,0.004205,0.000748,-0.276611,0.520508,-0.046387,-0.038884,8.331865,5.161601,-0.001325,0.004683,0.004243,-0.075928,0.452148,0.45874,-1.304454,-7.131605,6.646538,-0.013045,-0.000715,0.000454,0.662354,0.104004,-0.112305,1.976108,-7.278779,6.35725,-0.017476,-0.000701,0.015091,0.165527,0.318359,-0.571289,0.699062,-5.906547,7.808947,0.003284,0.002976,-0.004188,-0.233887,0.393555,-0.461914
1.776751,-7.312882,6.282539,-0.010228,0.000502,-0.00092,-0.28418,0.52417,-0.04541,-0.058703,8.327401,5.150739,-0.015118,0.009109,0.006682,-0.074951,0.452637,0.458984,-1.33977,-7.128937,6.652195,0.004787,0.010142,0.000635,0.653564,0.110352,-0.11084,1.984962,-7.264546,6.362668,0.010311,0.002863,0.002573,0.155273,0.324219,-0.57251,0.686261,-5.905549,7.813229,0.002344,-0.002136,-0.003067,-0.243896,0.400391,-0.458984
1.817289,-7.335235,6.297897,0.009544,0.001261,0.000263,-0.287109,0.527832,-0.043945,-0.066752,8.327545,5.13524,-0.005803,0.004172,0.002929,-0.080566,0.448486,0.468994,-1.338944,-7.101362,6.661169,-0.006815,-0.000872,0.000365,0.651855,0.113525,-0.111328,1.980691,-7.231772,6.37732,-0.012359,0.002009,0.014634,0.154053,0.325439,-0.571289,0.709243,-5.883787,7.789379,0.008466,-0.000706,-0.003655,-0.24585,0.405518,-0.459473
1.780605,-7.2907,6.266587,-0.003357,0.002904,-0.001847,-0.289795,0.519775,-0.034912,-0.038269,8.325621,5.145947,-0.014991,0.006796,0.008333,-0.074951,0.447266,0.464355,-1.321708,-7.122375,6.675591,-0.00448,0.007173,-0.001898,0.64917,0.107666,-0.101318,1.999521,-7.277148,6.355748,-0.00024,-0.002695,0.005382,0.151855,0.319092,-0.561279,0.709196,-5.893701,7.81096,-0.011263,-0.004419,-0.004106,-0.245117,0.398193,-0.448486
1.820765,-7.334547,6.276738,-0.000836,0.000675,-0.000859,-0.286377,0.524658,-0.052734,-0.049511,8.319149,5.153607,-0.009772,0.005889,0.00558,-0.081543,0.453125,0.458252,-1.336926,-7.114626,6.652841,-0.001639,0.003334,0.000603,0.652344,0.111084,-0.120117,1.988675,-7.223544,6.360759,-0.003194,0.008894,0.010543,0.154053,0.323486,-0.579102,0.716247,-5.93014,7.786042,0.003605,-5.3e-05,-0.00047,-0.245361,0.401123,-0.468994
1.765866,-7.31911,6.294821,0.006604,0.002047,5.1e-05,-0.285156,0.522705,-0.041992,-0.057715,8.353792,5.150814,-0.001731,0.008243,0.003392,-0.075684,0.445557,0.461914,-1.333957,-7.139896,6.683669,-0.006153,0.00463,-0.000714,0.654541,0.105957,-0.11084,1.951166,-7.272038,6.350943,-0.008116,-0.002852,0.010643,0.160645,0.320801,-0.568848,0.691773,-5.898046,7.821184,0.00742,-0.000325,-0.007267,-0.241455,0.396973,-0.456543
1.818729,-7.323412,6.290916,-0.003,-0.000628,0.001583,-0.289307,0.520752,-0.048584,-0.057271,8.31835,5.13966,-0.022723,0.002146,0.006896,-0.080566,0.449707,0.462402,-1.336745,-7.120512,6.674627,-0.002091,0.002023,-0.000928,0.650635,0.10376,-0.111572,1.99285,-7.251642,6.347444,0.001599,-0.002601,0.005757,0.153809,0.317139,-0.574463,0.713342,-5.907066,7.770272,-0.002652,-0.003377,0.001392,-0.246582,0.395264,-0.462402
1.795042,-7.322233,6.286689,0.000212,0.002502,-0.001594,-0.281494,0.523682,-0.04248,-0.044802,8.299671,5.135607,-0.005598,0.009193,0.004839,-0.07959,0.457031,0.459473,-1.323365,-7.116583,6.657693,-0.005407,0.006744,-0.000291,0.658447,0.107666,-0.106445,1.989953,-7.267653,6.354686,-0.009163,0.006384,0.01229,0.1604,0.324463,-0.564941,0.695492,-5.890934,7.828996,0.006531,0.001397,-0.007484,-0.239746,0.398193,-0.456543
1.791198,-7.322467,6.308478,0.001988,0.000622,0.000532,-0.288086,0.525879,-0.037842,-0.068945,8.354679,5.152274,-0.001978,0.006884,0.004243,-0.069824,0.453613,0.469727,-1.366687,-7.14204,6.666354,-0.003073,0.006349,0.001688,0.651855,0.111084,-0.10376,1.961809,-7.252208,6.358195,0.002083,0.000693,0.007294,0.15332,0.324951,-0.564209,0.702561,-5.910333,7.802999,-0.012525,-0.003619,0.001488,-0.244385,0.401611,-0.45166
1.814293,-7.310453,6.295458,0.003196,-0.000227,0.000822,-0.287109,0.520752,-0.043945,-0.024606,8.344804,5.154844,-0.017604,0.002008,0.005344,-0.083252,0.448975,0.460449,-1.313703,-7.114191,6.684756,-0.001578,-0.000842,-0.002347,0.6521,0.106934,-0.112793,1.991304,-7.242332,6.369999,-0.009284,-0.0016,0.010877,0.153809,0.319336,-0.571289,0.697312,-5.935617,7.760943,0.015955,-5.2e-05,-0.004908,-0.243896,0.398926,-0.458496
1.798466,-7.334472,6.283275,-0.00604,0.004248,-0.00145,-0.2854,0.517334,-0.047363,-0.052438,8.309776,5.135452,-0.010491,0.013304,0.005478,-0.073975,0.450439,0.462891,-1.325908,-7.118031,6.65564,-0.002754,0.012451,0.00194,0.653564,0.103271,-0.110352,1.982183,-7.257251,6.3541,0.000918,0.002342,0.006545,0.155518,0.318604,-0.572754,0.695117,-5.837178,7.840069,0.006613,-0.003544,-0.00742,-0.243652,0.394287,-0.458984
1.808992,-7.340441,6.289672,0.007868,-0.000949,0.000957,-0.287109,0.521484,-0.044922,-0.072347,8.339725,5.137489,0.001686,0.001192,0.005126,-0.074219,0.450684,0.457764,-1.379313,-7.12797,6.65941,-0.01032,-0.002536,-0.001064,0.653564,0.107666,-0.111816,1.972612,-7.23257,6.365225,-0.008793,0.002091,0.011427,0.154541,0.323975,-0.570312,0.710442,-5.920685,7.798873,-0.020494,0.000299,0.003817,-0.242188,0.403076,-0.460938
1.807873,-7.286723,6.313723,0.002189,0.003328,0.000526,-0.284912,0.522705,-0.04126,-0.032054,8.364657,5.144658,-0.01819,0.006052,0.004084,-0.07251,0.454102,0.463623,-1.285026,-7.127267,6.658108,0.002465,0.003254,-0.000979,0.655762,0.108398,-0.11084,1.970417,-7.273728,6.337223,-0.004168,0.000706,0.011408,0.157471,0.322754,-0.568359,0.678486,-5.928952,7.762896,0.017688,0.000291,-0.008503,-0.241943,0.399902,-0.454834
1.796759,-7.36416,6.255846,-0.016668,-0.000662,-0.002359,-0.282959,0.523193,-0.050537,-0.055632,8.296918,5.142934,-0.018758,0.008544,0.005688,-0.081055,0.443848,0.468018,-1.36514,-7.105222,6.665893,-0.008509,0.007793,3.5e-05,0.657959,0.109375,-0.11792,1.980448,-7.248232,6.376393,0.000161,0.002362,0.005407,0.162842,0.324707,-0.577148,0.717099,-5.8732,7.811756,-0.001737,-0.008534,-0.001908,-0.239746,0.398926,-0.463135
1.819783,-7.32508,6.301114,0.023285,0.002506,0.000823,-0.290771,0.517822,-0.038818,-0.059792,8.340824,5.138576,0.012943,0.004013,0.002941,-0.079102,0.450439,0.460205,-1.324516,-7.157456,6.644103,-0.00924,-0.001602,-3.1e-05,0.650391,0.102539,-0.106201,1.96856,-7.269896,6.347891,-0.014192,0.001109,0.016215,0.150146,0.317383,-0.567139,0.712742,-5.919959,7.799215,-0.005741,0.007477,-0.002595,-0.24707,0.39209,-0.453613
1.787439,-7.271474,6.271212,-0.011229,0.000291,-0.000394,-0.291016,0.528809,-0.043457,-0.051561,8.382263,5.160975,-0.020983,0.007519,0.006451,-0.079346,0.444824,0.462646,-1.32058,-7.106102,6.686626,0.015291,0.011572,-0.002259,0.646729,0.112305,-0.111816,1.983823,-7.232659,6.349079,0.01319,0.000395,0.001723,0.148438,0.324707,-0.570312,0.672279,-5.897974,7.780839,0.009769,-0.005285,-0.005218,-0.249023,0.401855,-0.459961
1.811927,-7.374583,6.280609,-0.007136,0.000804,-0.000508,-0.288086,0.525879,-0.042725,-0.038789,8.275803,5.150365,-0.019416,0.004477,0.005595,-0.078613,0.44751,0.468018,-1.360371,-7.086591,6.675864,-0.016573,0.000388,0.001746,0.651611,0.112061,-0.108643,1.968086,-7.230165,6.365396,-0.017057,0.004754,0.014113,0.155762,0.326904,-0.567627,0.73049,-5.878773,7.80117,0.001767,-0.005922,-0.001997,-0.245117,0.403076,-0.45459
1.796102,-7.301911,6.302767,0.019718,0.002909,0.000569,-0.287354,0.517578,-0.041992,-0.047101,8.342022,5.13951,0.010177,0.009915,0.004025,-0.081787,0.452393,0.467773,-1.309507,-7.155423,6.657823,-0.010057,0.004387,0.001347,0.649658,0.103027,-0.109863,1.958316,-7.309628,6.349136,-0.005597,-0.000624,0.009653,0.152588,0.319336,-0.568115,0.683102,-5.906711,7.812279,-0.010989,0.00735,-0.004026,-0.245117,0.39502,-0.452148
1.81072,-7.285719,6.29312,-0.012065,0.000966,-0.001253,-0.280029,0.515869,-0.047607,-0.050875,8.378535,5.167032,-0.018607,0.004404,0.005944,-0.082275,0.45752,0.467529,-1.345352,-7.104197,6.665443,0.011209,0.00495,-0.002256,0.656982,0.099365,-0.115967,1.985861,-7.222159,6.362205,0.007036,0.000232,0.003406,0.1604,0.314697,-0.574707,0.691803,-5.936703,7.794871,0.006419,-0.006351,0.001144,-0.238281,0.388916,-0.463623
1.789869,-7.361693,6.269217,-0.000788,0.002293,-0.001067,-0.290527,0.525635,-0.055176,-0.030335,8.311931,5.155706,-0.0163,0.006497,0.005353,-0.081055,0.45166,0.462891,-1.32268,-7.099682,6.669311,-0.007669,0.003169,0.001166,0.650146,0.110352,-0.124023,1.966064,-7.25608,6.381645,-0.013557,0.000191,0.015367,0.152832,0.324707,-0.582275,0.700409,-5.865238,7.814485,0.016931,-0.001602,-0.010189,-0.247559,0.402832,-0.470215
1.791312,-7.310081,6.30252,0.011229,-0.000291,0.000395,-0.282471,0.518555,-0.054199,-0.066552,8.322818,5.121233,-0.000102,0.008092,0.004103,-0.073975,0.454346,0.469482,-1.346513,-7.129083,6.663505,-0.007843,0.005433,0.001256,0.656982,0.102539,-0.12207,1.981212,-7.259152,6.355134,0.004023,0.000596,0.005236,0.15918,0.315918,-0.579346,0.693111,-5.893842,7.814306,-0.021772,0.001439,0.001863,-0.240723,0.395508,-0.469727
1.80601,-7.294404,6.292255,-0.009613,0.001088,0.000706,-0.281494,0.513916,-0.050293,-0.050237,8.362737,5.161223,-0.0064,0.003001,0.004388,-0.082764,0.455811,0.465088,-1.319503,-7.141917,6.683202,-0.00155,0.000525,0.000163,0.65625,0.100098,-0.118652,1.971589,-7.254444,6.352616,-0.014043,0.003588,0.014247,0.15918,0.317383,-0.576172,0.694223,-5.952789,7.796476,0.009357,-0.002622,-0.006317,-0.24292,0.393555,-0.464844
1.788994,-7.348663,6.251865,-0.002264,0.002788,-0.00038,-0.287842,0.520752,-0.041504,-0.045739,8.335727,5.149726,-0.025712,0.0075,0.007331,-0.075439,0.446045,0.466064,-1.319628,-7.109747,6.668896,0.000782,0.00857,-0.002091,0.652832,0.106445,-0.112305,1.972823,-7.278101,6.370419,0.003797,-0.000121,0.005688,0.153076,0.318848,-0.570312,0.700541,-5.87141,7.807046,0.005784,-0.003324,-0.004054,-0.246094,0.395508,-0.459229
1.803672,-7.318194,6.318332,0.015425,-0.000309,0.000691,-0.285889,0.513672,-0.047119,-0.041225,8.287243,5.13579,-0.002296,0.004459,0.004913,-0.070312,0.445068,0.462402,-1.341558,-7.111103,6.672847,-0.011766,-0.000104,0.001953,0.654297,0.099121,-0.114014,1.982925,-7.224776,6.340717,-0.005998,0.001001,0.010039,0.156982,0.313965,-0.569092,0.696175,-5.91776,7.794834,-0.008774,0.000696,0.002176,-0.243896,0.389648,-0.459473
1.796729,-7.289757,6.296393,-0.007204,0.003154,0.000462,-0.286133,0.524658,-0.043701,-0.041336,8.37426,5.143706,0.002782,0.006915,0.00334,-0.074707,0.449463,0.458496,-1.301259,-7.138926,6.652181,-0.000259,0.005652,-0.001407,0.651611,0.10791,-0.110596,1.957241,-7.286806,6.342901,-0.009322,0.002022,0.011797,0.155273,0.320312,-0.571533,0.683667,-5.883168,7.796555,0.013209,-0.001163,-0.008891,-0.246094,0.398438,-0.45752
1.801002,-7.37787,6.262944,-0.009277,-0.000907,-0.001243,-0.288818,0.516357,-0.047363,-0.052746,8.324126,5.147608,-0.030321,0.004105,0.007061,-0.07666,0.45752,0.469727,-1.35525,-7.100088,6.658133,-0.000683,0.005708,-0.000429,0.653076,0.102539,-0.113281,1.988579,-7.227175,6.352888,0.004247,0.000906,0.005769,0.153809,0.314453,-0.57251,0.704813,-5.898351,7.817014,-0.009786,-0.00519,0.000164,-0.244629,0.393066,-0.458496
1.804948,-7.328541,6.305306,0.018102,0.002112,-0.00053,-0.287109,0.519287,-0.047852,-0.028583,8.288642,5.136385,0.002959,0.007212,0.002316,-0.075684,0.448242,0.459961,-1.316699,-7.144882,6.666538,-0.014445,0.000888,0.001298,0.650879,0.102539,-0.115723,1.976657,-7.272502,6.352192,-0.017501,0.00252,0.016974,0.154297,0.318359,-0.576172,0.703997,-5.928954,7.790077,0.005351,0.00257,-0.004513,-0.24292,0.394775,-0.463623
1.785847,-7.283343,6.290611,-0.007869,0.000948,-0.000959,-0.293945,0.528564,-0.048096,-0.072493,8.365086,5.163322,-0.001355,0.008337,0.007007,-0.080078,0.453613,0.46167,-1.349387,-7.129888,6.666362,0.008635,0.011783,-0.001186,0.647949,0.112061,-0.115479,1.971548,-7.27489,6.360776,0.01081,0.00023,0.001731,0.148682,0.325928,-0.574951,0.690773,-5.886892,7.812606,0.002016,-0.004414,-0.004099,-0.251221,0.403076,-0.464844
1.829613,-7.361521,6.291343,-0.00194,0.000995,-0.000741,-0.285645,0.520996,-0.044189,-0.040049,8.347481,5.149891,-0.023933,0.00216,0.005476,-0.077393,0.443848,0.463379,-1.341565,-7.08221,6.687479,-0.005557,-0.001624,-0.00064,0.657227,0.102783,-0.110596,1.982881,-7.210559,6.364577,-0.013399,0.003467,0.011429,0.157471,0.318115,-0.568848,0.71045,-5.898343,7.804177,0.003787,-0.002142,-0.000594,-0.242432,0.394287,-0.45874
1.77877,-7.290078,6.280258,0.008429,0.001787,0.001971,-0.283447,0.526611,-0.041992,-0.039678,8.301865,5.149298,-0.009231,0.00863,0.00385,-0.073486,0.446777,0.467285,-1.314188,-7.130565,6.667192,-0.011373,0.006536,0.002557,0.658691,0.111572,-0.109375,1.982579,-7.289509,6.362439,-0.00586,0.002283,0.01103,0.158447,0.322021,-0.568848,0.688267,-5.881555,7.797368,-0.002572,-0.000387,-0.009219,-0.241699,0.401123,-0.456787
1.804094,-7.314729,6.288859,-0.00602,0.000279,-0.002215,-0.292725,0.521973,-0.045654,-0.067371,8.325955,5.165605,-0.00273,0.003576,0.005357,-0.076416,0.445557,0.464844,-1.354512,-7.120233,6.670248,0.000177,0.002247,-0.003177,0.647461,0.108887,-0.11377,1.977415,-7.248262,6.356884,0.000165,0.001949,0.006389,0.14917,0.322266,-0.573242,0.696745,-5.92161,7.801454,-0.006103,-0.004468,0.002829,-0.249512,0.397949,-0.461182
1.81264,-7.331821,6.30321,0.003921,0.003393,0.000448,-0.277588,0.521729,-0.042969,-0.035303,8.35275,5.154741,-0.008316,0.007011,0.004426,-0.073975,0.44165,0.461182,-1.310186,-7.115677,6.668759,-0.001014,0.002957,0.000108,0.661133,0.11084,-0.108643,1.959371,-7.272105,6.347093,-0.008468,0.001018,0.012466,0.163818,0.320068,-0.567139,0.692254,-5.891877,7.805949,0.01745,0.000873,-0.009729,-0.234619,0.397705,-0.453613
1.796772,-7.308069,6.261401,-0.00078,-0.001472,-0.000242,-0.286621,0.521484,-0.041504,-0.050891,8.302763,5.15079,-0.029763,0.004242,0.005375,-0.074951,0.45459,0.467285,-1.342424,-7.100476,6.668889,-0.002188,0.004828,-0.000487,0.656982,0.108643,-0.108887,1.997858,-7.233347,6.366649,0.004921,-0.003246,0.003008,0.157227,0.320068,-0.565918,0.699703,-5.893567,7.779333,-0.014953,-0.00455,0.001872,-0.243164,0.396973,-0.455322
1.816545,-7.3571,6.317257,0.00167,0.005977,-0.00152,-0.283203,0.516846,-0.046875,-0.023249,8.308477,5.129324,0.016167,0.010727,0.003075,-0.075928,0.449707,0.469727,-1.307341,-7.134131,6.68312,-0.020197,0.004873,0.001536,0.656006,0.102783,-0.114746,1.977177,-7.283889,6.330441,-0.02224,0.008507,0.018376,0.159668,0.315186,-0.578613,0.720916,-5.947127,7.830556,0.007388,0.003119,-0.003752,-0.241211,0.392822,-0.463623
1.75386,-7.287064,6.278493,0.013883,0.002539,0.002349,-0.286621,0.520508,-0.047607,-0.103693,8.409707,5.130961,-0.004658,0.008362,0.003975,-0.085938,0.448486,0.460693,-1.402477,-7.126733,6.668899,0.024771,0.014224,0.000803,0.652588,0.106445,-0.115967,1.936108,-7.272992,6.371544,0.025763,0.003652,-0.000614,0.153809,0.319336,-0.572998,0.653676,-5.872901,7.817024,0.006663,0.005777,-0.00633,-0.244141,0.39502,-0.464844
1.819968,-7.300592,6.288907,-0.021977,-0.003889,-0.000128,-0.291504,0.52002,-0.041504,0.017443,8.292668,5.178973,-0.051173,-0.009226,0.004866,-0.082031,0.448975,0.462646,-1.284979,-7.02897,6.699414,-0.010766,-0.011908,-0.006712,0.649658,0.105469,-0.111816,2.016682,-7.203903,6.369001,-0.023605,-0.006358,0.013343,0.148926,0.319824,-0.568848,0.713957,-5.896339,7.726625,-0.001665,-0.015347,0.004365,-0.250732,0.394531,-0.459229
1.7963,-7.395974,6.250512,0.004976,0.008783,-0.002699,-0.285889,0.526123,-0.044189,-0.058337,8.276948,5.140285,0.019577,0.026137,0.007873,-0.076172,0.459717,0.466553,-1.310218,-7.179475,6.655676,-0.033145,0.019406,0.010289,0.651367,0.112061,-0.108643,1.972725,-7.344941,6.340853,-0.013026,0.010551,0.016326,0.153564,0.326904,-0.572021,0.70412,-5.858681,7.856083,-0.001656,0.007552,-0.015458,-0.245361,0.402588,-0.456055
1.792608,-7.277477,6.312457,0.02287,-0.006259,0.004844,-0.285889,0.527588,-0.044922,-0.098794,8.402152,5.125309,-0.001185,-0.006798,0.0016,-0.077148,0.453369,0.464111,-1.381539,-7.134283,6.683365,0.022987,-0.007707,-0.01159,0.654053,0.113037,-0.111328,1.950985,-7.213973,6.333322,0.016583,-0.007917,-0.001894,0.155762,0.325439,-0.570557,0.682916,-6.001521,7.795116,-0.028738,-0.001675,0.012027,-0.243652,0.403564,-0.459961
1.840896,-7.29117,6.30689,-0.028042,0.008093,-0.001647,-0.291016,0.522705,-0.048584,0.022242,8.329739,5.175441,-0.035654,0.004491,0.006508,-0.075195,0.450439,0.46875,-1.240668,-7.062439,6.655168,-0.007054,0.002208,0.002603,0.64917,0.109619,-0.117188,2.004528,-7.246846,6.315435,-0.023017,0.000644,0.019758,0.149902,0.321533,-0.577148,0.707509,-5.883404,7.744908,0.063018,-0.004101,-0.01801,-0.249268,0.396729,-0.463135
1.761985,-7.441315,6.217616,0.007009,-0.002299,-0.002865,-0.288818,0.526855,-0.044678,-0.101325,8.247824,5.132334,-0.010865,0.012449,0.005895,-0.071533,0.456055,0.463867,-1.384899,-7.114517,6.674632,-0.012682,0.017904,0.003991,0.652832,0.111328,-0.111084,1.959043,-7.273364,6.358467,0.010969,0.008992,0.001189,0.153076,0.326172,-0.572998,0.709002,-5.798264,7.862045,-0.03231,-0.000167,0.000541,-0.245605,0.400391,-0.459473
1.823107,-7.229002,6.337617,0.029256,0.004382,0.002426,-0.289795,0.522705,-0.044189,-0.041525,8.365046,5.157114,0.03052,-0.002246,0.000637,-0.071777,0.451904,0.467529,-1.32104,-7.18681,6.655385,-0.011186,-0.011651,0.000647,0.651123,0.108154,-0.113037,1.965797,-7.274626,6.371641,-0.021889,0.003015,0.02045,0.151367,0.320557,-0.571533,0.685656,-6.024235,7.776611,-0.020363,0.00257,0.008303,-0.246094,0.398682,-0.459473
1.785376,-7.310552,6.244811,-0.035923,-0.000518,-0.003923,-0.282227,0.526855,-0.043701,-0.029305,8.403317,5.166702,-0.036264,0.012203,0.008017,-0.081543,0.448486,0.467529,-1.317612,-7.121193,6.661404,0.033765,0.022062,-0.002481,0.658203,0.111328,-0.112061,1.990458,-7.30016,6.388202,0.027241,0.002124,-0.001755,0.160645,0.32666,-0.568115,0.698781,-5.889555,7.80712,0.045894,-0.005982,-0.021188,-0.23999,0.401855,-0.459961
1.814558,-7.38352,6.260382,0.020274,0.002086,0.004,-0.277588,0.517334,-0.041992,-0.052787,8.220605,5.113482,-0.028903,0.001583,0.005726,-0.078613,0.453857,0.466797,-1.372667,-7.022212,6.708746,-0.017217,-0.003377,-0.003028,0.661621,0.104492,-0.109863,1.980531,-7.133146,6.401346,-0.011025,-0.002677,0.010006,0.162598,0.31543,-0.569336,0.714983,-5.839423,7.830961,-0.01213,-0.002456,0.011864,-0.235352,0.394287,-0.460449
1.785797,-7.253521,6.331047,0.003325,-0.001164,-0.001942,-0.285889,0.518555,-0.045654,-0.036613,8.367788,5.140657,0.040163,0.007242,0.002142,-0.072754,0.445068,0.463379,-1.287895,-7.216093,6.645759,-0.046219,-0.00254,0.007519,0.655762,0.106445,-0.114502,1.958663,-7.372992,6.322029,-0.047206,-0.001199,0.025064,0.158936,0.319824,-0.575439,0.677432,-5.912567,7.783069,-0.008672,0.008031,-0.012207,-0.240967,0.397461,-0.463379
1.812773,-7.337722,6.262335,-0.013549,0.005225,-0.001398,-0.283447,0.516113,-0.046143,-0.048303,8.418267,5.161944,-0.042349,0.004825,0.007273,-0.068848,0.454346,0.469971,-1.342752,-7.148588,6.629198,0.047814,0.009056,-0.012127,0.652344,0.104492,-0.11377,2.005344,-7.252694,6.315545,0.050526,-0.002787,-0.01258,0.155518,0.316895,-0.573242,0.692801,-5.892252,7.827536,0.008943,-0.018151,0.001091,-0.240479,0.395996,-0.460693
1.804291,-7.369177,6.276693,-0.001292,-0.00259,-0.001462,-0.284668,0.513916,-0.043213,-0.027191,8.218804,5.141668,-0.031159,0.004221,0.009235,-0.08252,0.443115,0.457764,-1.309189,-7.000091,6.691057,-0.021574,-0.000802,0.002738,0.657471,0.098877,-0.112549,2.006639,-7.142903,6.355452,-0.036358,0.007714,0.022312,0.158691,0.312744,-0.571777,0.751903,-5.932481,7.829556,-0.015599,0.003774,-0.006008,-0.241211,0.393311,-0.460693
1.798274,-7.310848,6.282609,0.014078,0.009013,0.001518,-0.2854,0.519775,-0.048584,-0.043403,8.321389,5.126298,0.034314,0.010872,-0.000779,-0.077393,0.447021,0.471191,-1.306709,-7.221943,6.627037,-0.03044,0.008356,0.008548,0.656494,0.105225,-0.113525,1.916204,-7.375038,6.317523,-0.009452,-0.000486,0.013731,0.156738,0.319092,-0.575684,0.660617,-5.935376,7.793344,0.008893,0.014908,0.002235,-0.243164,0.395264,-0.466064
1.779406,-7.257013,6.290909,0.002111,-0.003876,0.000182,-0.288818,0.52417,-0.046387,-0.071384,8.404536,5.17837,-0.025982,0.005129,0.007901,-0.075928,0.447998,0.459473,-1.340836,-7.123222,6.668683,0.037792,0.007521,-0.007921,0.649414,0.108887,-0.111328,2.004965,-7.212672,6.385446,0.022121,0.000224,-0.003276,0.150635,0.322754,-0.571533,0.672151,-5.870972,7.779853,0.026018,-0.013082,-0.008391,-0.248291,0.399414,-0.460938
1.818406,-7.366183,6.284615,-0.025613,0.006189,-0.002659,-0.286377,0.519043,-0.047852,-0.026759,8.27158,5.162137,-0.027468,0.002702,0.00459,-0.082031,0.454346,0.462402,-1.321033,-7.062695,6.705038,-0.020851,0.004657,0.003956,0.654053,0.102539,-0.116699,1.960691,-7.262866,6.394381,-0.025448,0.00775,0.021613,0.155518,0.319336,-0.576172,0.719923,-5.827789,7.810212,-0.010493,-0.000267,-0.002858,-0.242188,0.396973,-0.4646
1.784267,-7.357761,6.275427,0.036339,-0.004033,-0.000575,-0.282471,0.517822,-0.041016,-0.046939,8.314329,5.07953,0.019283,0.011143,0.005762,-0.081787,0.450928,0.462402,-1.346979,-7.163803,6.664008,-0.004616,0.004098,-0.000882,0.657227,0.104004,-0.108643,1.986381,-7.270659,6.360473,0.015542,-0.00539,-0.000656,0.160889,0.315674,-0.56958,0.688251,-5.978803,7.810236,-0.03472,0.00346,2.9e-05,-0.239014,0.393799,-0.45752
1.834175,-7.188578,6.325014,-0.013063,0.00675,0.002995,-0.281738,0.518555,-0.042236,-0.042282,8.409828,5.183143,-0.013409,-0.000141,0.003004,-0.078369,0.451904,0.46582,-1.332611,-7.092466,6.672995,0.000998,0.000194,-0.005704,0.656982,0.104492,-0.111084,2.021059,-7.208853,6.42422,-0.017154,0.00265,0.015046,0.162109,0.316406,-0.56665,0.711382,-5.958114,7.785447,0.033877,-0.008608,-0.007278,-0.239014,0.39502,-0.45874
1.786012,-7.47854,6.244747,-0.033161,-0.007978,-0.004471,-0.284424,0.523682,-0.044922,-0.017793,8.296012,5.15535,-0.031576,0.00309,0.005418,-0.073242,0.447998,0.467041,-1.402195,-7.016525,6.894423,-0.008323,-0.010198,0.004508,0.656738,0.111328,-0.108398,2.115361,-7.077228,6.64435,0.008566,-0.016219,0.009276,0.158936,0.326172,-0.568848,0.693274,-5.833171,7.810662,0.011243,0.006864,-0.006777,-0.240479,0.401855,-0.459229
1.766307,-7.149638,6.371323,0.070707,0.019062,0.012397,-0.281494,0.523926,-0.059082,-0.134935,8.419086,5.04187,-0.010731,0.031302,0.006184,-0.081299,0.447754,0.461182,-1.374624,-7.106596,6.632154,-0.104818,-0.029276,-0.020094,0.658691,0.111328,-0.125977,2.04495,-7.486372,6.292578,-0.219004,0.030535,0.074361,0.157471,0.324707,-0.580078,0.674196,-5.839202,7.819854,-0.024037,0.001425,-0.000114,-0.239014,0.401367,-0.470459
1.811923,-7.262347,6.225024,-0.135816,-0.021004,-0.00431,-0.282715,0.530029,-0.044189,-0.012192,8.280778,5.32718,-0.073248,-0.040764,0.006634,-0.073242,0.452637,0.468018,-1.205454,-7.3338,6.460885,-0.02395,-0.048323,-0.013454,0.658203,0.113525,-0.111572,1.670398,-7.641897,6.079896,0.122089,0.010224,-0.025176,0.161865,0.329346,-0.570557,0.673586,-5.934843,7.691881,-0.053017,-0.018156,0.003029,-0.239502,0.405029,-0.462158
1.810465,-7.770838,6.202893,0.063638,0.015776,-0.006912,-0.289551,0.523193,-0.043213,0.047514,8.150639,5.100637,0.007578,0.052657,0.009893,-0.072021,0.452393,0.468262,-1.147937,-7.096364,6.491655,0.053372,0.042588,-0.007798,0.648682,0.108887,-0.108154,1.924008,-6.683647,6.076825,0.040217,-0.03733,-0.02708,0.153809,0.321289,-0.567139,0.731641,-6.013042,7.816117,0.027401,0.00951,-0.009833,-0.245605,0.397705,-0.459473
1.814929,-6.931863,6.380117,0.083255,-0.011888,0.004797,-0.286621,0.522217,-0.046875,-0.200537,8.436677,5.17932,0.067918,-0.026037,-0.005909,-0.079834,0.45166,0.459229,-1.383902,-7.101414,6.607715,0.014959,0.020233,0.024349,0.654541,0.107178,-0.111328,1.971865,-7.404235,5.998215,-0.100097,0.01234,0.063882,0.155273,0.322998,-0.570312,0.707741,-5.933407,7.92132,0.014065,-0.015203,-0.007528,-0.244141,0.39917,-0.458984
1.849649,-7.467151,6.252777,-0.119866,0.009786,-0.005394,-0.2854,0.516357,-0.042236,0.159542,8.341081,5.177079,-0.04942,0.012423,0.009908,-0.07666,0.44458,0.467773,-1.15405,-7.205597,6.646888,0.03436,0.045084,0.026053,0.652588,0.098877,-0.111084,2.009876,-7.46554,6.366055,0.156436,0.044081,-0.044888,0.15625,0.313232,-0.572021,0.812983,-5.981049,7.696595,0.020712,0.007973,0.011518,-0.245605,0.390381,-0.463135
1.775134,-7.481156,6.227907,0.13039,0.010527,0.001014,-0.285889,0.518066,-0.054688,-0.221246,8.246051,5.114698,0.038184,0.027652,-0.001999,-0.077148,0.446045,0.4646,-1.515754,-7.114982,6.816678,0.061913,0.066649,0.006797,0.65625,0.108154,-0.118652,2.022914,-7.096747,6.895234,0.04223,0.024735,0.008962,0.156982,0.317139,-0.581787,0.591319,-5.811659,7.829219,0.046453,0.037177,-0.017799,-0.242188,0.393311,-0.468262
1.712198,-6.919167,6.415825,-0.004923,-0.014697,0.00416,-0.281006,0.526611,-0.045654,-0.038004,8.48398,5.048438,0.023522,-0.026337,0.002296,-0.072021,0.458984,0.464111,-1.499192,-6.920673,6.977049,0.015661,-0.046318,-0.003147,0.660156,0.110352,-0.113037,2.005648,-7.163176,6.96172,-0.047302,-0.048914,0.011799,0.1604,0.32373,-0.572998,0.590265,-5.831442,7.734603,-0.000346,-0.027103,0.011712,-0.237793,0.399902,-0.462158
1.827783,-7.334214,6.28305,-0.081666,0.010655,-0.006664,-0.285645,0.522461,-0.039062,-0.08496,8.476484,5.130995,-0.093847,0.040878,0.012379,-0.073486,0.452148,0.461182,-1.375834,-6.934649,6.902112,-0.117086,-0.015893,-0.037454,0.655273,0.107666,-0.108887,2.261804,-7.400795,6.735972,-0.117699,-0.073776,0.03758,0.156494,0.320557,-0.564697,0.733872,-5.686158,7.779128,0.009715,-0.010501,-0.026239,-0.242676,0.395264,-0.455566
1.840098,-7.455128,6.23266,-0.031818,-0.008662,0.006151,-0.283691,0.522217,-0.054932,0.020196,8.196042,5.075308,-0.082927,-0.034007,0.010591,-0.075195,0.448486,0.460205,-1.456793,-6.976071,6.939277,-0.088591,-0.104265,-0.001544,0.655029,0.109863,-0.121338,2.22677,-6.485134,7.00263,0.072435,-0.037034,-0.008744,0.156006,0.323242,-0.579834,0.756568,-5.897839,7.943072,-0.16832,-0.032343,0.01872,-0.243164,0.399414,-0.467041
1.718016,-7.213604,6.370771,0.013868,0.020924,0.016725,-0.285645,0.532471,-0.046387,-0.125717,8.387013,5.12861,-0.024224,0.092064,-0.000944,-0.082031,0.451416,0.453125,-1.443731,-7.158986,6.873476,-0.319349,-0.092167,-0.055285,0.654541,0.120361,-0.114258,2.310113,-7.549895,6.350935,-0.798455,-0.062425,0.237186,0.157471,0.341553,-0.564697,0.678529,-6.286118,7.751555,-0.030048,0.046523,0.001071,-0.241943,0.408447,-0.463135
1.611586,-7.155099,6.226543,-0.140768,-0.044433,-0.000439,-0.288086,0.528809,-0.045166,-0.374453,8.419754,5.412947,-0.124935,-0.113667,0.003277,-0.078613,0.45166,0.461182,-1.984091,-7.999866,7.218526,-0.221452,-0.273841,-0.047093,0.646729,0.117432,-0.115967,2.916523,-9.253225,5.486623,0.003479,0.109761,0.054496,0.157471,0.338135,-0.562012,0.306211,-5.602134,7.422825,0.153225,-0.010069,-0.029795,-0.243896,0.403809,-0.461426
2.175012,-7.765857,6.153029,-0.020248,0.037244,-0.012414,-0.289551,0.521729,-0.045166,0.688985,8.020074,5.203467,-0.166487,0.064096,0.044601,-0.068848,0.447266,0.459961,-0.263375,-7.148651,5.773357,0.060859,-0.322391,-0.203304,0.640869,0.113281,-0.122559,2.227404,-6.222243,5.784606,0.265011,0.694724,-0.025191,0.162109,0.327637,-0.562256,1.145074,-5.467588,8.16804,-0.183419,-0.205142,-0.021247,-0.248291,0.398438,-0.459961
1.957431,-7.251223,6.362428,0.011421,-0.029838,0.025643,-0.291992,0.524658,-0.044678,-0.497675,8.102667,4.98604,0.153986,-0.024318,-0.039466,-0.081787,0.450195,0.45874,-1.162402,-7.076239,6.461601,-0.235688,-0.081345,0.004058,0.635254,0.120605,-0.12207,0.274915,-7.517034,6.794464,-0.675266,0.291513,0.297052,0.165283,0.338379,-0.556152,1.126448,-6.665044,8.285957,-0.353359,0.159516,0.043948,-0.249512,0.404541,-0.456299
1.365549,-7.179481,6.289641,-0.019093,0.064516,0.044916,-0.281738,0.519287,-0.041748,-0.091113,8.923334,5.480743,-0.130847,-0.012961,-0.009929,-0.074707,0.450684,0.463867,-1.622106,-7.808409,7.055405,-0.275455,-0.133592,-0.158422,0.640625,0.114258,-0.123535,1.923689,-8.872134,7.541819,-0.064702,-0.255733,0.027727,0.171143,0.33252,-0.552246,0.278445,-6.895452,7.280536,0.193421,0.117522,0.01251,-0.240723,0.397705,-0.458252
1.649399,-7.312039,6.200225,-0.060832,-0.076079,-0.010764,-0.292969,0.537598,-0.041748,-0.321865,8.159215,5.131234,-0.179039,-0.090298,0.048859,-0.074463,0.433105,0.465576,-1.801722,-7.456772,7.585241,-0.177133,-0.387999,-0.205909,0.627197,0.138916,-0.126221,3.193313,-7.55006,7.615138,-0.457034,0.14917,0.055491,0.161621,0.358887,-0.543457,0.074585,-4.634439,7.070372,0.573281,-0.11643,-0.07035,-0.250732,0.40625,-0.462891
1.89859,-7.011808,6.323722,-0.094126,0.008355,-0.002529,-0.294434,0.521973,-0.042236,0.481914,8.107419,4.758333,-0.181266,-0.001104,-0.019704,-0.07251,0.442139,0.460938,-1.085358,-6.700863,7.158776,-0.376082,-0.551289,-0.436952,0.619141,0.130371,-0.133545,2.584377,-9.343868,5.420512,-1.178535,0.255331,0.188988,0.165771,0.359863,-0.530273,0.883496,-4.170978,8.270385,-0.541668,-0.173634,-0.044278,-0.253662,0.397949,-0.456055
2.569254,-7.755851,6.275243,-0.262057,-0.004568,0.005368,-0.28833,0.519775,-0.043457,0.74133,8.244198,4.773415,-0.138528,0.136977,-0.017018,-0.07373,0.438721,0.466553,-0.180165,-6.342224,6.839539,-0.463048,-0.730296,-0.607657,0.609131,0.139893,-0.148193,3.95396,-9.276197,5.256404,-0.038207,0.856265,-0.287964,0.172607,0.361572,-0.531494,1.813618,-7.643793,8.503493,-1.041141,-0.089806,0.086059,-0.250977,0.408936,-0.448242
1.819815,-7.53925,6.244131,-0.072176,0.030751,0.091039,-0.284912,0.528809,-0.031738,-0.155271,8.523106,5.278131,-0.277309,0.203358,-0.127755,-0.079834,0.444824,0.466797,-1.169668,-7.751565,7.112838,-0.766401,-0.679692,-0.381563,0.605469,0.1604,-0.140137,1.582777,-6.408667,7.374996,-0.295334,1.53683,-0.150191,0.193848,0.37085,-0.504639,1.065431,-8.490261,8.017576,0.256829,0.27291,0.016069,-0.242432,0.412109,-0.442383
1.533796,-7.255676,6.097247,-0.192079,0.028387,0.069979,-0.285645,0.531982,-0.037842,-0.288411,8.323497,5.760897,-0.345487,0.146126,-0.068003,-0.081055,0.439941,0.470947,-0.767375,-8.727503,6.367938,-0.471441,-1.049792,-0.798558,0.592041,0.174316,-0.162109,0.278828,-8.929514,7.299701,-1.306925,0.946616,0.051761,0.203369,0.389404,-0.496338,0.477284,-5.00058,7.184492,0.691814,0.045023,-0.030283,-0.240967,0.405029,-0.459961
1.566786,-7.7419,5.77595,-0.201304,-0.08191,-0.020423,-0.275391,0.530273,-0.0271,-0.303962,7.615083,5.86966,-0.335684,0.102758,-0.08893,-0.079346,0.442871,0.47876,-0.187606,-8.682497,6.214811,-0.196982,-0.992306,-0.470512,0.585938,0.185303,-0.166504,0.982146,-11.438419,6.509287,-0.214623,1.046706,-0.243985,0.216309,0.39209,-0.477783,0.016738,-3.626691,6.710272,-0.221056,0.13997,0.037807,-0.231445,0.404297,-0.453369
1.526075,-7.557104,5.995511,0.123592,0.064125,0.022273,-0.277588,0.536865,-0.041016,-0.609904,7.690495,6.091627,0.112076,0.140565,0.023107,-0.081543,0.44165,0.472168,0.450626,-9.080499,4.942032,-0.032876,-0.920944,-0.719344,0.567871,0.20166,-0.186523,-1.716717,-8.273984,7.230345,0.813992,0.774722,-0.615722,0.210938,0.388916,-0.495117,0.250807,-6.147641,7.477642,-0.887613,-0.245334,-0.089677,-0.236328,0.423584,-0.45166
1.271776,-7.502114,6.132868,-0.194153,-0.064037,-0.078695,-0.288818,0.532959,-0.036133,-1.048183,8.190435,5.903216,0.085563,-0.105384,0.013963,-0.082275,0.447266,0.47168,0.334699,-8.667683,5.230964,0.223527,-0.671994,-0.338118,0.540039,0.202393,-0.195068,-1.308959,-5.942209,7.569176,-0.126328,-0.700738,-0.376291,0.185059,0.389648,-0.490234,0.976349,-8.644205,8.053486,-0.166198,0.047949,0.080326,-0.24707,0.423096,-0.451172
2.53047,-8.463342,5.617017,0.2847,-0.089245,0.025946,-0.289307,0.538818,-0.032959,0.422826,8.18488,5.759593,0.146277,-0.29102,0.041079,-0.07959,0.446533,0.471191,1.390709,-8.162997,5.435049,0.301555,-0.708253,-0.430792,0.527344,0.212158,-0.204834,1.52025,-8.836839,5.767738,-0.453077,-1.243002,-0.252768,0.164062,0.399414,-0.479248,0.993865,-6.694358,7.829917,1.052163,-0.097947,-0.16029,-0.247559,0.415771,-0.455078
2.043888,-6.353167,6.640846,0.231349,0.058753,-0.009683,-0.290283,0.529541,-0.032959,0.551692,7.796402,4.691542,0.142162,-0.04753,0.052061,-0.081543,0.440674,0.467285,1.237816,-7.009834,6.499533,0.452121,-0.419966,-0.326395,0.515381,0.205078,-0.213379,2.304835,-9.067932,5.50999,0.316984,-0.909523,-0.564866,0.143799,0.390625,-0.481689,2.131127,-4.026884,9.475797,0.196761,0.177936,-0.024283,-0.245361,0.405518,-0.456787
1.484505,-7.185618,6.517017,-0.101462,-0.01181,-0.039978,-0.283936,0.531982,-0.037109,-0.326183,9.036101,4.620779,0.350361,0.033016,-0.102344,-0.078613,0.443848,0.466309,-0.291562,-5.634453,7.244752,0.263773,-0.642191,-0.582368,0.506104,0.212402,-0.229736,2.020276,-7.102672,5.279617,0.134552,-0.680047,-0.583618,0.128662,0.390869,-0.48877,0.552204,-4.19018,8.933675,0.026507,0.714994,-0.106111,-0.234619,0.403809,-0.4646
1.57666,-6.892407,6.375954,-0.318721,-0.07798,-0.025142,-0.288086,0.533447,-0.035156,-0.272403,9.090472,5.144841,-0.536392,0.08757,-0.013153,-0.079102,0.438232,0.465088,0.92071,-5.668641,6.774723,-0.479996,-0.951417,-0.676653,0.488281,0.224609,-0.231934,2.661747,-7.292489,4.702416,-0.606234,-0.20364,-0.488974,0.117676,0.402344,-0.477051,-0.197205,-6.2503,6.711998,-1.451099,0.411191,-0.104609,-0.230957,0.42041,-0.452393
2.202222,-8.317715,5.900647,-0.359537,-0.054122,-0.044142,-0.286377,0.532227,-0.021484,0.299095,7.336728,4.982314,-0.434258,0.143203,-0.140764,-0.086426,0.433838,0.469482,1.742409,-7.431417,5.951542,-0.847523,-0.749221,-0.712055,0.477539,0.236084,-0.22583,2.289689,-8.568677,4.897307,-0.68971,0.284814,-0.517392,0.111572,0.406006,-0.458252,0.492353,-9.14163,6.941388,-0.163531,0.109304,0.192862,-0.224854,0.42334,-0.445801
2.351803,-7.656831,5.726503,-0.034387,-0.011452,0.130963,-0.283936,0.532227,-0.026123,0.002192,7.829232,6.141596,-0.11571,0.168082,-0.054801,-0.083252,0.439941,0.470215,1.933929,-9.024219,5.260373,-0.703814,-0.897977,-0.820648,0.460205,0.245605,-0.230225,1.92212,-8.678322,5.368056,-0.578134,0.136753,-0.612626,0.104492,0.411133,-0.449951,0.94887,-6.35499,6.657735,0.566236,0.221052,-0.374892,-0.225098,0.411133,-0.455566
1.06043,-7.80525,5.707524,-0.078397,0.08187,-0.019186,-0.279785,0.527344,-0.02417,-0.926744,7.833728,6.266296,-0.091795,0.105742,-0.078693,-0.093506,0.434326,0.470215,2.518376,-9.953786,5.435942,-0.295444,-0.712028,-0.662805,0.446533,0.253906,-0.237305,1.838123,-9.100231,5.284778,-0.211255,0.133054,-0.547297,0.103271,0.409668,-0.449463,-0.137845,-5.49913,7.019179,-0.192545,0.231902,0.404811,-0.211182,0.413086,-0.457031
1.591352,-7.744963,5.573965,0.199244,-0.061446,0.078446,-0.284424,0.530273,-0.025635,-1.048402,7.41129,6.487394,0.043178,-0.249984,0.169293,-0.07373,0.431152,0.474365,2.251872,-9.92216,4.560159,0.261341,-0.578552,-0.619826,0.427246,0.258545,-0.243408,0.845173,-8.081464,5.770522,0.303095,-0.291811,-0.626251,0.082031,0.408691,-0.447998,-0.629373,-7.100848,6.095113,-0.192601,-0.043899,-0.179778,-0.221924,0.416504,-0.45166
1.442055,-7.908046,5.848222,0.189148,0.074568,-0.050485,-0.287354,0.526855,-0.030762,-0.062697,7.37811,5.939933,0.51526,-0.212926,0.04252,-0.077881,0.44043,0.469238,2.547931,-8.351003,5.211549,0.782301,-0.525711,-0.439088,0.412598,0.251709,-0.260742,1.722037,-7.483709,5.476214,0.234816,-0.977946,-0.459688,0.061768,0.401123,-0.45459,0.172567,-6.599836,7.358207,0.74345,-0.227153,0.232496,-0.223633,0.404297,-0.462158
1.66248,-8.110742,5.837136,0.5068,-0.035338,-0.034038,-0.285156,0.525635,-0.040283,-0.332155,8.418893,4.933579,0.53219,-0.244377,0.252318,-0.074463,0.440674,0.468262,2.791014,-6.501312,5.906885,0.580616,-0.384434,-0.501479,0.398682,0.252197,-0.276367,2.965462,-8.299748,4.96716,0.026658,-0.980645,-0.516545,0.042725,0.400879,-0.458008,0.903503,-6.044996,8.580874,0.077145,-0.164059,-0.145537,-0.224365,0.406494,-0.465332
3.105818,-5.672113,7.765033,0.36726,0.005209,0.073699,-0.281738,0.525146,-0.030029,0.856292,9.555066,4.75501,0.468827,-0.241579,-0.024511,-0.072754,0.445068,0.460938,2.586373,-6.289608,5.879718,0.233085,-0.454515,-0.463616,0.384277,0.251465,-0.272705,3.074471,-8.333772,4.858202,0.339813,-0.848631,-0.629327,0.027344,0.391602,-0.445801,1.424563,-6.898195,8.366568,0.236104,0.047896,0.435596,-0.216553,0.406494,-0.455078
0.809295,-8.817026,5.425038,-0.646124,0.097539,-0.013778,-0.285645,0.526855,-0.035889,-0.112504,8.767987,4.46053,-0.473838,0.086957,0.064742,-0.063477,0.438232,0.470703,2.810447,-5.544301,6.431061,0.288788,-0.375568,-0.712118,0.368652,0.256104,-0.283447,2.696048,-6.480887,4.835764,0.222656,-0.759619,-0.82951,0.001221,0.390137,-0.456055,-0.005697,-6.354664,8.655906,0.135185,0.195232,-0.040544,-0.219238,0.403809,-0.46582
0.753645,-7.786029,5.433985,0.736784,-0.170185,0.221327,-0.278076,0.536865,-0.043945,-0.411861,8.854543,4.059408,0.611764,0.099012,0.190964,-0.066162,0.455078,0.453369,4.777114,-4.705606,8.236697,-0.288059,-0.283612,-0.739122,0.358398,0.273682,-0.284912,3.727924,-5.885633,4.537936,-0.522974,-1.110067,-0.739199,-0.016113,0.402832,-0.446533,0.5979,-5.845195,8.847951,0.107444,0.19139,0.235518,-0.209229,0.412842,-0.469482
3.109539,-6.043886,6.745082,-0.556761,-0.310788,0.057494,-0.274902,0.527344,-0.033203,1.183876,9.999079,5.774334,-0.449749,0.260324,0.334805,-0.06543,0.447266,0.448486,2.839107,-6.746131,5.768632,-1.014538,0.409722,-0.613392,0.35376,0.274902,-0.273438,5.435804,-8.041733,4.089469,-0.92657,-0.522236,-0.715142,-0.029541,0.399658,-0.43335,2.058435,-6.664458,8.70072,-0.523345,0.502785,0.095004,-0.197266,0.405518,-0.466797
1.663102,-10.597101,5.384949,-0.348647,-0.189116,0.186381,-0.279053,0.533203,-0.022949,-0.505914,6.814834,6.783814,-0.437886,0.31826,0.197776,-0.073486,0.439697,0.442627,3.096803,-10.595633,4.571444,-0.857725,-0.566329,-0.706975,0.331543,0.290771,-0.263916,4.321578,-8.932922,4.430407,-0.068059,-0.067676,-0.720199,-0.046631,0.4021,-0.426025,1.483873,-8.078431,8.297941,-0.325597,1.066263,0.31174,-0.186768,0.41333,-0.461426
2.787007,-7.491913,6.871224,0.741254,-0.417771,0.251141,-0.278564,0.530273,-0.035889,-1.336367,6.905971,7.898611,0.728594,-0.374622,0.02674,-0.064941,0.431885,0.429932,4.913154,-13.516136,3.032516,-0.351954,-0.203288,-0.154457,0.316406,0.290283,-0.278076,4.597646,-6.610208,5.000993,0.583314,-0.472094,-0.537658,-0.061279,0.388428,-0.441895,-0.799022,-7.45855,8.469699,0.48865,1.057598,0.14682,-0.172119,0.39917,-0.482178
2.302707,-7.025098,7.571665,-0.674065,-0.013826,0.158578,-0.270508,0.533203,-0.025146,0.926488,8.288863,6.247364,0.675502,-0.814872,0.047089,-0.059326,0.416504,0.42041,2.620263,-11.074819,4.33484,2.477701,-0.526381,-0.237965,0.302002,0.271729,-0.303467,4.703641,-6.797424,4.892435,0.498411,-0.378038,0.11066,-0.063232,0.38208,-0.44165,-1.2993,-4.740612,8.972263,0.188863,0.728409,0.084141,-0.1521,0.402588,-0.483398
3.203829,-11.136476,6.649867,0.211333,0.283015,0.228101,-0.264648,0.529297,-0.03418,1.749039,8.031226,5.059935,0.322191,-0.39535,0.146558,-0.040283,0.415039,0.415527,5.366147,-1.097048,6.9326,2.249625,-0.603662,-0.367325,0.279785,0.252441,-0.333252,4.430323,-7.50879,5.430982,0.440605,-0.568117,-0.239111,-0.078613,0.373291,-0.445557,-1.898375,-7.082647,8.197547,-0.77511,0.532765,0.436425,-0.140869,0.407471,-0.478516
2.013713,-7.793643,7.885692,1.175282,0.692018,0.23994,-0.248047,0.533936,-0.050537,1.25987,8.318376,3.731822,0.828611,-0.097956,0.213767,-0.039062,0.404053,0.407715,3.635559,-2.107526,7.469902,-0.917722,-0.228205,0.069565,0.276367,0.269531,-0.324463,4.757971,-7.918283,5.107693,0.302925,-0.660636,-0.257015,-0.086182,0.376709,-0.445068,-2.483349,-9.072517,8.191203,0.771207,0.010098,0.209625,-0.13208,0.403076,-0.483643
2.881287,-6.872007,8.193732,-0.169821,0.82088,0.254091,-0.246338,0.521729,-0.063477,1.536577,10.533744,4.868378,0.411602,0.269561,0.139144,-0.029297,0.396729,0.405273,3.892528,-7.742209,6.211981,-0.641027,-0.598198,-0.452202,0.245361,0.267334,-0.327881,5.281384,-6.818436,4.878293,0.199656,-0.530306,-0.717238,-0.117188,0.360107,-0.442627,-1.155174,-4.737126,8.734704,1.402281,-0.523179,-0.040259,-0.147949,0.369873,-0.496094
1.632978,-9.166328,7.005061,-0.22179,1.152804,0.383018,-0.22998,0.516846,-0.075928,0.341116,9.310926,5.562786,-0.682456,0.382902,0.265368,-0.018799,0.365967,0.402832,4.655051,-6.719597,6.756816,0.181102,-0.395647,-0.717508,0.228271,0.267578,-0.335938,6.145083,-6.360644,5.042995,-0.632966,-0.250261,-0.353688,-0.126221,0.359619,-0.435303,-0.688989,-3.665166,8.979528,-0.866712,-0.496654,0.217177,-0.14624,0.371338,-0.489502
0.936726,-8.118467,6.717932,0.08766,1.104216,0.300256,-0.203857,0.523438,-0.096191,-0.140917,8.453829,5.93595,0.287475,0.341188,0.14311,-0.016113,0.355713,0.392578,4.080211,-7.62463,6.234335,-0.976321,-0.627494,-0.347934,0.21167,0.287842,-0.339844,5.498131,-9.010478,4.444449,-0.575742,0.261396,-0.306448,-0.125244,0.374756,-0.432373,-0.193521,-8.840176,7.573874,-1.232553,-0.743325,0.240519,-0.145264,0.391357,-0.479004
0.344692,-8.621644,5.701987,-0.12436,0.789108,0.254156,-0.178711,0.516113,-0.0979,-0.246896,10.974302,6.441773,0.352686,0.045982,0.111099,-0.007568,0.333252,0.385254,5.84,-11.085388,5.058741,-0.411891,-0.737245,-0.333193,0.203125,0.283936,-0.338379,4.532253,-7.367764,5.134379,0.551298,-0.125483,-0.42467,-0.124756,0.358154,-0.433594,0.940527,-8.985844,7.12677,0.890655,-0.568409,-0.053312,-0.137695,0.370605,-0.479736
0.114139,-8.852448,5.255143,0.559303,0.643765,0.206362,-0.166992,0.510742,-0.11499,0.522428,9.725323,5.141221,-0.172127,0.04564,0.223639,0.005615,0.289551,0.358887,5.654706,-9.000475,6.126966,1.173216,-0.158426,-0.295913,0.174316,0.278809,-0.355225,6.394886,-6.734624,5.701813,-0.362381,-0.37071,-0.091437,-0.143311,0.36084,-0.427002,0.996418,-5.22487,8.096834,0.981932,-0.16765,0.03803,-0.139893,0.350586,-0.48999
0.100382,-6.309612,6.389776,0.438389,0.057782,0.0997,-0.156006,0.506836,-0.119873,0.083127,9.497447,5.363827,0.323192,-0.014196,-0.014811,0.014893,0.252686,0.339844,3.133851,-4.952738,5.915313,0.550763,-0.417336,-0.399629,0.150635,0.280029,-0.360596,4.755788,-10.202364,5.163709,-0.379541,0.140532,-0.056958,-0.148193,0.36792,-0.418213,1.264709,-5.140821,7.956751,-0.145147,0.15618,0.134012,-0.135986,0.35376,-0.487305
0.871544,-8.44282,6.094973,-0.251068,0.046412,0.031882,-0.142578,0.49585,-0.126221,0.972643,9.109499,5.782444,-0.19885,-0.091889,-0.099601,0.02002,0.21582,0.317139,5.538133,-7.308467,5.013108,-0.962836,-0.978444,-0.113717,0.125488,0.278076,-0.362793,4.253119,-8.522629,4.952114,0.875396,-0.545645,-0.557288,-0.161133,0.342285,-0.428223,0.212938,-7.295036,7.128843,-0.167817,0.558317,0.121022,-0.123047,0.340332,-0.490234
0.876486,-8.703318,6.199108,0.835385,-0.159408,0.013233,-0.132568,0.479736,-0.134277,0.24091,7.293443,5.396535,0.167133,-0.091538,-0.201172,0.030518,0.178467,0.303955,4.577433,-10.246502,3.957575,0.344868,-0.380382,-0.2362,0.103271,0.271973,-0.368164,6.239227,-5.151575,5.413046,0.265349,-0.440485,-0.264098,-0.177979,0.330566,-0.422852,-0.567253,-7.091138,7.762783,0.808958,0.277402,0.03565,-0.118896,0.321045,-0.497803
1.398078,-6.36461,7.236048,0.387081,0.087368,0.050337,-0.121582,0.474609,-0.143311,0.97127,7.979881,5.401155,0.511691,-0.305109,-0.29623,0.026611,0.149414,0.282959,4.096506,-6.410048,5.535782,0.951141,-1.252094,-0.459163,0.073486,0.263428,-0.384766,5.120859,-8.51558,5.150233,-0.935018,-0.162761,0.163693,-0.179932,0.344238,-0.413086,0.137511,-5.340396,8.244263,0.662201,0.232008,-0.004521,-0.111084,0.307861,-0.50293
1.150256,-8.322441,6.709089,0.324342,0.143559,0.015239,-0.102539,0.474121,-0.158203,0.779158,8.770132,4.6084,0.60977,-0.174577,-0.129082,0.044922,0.11499,0.263672,7.723443,-6.15023,5.57728,-0.100079,-1.086482,-0.18611,0.051514,0.270996,-0.394043,5.430236,-10.787896,4.191527,0.661041,-0.682403,-0.354799,-0.191406,0.336914,-0.422119,-1.092095,-5.470121,8.427824,0.358146,0.312081,0.17798,-0.097412,0.304932,-0.511963
0.407803,-7.050742,7.264136,0.577747,0.394426,0.094716,-0.087158,0.4646,-0.169434,0.659295,9.854934,4.655487,0.453613,-0.200163,0.015203,0.053955,0.086426,0.244385,5.604176,-7.453921,5.529795,0.363828,-0.556918,-0.314431,0.028809,0.266113,-0.398438,6.325537,-5.491982,5.011907,1.1012,-0.436186,-0.661465,-0.209473,0.318359,-0.427002,-0.933605,-5.788722,8.570888,0.337477,-0.159202,-0.046148,-0.095947,0.292969,-0.51123
0.020714,-7.901984,6.811394,0.088948,0.223797,-0.038349,-0.077393,0.44873,-0.171875,0.800752,9.489185,4.058268,0.285347,0.100154,0.064178,0.056885,0.053955,0.231201,6.579988,-5.074891,6.049696,1.055647,-0.894483,-0.537524,-0.004883,0.244385,-0.407227,4.981071,-5.342737,4.471834,-0.246371,-0.814749,-0.172811,-0.229248,0.309082,-0.415771,-0.14323,-5.739311,8.234272,0.404047,0.155076,0.046533,-0.092529,0.273438,-0.513184
0.396948,-8.108624,6.447265,0.924884,0.218845,-0.041731,-0.059814,0.440674,-0.19165,0.883107,8.999069,3.476625,0.643512,0.2151,0.203854,0.064453,0.024414,0.210938,7.463812,-4.061412,6.452462,0.361829,-0.253437,-0.360549,-0.023193,0.243896,-0.418701,7.443338,-8.51058,2.510059,0.234274,-1.042789,-0.511475,-0.244873,0.302002,-0.416504,-0.874635,-5.758702,7.91169,0.649245,0.069852,-0.062864,-0.083496,0.260742,-0.525879
-0.021207,-5.881005,7.037133,0.785855,0.073459,-0.099381,-0.044434,0.432861,-0.204346,0.868293,9.529923,3.479836,0.953137,0.539297,0.177026,0.064209,-0.006348,0.197998,5.307299,-6.221651,5.930368,0.463646,-0.254083,-0.416805,-0.041504,0.240234,-0.426758,7.142818,-6.517515,2.711683,1.438391,0.094182,-0.764254,-0.25293,0.279541,-0.429443,0.249774,-5.144686,8.081236,0.879781,0.08413,-0.074127,-0.073975,0.243164,-0.532959
0.228585,-7.178342,6.823055,0.314973,-0.006092,-0.16021,-0.039551,0.424805,-0.206543,0.293389,9.936244,3.529459,0.73749,0.612984,0.269358,0.069092,-0.033691,0.192383,6.861348,-4.953963,5.982578,1.1756,-0.395961,-0.744484,-0.071777,0.226807,-0.427002,5.781411,-3.695542,3.952691,0.692559,-0.033393,-0.654692,-0.271973,0.264648,-0.425049,-0.354357,-4.894514,8.639841,0.442209,0.533053,-0.055009,-0.066895,0.233154,-0.529053
0.014966,-7.158271,7.07949,0.98015,-0.090009,-0.104368,-0.02002,0.414062,-0.221924,0.369817,9.58398,3.605875,0.59596,0.722716,0.269167,0.071777,-0.059326,0.172852,6.340788,-3.644976,5.734256,0.478024,0.120119,-0.471053,-0.077393,0.225586,-0.435547,7.174553,-5.278902,3.161891,0.085249,0.153752,-0.359892,-0.26709,0.263184,-0.432617,-1.060722,-5.950755,8.333841,0.599051,0.396379,0.023806,-0.047852,0.220215,-0.536865
0.444763,-5.216368,7.844152,0.637178,-0.1576,-0.167973,-0.015137,0.411621,-0.236816,0.111125,9.569076,3.588811,0.472742,0.734391,0.247856,0.078369,-0.075439,0.158203,5.279225,-4.805689,5.65064,-0.068368,-0.142375,-0.489328,-0.099365,0.235596,-0.442383,5.32881,-5.424571,4.360606,0.392842,0.676209,-0.563648,-0.272461,0.258057,-0.44458,-0.767106,-4.457681,8.378879,1.216444,0.414595,-0.185023,-0.044678,0.205322,-0.551758
1.279507,-6.358578,7.6596,0.122155,-0.064797,-0.119872,-0.009277,0.402588,-0.245361,0.772497,9.009213,3.59692,0.241039,0.68668,0.338669,0.073242,-0.111328,0.150635,8.184369,-6.676557,5.36411,-0.144455,-0.23346,-0.439479,-0.121826,0.230713,-0.448242,6.748786,-5.653207,4.459865,0.052462,-0.235224,-0.367695,-0.284912,0.245605,-0.446533,-1.074462,-2.93867,8.759076,0.33539,0.390979,-0.054672,-0.034424,0.1875,-0.556396
0.662172,-7.145091,7.41294,0.78907,0.164219,-0.102301,0.001709,0.403564,-0.26416,0.179625,8.315905,3.568952,0.718896,0.731385,0.545082,0.080566,-0.135742,0.14209,6.987817,-7.788893,5.054463,0.852641,0.53891,-0.354936,-0.131104,0.233154,-0.459961,8.27311,-7.152799,3.663715,0.610859,0.63567,-0.358782,-0.286377,0.243652,-0.459229,-1.400588,-5.6175,7.97494,-0.127667,0.198211,0.064765,-0.030273,0.194092,-0.55957
0.390918,-4.799543,8.114731,0.673835,0.126677,-0.078323,0.016113,0.374512,-0.274658,-0.05887,10.061293,3.985669,0.842134,0.56828,0.465016,0.076904,-0.14917,0.135986,5.046759,-4.944126,5.854096,1.131662,-0.030737,-0.510708,-0.145508,0.198242,-0.469727,4.685139,-5.249938,5.643065,0.955544,0.773,-0.471791,-0.279785,0.208252,-0.472168,-1.53984,-5.17467,8.089173,1.287731,0.01451,-0.145385,-0.021973,0.152344,-0.566895
0.500892,-6.288591,7.547008,0.280862,0.153446,-0.154087,0.018555,0.374512,-0.27417,0.145665,10.036563,3.790772,0.373894,0.417778,0.640386,0.070312,-0.179199,0.124512,8.880119,-5.475135,5.690587,-0.109402,-0.174379,-0.18475,-0.167236,0.203857,-0.462891,7.08304,-5.47588,5.52178,0.16889,-0.387315,-0.140655,-0.292725,0.206299,-0.461914,-0.927935,-2.384988,8.779643,0.927561,-0.134735,-0.125792,-0.025635,0.139404,-0.563721
0.103775,-4.996167,7.768166,0.608718,0.19091,-0.053831,0.035889,0.370117,-0.290283,-0.125407,10.640109,3.971972,0.357916,0.27959,0.726089,0.071533,-0.205078,0.117432,7.433283,-7.805121,5.388878,0.114261,0.684428,-0.044036,-0.16748,0.206543,-0.476807,8.009809,-6.443873,4.697211,0.315789,0.413455,-0.216463,-0.290283,0.200684,-0.473877,-0.979419,-2.746274,8.749681,-0.121902,0.061721,-0.018952,-0.016602,0.140625,-0.568359
-0.239806,-4.802584,7.723596,-0.250581,0.061952,-0.172936,0.048828,0.364258,-0.297363,-0.160447,10.247658,3.919761,-0.352833,0.01559,0.855106,0.066406,-0.235352,0.106445,5.638786,-6.588266,5.480044,0.736611,0.258659,-0.109775,-0.171875,0.187744,-0.48877,4.775332,-5.239525,5.497311,0.542339,0.11792,-0.096649,-0.28833,0.187744,-0.481934,-1.189834,-4.365234,8.405394,-0.155417,0.019044,-0.13714,-0.005859,0.133057,-0.571777
-0.250977,-6.754949,7.037271,0.047402,-0.100654,-0.165085,0.047852,0.369629,-0.303711,0.170224,8.55721,3.474531,-0.170448,-0.180807,0.749139,0.052002,-0.25708,0.098633,6.649005,-5.435723,5.442934,0.271072,0.341388,0.139957,-0.183838,0.195312,-0.498535,6.718444,-5.033035,5.125543,0.153506,-0.433379,0.05197,-0.300293,0.190918,-0.481201,-0.579088,-4.191863,8.429894,0.323188,0.108509,-0.144363,-0.007324,0.132812,-0.574707
0.042789,-5.103552,7.502152,0.582899,-0.246982,-0.176748,0.057617,0.36499,-0.31543,0.397978,8.745438,3.266703,0.395409,-0.375954,0.683483,0.047363,-0.285156,0.092285,4.905935,-6.946023,5.076703,0.302005,0.384305,0.313833,-0.180908,0.189941,-0.502197,6.073035,-6.471145,4.481894,0.45205,0.315352,0.275008,-0.291748,0.185547,-0.486816,-0.657467,-3.826108,8.881897,0.227702,0.402682,-0.131333,0.007568,0.127686,-0.576416
0.786855,-4.749682,8.024201,-0.013442,-0.354773,-0.174259,0.063477,0.361084,-0.318115,0.977736,9.359959,3.442959,0.13729,-0.606947,0.620541,0.04126,-0.309082,0.084961,6.012425,-5.978618,5.144709,0.974394,-0.016004,0.14946,-0.187744,0.171387,-0.510742,5.215862,-5.124124,5.105107,0.919299,-0.189522,0.022344,-0.293945,0.167969,-0.491211,-0.817557,-4.223423,8.877287,0.143715,0.430085,-0.021509,0.023926,0.116943,-0.577637
0.685065,-6.368935,7.920666,0.129315,-0.25257,-0.122376,0.061035,0.354492,-0.31958,1.307064,8.630621,2.799335,-0.015126,-0.702585,0.600926,0.029053,-0.324219,0.080078,5.70597,-3.797366,5.102841,0.843321,0.453146,0.38423,-0.190186,0.1604,-0.519043,6.426132,-3.509481,4.949083,0.566842,0.073795,0.279614,-0.296387,0.156006,-0.491699,-1.180647,-4.280328,8.880564,0.220384,0.543661,-0.053571,0.030518,0.109863,-0.575195
0.833208,-5.245537,8.576296,0.288937,-0.335241,-0.055973,0.064209,0.357422,-0.32373,1.356735,8.539746,2.85713,0.060077,-0.765646,0.399596,0.021729,-0.344971,0.070068,4.044239,-3.366647,5.200859,0.180867,0.124036,0.417308,-0.192871,0.1604,-0.520996,3.736565,-3.8027,5.094688,0.223882,0.054365,0.424928,-0.295166,0.160156,-0.492188,-1.938399,-4.047409,8.829942,0.178577,0.409218,0.039563,0.04248,0.111084,-0.573975
1.186986,-5.779422,8.443577,0.040707,-0.17257,-0.05756,0.059814,0.34668,-0.33252,2.011383,8.291776,2.425732,0.033767,-0.802591,0.306791,0.015625,-0.358643,0.073975,5.846556,-4.654219,5.141836,0.123319,0.137585,0.503436,-0.203857,0.151123,-0.526367,5.560183,-4.742913,4.327634,0.202324,-0.690714,0.399078,-0.312012,0.150879,-0.492188,-1.859125,-4.16823,8.765991,0.196907,0.195152,0.019173,0.04126,0.093506,-0.577881
1.104788,-6.19104,8.423721,0.30053,-0.156476,0.020229,0.062988,0.355957,-0.343994,2.064068,7.898633,2.19819,0.207118,-0.727648,0.1963,0.019043,-0.371094,0.068115,4.087613,-4.395952,5.590844,0.804002,0.368191,0.381428,-0.202881,0.14917,-0.542725,6.415364,-5.413448,3.769178,0.475191,0.220335,0.362615,-0.310059,0.155273,-0.501221,-1.891099,-4.202522,8.720582,0.183319,0.073953,0.111694,0.044189,0.097412,-0.586182
0.869419,-5.933039,8.296253,0.524759,-0.004006,-0.029433,0.080078,0.350342,-0.344971,2.616495,8.15966,1.943474,0.551085,-0.58837,-0.033277,0.009277,-0.381836,0.067383,4.374313,-2.517568,5.443167,0.977533,-0.04818,0.173897,-0.195312,0.137451,-0.538818,4.715425,-4.510324,3.890122,0.964932,0.422697,0.188092,-0.292236,0.141357,-0.500488,-1.833177,-4.445976,8.265885,0.528758,-0.161412,0.115478,0.058838,0.086426,-0.58252
1.059038,-5.140393,8.180314,0.547377,-0.22506,-0.007782,0.072266,0.3396,-0.362305,2.239847,8.979425,1.758367,0.464427,-0.407276,-0.286119,0.021484,-0.391602,0.073975,4.395766,-1.398191,5.689654,0.498749,0.015378,0.192062,-0.209961,0.124756,-0.55249,5.877944,-2.643663,4.585676,0.582068,0.572658,0.168907,-0.296143,0.130615,-0.517334,-1.248828,-3.395426,8.34621,0.724306,-0.295369,0.081881,0.046631,0.07251,-0.59082
1.548544,-4.861209,8.091062,0.27974,-0.011693,0.035446,0.084961,0.3396,-0.37085,2.790382,8.877438,1.098065,0.118252,-0.315169,-0.386581,0.02002,-0.40332,0.077881,5.936036,-2.101457,6.523465,-0.193223,-0.265657,0.045946,-0.209229,0.129395,-0.554688,5.512822,-3.81977,5.148864,-0.285269,0.910704,0.333444,-0.276611,0.137939,-0.526367,-1.031327,-2.92623,8.591921,0.221571,-0.292626,0.142085,0.052979,0.06665,-0.597168
-2.520996,-5.757603,7.076882,0.225543,-0.274425,-0.024074,0.084229,0.334229,-0.372314,1.149733,12.66924,0.166588,2.009455,0.151994,-0.323474,0.018555,-0.402344,0.095947,9.559587,-4.252656,9.899394,-0.145451,0.2692,0.108155,-0.20874,0.128906,-0.554443,6.274642,-5.859559,4.452084,0.320174,0.110178,0.062472,-0.276367,0.130371,-0.523682,-0.331603,-4.319653,8.25377,-0.038487,-0.228633,0.236267,0.053711,0.061523,-0.593506
-0.350828,-5.471044,7.094073,0.401419,-1.369637,-0.179644,0.063721,0.332031,-0.376221,-0.090554,17.046545,6.216753,-0.269447,-0.076142,-0.00914,0.021484,-0.420166,0.08374,7.339072,-6.206549,7.342283,-0.372875,1.672273,0.397421,-0.195312,0.142334,-0.560791,7.595189,-2.479837,4.344885,1.201376,0.895851,-0.180022,-0.272461,0.114746,-0.536133,-0.650447,-3.959565,7.487088,0.6602,0.593317,0.034309,0.059326,0.05249,-0.592773
3.289632,-3.490404,8.502385,0.256041,-0.904218,-0.047379,0.057373,0.328613,-0.386963,1.607524,5.943241,1.588175,-3.190467,-0.686091,0.416435,0.002686,-0.445557,0.04834,2.601192,-7.610039,5.5621,0.178164,1.211738,0.737149,-0.175537,0.13623,-0.575439,3.829168,-0.777419,5.801178,-0.218859,1.128698,0.826524,-0.246582,0.117188,-0.55127,-2.651898,-1.876625,8.998001,0.345506,0.37463,0.084028,0.070557,0.042236,-0.602051
2.70314,-4.841801,8.367484,-0.643026,-0.670217,0.061102,0.050293,0.33252,-0.379639,2.172647,1.393733,2.261232,0.753541,-0.645872,0.082509,0.007568,-0.447266,0.05127,4.266161,-5.035224,5.087165,0.761816,0.855766,0.539399,-0.168213,0.123535,-0.578613,5.298506,-6.155095,4.140863,-0.870462,0.967223,1.121442,-0.23291,0.132324,-0.545898,-2.063978,-2.654266,9.284137,-0.87047,-0.232623,0.163837,0.066406,0.05249,-0.592773
3.36724,-7.025934,7.702172,0.306379,0.03287,0.162428,0.059082,0.328857,-0.39209,2.399045,8.943599,2.565223,1.638165,-0.874715,0.073024,-0.001221,-0.450195,0.076172,2.533803,-4.523736,6.149566,0.140988,0.52185,0.982238,-0.157227,0.123779,-0.589355,4.340627,-6.714896,5.328361,1.214111,2.312325,0.901115,-0.189453,0.11792,-0.571289,-2.066437,-5.942715,8.205086,-0.389453,-0.371022,0.364741,0.067139,0.05127,-0.601318
0.182178,-4.61401,8.051404,0.756641,-0.025627,0.156313,0.063721,0.32373,-0.390869,2.891846,11.034883,1.189375,0.270639,-0.571158,0.160973,-0.001709,-0.460693,0.073242,6.425196,-4.100353,6.882408,1.391226,0.280308,0.455967,-0.152832,0.105225,-0.589355,2.126141,-2.857636,7.705138,1.211121,1.557806,0.708602,-0.162842,0.107422,-0.574951,-1.511029,-4.714023,7.978911,1.327924,-0.898626,0.176114,0.059814,0.031006,-0.595703
0.55238,-4.73357,7.812832,-0.041348,-0.485347,0.057954,0.06543,0.327393,-0.401855,1.260251,10.211248,2.082948,0.091123,-0.37534,0.051001,-0.004395,-0.467529,0.077393,3.897084,0.22379,7.293517,0.831024,1.58096,0.532184,-0.123535,0.100586,-0.607422,3.133787,-3.10086,7.519675,-0.030403,1.143082,0.72937,-0.136719,0.11499,-0.585693,0.055998,-0.462263,8.65878,0.896559,-0.472692,0.085955,0.055664,0.019531,-0.603516
2.288063,-5.269919,7.715737,0.175091,-0.58789,0.011322,0.065674,0.320557,-0.40332,2.751304,9.620298,2.587609,-0.301654,-0.588136,-0.133068,0.00293,-0.4729,0.071533,2.533891,-3.703614,6.435356,-1.564683,0.558073,0.991071,-0.110596,0.115967,-0.603271,1.868288,-4.31798,7.281557,0.284381,0.875682,0.774124,-0.115967,0.105713,-0.588379,-0.752084,-1.43716,8.873745,-0.912209,-0.269251,0.314251,0.059082,0.025391,-0.602295
1.064214,-4.447215,7.500126,0.096972,-0.556895,-0.000394,0.047119,0.312256,-0.401367,1.694382,8.427229,1.219171,-0.058538,-0.367592,-0.154424,-0.002686,-0.483398,0.066406,4.992714,-8.539323,6.181934,0.19268,1.164841,0.888262,-0.102539,0.111084,-0.602539,2.640645,-3.318126,7.577235,0.239765,0.310042,0.719572,-0.12085,0.100098,-0.586182,-0.410053,-5.325356,7.86276,-0.523983,-0.424712,0.151631,0.040527,0.025146,-0.595703
1.098044,-4.465075,7.230439,-0.015003,-0.898074,-0.038423,0.042236,0.31665,-0.408936,1.724385,10.735419,1.260391,0.549164,-0.464347,-0.249285,-0.004883,-0.474365,0.071045,1.892959,-2.084937,10.108617,1.794959,1.360962,0.456368,-0.081543,0.087158,-0.61792,3.122233,-4.636626,6.77867,-0.332174,0.59982,0.918578,-0.102539,0.111084,-0.592529,-0.484309,-2.949361,8.390438,1.171109,-0.185901,-0.019526,0.043213,0.008301,-0.599121
1.416533,-4.705185,7.241442,-0.026125,-0.982678,-0.120981,0.026123,0.322754,-0.405518,1.945813,10.806985,1.94055,-0.621249,-0.28053,0.139674,0.0,-0.497314,0.059326,4.128133,-0.385645,9.686,-0.950732,1.124946,0.859374,-0.061768,0.10791,-0.617188,2.764362,-5.87473,6.873843,0.025843,0.981778,0.710713,-0.085205,0.120361,-0.593506,-0.27135,-0.441491,8.911361,-0.11921,-0.073381,0.028652,0.040283,0.019043,-0.60083
2.425253,-4.494684,7.777279,0.008663,-1.141668,-0.134671,0.015869,0.315918,-0.402832,2.391652,8.06517,0.787794,-0.336153,-0.229241,0.080492,-0.002197,-0.500977,0.061768,1.977382,-6.395506,7.797776,-0.941625,1.708289,0.895601,-0.033691,0.119629,-0.612305,2.055701,-4.695321,8.074189,0.277864,1.148553,0.62884,-0.062744,0.108154,-0.593994,-0.941864,-2.836461,8.55616,-0.664143,0.194451,0.222813,0.04541,0.019775,-0.595703
2.55564,-4.707283,8.087882,-0.570462,-0.910659,-0.156205,0.009521,0.325928,-0.402588,2.640286,9.100414,1.78643,-0.003469,0.146943,0.138806,-0.005371,-0.504395,0.058105,2.181582,-4.040705,7.422997,0.890727,1.230924,0.210435,-0.010742,0.109619,-0.624512,1.512659,-4.563331,8.615099,-0.61347,0.947798,0.549713,-0.040527,0.122559,-0.592529,-1.694794,-3.204236,9.340622,-0.242679,-0.056881,-0.294341,0.050537,0.024902,-0.5979
2.553182,-6.898197,7.117352,-0.072851,-1.067901,-0.233763,-0.006348,0.318604,-0.395752,2.029114,8.03422,1.582342,-0.4491,0.226151,-0.045395,-0.00415,-0.513672,0.059814,1.46348,-1.636895,8.30702,-0.252896,1.584186,0.443293,0.011719,0.107178,-0.621582,1.7921,-8.16885,7.719302,-0.445513,0.80879,0.619656,-0.026367,0.125977,-0.591064,-0.321381,-3.995058,9.001338,-0.333319,-0.168144,0.154849,0.048584,0.021729,-0.594482
3.334831,-4.35307,7.921408,0.702894,-0.920855,-0.204857,-0.013428,0.321289,-0.395996,2.663185,6.447101,1.128178,0.199689,0.373144,-0.187551,-0.005615,-0.514404,0.060303,0.308752,-5.234112,6.970473,-0.499633,0.760538,0.241829,0.027344,0.125,-0.614258,2.111586,-6.970773,8.320505,0.960198,1.153407,-0.089512,-0.003906,0.122803,-0.592285,-1.252818,-4.259106,8.780768,0.47955,0.233223,-0.098144,0.053223,0.026611,-0.593506
3.992273,-4.471408,7.93645,0.057655,-0.870398,-0.327027,-0.025635,0.31958,-0.394287,2.706326,8.511742,0.874189,0.910027,0.659751,-0.372032,-0.008789,-0.512695,0.071533,3.21095,-4.758321,7.568772,0.979333,0.912268,-0.169882,0.038574,0.114746,-0.624023,1.528505,-3.627931,9.148126,0.657285,0.955201,-0.02443,0.010254,0.112305,-0.599609,-1.610263,-2.543224,9.706617,0.783428,-0.241691,0.100788,0.051514,0.013184,-0.598633
3.175179,-5.002958,7.93087,0.57164,-0.575297,-0.131508,-0.036621,0.297119,-0.407959,1.230625,9.156805,1.758995,0.262198,0.711845,-0.290882,-0.007568,-0.523926,0.076416,-0.683345,-1.759368,8.795105,0.651724,1.18621,-0.106025,0.05249,0.09082,-0.634766,1.126527,-5.227727,9.107853,-0.25996,0.943787,0.029168,0.020508,0.107666,-0.610352,-1.0712,-2.12715,9.51103,0.270248,-0.16859,0.099531,0.044922,-0.006836,-0.607178
3.863021,-4.016273,8.910856,0.093198,-0.747104,-0.23958,-0.04541,0.30127,-0.404541,1.760571,9.799594,2.27142,0.512808,0.582897,-0.488973,0.000488,-0.523193,0.081055,0.594245,-4.410658,9.068154,-1.137558,0.258431,-0.081375,0.054932,0.110107,-0.628174,0.259058,-6.559373,9.20279,0.300973,0.856828,-0.115797,0.033203,0.104492,-0.605225,-1.908279,-2.542407,9.420692,0.149487,-0.087789,0.050018,0.042725,-0.005127,-0.605713
4.2988,-5.470782,8.492445,-0.031896,-0.444952,-0.172677,-0.046143,0.294922,-0.399902,1.533712,10.638643,2.931654,-0.280251,0.542628,-0.32761,0.007324,-0.516602,0.06665,1.508923,-8.67251,7.418785,-0.254995,0.844852,0.121554,0.075195,0.108154,-0.621338,0.671066,-3.921579,9.902399,0.569359,0.495435,-0.219523,0.048584,0.089844,-0.603516,-2.281136,-2.219047,10.229859,0.258795,-0.450113,-0.049931,0.042969,-0.016113,-0.599854
4.185204,-3.882752,8.554754,0.316946,-0.24058,-0.102155,-0.05542,0.292969,-0.395996,1.131105,7.606667,2.105425,-0.711457,0.35593,-0.310366,0.004395,-0.527344,0.071045,-0.671168,-5.224958,7.138715,1.214282,0.560492,-0.148971,0.072998,0.092773,-0.616943,0.663625,-3.188798,9.746726,-0.06078,0.367987,0.188311,0.044678,0.09082,-0.594727,-1.942653,-1.914726,10.413128,0.040861,-0.537513,-0.085226,0.027344,-0.016602,-0.593018
4.097121,-4.228362,8.356504,-0.309968,0.030889,-0.103743,-0.050293,0.294678,-0.403809,1.116823,5.655615,2.843646,-0.179277,0.059237,-0.48944,0.018311,-0.522461,0.05835,0.404067,-3.087679,6.34595,-0.294075,0.151939,0.32314,0.084473,0.095459,-0.623291,0.739978,-5.343104,9.01259,-0.484894,-0.033511,0.326824,0.054688,0.099854,-0.600098,-1.512476,-2.653972,10.011783,-0.361123,-0.665011,-0.017865,0.025879,-0.011963,-0.599854
4.492841,-6.486533,7.44165,0.463212,0.044076,-0.257053,-0.049561,0.291016,-0.412598,2.180526,12.060014,-0.321705,3.578604,0.248669,-0.693946,0.025879,-0.519287,0.108154,2.226016,-7.416304,13.38477,-0.411451,-0.052828,0.444786,0.083984,0.105957,-0.623047,0.904331,-6.418147,9.46426,1.141892,0.189053,0.238879,0.053467,0.08374,-0.606934,-0.072561,-4.285576,8.781003,0.68208,-1.007052,0.195631,0.011475,-0.018066,-0.602783
2.712923,-2.640321,8.558967,1.068928,-0.012612,-0.071992,-0.045166,0.277832,-0.422607,0.787984,15.071754,2.582785,-1.952238,0.288437,0.40953,0.022461,-0.526367,0.085205,0.445451,-5.623908,9.863724,2.016467,1.502187,0.186677,0.111328,0.072754,-0.626709,1.258385,-3.153582,8.705472,0.710128,-0.338335,0.065632,0.054443,0.072266,-0.611816,-0.256181,-1.419242,10.347495,0.93303,-0.347126,-0.339982,0.009766,-0.0354,-0.607422
5.268726,-2.902794,7.756496,-0.017027,0.257522,-0.226099,-0.052246,0.278809,-0.422852,1.737871,2.785156,-1.401311,-0.737971,0.119669,-0.130399,0.020508,-0.53418,0.080078,-1.273169,0.490354,9.222048,1.196811,-0.048074,0.012305,0.098877,0.055176,-0.631348,2.791646,-4.023886,8.580492,0.32092,0.666825,0.346403,0.057373,0.066895,-0.610107,-0.133276,-1.207653,9.596865,0.526699,-0.85429,0.45451,-0.011963,-0.045166,-0.602295
3.026235,-4.007209,7.665724,-0.135036,-0.063651,0.069373,-0.048828,0.285645,-0.427002,0.62886,10.599088,2.493471,2.574529,0.351634,-0.067155,0.030029,-0.533691,0.110596,1.826567,-2.289181,8.686498,-1.939919,0.54542,0.580936,0.11377,0.086426,-0.627441,-0.30507,-3.081531,9.75017,0.222636,0.873166,0.163218,0.074707,0.064941,-0.611572,1.003608,-1.123585,9.7612,-0.401101,-0.507469,-0.422886,-0.013916,-0.033447,-0.603516
4.736351,-4.498437,7.520356,0.251652,0.306034,-0.054232,-0.031738,0.279297,-0.422119,1.049382,12.426879,2.869457,-1.398383,-0.306896,-0.092223,0.021729,-0.538818,0.095703,-2.316109,-11.088039,6.370639,-0.631131,0.096532,0.770199,0.125732,0.090332,-0.616211,0.185783,-3.691796,9.241446,0.09682,0.008997,0.710102,0.087646,0.061523,-0.601807,-0.009614,-3.662806,9.081159,-0.243278,-0.270582,0.489013,-0.006592,-0.032959,-0.600098
2.95418,-2.973726,8.074998,0.228289,0.049608,-0.011502,-0.046631,0.273926,-0.435791,1.099296,4.917436,-0.255473,-0.563074,-0.114144,-0.05736,0.015625,-0.539307,0.090088,1.805275,-4.076772,7.966116,2.904766,-0.089843,-0.003891,0.110107,0.047607,-0.635986,0.776506,-2.935555,9.243486,0.712767,0.336098,0.462289,0.081787,0.046631,-0.611328,-0.381967,-2.17585,9.610222,0.98258,-0.748587,-0.373716,-0.033203,-0.049316,-0.60791
3.257072,-4.416645,7.215827,-0.331782,0.291835,0.000327,-0.035645,0.273438,-0.433838,1.217484,10.049252,0.749643,1.813621,-0.046646,-0.261087,0.022949,-0.539795,0.115967,-0.971471,3.900005,11.75979,0.501955,0.643231,0.743462,0.126953,0.028809,-0.628906,-0.930073,-1.865545,10.763024,-0.000406,0.061042,0.709766,0.090576,0.037354,-0.611328,1.734574,-0.046306,9.91698,-0.039646,-0.35607,0.037869,-0.02832,-0.057373,-0.606445
3.066929,-4.908939,7.127695,0.720173,-0.157125,-0.213476,-0.050293,0.272705,-0.429932,1.325182,12.973485,1.673664,-0.108233,0.200419,0.11045,0.024902,-0.534668,0.104492,-0.630296,-3.382795,10.32563,-2.271092,-0.146118,0.878891,0.117432,0.068359,-0.617676,0.427149,-4.535043,9.438099,-0.186635,-0.470055,0.632584,0.075684,0.049561,-0.60083,0.164636,-3.220976,8.683803,-0.310284,0.044611,0.253359,-0.038818,-0.041992,-0.595947
3.666199,-1.265566,8.752487,0.00498,0.159171,-0.00544,-0.039551,0.267334,-0.43457,0.579734,8.8619,0.722937,-0.859955,0.164273,0.261817,0.011719,-0.547607,0.092529,-0.076564,-8.544205,8.394998,0.114892,0.48469,0.679757,0.130615,0.058594,-0.62085,0.689012,-3.351368,9.373413,0.505631,0.263289,0.480772,0.088379,0.037598,-0.606689,0.016152,-1.487328,9.811954,0.91836,-0.163045,-0.523602,-0.033691,-0.062744,-0.600586
3.783196,-4.679176,7.500239,-0.894454,-0.117556,-0.171781,-0.037842,0.277588,-0.436768,1.468428,8.67421,1.038786,0.202915,0.031227,0.176275,0.019043,-0.541016,0.096436,-1.469344,-2.451532,9.846313,1.196488,0.191926,0.447623,0.13916,0.043213,-0.623779,-1.080485,-2.471353,10.017877,-0.473109,-0.069402,0.804474,0.095215,0.043701,-0.607178,0.670329,0.769097,10.172283,-0.261699,-0.174106,0.053515,-0.031006,-0.059082,-0.606689
3.62483,-3.526621,7.875534,0.303945,0.297218,-0.019997,-0.034424,0.274658,-0.439209,0.971998,10.721408,1.495531,-0.124204,0.18505,0.448746,0.006592,-0.536377,0.101562,-0.025169,-0.855974,9.21948,-0.987774,0.223224,0.831534,0.143799,0.05127,-0.618408,0.445533,-4.757849,8.361961,-0.64765,-0.399754,0.84839,0.092285,0.054199,-0.604004,0.402011,-1.611937,9.546406,-1.11608,0.195619,-0.323446,-0.023193,-0.043457,-0.603027
3.716008,-2.352183,8.074468,-1.317366,-0.119749,-0.015402,-0.0354,0.290771,-0.437744,1.124545,10.172098,1.279792,-0.892439,-0.148996,0.224794,0.011475,-0.551025,0.085938,-1.85626,-5.469982,8.423568,-1.751415,0.24768,0.939095,0.149902,0.072754,-0.618652,0.57012,-4.366788,8.523749,-0.505864,0.308154,0.732737,0.099609,0.059082,-0.605957,1.116418,-3.491752,9.090815,-0.904945,-0.305262,-0.081225,-0.031982,-0.027832,-0.608154
3.498546,-7.395455,6.407144,-0.839373,-0.020163,-0.081744,-0.044922,0.307861,-0.437012,2.011896,9.242433,1.116496,-0.703299,0.110702,0.321448,-0.00415,-0.560059,0.079346,0.010489,-5.907087,8.448388,-0.228824,-0.125328,0.469732,0.140137,0.080078,-0.615723,-1.149794,-4.514946,8.345795,-0.871028,0.026645,0.852114,0.093506,0.074219,-0.601807,2.205131,-3.777064,9.138757,-0.507666,0.438319,-0.379231,-0.030518,-0.017822,-0.609619
3.677646,-3.939368,8.350154,0.244923,-0.272465,0.08946,-0.034424,0.300537,-0.437744,1.014879,9.376018,1.316132,-0.29831,0.134628,0.26419,-0.005127,-0.558838,0.071533,-0.598197,-2.863221,8.484113,-0.13933,0.695516,0.738076,0.164062,0.075684,-0.61499,-0.386735,-5.604527,8.027037,-0.686883,-0.242142,0.708318,0.104248,0.083496,-0.598145,-0.435897,-3.33225,9.959466,-0.327623,0.584512,-0.024946,-0.006104,-0.016846,-0.611328
3.063168,-3.289241,8.143795,-0.856701,-0.105338,-0.087263,-0.045898,0.318115,-0.439941,1.425897,10.209683,1.244195,-0.39058,0.233978,0.250265,-0.005127,-0.562256,0.070068,-2.126423,-2.754312,8.602458,-0.773233,0.227561,0.493634,0.160156,0.092285,-0.617432,-0.720607,-5.240152,8.109899,-0.23681,-0.188887,0.533804,0.096191,0.091797,-0.602783,-0.373592,-2.144558,8.852857,0.138676,0.192348,-0.350313,-0.014648,-0.010498,-0.617188
4.046782,-5.281599,7.383733,-0.803011,-0.323949,0.011865,-0.05127,0.323975,-0.436523,1.469695,8.809104,2.264461,-1.36382,0.231263,0.282333,-0.013916,-0.557617,0.038818,-0.05052,-3.687892,7.166865,-1.398211,0.350355,0.52263,0.170166,0.106689,-0.610596,0.130141,-3.926556,8.209751,-1.087098,-0.469197,0.442787,0.090576,0.105713,-0.597656,-0.03986,-0.429457,9.31622,-0.678486,0.310954,-0.275142,-0.006348,-0.003418,-0.619629
4.395397,-4.556605,7.726635,-0.612622,0.124815,0.018756,-0.047607,0.334473,-0.436035,2.380513,6.349781,1.838394,-0.872497,0.282286,0.014601,-0.008301,-0.564697,0.03125,-1.743367,-6.724099,5.981653,-1.19336,0.169394,0.45633,0.17334,0.123779,-0.605469,1.410518,-7.531406,6.598359,-1.404623,-0.338876,0.779932,0.091064,0.127441,-0.593018,-0.306946,-2.964297,9.233937,-1.525148,0.188962,-0.169643,-0.000244,0.019531,-0.620361
3.164286,-5.324464,7.042739,-1.066302,-0.003186,-0.065586,-0.046631,0.347412,-0.423584,1.194783,8.340223,2.140288,-0.071329,0.584553,-0.190904,-0.015381,-0.560059,0.028564,-0.279065,-4.488926,6.588244,0.202986,-0.064348,0.027007,0.173584,0.117432,-0.59668,0.188301,-6.66891,6.580179,0.097369,0.182469,0.030809,0.095459,0.124756,-0.585205,0.134999,-5.069135,8.80184,-0.863132,0.06211,-0.367766,-0.001221,0.03418,-0.609131
3.336573,-6.25506,6.233977,-0.581144,-0.068007,0.056919,-0.04541,0.357178,-0.428467,1.34193,9.814577,2.371855,-0.775042,0.435003,-0.35157,-0.013184,-0.569336,0.018799,-1.785947,-2.070288,7.60804,-0.664032,0.165679,0.220977,0.179443,0.134766,-0.598633,-0.655416,-3.502429,7.651392,-0.491073,-0.205448,0.285672,0.097168,0.133057,-0.588379,0.99394,-4.359211,8.886811,-0.343837,0.177115,-0.278154,0.005371,0.04248,-0.617676
4.378414,-4.606613,6.916047,-0.620887,-0.249981,0.00813,-0.056641,0.368652,-0.433105,2.189214,7.959254,2.449608,-1.269977,0.671674,-0.388037,0.000977,-0.568115,0.003662,-0.651866,-5.00801,6.666109,-1.590936,-0.379733,0.020724,0.166016,0.157227,-0.599609,1.312538,-6.608845,6.174396,-1.658542,-0.378452,0.300982,0.08667,0.164062,-0.58667,0.921811,-3.501353,8.576005,-0.622103,0.474845,-0.317068,0.007812,0.052002,-0.626221
4.151495,-5.807174,6.521159,-0.927072,-0.021555,0.076838,-0.057861,0.379395,-0.425293,1.548758,6.674723,2.364428,-0.636503,0.771556,-0.559888,0.004883,-0.565674,-0.003662,-0.451604,-7.250792,6.31755,-0.587355,0.011234,-0.034959,0.167969,0.165039,-0.595459,1.613924,-8.614644,4.857747,-0.30916,0.447662,0.071949,0.091553,0.166504,-0.581055,-0.428851,-4.11598,8.466354,-0.870895,0.404061,-0.165069,0.01123,0.070068,-0.616943
4.082558,-5.082518,6.694488,-0.549637,-0.001637,0.158292,-0.053223,0.388672,-0.429199,1.312741,9.030506,2.961423,-0.275875,0.841393,-0.617456,0.010254,-0.572021,-0.001953,-1.948179,-4.813579,7.695003,0.005843,-0.300226,-0.404121,0.164062,0.167725,-0.601074,0.141619,-5.183787,6.373821,-0.123589,0.956993,-0.211703,0.110352,0.171875,-0.584717,-0.128456,-3.790873,8.471458,-0.492734,0.088352,-0.34529,0.016602,0.07666,-0.626953
3.523252,-5.21298,6.835018,-1.110239,0.061227,0.114565,-0.051025,0.40625,-0.411621,0.752857,9.008283,3.068504,-1.212138,0.817708,-0.472732,0.024658,-0.560059,-0.030518,-0.665894,-4.046937,8.035316,-1.024225,-0.365059,-0.275456,0.162354,0.187012,-0.584473,-0.234817,-6.23183,6.261768,-1.433663,0.951069,0.226981,0.131592,0.193604,-0.560791,-0.147963,-3.350294,8.563489,-0.920539,0.309506,-0.238007,0.025146,0.093262,-0.614014
3.953791,-6.343518,6.101298,-0.736282,0.126792,0.192423,-0.04834,0.405029,-0.408447,1.023339,7.479156,3.028944,-0.791905,0.920858,-0.452342,0.030762,-0.55957,-0.04126,-1.674229,-7.016423,7.739332,-1.201801,-0.25431,-0.426066,0.154053,0.194824,-0.577393,0.234831,-9.842449,5.151668,-0.905651,1.540158,-0.123058,0.154297,0.197754,-0.548828,-0.700477,-4.223636,7.887477,-0.920859,0.010843,-0.221209,0.022705,0.097168,-0.611572
4.70846,-5.124195,6.530221,-0.646325,0.219823,0.103326,-0.045166,0.423828,-0.410889,1.533208,7.882821,3.700916,-0.692012,0.973947,-0.365001,0.042236,-0.563232,-0.045898,-0.221133,-7.208499,7.397851,-0.378759,-0.648601,-0.762048,0.141602,0.210205,-0.577637,-0.112117,-8.004158,6.833299,-0.026574,2.227262,-0.380646,0.182373,0.208496,-0.541748,0.341744,-4.250723,8.381957,-0.719874,-0.050993,-0.339732,0.017334,0.117432,-0.611328
3.389135,-6.080937,5.955904,-0.599121,0.57015,0.164856,-0.031738,0.438721,-0.408691,0.055025,6.845098,3.59222,-0.4993,1.114219,-0.211426,0.046387,-0.560059,-0.053711,-0.823697,-6.94216,6.984347,-0.310412,-0.297598,-0.629318,0.140625,0.223633,-0.57666,-2.715315,-7.326274,7.85699,-0.207114,2.437661,-0.252954,0.223877,0.216553,-0.525146,-0.52206,-4.967211,8.431,-0.666374,0.008605,0.018587,0.026123,0.133057,-0.609375
3.898624,-6.525839,6.002092,-0.270356,0.500842,0.194514,-0.031982,0.429932,-0.406494,0.089111,7.867972,4.164437,0.224109,0.7814,-0.14954,0.040527,-0.555908,-0.04126,-0.308012,-7.608965,6.510313,-0.318839,-0.596464,-0.70466,0.119873,0.218994,-0.570801,-4.271403,-7.360383,8.949017,0.166579,1.377085,-0.437627,0.231201,0.206055,-0.516113,0.244847,-6.096734,8.404213,-0.600976,-0.251982,-0.108309,0.015869,0.130615,-0.602295
2.314297,-6.291106,6.003398,0.133115,0.55254,0.172708,-0.028564,0.439941,-0.409668,-1.261658,9.850193,4.547266,0.340179,0.854448,-0.023683,0.044922,-0.557373,-0.043213,-0.766599,-7.862426,6.685372,0.143209,0.033433,-0.365667,0.114258,0.226074,-0.572998,-3.260129,-5.248511,8.982211,0.523504,0.353558,-0.453546,0.22876,0.208496,-0.513916,0.677063,-5.822098,7.504583,0.484916,0.023558,0.166819,0.014893,0.131348,-0.60498
3.537038,-4.84237,6.512646,-0.358899,0.209808,0.267689,-0.014648,0.444824,-0.419922,-0.593998,10.754941,4.323732,-0.465581,0.266828,-0.174505,0.048096,-0.557373,-0.052734,-1.220827,-6.239011,7.187071,-0.110169,-0.497426,-0.474599,0.115479,0.229248,-0.58252,-2.231647,-4.995216,8.692313,-0.787621,0.149637,-0.227869,0.238281,0.221924,-0.520996,0.919402,-2.861742,8.587891,-0.035086,-0.064793,-0.236046,0.019531,0.131104,-0.616943
2.311604,-6.376802,5.732841,-0.68575,0.07138,0.248173,-0.019043,0.454102,-0.401611,-0.655848,8.821055,4.315314,-1.04008,0.321565,-0.096641,0.047607,-0.555176,-0.066162,0.646428,-6.922118,7.061367,-1.0561,-0.274797,-0.069708,0.10791,0.24585,-0.562744,-2.803924,-8.274643,7.68354,-1.013853,-0.299149,-0.10863,0.228271,0.237793,-0.502686,1.62564,-4.724482,8.057083,-1.447687,0.404746,0.339345,0.022461,0.157227,-0.599121
3.73824,-6.583114,5.708908,-0.240795,-0.083939,0.319849,-0.015381,0.456299,-0.406006,-0.452766,7.717429,4.406397,-0.245811,-0.12258,-0.13253,0.050049,-0.55542,-0.067627,-0.692975,-10.339244,7.006465,-0.995314,-0.225508,-0.116291,0.103027,0.257568,-0.563721,-1.29059,-9.306352,6.973497,-0.439593,-0.509593,-0.327828,0.220459,0.243164,-0.511719,0.023073,-7.428189,7.350907,-0.651606,0.46776,0.089147,0.031006,0.166748,-0.602539
2.584793,-6.872504,5.998658,-0.110395,-0.20953,0.216244,-0.020264,0.449219,-0.403809,-0.260751,9.293436,4.845075,0.250816,-0.004875,-0.092026,0.062012,-0.548096,-0.067627,0.379103,-10.003149,6.530091,0.468974,-0.414425,-0.295183,0.09082,0.241943,-0.567871,-1.62516,-8.784087,6.572564,0.12791,-0.176613,-0.19625,0.214355,0.232666,-0.515381,1.083096,-5.871431,7.207756,0.585224,0.226995,0.183554,0.030762,0.148926,-0.60791
3.462267,-6.568659,6.351633,0.178522,-0.335787,0.202267,-0.018799,0.453369,-0.398193,-1.047633,9.863602,4.724236,-0.098183,-0.32992,-0.117043,0.048584,-0.552979,-0.055664,-0.088383,-6.577755,7.549165,0.559934,-0.061714,-0.232026,0.095459,0.240234,-0.567139,-2.164825,-7.433883,7.215738,0.1659,-0.439886,-0.294459,0.208008,0.240234,-0.513672,0.209301,-3.482767,8.43629,0.151391,0.682571,0.206709,0.049561,0.152344,-0.607178
2.988664,-6.238167,6.902089,-0.137507,-0.447441,0.184869,-0.029785,0.453125,-0.393799,-0.013233,9.403594,4.615881,-0.143129,-0.330378,-0.077953,0.061523,-0.54248,-0.062012,-0.059407,-6.570475,7.322649,-0.479201,-0.364317,-0.102173,0.084717,0.244385,-0.567383,-1.418403,-7.035446,6.848679,-0.056597,-0.659136,-0.167811,0.195557,0.239258,-0.519287,-0.906915,-4.571229,8.065335,-0.654486,0.483073,0.248288,0.051758,0.159912,-0.602539
3.640705,-6.693081,6.55605,-0.446699,-0.392509,0.197127,-0.031006,0.466797,-0.38501,-0.881587,10.172123,5.166875,-0.291632,-0.425511,-0.111508,0.054688,-0.538818,-0.077881,0.500983,-7.788094,7.337609,-0.449729,-0.058434,-0.017095,0.087891,0.256592,-0.55542,-1.099534,-6.154874,7.248552,-0.326407,-0.509259,-0.257744,0.187744,0.248047,-0.51001,-0.734069,-5.119835,8.183182,-0.311397,0.23787,0.062595,0.058838,0.171143,-0.595459
3.952985,-6.831547,6.495031,-0.63521,-0.401515,0.282347,-0.037842,0.471924,-0.388184,0.763293,9.499342,5.147604,-1.135793,-0.661118,0.023776,0.051514,-0.546143,-0.087646,0.536282,-7.316151,7.54287,-0.903905,-0.324579,-0.087858,0.078125,0.265381,-0.560791,-0.493636,-7.516291,6.477794,-1.454027,-0.641149,-0.011074,0.174805,0.264893,-0.512939,-0.642912,-4.611911,8.656338,-0.814316,0.359044,-0.074322,0.060059,0.182129,-0.599121
3.920749,-7.309067,6.678383,-0.723465,-0.18116,0.342699,-0.038574,0.486084,-0.372803,-0.377491,7.896975,4.985689,-0.924573,-0.551125,0.1286,0.041992,-0.547852,-0.106445,1.114059,-9.119953,6.61138,-1.134314,0.023276,0.178434,0.080566,0.283936,-0.547363,-0.24635,-9.657839,5.619656,-0.726947,-0.304113,-0.099282,0.172363,0.278076,-0.501953,-1.599447,-6.095791,8.287553,-1.205887,0.179709,0.158383,0.066162,0.206787,-0.583984
4.093021,-8.031394,6.23093,-0.493987,-0.081147,0.304847,-0.031494,0.492432,-0.371826,1.007653,7.750367,5.205632,-0.481174,-0.864831,0.111932,0.051025,-0.544922,-0.114258,0.175884,-8.915063,6.358699,-0.039566,-0.13909,-0.088786,0.083008,0.28418,-0.550293,-0.610168,-6.942149,6.199411,0.185783,-0.298751,-0.244394,0.167725,0.276367,-0.509277,-1.387554,-7.349722,8.019414,-0.625299,-0.093086,-0.014459,0.069336,0.210693,-0.589844
3.469755,-7.883068,6.273377,-0.115087,0.14644,0.308156,-0.033447,0.498535,-0.367188,0.308195,8.42702,5.414957,-0.110154,-0.444607,0.226374,0.037842,-0.540771,-0.111572,1.32143,-6.621677,6.763815,0.017957,0.067055,0.133441,0.07666,0.283203,-0.542969,-0.485315,-5.680199,6.495437,-0.517597,-0.384321,0.131373,0.158203,0.284668,-0.499512,-0.997263,-6.314677,7.685351,0.220815,-0.285239,0.190098,0.056152,0.210938,-0.583984
3.894355,-6.991487,6.30416,-0.111631,0.121812,0.205644,-0.028564,0.499512,-0.371094,0.650532,9.259875,5.20091,-0.267103,-0.786888,0.190249,0.034668,-0.54248,-0.124512,0.034983,-6.611587,6.864934,-0.434595,0.143205,0.143862,0.082764,0.289551,-0.547363,-0.71196,-7.981809,5.571571,-0.642729,-0.538849,0.165507,0.154541,0.290039,-0.502197,-1.109734,-4.241317,8.225152,0.030945,-0.312851,-0.074176,0.052734,0.210449,-0.588867
3.270804,-6.880894,6.282671,-0.399677,0.375204,0.283597,-0.022461,0.510498,-0.372803,1.352485,8.593953,4.675632,-0.690467,-0.362654,0.357194,0.022461,-0.535156,-0.128662,1.666112,-6.998688,6.141625,-0.477049,0.158829,0.178617,0.086914,0.296875,-0.543945,0.350972,-7.082985,5.454501,-0.123232,-0.447783,-0.103068,0.150879,0.293945,-0.504639,-0.540198,-4.902968,7.904483,-0.873247,-0.608275,0.174929,0.044922,0.229492,-0.587158
3.484178,-7.58074,5.830275,-0.632468,0.187136,0.2024,-0.019287,0.508545,-0.35791,0.185374,8.279463,5.202389,-0.424435,-0.606366,0.241,0.01709,-0.538818,-0.12915,0.037373,-6.514947,6.316952,-0.258228,0.636468,0.115614,0.096924,0.290283,-0.533447,-1.585866,-6.865528,6.547111,-0.649903,-0.499439,0.061057,0.143799,0.296875,-0.493896,-0.516458,-6.463378,7.569922,-0.679239,-0.45974,-0.089169,0.037109,0.231689,-0.572754
2.988223,-7.86367,5.745528,-0.276105,0.420597,0.2289,-0.014404,0.516113,-0.368164,2.094434,8.434497,4.692677,-0.556159,-0.208811,0.300646,0.01123,-0.533447,-0.132568,0.570359,-5.938623,6.317006,-0.601761,0.372852,0.081404,0.097656,0.299805,-0.537598,-0.140861,-7.191854,5.751744,-0.526204,-1.242369,-0.184823,0.121338,0.303955,-0.505127,-0.159686,-6.24557,7.737638,-0.292352,-0.741106,-0.022314,0.02124,0.236084,-0.581055
3.397973,-6.842146,5.592503,-0.633205,0.191475,0.216,-0.011719,0.518555,-0.362061,0.21881,8.524539,5.024565,-0.452708,-0.28719,0.153538,0.018311,-0.537842,-0.146729,0.297334,-7.005983,5.920857,-0.724631,0.658766,0.171715,0.105713,0.301025,-0.528809,0.994008,-6.606751,5.256815,-0.389562,-0.641578,-0.02447,0.111328,0.302246,-0.495605,1.196603,-5.823073,7.749446,-0.658689,-0.764681,-0.099128,0.00708,0.240479,-0.573242
2.431484,-7.908415,5.027478,-0.8009,0.127787,0.224854,-0.003662,0.538574,-0.3479,2.059888,9.54529,4.962477,-0.714104,-0.179361,0.062124,0.012207,-0.539307,-0.157227,0.050696,-5.702595,5.750627,-0.425629,0.468376,-0.045064,0.115234,0.318604,-0.515137,-1.029049,-5.43562,6.349773,-0.934676,-0.61812,-0.100724,0.108154,0.327148,-0.479736,1.105741,-6.345581,7.27399,-0.806629,-0.288779,-0.022299,0.007812,0.26416,-0.563477
4.159043,-6.814429,5.425567,-1.131579,-0.073494,0.297263,-0.002686,0.545898,-0.344971,1.554197,8.963144,4.961829,-1.674882,0.004014,0.002168,0.015869,-0.524414,-0.18042,1.742305,-4.279857,5.818239,-1.490923,0.715567,-0.073825,0.125732,0.328125,-0.503418,-0.084811,-7.625412,6.163913,-2.127408,-1.65094,0.054397,0.088135,0.346436,-0.467773,0.487205,-5.952153,7.721789,-1.234315,-0.554166,-0.243457,-0.000732,0.273926,-0.560303
2.082675,-8.275125,4.755161,-1.847867,0.115639,0.363831,0.003662,0.57251,-0.318848,1.800284,7.103296,5.302318,-1.82867,0.239444,-0.041921,0.015381,-0.511963,-0.206543,-0.957328,-6.979846,5.909627,-2.315735,1.015171,0.031843,0.140137,0.360107,-0.470459,1.606193,-8.84433,5.192481,-1.353771,-1.273043,-0.334792,0.069092,0.367432,-0.448975,1.359284,-6.96315,7.304377,-1.895894,-0.363819,-0.114137,-0.009033,0.306396,-0.532471
2.748672,-8.836376,3.883594,-1.2434,-0.136858,0.335776,0.008789,0.582764,-0.30957,0.190247,6.892257,5.815858,-1.441691,0.360583,-0.153847,0.016846,-0.515381,-0.221924,-1.074183,-9.154567,5.269041,-1.625283,0.278095,-0.301618,0.144775,0.374756,-0.454102,0.676856,-6.42017,4.621219,-1.411938,-0.968171,-0.091658,0.059814,0.378174,-0.435791,0.15864,-8.214388,6.57372,-1.603911,-0.15282,-0.155736,-0.008545,0.324219,-0.521484
2.014937,-8.20522,4.446308,-1.433842,-0.139544,0.283759,0.003662,0.601562,-0.286621,1.684731,7.115584,6.307099,-1.525562,0.327272,-0.14833,0.019043,-0.496582,-0.23999,0.122007,-7.002558,5.274959,-1.13691,0.593807,-0.440572,0.145264,0.39209,-0.432861,2.333601,-8.456232,3.660974,-2.607577,-0.761325,0.105381,0.049316,0.413818,-0.399902,0.917012,-7.900314,6.570546,-1.140913,-0.320559,-0.202409,-0.019531,0.344971,-0.50293
3.329923,-9.423538,3.700551,-1.257076,-0.103482,0.294399,0.00293,0.617188,-0.282471,0.940834,6.166489,6.278429,-1.615169,0.760483,-0.113181,0.0271,-0.49292,-0.265869,-0.81943,-7.321389,5.208353,-1.799555,0.246821,-0.368484,0.137451,0.415771,-0.420166,1.302311,-11.637211,3.598753,-1.553656,0.198351,-0.119758,0.045166,0.431885,-0.388428,0.235803,-7.326296,6.612869,-1.218854,0.043324,-0.092943,-0.025146,0.361328,-0.502441
3.038228,-8.307486,3.894466,-0.945175,0.058209,0.306583,0.005615,0.629639,-0.267334,1.63853,5.418318,6.879777,-1.321248,0.578157,0.003796,0.031494,-0.479248,-0.277344,1.334827,-9.398935,4.217911,-1.648315,0.315399,-0.495639,0.136963,0.435059,-0.39209,0.464984,-7.361798,5.500064,-0.397159,-0.486657,-0.597252,0.032715,0.436768,-0.377686,-0.006591,-8.119926,6.173984,-1.433666,-0.394281,-0.124262,-0.032227,0.379883,-0.480957
3.436514,-8.752833,3.648586,-1.189925,0.346789,0.360106,0.013672,0.636719,-0.254883,1.198298,5.351106,6.935029,-1.037885,0.963086,0.144718,0.036865,-0.469727,-0.294434,-0.383614,-9.215677,4.082975,-0.752768,0.501566,-0.333079,0.138428,0.438477,-0.383789,2.768276,-5.70711,3.990894,-1.685352,-0.578685,0.085607,0.031738,0.454834,-0.355713,0.888992,-8.811799,5.626452,-0.998083,-0.39108,0.002484,-0.035889,0.394287,-0.471191
2.065639,-8.938995,3.156121,-0.751146,0.381224,0.383355,0.026855,0.641357,-0.247803,-0.234348,6.026515,7.759565,-0.850595,0.714272,0.157574,0.039307,-0.463623,-0.306396,-0.307235,-8.192356,4.399881,-1.249766,0.174376,-0.448956,0.143066,0.447754,-0.365234,1.493802,-10.889151,2.677401,-2.031828,0.069632,0.271,0.040039,0.469971,-0.32959,0.393211,-7.838153,5.647873,-0.689707,-0.47442,-0.067692,-0.036621,0.397217,-0.463623
2.362148,-8.479891,3.231035,-0.980859,0.364546,0.35528,0.032715,0.644531,-0.24707,0.238854,6.031442,8.044583,-1.117007,0.662681,0.216489,0.041016,-0.453613,-0.31958,-0.786181,-10.882879,3.075594,-1.580148,0.049492,-0.112422,0.144043,0.454346,-0.350586,1.658792,-11.050483,1.996767,-0.485032,0.086686,-0.162368,0.040039,0.468262,-0.331055,1.479141,-7.974464,5.150879,-1.165451,-0.561228,0.090981,-0.041992,0.408203,-0.454102
1.62918,-9.374115,2.612215,-0.913353,0.282671,0.338946,0.039062,0.668945,-0.226807,-0.534816,5.661175,8.292537,-0.909485,0.620497,0.095618,0.045898,-0.444092,-0.328613,-0.222556,-10.97705,2.653478,-0.527854,-0.117389,-0.477145,0.133789,0.474854,-0.333984,1.744505,-7.933913,3.076787,-0.775456,0.812919,0.069817,0.044922,0.491211,-0.307617,0.943166,-8.316433,4.783401,-0.743482,-0.236138,0.04217,-0.049316,0.429443,-0.435547
1.525614,-9.226591,2.559262,-0.838694,0.183469,0.212315,0.039551,0.668945,-0.228027,-0.66111,5.854551,8.668509,-0.949268,0.547766,0.071394,0.056641,-0.434326,-0.336426,-0.825091,-8.742293,2.910344,-0.695524,-0.107676,-0.18926,0.129639,0.473877,-0.33374,-0.474068,-9.341189,3.212988,-1.323243,0.623707,0.346499,0.05249,0.496582,-0.300293,1.093088,-7.947676,4.98758,-1.014703,-0.421632,-0.062799,-0.05542,0.432373,-0.435303
1.710178,-9.799391,2.15664,-0.550696,-0.089482,0.177742,0.039551,0.668945,-0.214111,-0.670794,4.861636,8.711077,-0.776439,0.33131,-0.072588,0.052002,-0.426025,-0.335938,-0.091145,-10.675368,1.843314,-1.268098,-0.561344,-0.038239,0.122559,0.480957,-0.314697,0.749603,-10.883847,2.138437,-0.659022,0.265271,0.197542,0.059326,0.494873,-0.28125,1.66302,-9.361096,4.252642,-0.771326,-0.114864,0.181827,-0.057373,0.440186,-0.416016
2.163615,-8.532059,2.672433,-0.477575,0.039943,0.150086,0.047363,0.682861,-0.197998,-0.217518,5.271161,8.989117,-0.442727,0.299462,-0.089547,0.067627,-0.436523,-0.347168,0.892301,-12.105009,1.26777,-0.608845,-0.288372,-0.022756,0.126465,0.494873,-0.296143,0.73545,-9.610095,2.290181,-0.349312,0.531616,0.201797,0.07251,0.508789,-0.266357,0.674859,-8.270967,4.863557,-0.22358,-0.021197,-0.185737,-0.052002,0.451172,-0.405029
1.453921,-9.28659,2.191648,-0.820796,-0.071155,0.10691,0.047852,0.682373,-0.202637,-1.114673,5.470971,9.022056,-0.801897,0.079966,-0.130363,0.060303,-0.419434,-0.357422,-0.343808,-10.415828,1.791611,-0.230452,-0.329834,0.025781,0.124268,0.490967,-0.309082,-0.766421,-9.879024,2.016361,-0.956365,0.21502,0.44251,0.078613,0.511719,-0.268555,0.984039,-7.593225,4.821376,-0.719378,-0.169758,0.119602,-0.056885,0.454102,-0.4104
1.768267,-9.188809,2.309388,-0.57192,0.001302,0.165481,0.052246,0.692139,-0.187256,-0.506465,4.78175,8.788885,-0.786267,-0.092272,-0.052761,0.063232,-0.411621,-0.362305,0.442882,-9.827974,1.82429,-0.896607,-0.390621,0.068381,0.124023,0.500732,-0.290527,0.180054,-11.711676,0.756453,-0.743233,-0.222762,0.300312,0.084717,0.518311,-0.24707,0.600682,-8.5445,4.492438,-1.004919,0.124077,-0.089628,-0.05127,0.469238,-0.394531
1.542738,-8.847498,2.247991,-0.971073,-0.023628,0.137091,0.050293,0.696777,-0.172363,-0.959045,5.198162,8.993999,-0.816307,-0.163426,-0.099975,0.05957,-0.396729,-0.370361,-0.418096,-11.311727,1.79412,-1.079789,-0.284902,0.200419,0.123047,0.506836,-0.275879,1.186803,-9.787402,1.203577,-0.312582,0.325476,0.284883,0.084961,0.519287,-0.239746,0.30651,-9.237157,4.370768,-0.998614,-0.114218,0.032899,-0.059814,0.47876,-0.377686
2.113874,-10.703575,1.509959,-0.827148,0.026072,0.201948,0.055176,0.69751,-0.167725,-0.161657,3.74474,8.986136,-1.187748,-0.458963,-0.017476,0.061523,-0.392578,-0.387451,0.122921,-11.689917,1.498265,-0.527899,-0.629538,0.068902,0.120605,0.502441,-0.276611,0.066486,-10.286836,1.097923,-0.967024,0.390071,0.536577,0.102783,0.522217,-0.228271,1.105507,-10.044789,3.816536,-0.863985,-0.090159,0.013371,-0.05542,0.479492,-0.369629
1.584216,-10.050996,1.730622,-0.066473,0.143649,0.196995,0.062744,0.695312,-0.157959,-0.222603,2.79136,8.711678,-0.091272,-0.287786,-0.019197,0.055176,-0.386963,-0.392822,0.33062,-10.917801,1.491897,-0.072761,-0.373865,0.178372,0.127686,0.502441,-0.268799,0.261707,-12.360646,-0.078629,-0.280488,0.508475,0.449478,0.115967,0.522949,-0.217041,0.412162,-10.054545,3.766571,-0.159541,0.023411,0.117972,-0.049561,0.483398,-0.360352
1.985404,-9.42436,1.778744,-0.235742,0.126033,0.126346,0.05957,0.708496,-0.159424,-0.019648,5.318718,9.221042,0.330934,-0.468775,0.020118,0.046631,-0.39624,-0.385498,0.150088,-10.208227,1.608659,0.032134,-0.456644,0.062874,0.115234,0.513184,-0.272705,-0.424889,-10.926516,0.286609,0.448343,0.631247,0.215153,0.11499,0.527832,-0.222656,0.538223,-8.607411,3.834679,0.173279,-0.316898,-0.013051,-0.059082,0.491455,-0.366455
1.75781,-9.892053,1.643974,-0.227356,0.238004,0.163639,0.058838,0.705811,-0.153564,0.367911,5.124726,9.349174,-0.658762,-0.320715,0.133738,0.044434,-0.391113,-0.389893,0.460096,-9.971511,1.397318,-0.083698,-0.289974,0.13093,0.110107,0.508057,-0.273193,0.486798,-9.411194,0.916293,0.086673,0.627322,0.216383,0.117432,0.519287,-0.225342,1.360502,-8.217151,3.866367,-0.395888,-0.183287,0.081218,-0.061768,0.489258,-0.356201
1.761571,-9.337927,1.65682,-0.196696,0.259992,0.097134,0.066406,0.708252,-0.165283,-0.104346,3.621105,8.658989,-0.34423,-0.405156,0.033938,0.04248,-0.393799,-0.406738,0.000355,-9.359959,0.918052,-0.120594,-0.330104,0.046522,0.11377,0.507568,-0.281738,-0.956084,-9.310592,1.34444,-0.440114,0.914252,0.37039,0.132812,0.521729,-0.225098,0.637882,-9.261567,3.714934,-0.493601,-0.153437,0.05577,-0.058838,0.492676,-0.361084
1.13086,-9.735618,1.481208,-0.51642,0.121482,0.099826,0.067139,0.712402,-0.145752,0.3955,4.987429,8.796127,-0.095366,-0.355189,-0.02415,0.031738,-0.384033,-0.397949,0.473801,-9.353225,1.131682,-0.500457,-0.213755,0.082585,0.113037,0.512207,-0.26416,-1.618892,-11.346659,0.962807,-0.586561,0.043855,0.244799,0.138916,0.52832,-0.203613,1.260489,-9.309592,3.591692,-0.319022,-0.281427,-0.077876,-0.060547,0.500977,-0.343506
2.022636,-10.310622,1.01223,-0.067856,0.176826,0.072652,0.072021,0.70752,-0.151123,0.659278,4.292567,8.402654,-0.595076,-0.279672,-0.024426,0.032471,-0.37915,-0.418457,0.15506,-9.752365,1.917019,-0.016982,-0.087371,0.016121,0.115234,0.511719,-0.269531,1.083821,-9.628453,0.834588,0.551428,0.067595,-0.100982,0.138916,0.523926,-0.214355,1.45673,-9.630969,3.358383,-0.278368,-0.038349,0.1016,-0.059326,0.50293,-0.341553
1.012995,-9.230112,1.387277,-0.019781,0.001075,0.062978,0.069824,0.708496,-0.149414,0.559585,3.482495,8.463397,-0.023419,-0.154167,-0.023085,0.033447,-0.380859,-0.413818,-0.004168,-8.594791,1.992323,0.028248,-0.23463,-0.056111,0.108643,0.51123,-0.269775,0.081836,-8.022912,1.649681,-0.467644,0.851646,0.168131,0.142578,0.523926,-0.205811,0.867604,-9.577852,3.362982,0.0316,-0.034847,-0.032806,-0.062988,0.499512,-0.345215
2.042541,-9.663637,1.46562,-0.258757,0.134488,0.05472,0.074219,0.712646,-0.149902,0.651671,4.81179,8.960847,0.014901,-0.07308,-0.073386,0.032715,-0.383789,-0.397949,0.555682,-9.13371,1.108129,-0.487111,-0.164555,-0.076229,0.112305,0.515381,-0.265381,-1.556198,-11.857387,0.779465,-0.743293,0.215869,0.213471,0.152344,0.527832,-0.196533,0.935008,-8.47052,3.565603,0.164974,-0.057042,-0.002302,-0.060791,0.500244,-0.348145
1.056146,-9.439384,1.388636,-0.142647,0.08652,0.016723,0.078369,0.717773,-0.144287,0.298105,4.369269,8.705239,-0.552207,-0.007242,-0.001641,0.034424,-0.381592,-0.427734,0.112831,-10.029462,1.147986,-0.207365,-0.056988,-0.103516,0.106934,0.520996,-0.263672,0.44453,-10.115781,0.518642,0.620462,0.195366,-0.336247,0.147705,0.527344,-0.204346,0.740898,-8.055815,3.712746,-0.425704,-0.072939,-0.062464,-0.060791,0.503906,-0.338623
1.561972,-9.810112,1.214277,-0.355935,0.095858,0.021353,0.070312,0.719727,-0.141357,0.574351,3.31282,8.483948,-0.276117,-0.000196,-0.067182,0.042725,-0.373779,-0.414307,0.413153,-9.075075,1.355172,0.091432,-0.068528,-0.250372,0.098145,0.522217,-0.268066,-0.893966,-8.125015,2.055514,-0.256329,0.481652,0.008014,0.143555,0.532959,-0.200439,1.138736,-10.009477,3.150269,-0.699229,-0.065684,0.067266,-0.065918,0.514893,-0.335693
1.115869,-10.373307,0.881078,0.119301,0.093014,-0.011869,0.074707,0.715088,-0.143066,0.312211,3.76189,8.648017,0.228925,0.22769,-0.010287,0.033447,-0.379639,-0.418457,0.136284,-9.086131,1.438923,-0.164849,0.113054,-0.108062,0.099854,0.520752,-0.262939,-1.289233,-10.831927,1.449914,-0.383136,-0.275143,-0.102075,0.141357,0.530518,-0.196289,0.644672,-10.536113,2.998728,0.284942,0.064669,-0.055809,-0.063965,0.507568,-0.335938
1.350798,-8.646578,1.562509,0.059438,0.043773,0.034995,0.077637,0.716553,-0.144775,-0.022834,4.889537,8.999014,-0.032078,0.109992,-0.066957,0.045654,-0.377197,-0.408203,0.175268,-9.5465,1.03694,-0.132084,-0.012702,-0.271829,0.096924,0.522461,-0.262207,-0.056064,-9.825113,0.924152,0.402751,-0.196264,-0.345397,0.138428,0.531738,-0.203369,0.717424,-8.157224,3.631503,0.432398,-0.106784,-0.112846,-0.062988,0.506836,-0.342041
1.408839,-9.354413,1.333853,-0.416345,0.053928,0.006043,0.07666,0.720459,-0.142578,0.215227,4.06707,9.058206,-0.542862,0.113237,0.029683,0.041992,-0.368408,-0.424072,0.53045,-9.627107,1.342831,-0.248363,0.172622,-0.058953,0.0979,0.523926,-0.258301,-0.635075,-7.739638,1.659779,-0.072555,-0.304227,-0.276204,0.129639,0.53418,-0.203369,1.136828,-8.050606,3.530314,-0.568047,0.04148,0.040161,-0.063965,0.51123,-0.335205
1.474333,-9.387222,1.209612,-0.215131,0.165041,0.074411,0.086914,0.726074,-0.140625,0.078594,3.880697,8.671335,-0.209458,0.035742,0.014821,0.035645,-0.373779,-0.420898,0.086958,-9.277588,1.863474,-0.337923,0.073149,-0.116806,0.102539,0.529541,-0.253906,0.323321,-8.081831,1.727453,-0.752006,-0.394893,-0.031858,0.13208,0.540527,-0.197998,0.432386,-9.798418,3.187325,-0.656417,0.071759,0.018629,-0.054443,0.518555,-0.330811
0.957203,-9.245762,1.204136,-0.58361,0.072777,0.077668,0.08667,0.723145,-0.131592,-0.005845,4.801687,9.377987,-0.453681,0.045293,0.136844,0.040527,-0.363281,-0.427979,0.211647,-9.050285,1.506298,-0.641027,0.145238,0.09473,0.102295,0.529053,-0.241943,-0.863726,-9.428877,1.348388,-0.874959,-0.20728,0.01849,0.132812,0.541748,-0.181152,0.637145,-9.610968,2.968662,-0.170583,-0.143233,-0.054604,-0.060059,0.515137,-0.323486
2.012997,-10.039862,0.96103,-0.511092,0.130557,0.077761,0.086182,0.730225,-0.124512,0.359273,3.957081,9.72414,-0.990956,-0.103361,0.113938,0.034668,-0.35498,-0.435059,0.55934,-10.426576,0.108553,-1.304318,-0.060494,0.038753,0.103271,0.540283,-0.223633,0.127437,-10.17451,-1.187094,-1.089847,-0.730271,-0.004784,0.126709,0.553467,-0.161621,1.187929,-8.456753,3.127793,-0.354489,-0.070665,-0.045743,-0.061768,0.525391,-0.316406
1.68256,-10.156017,0.928719,-0.338877,0.210754,0.077347,0.084229,0.733887,-0.115967,0.64746,1.52101,9.025478,-0.735613,-0.128369,0.285747,0.03833,-0.34375,-0.439453,1.853888,-13.64342,-0.71333,-0.62408,0.367566,0.248598,0.102783,0.544434,-0.210449,0.537189,-13.184934,-1.958726,-0.584764,-0.263325,0.213048,0.123535,0.555908,-0.152832,0.914736,-9.725374,2.696079,-0.855892,-0.103488,0.07178,-0.066895,0.533936,-0.299805
1.577101,-10.619353,0.370726,0.36236,0.361704,0.056693,0.091064,0.718262,-0.126465,0.367135,1.885435,8.666842,0.921684,-0.103775,0.17998,0.032471,-0.362305,-0.433105,-0.319791,-11.486014,-0.074471,1.566736,0.61697,-0.055732,0.106201,0.523193,-0.236328,-0.802111,-10.173344,0.174999,1.739389,-0.257778,-0.445855,0.118896,0.533691,-0.187256,1.107952,-11.264999,2.194696,0.32808,-0.257779,0.048237,-0.067383,0.52002,-0.311523
0.980859,-7.876357,1.31563,0.120726,0.101219,0.0831,0.092529,0.728027,-0.124756,0.276792,6.731764,9.758556,0.609942,-0.204016,0.163479,0.024414,-0.366699,-0.431396,0.415968,-5.165626,1.933575,0.404923,0.329316,0.031326,0.114014,0.531006,-0.239014,-0.384081,-5.101431,2.518135,-0.466362,-0.753774,0.025833,0.115234,0.544922,-0.179688,1.235632,-7.930462,3.166806,0.788157,-0.213629,-0.199202,-0.066162,0.518555,-0.31958
1.168815,-9.93541,0.425717,-0.601702,0.13761,0.011685,0.088867,0.725586,-0.118652,0.816718,4.741246,8.615003,-1.341714,-0.144339,0.163316,0.029297,-0.351318,-0.44043,-0.123032,-9.054587,0.986245,-1.639591,0.46125,0.349596,0.113281,0.531982,-0.215088,0.513977,-12.327814,-0.594729,-1.626186,-0.784079,0.496291,0.111572,0.545654,-0.154785,1.83645,-7.813254,2.947295,-0.761188,-0.062992,0.16154,-0.072021,0.523438,-0.305664
1.233396,-9.385829,0.745981,-0.187514,-0.183424,0.025077,0.094971,0.726562,-0.112061,0.5718,1.773238,8.810576,-0.616012,-0.039613,0.009823,0.021484,-0.335693,-0.449707,-0.078693,-11.859502,0.595921,-0.377032,0.150905,-0.190991,0.117432,0.534424,-0.208984,0.915609,-11.631037,-0.284179,0.603537,-0.20065,-0.395936,0.112305,0.544189,-0.165283,1.081831,-9.886739,2.481581,-0.758167,0.195327,-0.041336,-0.063965,0.530029,-0.294189
1.692044,-10.584462,0.580577,-0.41764,0.007953,-0.055487,0.094727,0.729736,-0.112061,0.804644,2.200765,8.952756,0.212719,-0.056749,-0.035596,0.021973,-0.356201,-0.445068,-0.006634,-10.326026,1.227904,0.368333,0.161512,0.075964,0.121582,0.53418,-0.217041,1.321286,-8.091852,0.85137,0.119048,0.115419,0.030049,0.11499,0.54541,-0.16748,1.127657,-10.682145,2.436765,-0.101939,0.008395,0.022948,-0.062256,0.532227,-0.296875
0.791966,-9.57347,0.783745,0.559596,-0.064771,0.041152,0.092041,0.732422,-0.123535,-0.081048,4.356273,9.338143,0.471311,0.04545,-0.068225,0.018555,-0.357178,-0.44043,-0.711952,-8.650889,1.202362,0.14111,-0.119263,-0.213751,0.115479,0.538818,-0.220947,0.399595,-9.210491,-0.240825,-0.404573,0.667021,0.220007,0.117188,0.550537,-0.164307,0.564243,-9.126774,2.994368,0.622052,0.132816,-0.061951,-0.064941,0.530273,-0.308594
0.994736,-8.595819,1.074037,-0.462266,-0.116513,-0.050734,0.089111,0.730469,-0.114502,0.132479,3.91147,9.361429,-0.679454,-0.262192,-0.039627,0.022217,-0.340576,-0.453857,-0.232248,-10.50469,0.947106,-0.691266,-0.291051,0.206459,0.114258,0.538086,-0.2146,0.04593,-12.035657,-0.14767,-0.261965,0.8816,0.379055,0.125977,0.546875,-0.159912,0.930122,-8.115083,3.0626,-0.313056,-0.014527,-0.037853,-0.06543,0.529541,-0.307373
1.620599,-11.111057,0.380031,0.193304,-0.093479,-0.013173,0.082764,0.725586,-0.114258,0.977363,1.404068,8.400563,0.059096,-0.089655,-0.038511,0.030029,-0.341309,-0.449951,0.398322,-11.591799,0.125608,0.78948,-0.355785,-0.23503,0.102783,0.534912,-0.225342,-0.386112,-9.853071,0.576239,1.466903,1.06524,-0.212724,0.124512,0.538818,-0.176758,0.911806,-10.12731,2.506249,-0.223004,0.20031,0.176502,-0.068848,0.527588,-0.299805
1.611417,-8.445915,1.400288,0.281401,0.036294,0.016651,0.088135,0.729492,-0.11792,0.574097,3.808028,9.349765,0.726235,-0.103506,-0.034969,0.019531,-0.350098,-0.444824,0.718318,-7.399597,1.176357,0.721338,-0.115924,-0.005573,0.106201,0.532959,-0.235107,-0.573037,-6.326185,2.145003,-0.148391,0.73301,0.237419,0.133301,0.541748,-0.170166,0.383122,-9.642544,2.885171,0.352226,-0.043725,-0.179357,-0.064453,0.52832,-0.304443
1.492036,-10.053994,0.663762,-0.271235,0.07692,0.008619,0.087158,0.733398,-0.111328,1.041453,4.603658,9.133731,-0.197914,-0.100137,0.026232,0.016846,-0.350342,-0.450439,0.033202,-8.946676,0.688204,-0.733007,-0.25974,0.010413,0.104736,0.540283,-0.220703,-0.467069,-12.423061,-0.152338,-1.047641,0.374946,0.435633,0.140625,0.548096,-0.150879,1.401392,-8.815907,2.813091,0.191392,-0.209949,0.131891,-0.068359,0.530762,-0.302246
1.052661,-9.567532,0.584648,0.150489,0.089386,0.051661,0.088135,0.730225,-0.116211,0.392582,2.781793,8.939933,-0.499163,0.004254,0.016363,0.023682,-0.340088,-0.447998,0.717328,-11.06958,-0.314525,-0.131384,-0.120119,-0.089477,0.10376,0.540527,-0.223633,-0.351284,-11.617986,-0.458223,0.89727,0.6305,-0.348531,0.139404,0.541504,-0.165527,1.07805,-8.852106,2.8321,-0.280651,0.149634,-0.110004,-0.068848,0.529541,-0.303223
0.58747,-9.548634,0.583549,-0.15777,-0.10204,-0.044915,0.088135,0.729004,-0.114258,0.177184,2.655752,8.846612,0.344604,-0.06185,-0.149784,0.018555,-0.355957,-0.437988,-0.734413,-9.553403,0.505105,0.552676,-0.025619,-0.183729,0.098389,0.534424,-0.233398,-1.264273,-6.959479,1.310381,0.422965,0.395178,-0.092295,0.137451,0.541748,-0.173828,0.592764,-9.853724,2.487089,-0.13761,-0.006059,0.145691,-0.065674,0.528564,-0.303711
1.472885,-9.669552,0.784375,0.0468,-0.134963,-0.015036,0.083496,0.72583,-0.114502,0.828711,4.802455,9.133564,0.175387,-0.035002,-0.166577,0.019531,-0.354492,-0.450439,0.627087,-7.750375,1.294322,-0.089021,-0.35963,-0.202145,0.093262,0.533691,-0.229004,0.166225,-9.399037,0.697591,-1.044873,0.089542,0.172016,0.139648,0.542236,-0.153564,1.209654,-9.300504,2.637755,0.189279,0.082024,-0.180333,-0.068848,0.525635,-0.303955
1.985048,-9.481594,1.090931,-0.119855,-0.084489,-0.018529,0.086426,0.730469,-0.117432,1.295661,3.220142,8.780666,-0.717096,0.004954,-0.057662,0.023193,-0.34375,-0.449951,1.210729,-10.128873,0.822674,-0.623981,-0.023291,-0.028813,0.095947,0.538818,-0.224609,0.058534,-12.755732,0.378955,0.031269,0.396869,-0.048467,0.140381,0.542725,-0.158447,0.813973,-8.922075,2.933469,-0.158148,0.099053,0.125937,-0.06665,0.528809,-0.305176
1.472217,-10.00795,0.779305,-0.021297,0.114967,0.034085,0.080078,0.72998,-0.108643,0.87909,1.734407,8.577466,0.134433,0.187319,-0.032012,0.0271,-0.342285,-0.450439,0.268282,-10.745515,0.681833,0.410741,-0.062611,-0.322133,0.083008,0.537109,-0.226318,-0.695658,-8.832352,2.03118,0.982187,0.132011,-0.528696,0.128662,0.543213,-0.16626,0.678755,-9.744537,2.701282,-0.139663,-0.125116,-0.054527,-0.073486,0.529541,-0.296631
1.418298,-9.619059,0.736108,0.196187,0.074094,-0.004734,0.086182,0.734619,-0.121582,0.50489,4.060285,9.320736,0.693608,0.146199,-0.043243,0.025635,-0.344482,-0.432373,0.794483,-8.151557,0.773334,0.503601,-0.047259,-0.225198,0.085938,0.545166,-0.236328,-0.520319,-7.40357,1.632907,-0.324257,-0.353011,-0.042171,0.131104,0.549805,-0.168945,1.080623,-9.454992,2.6225,0.343198,-0.119445,0.000589,-0.067383,0.535645,-0.308105
1.281346,-8.931953,0.928795,-0.238063,0.079105,0.021695,0.087646,0.727295,-0.114014,0.651904,5.129497,9.756944,-0.491536,0.145795,-0.052484,0.026855,-0.35083,-0.442627,0.217256,-8.420608,0.98397,-0.772292,-0.022999,-0.142727,0.087646,0.53833,-0.22168,-0.015885,-10.972601,1.030378,-0.854099,-0.395019,-0.139509,0.126709,0.547363,-0.153076,1.027553,-8.263885,3.044501,-0.0842,-0.143208,-0.095733,-0.067383,0.526855,-0.301514
1.15337,-10.608947,0.195657,-0.258937,0.056233,-0.023439,0.087891,0.733643,-0.104004,0.275004,1.840673,8.723315,-0.732222,0.152103,-0.009462,0.030273,-0.34375,-0.450195,0.363554,-11.665686,0.295505,-0.470049,-0.213093,-0.041067,0.084229,0.547119,-0.211914,-0.629939,-10.47955,1.004051,0.555488,-0.462722,-0.338824,0.120361,0.55127,-0.158203,1.34233,-9.925169,2.501561,-0.681999,0.006513,0.086198,-0.068115,0.5354,-0.287109
1.038408,-9.56562,0.562084,0.247381,-0.039868,0.024756,0.09375,0.736816,-0.104492,0.317563,2.622083,9.123109,0.684746,0.133735,-0.163671,0.034912,-0.353516,-0.441406,0.495258,-9.836669,0.67108,0.710741,-0.076363,-0.279539,0.085938,0.543945,-0.222656,0.028064,-6.944106,1.31939,0.159443,-0.722627,-0.33594,0.116699,0.556396,-0.159668,0.625759,-10.718257,2.381448,0.200062,0.034082,-0.019163,-0.0625,0.54126,-0.290039
1.56454,-9.335199,0.882957,-0.246815,-0.029277,-0.023282,0.0896,0.737793,-0.102539,0.416507,5.183165,9.903877,-0.003214,0.119121,-0.089582,0.035645,-0.357422,-0.439941,0.212674,-7.959737,1.380777,-0.259479,-0.283083,0.020527,0.078857,0.546875,-0.219971,0.675596,-9.321028,0.613929,-0.905449,-0.541344,0.234919,0.114258,0.559326,-0.149658,1.204289,-8.680112,2.886774,0.39573,-0.069435,-0.127446,-0.067383,0.537109,-0.297119
1.095185,-9.852397,0.589223,-0.158283,0.03079,0.028351,0.087891,0.733887,-0.098633,0.172484,3.222436,9.222259,-0.900739,0.076045,-0.077385,0.033203,-0.32959,-0.449951,0.410618,-10.65054,0.995352,-0.872419,-0.367048,0.057752,0.080566,0.546387,-0.204346,0.21291,-10.994212,0.145876,-0.0547,-0.239986,-0.133183,0.108887,0.554443,-0.146729,0.900651,-8.330912,3.043547,-0.497966,0.09737,0.089762,-0.068115,0.536621,-0.286133
1.421743,-9.902154,0.544121,-0.10102,-0.022404,-0.012195,0.094482,0.734375,-0.108643,0.364184,1.493761,8.93391,0.052002,0.018264,-0.021376,0.033203,-0.340088,-0.451172,0.440834,-11.83597,0.543444,0.198017,-0.461949,0.013916,0.080811,0.543945,-0.221191,0.417063,-8.803316,0.416448,0.304034,-0.174417,0.047443,0.114746,0.550537,-0.161621,0.804242,-10.58735,2.284088,-0.494778,0.003993,0.000792,-0.062012,0.536621,-0.291748
1.085581,-9.959975,0.517681,0.150246,0.068057,0.004254,0.086182,0.736084,-0.104248,0.216846,3.941783,9.467838,0.704715,0.097173,-0.06491,0.036377,-0.342285,-0.44751,0.741702,-9.388821,0.558408,0.609539,-0.361465,-0.040107,0.072754,0.546143,-0.223877,0.0719,-9.676102,0.111974,-0.36983,0.049397,0.218119,0.111084,0.559326,-0.148682,0.819361,-10.102158,2.39268,0.601384,-0.006354,-0.020764,-0.072266,0.536621,-0.294189
1.440144,-9.256149,0.716393,0.045328,-0.022205,6.6e-05,0.08252,0.737793,-0.111572,0.259872,4.588833,9.469747,-0.303792,-0.058719,0.045937,0.033203,-0.33667,-0.447266,0.660627,-8.774356,0.630729,-0.195058,-0.385414,0.087443,0.068359,0.547363,-0.228271,-0.6746,-11.330747,0.321954,-0.000495,-0.180731,0.114468,0.108154,0.557373,-0.15625,1.033482,-8.22214,2.878271,0.146756,-0.050714,-0.103083,-0.076416,0.538818,-0.299561
1.036055,-10.008406,0.46316,-0.103832,0.029657,0.000586,0.087158,0.730713,-0.098145,0.488376,2.339537,9.050984,-0.310083,0.064624,0.0315,0.0354,-0.342285,-0.445068,0.957081,-10.706994,0.017924,-0.219985,-0.251548,0.146556,0.071045,0.543213,-0.210205,-0.364066,-9.596196,1.065111,0.497702,-0.430034,-0.235818,0.105225,0.552246,-0.152588,1.254605,-9.689682,2.425594,-0.482793,0.064057,0.172793,-0.067871,0.536133,-0.281738
1.379378,-9.744694,0.529995,0.175027,-0.034579,-0.013952,0.088379,0.732666,-0.11499,-0.099751,3.304558,9.508378,0.496757,0.022475,0.00758,0.041504,-0.343262,-0.449951,0.464914,-10.434599,0.231501,0.290928,-0.095078,0.030034,0.073242,0.54126,-0.22583,-1.20304,-8.524566,2.265243,-0.071462,-0.799073,0.106615,0.108154,0.552734,-0.164795,0.565792,-10.122966,2.427665,0.284338,0.117843,-0.126402,-0.06958,0.533203,-0.299072
0.75875,-9.257234,0.766573,-0.000207,-0.051801,-0.041132,0.089355,0.733154,-0.101074,0.199784,4.554167,9.509697,-0.022903,-0.085801,0.040969,0.035156,-0.339844,-0.441406,0.613715,-9.215707,-0.151898,0.073483,-0.197034,0.205451,0.076172,0.540771,-0.218262,-1.8897,-10.259651,0.991925,-0.50976,-1.577868,0.076531,0.101318,0.557129,-0.150635,0.911796,-8.430184,2.84782,0.402366,-0.055119,-0.017369,-0.068115,0.533936,-0.292969
1.967048,-9.298275,0.805674,-0.174869,-0.073889,-0.027363,0.088379,0.735107,-0.105713,0.489787,3.380097,9.324317,-0.52645,-0.130209,0.07779,0.031982,-0.335693,-0.450439,1.801235,-9.763996,-0.093929,-0.527197,0.206274,0.135361,0.081055,0.540771,-0.215332,-1.366799,-12.087914,-0.312917,-0.452101,-2.335447,-0.205107,0.087402,0.557617,-0.15332,1.224757,-8.298951,2.86527,-0.423463,0.088877,-0.065889,-0.067627,0.534668,-0.291748
1.373758,-9.97924,0.607402,-0.154337,0.023369,-0.045155,0.084473,0.725342,-0.104004,0.763345,2.258729,8.990902,-0.15024,-0.118127,0.112179,0.027832,-0.336914,-0.446289,-0.111914,-11.72676,0.60627,-0.222162,0.354592,0.263796,0.083984,0.534912,-0.213135,0.500725,-10.902792,0.148952,0.379595,-2.405758,-0.470956,0.068359,0.549072,-0.16333,0.997272,-10.175793,2.271274,-0.464205,0.052483,0.063976,-0.06958,0.528564,-0.286621
1.493229,-9.874792,0.405479,0.170884,0.044712,-0.014585,0.078857,0.738281,-0.106934,0.31184,3.129557,9.013738,0.434726,-0.109272,0.064652,0.027832,-0.34375,-0.452393,0.393381,-10.385639,0.716774,0.68308,-0.005204,-0.047804,0.078613,0.548096,-0.227783,0.461269,-9.102613,0.294287,0.119681,-1.981275,-0.289622,0.046631,0.562256,-0.168701,1.000232,-10.220696,2.271969,0.360779,-0.05625,-0.103089,-0.074951,0.54248,-0.294434
1.060748,-9.151008,0.709297,0.07538,-0.121033,-0.041535,0.082031,0.73999,-0.10791,0.67579,4.454087,9.194788,0.121666,-0.177875,0.069491,0.023193,-0.343506,-0.443359,0.609649,-7.885844,0.898319,0.230843,0.165316,0.038797,0.07959,0.545654,-0.226807,-0.65013,-10.474318,-0.601292,-0.499136,-2.022042,-0.213169,0.034424,0.566162,-0.15918,1.328521,-8.609942,2.669301,0.323609,0.003801,-0.046371,-0.073975,0.541504,-0.297119
1.733406,-9.774006,0.629401,-0.251967,-0.048537,-0.044373,0.079102,0.729736,-0.095215,0.762386,3.383647,9.476659,-0.551169,-0.050195,0.060536,0.02002,-0.344238,-0.456299,0.27845,-9.804465,0.557761,-0.86591,0.091412,0.029293,0.084473,0.538818,-0.210693,0.739556,-11.61355,-0.847683,-0.178208,-2.151003,-0.452261,0.017822,0.55835,-0.154785,1.062304,-8.868423,2.712073,-0.397738,0.079948,0.020463,-0.071777,0.53418,-0.286133
1.789172,-10.439335,0.551811,0.062031,-0.086096,-0.053142,0.081787,0.738525,-0.107422,0.796282,1.67277,9.101085,-0.090898,-0.138264,0.050484,0.023682,-0.342041,-0.451904,0.473493,-12.161355,0.171214,0.085624,-0.054272,-0.070121,0.085449,0.550537,-0.221436,1.442645,-9.841867,-0.174565,0.451369,-1.618336,-0.551292,0.003662,0.56543,-0.172852,0.930015,-10.283231,2.392131,-0.170783,-0.039632,-0.02658,-0.070557,0.544189,-0.292969
1.320879,-9.449036,0.646279,0.179585,0.127978,-0.042095,0.084473,0.73877,-0.099854,0.857936,3.300594,9.057897,0.635185,0.051702,-0.015532,0.02124,-0.352539,-0.447998,0.649965,-8.886978,0.646209,0.969026,0.025302,-0.203278,0.085449,0.547119,-0.223633,-0.040141,-8.204226,0.556538,-0.006709,-1.499922,-0.395142,-0.007812,0.567139,-0.159912,1.009434,-9.590712,2.587537,0.417664,-0.107939,-0.105423,-0.072021,0.539551,-0.286865
1.198573,-9.409942,0.540842,-0.03967,-0.0929,-0.076388,0.077393,0.727783,-0.097412,0.328147,4.824921,8.965758,0.027459,-0.026263,0.052707,0.022461,-0.344238,-0.450439,0.489801,-7.070709,0.839934,-0.25153,0.003748,-0.103772,0.077148,0.536377,-0.218018,-1.047521,-10.049424,-0.380907,-0.879125,-1.934989,-0.290278,-0.023682,0.558838,-0.139404,1.140359,-8.509451,2.817133,0.12976,-0.062506,-0.084803,-0.077393,0.524902,-0.287354
1.449931,-9.307872,0.692956,-0.22792,-0.047609,-0.055524,0.074463,0.727539,-0.096436,1.110862,3.558946,9.272619,-0.7741,0.117669,-0.01994,0.026367,-0.336914,-0.457031,0.733551,-10.630695,0.270187,-1.250751,0.153489,-0.265448,0.070801,0.543945,-0.204834,0.900109,-13.010759,-1.564334,-0.815886,-2.288041,-0.434754,-0.047607,0.562744,-0.133545,1.404106,-8.878383,2.772224,-0.490436,-0.003772,-0.049738,-0.080078,0.53125,-0.281006
1.816387,-10.605623,0.27394,-0.084125,-0.07145,-0.112178,0.076904,0.730225,-0.100098,0.33772,0.879218,8.63322,-0.149028,0.110412,0.046657,0.026611,-0.335449,-0.457764,0.351928,-12.971357,0.057645,0.357777,0.012864,-0.386944,0.070312,0.54248,-0.215332,2.029501,-11.365099,-1.17681,0.683073,-1.496766,-0.982713,-0.065186,0.557129,-0.144043,1.14816,-10.679122,2.413665,-0.261966,0.113522,0.00336,-0.07666,0.53418,-0.284668
0.880329,-9.515655,0.529714,0.42173,0.01917,-0.019269,0.076416,0.735596,-0.102783,0.499017,3.398794,9.045852,1.094723,0.123926,-0.095546,0.036377,-0.340332,-0.442871,0.793285,-8.397214,0.850567,1.39859,0.094687,-0.509965,0.063232,0.54248,-0.229736,0.129656,-6.523661,0.027546,0.720724,-1.366503,-0.838646,-0.084473,0.55835,-0.148682,0.756969,-10.007867,2.663663,0.592932,-0.0041,-0.106835,-0.078125,0.533936,-0.289795
1.221998,-9.037169,0.604217,0.04103,-0.147329,-0.11367,0.07373,0.722168,-0.10083,0.000548,5.72058,9.454295,0.139938,0.133684,0.064248,0.025635,-0.348877,-0.44165,0.286639,-6.141651,1.506306,-0.139421,0.073839,-0.167201,0.060791,0.535645,-0.223145,0.471327,-6.152405,0.874434,-0.592598,-1.835027,-0.429826,-0.101807,0.551025,-0.13208,1.313058,-8.396053,2.943396,0.356572,0.07672,-0.069892,-0.079102,0.522705,-0.292725
1.31006,-9.273213,0.779001,-0.296439,-0.176631,-0.027105,0.076904,0.736816,-0.101562,0.673335,3.811871,8.980885,-0.952893,0.054656,-0.007,0.031494,-0.333252,-0.459473,0.97875,-10.172421,0.578981,-1.64011,-0.026836,-0.192956,0.061768,0.554688,-0.203613,1.114676,-10.767209,-0.415924,-1.97649,-1.900826,0.021788,-0.101807,0.568359,-0.097168,1.082104,-8.569136,2.967857,-0.559662,0.255956,-0.002073,-0.07373,0.538574,-0.289551
2.236106,-9.937303,0.676291,-0.314916,-0.085408,-0.010891,0.064941,0.733154,-0.098877,0.369507,1.424505,9.387498,-0.516646,0.161343,0.085029,0.030029,-0.333252,-0.458252,1.061573,-13.938979,-0.458099,-0.413165,0.104426,-0.488692,0.04248,0.552979,-0.204346,1.532108,-14.465906,-2.430807,-0.150669,-1.961667,-0.329346,-0.126221,0.56543,-0.095459,0.935906,-10.613153,2.479605,-0.663814,0.17935,0.014857,-0.080811,0.540771,-0.284668
1.345208,-10.759733,0.301171,0.113497,0.000376,0.001395,0.06665,0.730469,-0.100586,0.223705,1.560149,9.041874,0.522007,-0.181128,0.057781,0.026611,-0.331787,-0.447266,1.188435,-10.359414,0.002381,1.524886,-0.019891,-0.231238,0.043701,0.545654,-0.225342,0.937373,-7.802109,-0.698534,1.460003,-1.40515,-1.343728,-0.148682,0.551025,-0.112793,0.71965,-11.125818,2.183605,0.341627,0.035177,0.05647,-0.078613,0.536865,-0.290039
1.666582,-9.1459,0.755666,0.525336,0.045584,0.074757,0.068848,0.7229,-0.104248,0.851942,4.625601,9.559985,0.861612,0.031791,0.038623,0.029297,-0.348145,-0.444336,1.166453,-6.25422,1.022178,0.427548,0.135585,-0.203379,0.042969,0.537354,-0.229004,0.01758,-4.816414,0.354939,-0.350711,-2.082908,-0.204673,-0.157471,0.54541,-0.093018,1.106817,-8.671131,2.862385,0.879118,-0.042429,-0.092714,-0.077148,0.522705,-0.300537
1.394427,-8.773149,0.871203,-0.295515,-0.04489,-0.03661,0.072266,0.717285,-0.102051,0.095987,5.202106,9.680058,-0.535816,-0.095691,0.09405,0.02832,-0.337402,-0.44751,1.043084,-9.283476,0.112825,-1.30452,-0.010165,0.105583,0.044922,0.536621,-0.211914,0.832452,-10.21766,-1.595672,-1.456602,-2.17914,-0.041328,-0.162598,0.54248,-0.062988,1.341052,-7.717005,2.932491,-0.263514,0.05,0.07164,-0.07373,0.519531,-0.297363
1.418675,-10.137283,0.202906,-0.381259,0.000617,0.086028,0.072754,0.734863,-0.097656,0.711895,2.307221,9.302814,-0.911109,-0.10671,-0.014909,0.020996,-0.335938,-0.44458,1.181617,-12.369688,-0.179786,-0.456105,0.160868,-0.171813,0.046875,0.554932,-0.207031,1.188446,-11.044171,-2.055945,0.245831,-2.312487,-0.170002,-0.16748,0.554688,-0.063477,1.174899,-9.723455,2.383957,-0.862892,0.120263,0.034521,-0.071289,0.538574,-0.287354
1.428889,-10.256552,0.280382,0.050103,-0.164619,-0.060809,0.076172,0.738281,-0.089111,0.183569,1.662985,9.063245,0.309698,-0.157185,0.003448,0.018311,-0.329346,-0.454102,0.839566,-9.595174,0.190141,0.864617,-0.020665,-0.027651,0.047363,0.551514,-0.209717,1.312305,-7.495138,-1.107013,0.224628,-1.829757,-0.536822,-0.176025,0.552246,-0.045166,1.051084,-10.87845,2.050628,0.084136,0.124242,0.027484,-0.06665,0.543457,-0.280029
1.72094,-9.875541,0.585544,0.180078,-0.059936,-0.01953,0.063477,0.725342,-0.098389,1.348364,4.08866,9.245337,0.579818,-0.127028,-0.096007,0.029541,-0.343018,-0.452637,2.032979,-7.436017,0.620189,0.084783,0.106214,0.150195,0.039795,0.542969,-0.217285,-1.33271,-9.238167,-1.170835,-0.436722,-2.197404,-0.172975,-0.196045,0.541748,-0.033936,0.962301,-9.171451,2.581187,0.634118,0.054677,-0.09947,-0.07959,0.526123,-0.294678
2.025254,-9.144972,0.889827,0.029216,-0.093608,-0.019869,0.059082,0.72998,-0.100098,0.856767,4.43084,9.383499,-0.328912,0.065021,0.073041,0.016357,-0.343018,-0.451416,1.141547,-9.737873,0.569601,-0.716123,0.285615,0.094891,0.039062,0.550049,-0.208496,1.154754,-10.223402,-2.345301,-0.072607,-2.987774,-0.512503,-0.209961,0.540771,-0.024414,1.187493,-8.055361,2.935411,-0.06799,-0.011197,-0.012931,-0.081543,0.530273,-0.292969
1.708723,-9.71393,0.574817,-0.294322,0.060708,-0.047616,0.068115,0.731201,-0.098633,0.853795,2.260503,9.160192,-0.58213,-0.0314,0.003326,0.021484,-0.324219,-0.456543,1.1775,-11.044282,0.153028,-0.0267,0.149195,-0.006898,0.048096,0.547363,-0.210938,2.687251,-9.011056,-2.651189,-0.009442,-2.271401,-0.247986,-0.208496,0.537598,-0.011719,1.098908,-9.628635,2.475224,-0.612077,0.001889,0.015874,-0.073242,0.536621,-0.288574
