# sampling frequency: 40
# units are seconds/meters/radians/a.u.
seg1_acc_x,seg1_acc_y,seg1_acc_z,seg1_gyr_x,seg1_gyr_y,seg1_gyr_z,seg1_mag_x,seg1_mag_y,seg1_mag_z,seg2_acc_x,seg2_acc_y,seg2_acc_z,seg2_gyr_x,seg2_gyr_y,seg2_gyr_z,seg2_mag_x,seg2_mag_y,seg2_mag_z,seg3_acc_x,seg3_acc_y,seg3_acc_z,seg3_gyr_x,seg3_gyr_y,seg3_gyr_z,seg3_mag_x,seg3_mag_y,seg3_mag_z,seg4_acc_x,seg4_acc_y,seg4_acc_z,seg4_gyr_x,seg4_gyr_y,seg4_gyr_z,seg4_mag_x,seg4_mag_y,seg4_mag_z,seg5_acc_x,seg5_acc_y,seg5_acc_z,seg5_gyr_x,seg5_gyr_y,seg5_gyr_z,seg5_mag_x,seg5_mag_y,seg5_mag_z
2.110569818742624,-5.996231077048417,7.398663190992039,-0.003607044952411326,0.0018004773952354216,0.011682056919075947,-0.5593425751509659,0.1169747634755391,0.08457111149398387,0.12961860128872035,7.493197337368905,6.307175277561304,-0.010113454518884308,-0.003335336146993593,-0.010263126252805062,0.20672045802248715,0.5159315613920729,0.5151918096238632,-1.1834346461570144,-6.0678676093660915,7.527669618430598,-0.0053751919382604,0.0017527270438982858,0.0015601309356743033,0.7173996044385282,0.13580510084693082,-0.2769711674730752,1.2809606264406814,-6.113490012900288,7.682106815784727,-0.003579950290065996,0.002986834569752971,0.0051009326768332265,0.09432885286410751,0.43375378675474313,-0.7959569706355126,0.4890892905606984,-5.935431667928764,7.835715214140263,-0.006388439447053457,0.0027288767428901143,-0.004320271768470678,-0.2915618784595779,0.46021139118563414,-0.4522816542311942
2.0938208127526567,-6.025971218289473,7.394036623440384,-0.0025550716465143684,0.0015577896508816827,0.01170580186423742,-0.5583945165421687,0.11527036219936786,0.07894992984204702,0.1176864846292631,7.491651660846219,6.3000630672781135,-0.009402547111368596,-0.002727350024275494,-0.009754640724474612,0.20793007410874464,0.5168924308855892,0.5139469121420213,-1.174219429041823,-6.049148909378297,7.536243342434018,-0.004847467200449891,0.002781025483460812,0.0020431142897312563,0.7188661853392684,0.13262966618846425,-0.2771862981110451,1.2783859686839785,-6.0686462704152895,7.686296933608247,-0.0023208971242733205,0.003004423943755949,0.0043612538684105265,0.0932708977459392,0.43279559623076763,-0.8000924828030326,0.4926847795607529,-5.9564957536800645,7.847623572058647,-0.005745392323137197,0.002247449871754696,-0.004635810298878281,-0.2906124457286344,0.4589819067477848,-0.4544854426753284
2.1137809037530126,-6.014244796670656,7.41128626935777,-0.0034053321362025315,0.0016981341266250742,0.00975297454780528,-0.5510740692266688,0.10794153860783515,0.07915212743150854,0.12246410321652593,7.508592369274886,6.337058717840978,-0.008828160932217898,-0.0028746167543122767,-0.010382000292366052,0.20861821361345803,0.5229352075704484,0.5097009194478479,-1.1826481383761243,-6.062285264454951,7.548554801618773,-0.006176563858552502,0.001057729690833552,0.0030568211924075937,0.7186102589363229,0.1384735354066612,-0.2784745182928794,1.261637154841159,-6.100778080337854,7.680655030032432,-0.004545929035542895,0.004097808945311144,0.006366762839272091,0.09212851444288095,0.4384131415243646,-0.7978570398350104,0.48799669233316406,-5.929842563734808,7.839265414194106,-0.008000875180315949,0.0031539534243624897,-0.0035399597661493767,-0.28984572394140523,0.46434557908575874,-0.45717639376218244
2.096957239560194,-6.01758241781884,7.387788337231763,-0.002882015561971531,0.0012905325768540613,0.011126110280265621,-0.545933001809801,0.11550450006253658,0.08108758651139643,0.13697857420382717,7.491177438666582,6.33077849229831,-0.009665634582645037,-0.004686508049560195,-0.01072453907709715,0.20792785719970824,0.5200733600356686,0.5143885928270061,-1.1784146701708793,-6.037981690695682,7.5305455870194935,-0.003438810699158,0.003665460607047386,0.002302062882186382,0.718142736201203,0.1404753228210848,-0.27434545996929016,1.2822630525166137,-6.094913924067849,7.702840621151955,-0.00282002195433423,0.004215895080588348,0.003629666492467857,0.09217726318425305,0.43718281779702667,-0.7946870171085676,0.48805989824064877,-5.93100823606288,7.838379849946391,-0.004444563904381464,0.002846526437628657,-0.005242853701921358,-0.2927233731994291,0.4643741303468851,-0.4498311241569683
2.108936046233385,-6.018896126303143,7.386845829033086,-0.0015332889950465478,0.0003298111714124242,0.010982767932032466,-0.5500717927516416,0.10915716597660954,0.08427552386043081,0.12384706983874068,7.487241677931796,6.314359906319359,-0.011275086634873819,-0.0021453959550523094,-0.011606016481641538,0.2172363159584326,0.5194151605122931,0.5182325781189338,-1.1705518384885323,-6.048287020987651,7.54057278615527,-0.004618852081101486,0.0025642175892396776,0.0030525514914474952,0.7252257726013462,0.13706362049275447,-0.2743428953813068,1.268758645274704,-6.083725010112445,7.685712260093663,-0.0020542690365103924,0.0017417080695935278,0.0060880297901659,0.10026025214105969,0.43614610414253974,-0.7928819164679544,0.4974776748704759,-5.960033363821615,7.828686344752718,-0.005744375450637167,0.0022484397696473195,-0.00463481728705516,-0.2832305744614295,0.4613493738311789,-0.44965364981931116
2.1011908000482693,-6.006503444085515,7.405468585380762,-0.0037722884243710647,0.0034466363429485093,0.0116243740460647,-0.5481276428334196,0.115505427584359,0.0815860871805566,0.12229218561508579,7.480999506935251,6.337567286660554,-0.008891440166592037,-0.0034765618900911774,-0.010298526991190509,0.2169646374662751,0.5159316212783381,0.513890985070018,-1.1751431911559036,-6.055339901087795,7.546280763378141,-0.006404179911757056,0.001275538369199243,0.002047366729862515,0.7259519211057822,0.1348499837474059,-0.27578559379370904,1.273356319556543,-6.124166201872509,7.687148725625377,-0.0029201348681607603,0.0035342887628700245,0.005491763222536311,0.0989697328247913,0.4334779883999586,-0.7957970911245623,0.4939549672700838,-5.9411460826664415,7.81512624907726,-0.0055004696897198654,0.0049881261455686846,-0.0035482550286538243,-0.28353639187411833,0.4606205216740858,-0.45746476876880854
2.098053319096324,-6.010332015963859,7.381203746690827,-0.004289108483477955,0.00028166847072727617,0.00977888619882426,-0.5520359144991279,0.11184588406807543,0.08160137899044433,0.1302905556500165,7.4819407032682,6.317544253068036,-0.010657140873639094,-0.002664196345167409,-0.010323908767216394,0.20990097242349723,0.5154601741510434,0.5159062088217646,-1.168147467282804,-6.044162314477411,7.532176129421219,-0.004845468149120306,0.0027820271228042415,0.0020430916533142112,0.71959660385265,0.13433917076221333,-0.2772105449178534,1.2753318195759142,-6.073658705458491,7.6975898694162375,-0.0038124537851758605,0.0029345898592194304,0.006096118395673164,0.09704187435838445,0.4347081692877037,-0.7947816790323898,0.46929089330272705,-5.953989097885085,7.825115548323276,-0.008226999137857164,0.001978167012898303,-0.004598509373131529,-0.2891292956306173,0.45823402511816047,-0.4508337722555312
2.1040624957995453,-6.036848450247492,7.41105775933957,-0.0033083279971481065,0.0010704480532345276,0.01150894903232317,-0.5476556615053816,0.11233484115782069,0.07865185315140445,0.12127688407650061,7.4871567690933745,6.338809606064687,-0.009408461457894897,-0.0022796159663072382,-0.011051449590052128,0.2087074646136217,0.5140404612097278,0.5191110951336371,-1.1660718830906245,-6.068231145744591,7.526031649565843,-0.005374193791158431,0.0017547277569885267,0.0015601017896048318,0.7179146872481428,0.13488663460822445,-0.27208059424822767,1.2543744444754839,-6.104626858285243,7.678786787956042,-0.003499142150126207,0.0038647983462175915,0.004929041281657511,0.09462975779916569,0.431787689795938,-0.7920615245803561,0.4961969076677632,-5.955768432736504,7.831239718836495,-0.006714787913223117,0.0021910997691169825,-0.004172036802595136,-0.29030907540444073,0.461175898669063,-0.4491162386471913
2.1087807980827544,-6.022580134777698,7.396688269257499,-0.0024537489957592077,0.0014986232756184436,0.010735250958574995,-0.5525474157501598,0.11502494732329535,0.07647971429139352,0.11116333882431438,7.494839212127045,6.329254404891171,-0.010046140523566182,-0.0027353240613830474,-0.010342601551833093,0.21966291028130158,0.5164508135384717,0.5155715091587194,-1.1669861136517377,-6.058879101594695,7.534548083191458,-0.00421716168976958,0.0029127289399215536,0.0023051890171704456,0.7286387782995383,0.13387635016059007,-0.2757884326287731,1.2947143459045805,-6.069729669807188,7.690226190039096,-0.0016611064116779737,0.0035508811115100127,0.0047510817527173475,0.10460555413826678,0.42952654943841967,-0.7932235128265872,0.4883189582826343,-5.937030036969651,7.83380340594107,-0.007340046253023601,0.00423642651768425,-0.0038274856451377967,-0.2788663181251331,0.4591087911611611,-0.4509053410471752
2.092657078454283,-6.018553374340837,7.388520006484634,-0.002850874913732417,0.0022648310428266495,0.01186387430705922,-0.5496161929857712,0.1133136536382927,0.07695311584314478,0.12744749054675017,7.486570139443918,6.3206548117820835,-0.010053074178761386,-0.0022856218107602396,-0.0116414321066825,0.21012802742955763,0.5183684635437907,0.51439689413216,-1.193395450843313,-6.052549227147955,7.525519740010665,-0.004717428467228232,0.0034618278120875884,0.0032744266453902347,0.7203264517086421,0.13775755475933557,-0.27725510897649125,1.261064866769653,-6.094294880223473,7.690856106820698,-0.0026343008437506497,0.0020712273285093483,0.005524323163813885,0.09633417619638725,0.437642276582596,-0.7945162780271817,0.49775074173027833,-5.9424481263748925,7.823787849531484,-0.0060549758584307984,0.003272582964546119,-0.004460555693406679,-0.2868837953295114,0.4630948885965691,-0.4508490248620553
2.0918343592424873,-6.017285419105419,7.4118343936655045,-0.004062570976499164,0.0005891052240727925,0.011314106508950532,-0.5581147579791632,0.10720628394348919,0.08748620971266335,0.11826561487403,7.496526212740319,6.320544822476126,-0.009371847286972683,-0.0022034769524860933,-0.010442782806777387,0.21064237506778516,0.5230732865238179,0.5187173993379964,-1.1793093761383977,-6.059566091132389,7.542237020508146,-0.0037379167906618645,0.0024223660211600473,0.002829492874282837,0.7191378134205753,0.14541106710872595,-0.27001411610687237,1.2853942884531235,-6.105877678425856,7.681374521438984,-0.00218764823007252,0.0023700734566655043,0.0052221337623111685,0.09202281989422505,0.442790674838031,-0.7917382245289134,0.4896516125455401,-5.94738770671572,7.826609026325914,-0.0055309758462853825,0.001863275892462452,-0.003600315282912866,-0.2907415715958465,0.46777256192954325,-0.4505776810416256
2.109786212429375,-6.015528571382459,7.3899909263758365,-0.0030764503327343597,0.001950400161768331,0.010321642822690227,-0.5520383169543058,0.10989311173362933,0.08135557533296321,0.13053819842039902,7.474470769793333,6.295540529134588,-0.011266127825043477,-0.0025960498297872762,-0.01030418706696664,0.20462231779546433,0.5180778847095078,0.5283619988709767,-1.1699878312581187,-6.06094730481966,7.5324195973841785,-0.0034368062827864116,0.003666474136395768,0.0023030401606877705,0.7169847382759361,0.13621122632033617,-0.2633006074199176,1.2679900622133722,-6.084095116149409,7.702792798276028,-0.003711383721192307,0.0036151953984840507,0.004232001193861894,0.09161423180112649,0.43569326390061136,-0.7846706395272617,0.4926311204077359,-5.964606049608026,7.814845442053167,-0.0072525361317976765,0.0020384667416842995,-0.0050583178033824835,-0.29244286420227444,0.46290613416203125,-0.44250903163476063
2.0881612844500794,-6.019498391989418,7.411072894102756,-0.001337945927315935,-0.00035404217827823473,0.011771208596893469,-0.5566978306439971,0.11429555527491084,0.07649888324457557,0.1278461551878196,7.50731633507931,6.309578009438354,-0.009526111554151383,-0.003932249743652809,-0.009588702498847586,0.21057395929170875,0.520981270247018,0.509470798223036,-1.1748905591180476,-6.057687197133009,7.547512422149706,-0.006101076636635902,0.002521636162719125,0.001519879579691337,0.7190886334386977,0.13894259797968714,-0.2801918080581968,1.2857959222108784,-6.123961240599114,7.677966437747149,-0.0045450572170016666,0.0040948200118125205,0.006360737375889746,0.09550146721724992,0.4376637367366802,-0.8001181897738849,0.5050941571186235,-5.934085877866251,7.822862292232361,-0.005843593052552487,0.0028864391548908378,-0.0034270397198272098,-0.29033684083923167,0.46386244512459346,-0.4569280013946707
2.113715378985947,-6.01179913989213,7.392244626429007,-0.004550226808510862,-0.0015945666420649782,0.010210398680517948,-0.553275625157782,0.10623459939820605,0.07842906172438967,0.11493973162664296,7.498821253762036,6.314303598530987,-0.009469740756303174,-0.0028815575417246993,-0.010967991891961815,0.2126239223285219,0.5160256622089743,0.5207602994751274,-1.175850445016757,-6.058574379993893,7.546651047299359,-0.004088122941733654,0.003593530413349458,0.0035365067484176304,0.723546136704179,0.13370246071571476,-0.26941050020186735,1.2694130492125781,-6.0882586549542665,7.685749150936901,-0.0015874533360280558,0.0018392078590977253,0.004089603936442569,0.0938891297418154,0.4317940334237864,-0.7925362854033515,0.4868161160301602,-5.959059168423398,7.8346340000403565,-0.008309444828156737,0.004179076377681048,-0.003362712190676965,-0.2854665917669096,0.45795350139067026,-0.45037135378153204
2.119679703305429,-6.016798982496325,7.411774699095163,-0.003144660695706209,0.0029768683909222066,0.012024941774994538,-0.5566869265552805,0.11307228979507854,0.07893972483441705,0.128230325462927,7.479188958045835,6.2985655926093145,-0.009469740756303174,-0.0028815575417246993,-0.010967991891961815,0.20648924298730056,0.5152210393827574,0.5166694033033916,-1.16632636165071,-6.070467918932677,7.527261714754162,-0.006651824142210697,0.0015530718951090657,0.002530436576902346,0.717404242633081,0.13361305934673368,-0.27645708523396867,1.2721347570070463,-6.09842768295825,7.675977683998117,-0.004815919499963617,0.0027668905724629045,0.004140318940599396,0.09235371897495387,0.43303677335547863,-0.7969007740605922,0.4780971522192925,-5.936366784049895,7.813655328430601,-0.005462552915448621,0.003109665906822582,-0.004173698431112273,-0.292051773811003,0.45899618740457176,-0.4508133043699065
2.0966850950604656,-6.0234198874560505,7.409018473020446,-0.003105642264279305,0.0009631087995975199,0.009574857313112292,-0.5567021407743742,0.12040013744361494,0.0747955488768379,0.1316985796314572,7.498478125337521,6.304908098361446,-0.009370831770663461,-0.0022034453703613367,-0.010440790890816532,0.21531559504052997,0.5184939969237492,0.5221677921917223,-1.173731986890658,-6.05435855594632,7.538285843789112,-0.004215163557481875,0.0029147305082106675,0.0023051544955127678,0.7257473732471391,0.13762848083568135,-0.26800387064880277,1.2714814290990462,-6.092266584194454,7.6687183754451365,-0.0023200141020459646,0.0030004320892132764,0.004356225412478917,0.09981944300545138,0.4346750570079896,-0.7897038112724178,0.49548501153463775,-5.933680203829143,7.829096558405808,-0.006346486090788047,0.0008533764064503275,-0.004944743067981165,-0.28414591873045736,0.4642885608348523,-0.4450078910409634
2.0943668417627044,-6.0150212633564895,7.391557145010193,-0.003306384062053662,0.0010574560850652268,0.011498927561401369,-0.5468751367308367,0.11549854284959986,0.08817216993614199,0.11872326417149198,7.485289673782102,6.3308801598369,-0.008922038981290372,-0.0035526604208839675,-0.010905240866217473,0.21117299548136045,0.5216857175097046,0.523861676955677,-1.1807821105388352,-6.068582438488616,7.52150936266319,-0.004388238829465376,0.002349411263307658,0.004061954171506057,0.7181892532237757,0.13984497492516165,-0.26579248699512986,1.2821756867549183,-6.104668216531761,7.685373543698868,-0.001814747529283865,0.004376604735781989,0.005577411531498172,0.09329722352625004,0.4383749357125025,-0.7871343629586707,0.4814233804210309,-5.954540532753087,7.853632501542554,-0.006314925172976857,0.003980216159688033,-0.00488768988192392,-0.28827419844049695,0.4657947596486367,-0.44400291702685657
2.1204068334456037,-6.00011950532212,7.388070420094222,-0.002879095194101069,0.0012705436968851913,0.011112077599513487,-0.5564451774596769,0.11136336399944048,0.07869298002742457,0.12657885644424513,7.491145442234034,6.289447980315645,-0.009630936782497239,-0.004161627969658263,-0.011412727252225901,0.2082100863113011,0.5159814650420139,0.5183539320419375,-1.1780316838151472,-6.05305021805247,7.523494097194707,-0.004441779625500695,0.0031325400417752313,0.0012956946573794831,0.715461936412487,0.13485842472689605,-0.27426428551321563,1.2758918082877018,-6.110935751413269,7.678935838524013,-0.0016611805396076415,0.0035478900354210434,0.0047480737685285535,0.0933641348946668,0.4362019874274476,-0.7961764671175074,0.5001891315650852,-5.936081887623284,7.811006070305921,-0.0057899352006449,0.002569899171841995,-0.004027456470143272,-0.2903295289717163,0.4611761536532731,-0.45204616724471186
2.1037703881183716,-6.034344724193008,7.392096254680216,-0.0012371115637617315,0.003157355243781112,0.01127497923915494,-0.5491039921784809,0.11282058932455838,0.08207726991143088,0.12592094060370232,7.491934266331325,6.300664925188928,-0.009378749845515311,-0.001753715097975212,-0.011737613926619853,0.21040229494624693,0.5164670493582509,0.517841581407417,-1.1741269874455948,-6.059619938571066,7.549169446843137,-0.007001035673138757,0.002724225252492397,0.003236445160530499,0.721326384795128,0.131695463185906,-0.27377009885055126,1.2849278109757187,-6.0848711254582994,7.706900048136475,-0.0035781280741796254,0.0029818448845971247,0.005092883914735301,0.09631105100031727,0.4322692626872261,-0.7937995828999006,0.4981174387398003,-5.948986470054372,7.84467622975189,-0.005424664064136117,0.001231206016177791,-0.0048031417360929335,-0.28861553014516367,0.459449931396993,-0.4488842053941356
2.089183525490044,-6.010846351025994,7.406010975452336,-0.0028791060227842274,0.0012685455541990491,0.011110075773210973,-0.5535269045282305,0.11502623987229993,0.07575239038627932,0.11588218171824058,7.499670628183982,6.291094336997793,-0.009585394898397258,-0.0045362024344601575,-0.0095062304892832,0.2084289849655401,0.517159102060863,0.5154042657165697,-1.1772247686634374,-6.068074102217087,7.525550577086676,-0.004993526197219342,0.0021629749900206148,0.002306268915419331,0.7188774172308303,0.13754715694475056,-0.27431458303004375,1.276830840929918,-6.122036491884686,7.6687135610046395,-0.005203018960898762,0.0035443731321061307,0.005962863556457767,0.09387221812966831,0.43643982704137146,-0.7952087291651883,0.4833894422708007,-5.941795355448389,7.84574069381082,-0.005167968138325008,0.00553284193488575,-0.003684532052354447,-0.2881034764159437,0.46237498647016445,-0.449619543273825
2.09335436096679,-6.008785354189838,7.384784693053685,-0.004683310869871421,0.0010328873548265795,0.010893481491625326,-0.5503166852672897,0.11697044750189463,0.08306293140522655,0.13269174752130927,7.486718897319334,6.30378044196039,-0.010617478447053163,-0.002592976922892284,-0.009710191661533238,0.21190149826648197,0.5184951839403944,0.5226823889352279,-1.1783276772719595,-6.048602009658948,7.543364486596059,-0.005069087937749451,0.003003838937748159,0.001033568147453777,0.7235434065853591,0.1381000495932052,-0.26921875659435046,1.2691974439173395,-6.081887609907985,7.695859477310215,-0.0021582877812407015,0.0047593448225504275,0.0040174502751632825,0.09370010887033539,0.43423013333608806,-0.7903283444332555,0.4951100677044824,-5.935265060624681,7.80129036024673,-0.0076801598721489926,0.002135709581079936,-0.003706291262639209,-0.2868528683811582,0.4626064666517159,-0.44572215832120876
2.1120311427933927,-6.021472571731843,7.388451657553558,-0.0031738701357596055,0.0019845798159781954,0.01127515167593524,-0.5566665660078316,0.10281308535225915,0.08454517313482462,0.12376300773960319,7.491704998124346,6.325240588900074,-0.011199788579039013,-0.001996994708831049,-0.010380640101541334,0.21570868020670492,0.5183129694865107,0.5099587092565016,-1.16873751960007,-6.060466268305088,7.523993452973513,-0.005417232168004035,0.001872210698603662,0.0045481900507758355,0.7242260727390921,0.13750240669734337,-0.2784931022257992,1.2758234839361733,-6.094483599347543,7.670004084822237,-0.003812631201219332,0.00292961357592607,0.006088105585421339,0.09814101117304704,0.436186541125691,-0.8021232732714703,0.4816952754943267,-5.960306452074238,7.849239994689846,-0.006919062577388114,0.0025831729136804663,-0.005198601710865616,-0.28425279082196153,0.4616036928368167,-0.45648265827996143
2.1046673420474455,-6.008898193977145,7.407142759411292,-0.0007089623844048545,-0.00024929504721381106,0.009452270749239764,-0.5574284108938574,0.11283056231267252,0.07699002285721776,0.12598846093311403,7.513485414527465,6.300906301312594,-0.008086530188373056,-0.0017386984063580864,-0.010557716957953506,0.20507873152281328,0.512628325147155,0.5230679065893995,-1.1774471147415106,-6.063173298319679,7.5457992221865515,-0.002833961489583601,0.0022237800679650024,0.0011128582501283193,0.7152703723534767,0.1335065367800999,-0.2647243721388393,1.2786187073466562,-6.096364745633236,7.682816468509019,-0.0012944530436419456,0.0029647805325699068,0.004612747306269941,0.08933093746473672,0.4293673516293445,-0.7870896878751965,0.4985057594282846,-5.9298393253389055,7.841021096199209,-0.005840545420099615,0.00288840881120322,-0.003423060726180157,-0.294222795637788,0.4568195956843536,-0.4439621714919731
2.093925707873113,-6.030261058418741,7.373248894182982,-0.0043554013503213996,0.0012911493743684894,0.01146716003946428,-0.5539947780478313,0.10623256756442465,0.08111753043210886,0.12796692151716738,7.482138801628272,6.30931420304046,-0.010202309594996474,-0.0040173406602762645,-0.010784346570244019,0.20258082334953867,0.5215795652332258,0.5178262031754884,-1.1706376518526342,-6.051755772121529,7.531870749632836,-0.006069615208582871,0.004101048643139497,0.0029730552040524235,0.7135337417962789,0.13931530345637888,-0.2689354795951219,1.27770977810149,-6.089937647078017,7.675816576739228,-0.0027071270686048706,0.0037759147024494645,0.006178764374391759,0.08951644221452171,0.43890761288389235,-0.793902023684798,0.49473435924254067,-5.934982758632957,7.827432644610135,-0.006759340756517724,0.002512549118864121,-0.0035636829913129947,-0.2939258015608797,0.46658323158012033,-0.45031154977753574
2.1142031322009966,-6.023572673685303,7.3989664477463455,-0.0022554511758830884,0.0008037754721333214,0.011515667196632787,-0.5544587939309178,0.10696011634466703,0.08624748521091649,0.1305055903758836,7.4943977394583285,6.327568375295169,-0.00879442802159699,-0.002347664174951662,-0.011065211145504553,0.21161728360287618,0.5206223914631471,0.5180142416389084,-1.1714709038660747,-6.062784197600908,7.521700482796222,-0.0038869739049047533,0.0018023131042318639,0.0030926873972167953,0.7208407605313611,0.14197445148878715,-0.2716915338302373,1.2660111427697773,-6.109158914385544,7.669714971748064,-0.00270715177791476,0.003774917677086474,0.006177761712995494,0.09541056309198181,0.4403289942845191,-0.7925384456724197,0.4949230465440295,-5.936243684765546,7.826464194100088,-0.006655062719368521,0.0018784994467942134,-0.004768495468139306,-0.28852451035085613,0.4648201972609593,-0.44351324254308516
2.090990083207795,-6.00358517823895,7.377566738373992,-0.0016624469334204338,0.0029312738077340024,0.011653807706395949,-0.5561705227064415,0.11184532018544484,0.0850391892897557,0.1153284054621392,7.481498438176284,6.313255555673269,-0.008821114511358509,-0.0028745148872151276,-0.010376055750653953,0.2089743078355093,0.5145735021355594,0.5220314903237306,-1.1978277958540104,-6.046255634255048,7.522004389785652,-0.005393218456263543,0.0018164652076278526,0.0030535968680387034,0.7167174241033405,0.1344469813506631,-0.2679175892067685,1.2749201208163239,-6.083242275846743,7.6976230167354025,-0.0034468967684066765,0.002347510747209696,0.005952799926058543,0.09341444990482735,0.43130644616349,-0.7915530363423535,0.4851015254861543,-5.957149987646247,7.834707137080001,-0.00518171634475415,0.003970901835369398,-0.0037105726426479814,-0.2905532800471593,0.4582481144932772,-0.4449636875141536
2.11788526235031,-6.00786254641111,7.408212530408328,-0.004355423007687717,0.0012871530889962052,0.01146315638685925,-0.5593495801945599,0.11697612303791033,0.08310612887260081,0.12725592578638917,7.496315277601696,6.3097325462557174,-0.010784602282476196,-0.0034223285316606466,-0.01145278040609313,0.21428703935817345,0.5100612296027767,0.5135112220557718,-1.1794424854875039,-6.067712656280914,7.513389142922751,-0.004462796138809629,0.003191287885184711,0.002790236057630099,0.7257104296740221,0.13069716879308318,-0.2759789376416587,1.27116590865253,-6.121400362423451,7.672654811136407,-0.003212436307174868,0.002398747978358291,0.00495557575955274,0.10256023808283116,0.42686594481852286,-0.7973463117896656,0.4921657282089241,-5.922439681219017,7.835677868051683,-0.006377283746913828,0.0027367657686884882,-0.004309348690774935,-0.2833512842211986,0.4540263324449846,-0.4564896110545714
2.0952051670223146,-6.019207482856361,7.413920516827921,-0.002021552510109074,0.0016867226100448062,0.010332354150223237,-0.5578949356882082,0.11697701563064551,0.08114615092287296,0.1257002727812097,7.494762072865064,6.31160804932785,-0.009333182742746061,-0.0021292447472507072,-0.009828102700766431,0.20591191118109706,0.5221538504805853,0.5068031923656822,-1.174261136486139,-6.055044460577072,7.528663019383402,-0.0049915280649316385,0.0021649765583097286,0.002306234393761653,0.7158899105813084,0.143043146343711,-0.28412973736125907,1.286181888508521,-6.075790663513181,7.693215031132286,-0.0037095367959960467,0.003611202738691194,0.004224955093160234,0.09029550086597095,0.44211096531138294,-0.8061155921577257,0.491754460131576,-5.947407808973194,7.834901547229063,-0.00485228635307844,0.004512648192084577,-0.0038528286287096303,-0.2935128247915308,0.46657930328015196,-0.46105669485596246
2.106410216252638,-6.010984078153641,7.396094358861569,-0.0014670857244395142,0.0022534176701885372,0.012445253885752103,-0.550528991414685,0.11354603251160934,0.09014085257419187,0.13562374979447855,7.500355568666702,6.310469393240973,-0.009977785793269568,-0.002136235578121344,-0.01041707047198955,0.21374847516603934,0.515110384457623,0.5083124373071278,-1.1816689428739402,-6.049029954418152,7.530420399588467,-0.005113117258571261,0.0031173331983866373,0.004022709240093952,0.7237213502235709,0.1342846736885564,-0.28211444361629096,1.2748770721314797,-6.0951959628817605,7.686889775003307,-0.004105790953150906,0.0017990616713199985,0.005557949239765642,0.09785371572512619,0.4330178575703901,-0.8033476579544722,0.4782068266140009,-5.948228760790323,7.830539941998483,-0.005628172654034765,0.002501255085785569,-0.0023895517513138533,-0.28479210135460226,0.45867997763491525,-0.4596532251957595
2.098072251111465,-6.010622809205707,7.407993704097835,-0.00363238276530057,0.0007792076699235965,0.010909221138719281,-0.5595993295405256,0.118686408096202,0.08188889582853161,0.12566548604331682,7.503240927901698,6.3222864848944775,-0.009589305327154232,-0.004086450140379136,-0.01080208487250525,0.21157742172224425,0.5105007332355005,0.5105953261687615,-1.171287576001268,-6.072615383162874,7.544194305889245,-0.005868472455837855,0.0023108193729626343,0.002528224052692522,0.7225240169585665,0.13140028003922202,-0.2781673885966347,1.2667976906037788,-6.122816704143112,7.700529689310342,-0.0033558869996001077,0.005814082633032387,0.006273437700510477,0.10032213228105727,0.42933096450102676,-0.8004733745304713,0.48283621983758584,-5.9256654738469905,7.813236167303512,-0.007989739411750128,0.003159842549480543,-0.003529036723359367,-0.28504824306218135,0.4557523422724397,-0.45721063239096754
2.088140999702048,-6.02975503705016,7.397723314273153,-0.003893977916109418,0.0024765344965120635,0.011817057919653177,-0.5500647023535477,0.10744658104844453,0.08598292273878043,0.13906127428361745,7.483640307345628,6.306580193663317,-0.01062338103761286,-0.0021432132882006827,-0.011005030582918318,0.20747514296539393,0.5135248785819191,0.517419119096806,-1.177195248563185,-6.057813272479218,7.525977453713032,-0.005339735164673843,0.0033371425898425693,0.0030132256314794018,0.7174262459850668,0.13537418259666853,-0.27208377095861186,1.2917011950632193,-6.059971136455433,7.697681296666764,-0.0037904549768615205,0.0027302537818186634,0.004391838835300154,0.09437046856405246,0.4327688979830828,-0.7932751771608068,0.49040212900928787,-5.971016044405614,7.808550290820627,-0.006756307085544219,0.002514518949227158,-0.0035617039489270474,-0.2930294298385779,0.45876191450489134,-0.45056249388324005
2.1005662747579428,-6.019277220891992,7.40348369363054,-0.0018271967038376367,0.0010078680294675743,0.011122804198612056,-0.5469195272444057,0.1062290248766153,0.080107684147772,0.11282001968610417,7.5071600761614325,6.3052285391217895,-0.008756796438185716,-0.0022724934663954145,-0.010454537559613439,0.21210989280734385,0.5081372741290846,0.5157541331622273,-1.1719339389728156,-6.055477223924533,7.53178694521784,-0.005717411844265259,0.0029328857481848835,0.0022659949230193193,0.7196181201774743,0.12949425659615607,-0.2739787793367346,1.277992858208191,-6.116760606657091,7.666735920261167,-0.004683802870025677,0.0021315674479838904,0.0049942151424858215,0.0940842150443866,0.4271564027456344,-0.793530624086992,0.47809283542453523,-5.9520937655488995,7.827608329946233,-0.005575518723793085,0.002185725192549751,-0.002991961454177857,-0.2875090018285564,0.45138158867047845,-0.45377575113470114
2.1048779956371857,-6.016993456931975,7.382412946153662,-0.0035320250858964113,0.0007300363485180619,0.009944684194203496,-0.5528039954436845,0.1098999162915288,0.07452316176608258,0.11775594928321387,7.49201851341563,6.299436972353868,-0.010649057889048462,-0.0026710472067010644,-0.010314868244203083,0.2086933958876986,0.517443532958876,0.5180843504033845,-1.183953681244228,-6.043878931759669,7.506925412630583,-0.004513283151009656,0.0016746127843493492,0.002830543626462251,0.7203586009195443,0.13562748513347966,-0.2716134749208966,1.279583405871102,-6.073461799480978,7.683931844814905,-0.004095656699401913,0.00438567867779262,0.006047473252177261,0.0944242373301576,0.43618176853324686,-0.7915567975381346,0.4784154293915937,-5.929342835262983,7.826727036432252,-0.006755300178831092,0.0025145088967796205,-0.0035607109545567925,-0.29081188575473504,0.46020387401530444,-0.44984483100518197
2.096907206482511,-6.021487203502262,7.402723129880396,-0.0028430173254890925,0.002228849239667507,0.011838803045654676,-0.5527442520092537,0.11574903704046934,0.08624744332984399,0.11625187126282707,7.4904123145084665,6.30137387281058,-0.010135989689677978,-0.003416315566484766,-0.01086282909563322,0.2103982679475953,0.51155913347339,0.5162055143395956,-1.1709956498980574,-6.070126218472865,7.534158289632965,-0.0047629129455832335,0.0019481686640885946,0.0033156715954778923,0.7198512548984835,0.13240393791227106,-0.2757237747065025,1.2751168978271226,-6.110434906089493,7.688274775922868,-0.0026243575116688903,0.00465086810528157,0.0060058287120281495,0.09480687018558351,0.43228555595714074,-0.7959698844010618,0.4899090857662541,-5.946757384266765,7.834798483398942,-0.007121547314047045,0.0038542117941555393,-0.0027830187386328606,-0.289624579438683,0.45726290420926446,-0.45034238734553395
2.1086456926565833,-6.023054729479356,7.4017475348556845,-0.003069569177267052,0.0019214152704087578,0.010300582771116016,-0.5527899853564964,0.10989719716678635,0.07745312700884871,0.11586048497407334,7.491214777883031,6.312532534168711,-0.008172496040576988,-0.002867487133677575,-0.009785119468097823,0.20915372236698543,0.5134697177140648,0.513500337976201,-1.1973918988876944,-6.063646844115423,7.525170102095246,-0.0036058682760266147,0.003104193769140158,0.004062782423361639,0.7203390234229023,0.13264833791206784,-0.2757292979922615,1.271296108227598,-6.080565814451089,7.677135588855009,-0.0006559892972364591,0.003701605773871109,0.006693799349902512,0.0942466125545996,0.4313236471569719,-0.799625264934889,0.5004194428868377,-5.9322166428375,7.848359709224253,-0.0063215891649589595,0.0024232056187903795,-0.004908779375622439,-0.28987174825701767,0.46019459394208295,-0.45497851977307846
2.093171848237822,-6.002123676446112,7.391748830598457,-0.0028761964835969235,0.0012465585315440373,0.011094041266156327,-0.55619465952294,0.11429230309519463,0.07967051188712833,0.12368581705914825,7.492446696381439,6.292443504436752,-0.0106223636251238,-0.0021441815934655803,-0.011003023780301947,0.2037638692423506,0.5224885033169931,0.513163803366873,-1.1796283661613123,-6.05439029887045,7.544737404443973,-0.003959532162919421,0.0026451913654523466,0.001820946646923792,0.712740167927943,0.143827525773699,-0.2794837698487399,1.2649733555069451,-6.085738431935873,7.699836634059792,-0.004001701182836946,0.002482647027401448,0.0036937865911035182,0.08675032792560791,0.4411383788638965,-0.7992176581608623,0.47666634436809774,-5.948886421796338,7.829420611193392,-0.0047459476586156814,0.0038825781294549084,-0.005054655071353409,-0.2956916402399129,0.46635695444553704,-0.45811143268806687
2.0985975498177205,-6.0238989148792985,7.413144932826288,-0.003438049249137306,9.53568046020869e-05,0.01169566660948928,-0.5539860366707797,0.10159130423111885,0.08355521032480158,0.14325455220633573,7.491109081193184,6.312020070819736,-0.008365333512627717,-0.0042217326026654295,-0.01084158996891597,0.21383768368811407,0.5152813731115352,0.5197858164832827,-1.1804990283827244,-6.065200024435443,7.5347117502755045,-0.0038554989896420725,0.003378749577825088,0.004547898507136648,0.7210921980441839,0.13245143550424443,-0.271823665337793,1.2924557065461484,-6.113975410622456,7.687681896629002,-0.0029184676609456065,0.0035223169523327207,0.005477695665088032,0.09802798166767385,0.4334787780772288,-0.7938268520186469,0.48340947375853366,-5.9380911039186675,7.830430503239045,-0.006806920290046151,0.0028320285512228945,-0.002956308246786246,-0.28789306732822956,0.45797764567003557,-0.4481563591079287
2.101717648471259,-6.024171347171123,7.368235228195345,-0.0027748286198835603,0.001198384725141347,0.010131500440745338,-0.5495848961039239,0.11111031101231006,0.08378700249553481,0.12296464563363266,7.494084089043835,6.3147168582714155,-0.008807165721400273,-0.0033281893251594957,-0.009076220401229048,0.21527106210681848,0.5198787988288814,0.5167757418858222,-1.173752001373048,-6.043658795346928,7.530126036711968,-0.005895952025567008,0.0007393859648933223,0.0010729320142166814,0.7242522329130853,0.13902826265816132,-0.2733839503165159,1.285308699891052,-6.075112956874613,7.68550643195018,-0.005260850883931545,0.0024640724193975986,0.004428463400435951,0.10003937815662774,0.439565647579392,-0.7928678677498194,0.4963898706081018,-5.963272762758499,7.833206766681529,-0.004864014775986889,0.0029526880624041285,-0.003878883146618026,-0.2861564746792717,0.4638207062331343,-0.452563080704257
2.1159596266223963,-6.0159944947498465,7.406225167769175,-0.0027160035807764836,-0.0004115889148161462,0.011142737056684492,-0.552533917395679,0.10867355193993863,0.08013679885135398,0.13314375607776838,7.499743586110294,6.313545226707813,-0.010098363984250004,-0.003342159646290192,-0.010253140481838322,0.20600898884950977,0.5181753064674325,0.5183383511622354,-1.1754463021689492,-6.073822231727049,7.530484800639039,-0.004360223488107475,0.0022976807989150277,0.002568291860372003,0.7159476848828505,0.13730066854930675,-0.27429593255788537,1.2849253851570808,-6.121732701376764,7.68023001371725,-0.004095742031017708,0.004383690522747699,0.006043468260537732,0.09072954074997838,0.43841216339661643,-0.7941693114488854,0.4900987250404322,-5.9284702920050965,7.83055664764554,-0.007396302581315139,0.002996915352284141,-0.0032401864910641524,-0.29495309547486886,0.46171023152079604,-0.4505488083624301
2.092555616210969,-6.012866365648628,7.386421744454306,-0.002841051733028331,0.002219853556870491,0.011832785227337904,-0.5486444567404793,0.10501204499123064,0.07694076510994613,0.14010647302644735,7.4938941617467565,6.305352102254478,-0.009365758170920824,-0.0022053021354888802,-0.010431801396452962,0.21922142565376004,0.5175204244927758,0.5219078980932844,-1.1752740192809106,-6.045311903829406,7.528561724775907,-0.004307732978577741,0.003816369358044456,0.002528949684800607,0.7303914724366203,0.14057865884241572,-0.26659874451679877,1.2769509490646034,-6.089639670117964,7.685068612959652,-0.0016583675625058648,0.0035388908086793477,0.004740995557040019,0.10449056324713434,0.4395268405407377,-0.7897733974714353,0.49789971681489464,-5.949845015049486,7.8258902170920726,-0.0068049034915726786,0.0028330084836933086,-0.002955322216223422,-0.2800263826489894,0.4618054006603343,-0.44601388906341227
2.110662072193985,-6.020863430741307,7.3816686887383955,-0.004318339103624402,0.0022474570741822806,0.012190878888981566,-0.5524859523022582,0.1198966148796553,0.08869208631589727,0.12918020999007723,7.489580747757273,6.3291176757130625,-0.011257015861440959,-0.0026058538703931187,-0.010292110109274184,0.21190001971045305,0.5172670497632814,0.5222126344707686,-1.1633769452467662,-6.05994412172365,7.522494357396107,-0.005865475257406299,0.002313821725396305,0.0025281722702060055,0.7208642959911988,0.1349326934290617,-0.2684336563754484,1.2798824206686186,-6.092808869720989,7.668555897582979,-0.004389845427482544,0.0032561393430023695,0.005515338040570379,0.09642016600500211,0.43542878332989043,-0.7889084185983942,0.48892351731513933,-5.951060254450982,7.8049162607238145,-0.007395292689554792,0.002997905337202092,-0.0032401934548715833,-0.2861228640107705,0.46137810510521776,-0.44426232561493745
2.105009438950181,-6.020302733722935,7.449646044094901,-5.421111707422022e-05,0.00024323984357161764,0.010588610557258436,-0.554444251009436,0.10964362197215594,0.08893593793519305,0.12191170301404998,7.508899198944217,6.326568958569654,-0.0063850691095155175,-0.0026892977318984704,-0.011747947658034422,0.2147675267030017,0.5120076067286176,0.512990410193903,-1.1849508145804288,-6.0692181777646175,7.530776075305036,-0.0020451215956407355,0.004607755786335563,0.004064531740869423,0.7237557010435979,0.13118056275397044,-0.27621821835541877,1.2560747632093325,-6.098837052123543,7.674848671551814,-0.0007640266061886681,0.004136570468379358,0.004138598446958536,0.09963520277618776,0.4288399647597168,-0.7977760404559872,0.48457886605370004,-5.928086007471272,7.873202253036527,-0.0020549239969111146,0.0037677368361301055,-0.004056426074833258,-0.2872209821159037,0.4569950269440847,-0.4554863148995269
2.0740846621069586,-5.986887905474075,7.391009228344928,-0.005108741166711124,0.0007928226320921641,0.011254297222198884,-0.5591224376406096,0.11063146547356625,0.08041412280808378,0.10170218858848559,7.480254939693686,6.286082179250086,-0.009680214568930487,-0.004764548070296742,-0.011329348285991456,0.21015205107656032,0.5147396133584017,0.516648098742227,-1.202160708424036,-6.022580196542964,7.550168531221202,-0.0037024393267398913,0.004001817592390766,0.0042856467410464,0.7193599814353199,0.1363121433430732,-0.2755235905536834,1.277919209381443,-6.070449318043591,7.70651334723687,-0.000905484419495947,0.0075508917479874494,0.005456421609097408,0.09481405548413704,0.4359503378686259,-0.7969363702585558,0.4758600334407338,-5.9568466767703026,7.823415400752626,-0.008941324264855973,0.004665391901442393,-0.0030302507811489007,-0.28910716265509984,0.46165200410711343,-0.45254267095424633
2.133049238600765,-6.03001714495977,7.387661218444772,-0.003337709078241598,4.118827042335232e-05,0.010728125075492137,-0.5571817715333984,0.11331795582013286,0.07747730162215408,0.162737926436478,7.471956641447507,6.353249817488814,-0.011256004326935201,-0.002607836964019689,-0.01029108827875403,0.2052843460284194,0.5137794965174348,0.5184094965439727,-1.1493402218468918,-6.091359838021847,7.532474431928222,-0.005713416498731731,0.0029378888137087953,0.002265913994463331,0.7149914581037121,0.13293998387343534,-0.2713086996402041,1.2883505157360766,-6.135576627830152,7.7253051640649755,-0.004012934259148076,0.005261640897349832,0.005871540913515917,0.09093062899559937,0.43206269847345247,-0.7941916431972218,0.49840873277897335,-5.910848582152668,7.793283262848044,-0.008312088174026018,0.0026220257140185744,-0.0033808296825250167,-0.29424788282313447,0.459262090554345,-0.4510419563363872
2.089613304942572,-6.02497215918119,7.380635510243107,-0.003552749989547532,0.003303310559379539,0.009664168037656509,-0.5537454594614,0.1164866342559438,0.08088185156513707,0.12238111487427537,7.488662969898558,6.314824189839829,-0.009168048361512715,0.0005843174008173535,-0.012653220238977352,0.21089585950881912,0.5230919149747482,0.5199363232974663,-1.197425381905733,-6.041481595844905,7.536419693954232,-0.006394219751696076,0.0012894864764027864,0.0020421470060194265,0.7201232138392897,0.14053795307987366,-0.2692293947062465,1.270833685318859,-6.062978973805,7.7148979881185955,-0.0073792088666916065,-0.002253039627657518,0.006299906264218925,0.09324851211712724,0.44155936495237796,-0.7910307462322781,0.4898327580086961,-5.987751897391491,7.848435780995612,-0.00381384088965202,-0.0007429310824806921,-0.005608577901313519,-0.2902553110212896,0.46776772003768496,-0.4508250819505059
2.097119121238637,-5.988960113382719,7.412232415473501,-0.0014611860636830744,0.0022234296956525853,0.012428197643897871,-0.552509524277231,0.11770392138555649,0.08405110909090115,0.123159199687945,7.503338173786293,6.3026707494266745,-0.01260750145034003,-0.0032257915580824904,-0.011387528265759774,0.20991365689197095,0.5228342809152301,0.5192146961701818,-1.1657234442325488,-6.077165136505118,7.522272685552575,-0.007875459647338172,0.0012518817697996225,0.0005074104626350305,0.7193726782752184,0.14392315869215164,-0.271950849708569,1.2658026901827353,-6.133315693275796,7.628518683357405,-0.007179952906103566,0.001899067174204452,0.004764313815650066,0.09394301280660611,0.4410722233790136,-0.7929979787756785,0.4903664551869044,-5.940819875367956,7.847857125567622,-0.005910097245055361,0.006653266575148946,-0.0021432163759160707,-0.29000792248280355,0.4677652460063059,-0.45033879727030873
2.1067447681570832,-6.031454476827112,7.399525802751885,-0.004215997690509174,0.0021952872821249234,0.011223329640644163,-0.5537150895463724,0.11281829254999082,0.0877143830723185,0.12956473640376823,7.485320783054491,6.327826981648529,-0.009666287205281843,-0.005219267098546819,-0.010032497626166238,0.20424403282775572,0.5175741844859784,0.5110359980754087,-1.1844143709825865,-6.038480827704252,7.518632696840504,-0.0036774158187715426,0.003947096665569418,0.002793036127317297,0.7154389978304755,0.13554202912353042,-0.2784226443060998,1.2831444296947103,-6.058742939383477,7.651206871663535,-0.0007156592437170094,0.0026212919324602965,0.005168433655538297,0.09036822546654624,0.4340333104996783,-0.7990595413589137,0.4857468154025139,-5.918233064413167,7.810559430770825,-0.009490852756563993,0.0029517993161410675,-0.00394858617108083,-0.2949832841059136,0.46244366253316854,-0.45591966468117917
2.0971682487876917,-6.028599613923627,7.379200002114026,-0.00024661820665148975,0.0009091015279506265,0.009789139026085279,-0.5481237594755419,0.1179469722446239,0.08207734026346149,0.10628512138438453,7.476673193705473,6.3235632164110855,-0.008718139668122238,-0.002198276162132046,-0.009840857312354217,0.2084528234798021,0.5196553944259303,0.5190293952526477,-1.1910467003386778,-6.054133074949633,7.54437557510774,-0.0038524945880847503,0.0033797639623723424,0.004548870410049831,0.7203329277727128,0.1407076665886538,-0.2755810781359418,1.2706892983603955,-6.083496580812138,7.681304535882976,-0.0020455502061201922,0.004309379451578998,0.006561520715242034,0.09362295879918488,0.4403534019351411,-0.7969019971112095,0.47780595827992395,-5.975340218016974,7.8366045287631465,-0.004427233213040855,0.0028663543787730774,-0.005223972497308572,-0.2927053667206485,0.4658390151268601,-0.449343110480808
2.1057140555510894,-6.0066629923886365,7.436480176794219,-0.0016887420526868042,0.0019169972821060568,0.010888983088419466,-0.5488414157756465,0.11477026215893531,0.085495864282158,0.12500548985874924,7.521963645421261,6.322075599335402,-0.006469073896569301,-0.0038181574037166118,-0.010980365065022642,0.20746111856757377,0.5179084761479318,0.5166217956395358,-1.1961086657652478,-6.0807802566165465,7.531785496703268,-8.116484494691231e-06,0.0056179763123456955,0.004592636527812985,0.7169187933507254,0.136554038465372,-0.27551336874158666,1.25942858223762,-6.146466746126617,7.700236247550697,0.0026404316914577495,0.007547361400269047,0.00424853896963114,0.09334656526754942,0.4342497590340635,-0.7964259477946515,0.48741177181934586,-5.928589963933219,7.855973013534811,-0.005726112619429469,0.0022642582921101996,-0.004619943036036352,-0.29153656007825685,0.46240923947792134,-0.4517926277864517
2.0797806520371513,-6.003381528172131,7.360748326871091,-0.002773890720240454,0.0011833943145682865,0.010120481913842412,-0.5556861098813666,0.11013669333165123,0.0843032786366203,0.12314486852185819,7.477089273395254,6.313558532850263,-0.010009326364449145,-0.0022142313570700325,-0.011016747760900723,0.21647549639781857,0.5215643142172796,0.5150320163012946,-1.1764076943084933,-6.02276309170454,7.5400256768732135,-0.0028970433976204845,0.004699877603112805,0.002793898900830557,0.7239983202801111,0.14267527609268513,-0.2746470585395985,1.2872511117896337,-6.037287368953407,7.745396973302144,-0.00018612027936533405,0.0037990766170599884,0.004698319071680531,0.100037756599092,0.4412767625513147,-0.7935959150857894,0.4843736922687003,-5.9614175730215475,7.813328325516397,-0.005987064844996189,0.0029709014153088335,-0.005046070285115609,-0.2848788703649595,0.467958141169637,-0.4503745859333568
2.092464622990594,-6.024194109422644,7.393766754204067,-0.0034587910285550204,0.002664633802062357,0.011412146788474726,-0.5537291849880603,0.11453023704052707,0.08454200157258582,0.10842860140185308,7.502555868085181,6.330931916457138,-0.011769031948753908,-0.0018675084372961844,-0.009739053559039366,0.2199322254635771,0.510129428514222,0.5173728646782624,-1.200175712332379,-6.0807292191800215,7.559700084760426,-0.008276162621652112,0.0009053473521980829,0.0012527439610057413,0.7267100319010085,0.12928246297231266,-0.27181612551180206,1.2737054766588773,-6.146632826174345,7.716390069640284,-0.008499021800378242,-0.0003183120958291101,0.008382062207258085,0.10269183964436701,0.43075456580596594,-0.7914762399123358,0.47998620428597283,-5.938612987223489,7.828881317022226,-0.005870236464754709,0.004774787101761047,-0.00277667354593954,-0.2837830197130909,0.4557396220551419,-0.4508713112070403
2.0914741136009454,-6.0132183958794325,7.400166752123314,-0.001896629800790534,-0.0009766994249093286,0.009620276640104227,-0.5478814982529394,0.10598269425422306,0.08328509299826835,0.11903878756348255,7.5200502726470795,6.296962949448409,-0.01003301693206533,-0.0027430914045426654,-0.010328585856118667,0.2111033730420218,0.5142024760264544,0.5132302241095554,-1.168689491752841,-6.044966198426508,7.539300201716633,-0.006544293865292588,0.0006703969632065577,0.002302335274545657,0.7235144413507569,0.13534457690608176,-0.2750453343451147,1.2745991853132685,-6.067591331720984,7.686177020912616,-0.004765938646769807,0.0012476576986778709,0.005150110200971997,0.0980148375111317,0.43348093589649644,-0.794558730816649,0.4853062881899463,-5.919895189419612,7.835349965461265,-0.006260831162722989,0.0021145952194313697,-0.005506244928245991,-0.28744331581703514,0.45968238887297425,-0.45621654677263057
2.1093954444812835,-6.0069975322432985,7.369681471001139,-0.007361967791150539,0.0029273544378792126,0.011141050813863605,-0.5483496125430866,0.11525727591938022,0.08622597329975809,0.11722369865542118,7.474660733003782,6.28903728902007,-0.01311952133001266,-0.0024854463502062478,-0.010834501488835992,0.21160843725411957,0.5142360821901703,0.5154231066343201,-1.1718048605715934,-6.033290674858775,7.534214661082396,-0.008147116670490421,0.0015841608577395708,0.002485085377652626,0.721086956398147,0.13243981896940601,-0.2728005822131029,1.2938291488022293,-6.09380929449257,7.647409012667144,-0.0067547035354815765,0.0023902960615174327,0.0061483550553011294,0.09505685435263721,0.4325271951184869,-0.7957296211455974,0.5003507099392067,-5.95356773576802,7.832179936653101,-0.011022654720931903,-0.00038609226852421685,-0.004439195497306179,-0.2884486964756583,0.4552981521011634,-0.4540128563088928
2.1150770302669524,-6.04351537465878,7.416409968636718,-0.0019247040494051347,0.001017061619811439,0.012061290104450268,-0.5576682529470035,0.10648113360578843,0.07869429744945299,0.13628311080604283,7.504518876113628,6.3522241277169424,-0.010678612176408623,-0.0027500691146220045,-0.010916545967047437,0.21139657296284214,0.511356909296747,0.5188861453248141,-1.1769535553390744,-6.100132935030752,7.512862222151609,-0.0033042049823545244,0.0027241737529831098,0.0005903869901526125,0.722313885574729,0.13025172282824074,-0.27204908432709823,1.26102051879191,-6.103504568631026,7.663173170818665,-0.002445614849740092,0.003622773508019488,0.0034801702711681963,0.09724177918965186,0.42933711297746585,-0.7952901858373493,0.4943666054951346,-5.971100327763767,7.852671683721448,-0.005488135596310732,0.00500200342855524,-0.003520339241781773,-0.28673980755055467,0.4535719935474233,-0.45158287661988145
2.0988728907118968,-6.003057597729964,7.372628476973476,-0.0007753430741256793,0.0007271988695565325,0.011126514230500092,-0.5534557448780838,0.10939674294664539,0.09137201108168153,0.11864615441050597,7.497140871534428,6.276402470055486,-0.00705235858842503,-0.0032191177037790603,-0.011646850928447737,0.21135166791363527,0.5149457354712944,0.5139493201075882,-1.1798457269299416,-6.028019954473678,7.535286222946831,-0.0037769435776386488,0.002538876234634893,0.005819571348178516,0.7227747136541752,0.1341066178743182,-0.2764917694008932,1.2712998296722726,-6.063432253472646,7.677798138739054,-0.0013150452434637855,0.003145174599396434,0.006292927041286491,0.09431569075106737,0.43375594752185137,-0.7966898492679382,0.48693522095679875,-5.955876058264917,7.826666251441447,-0.004149406386053615,0.003726620253246362,-0.004760825782516254,-0.2867198780511396,0.4579660727946578,-0.4550007166372134
2.091243982526894,-5.9906350505932275,7.39131770554344,-0.003985514653809692,0.0024847298857896406,0.012749514278549283,-0.5505973001028261,0.10892072343573009,0.07646472454482212,0.10896235118624203,7.490167054999968,6.3306343303228365,-0.010737911068980786,-0.0033540516073733906,-0.010836073674986521,0.2062402482127993,0.5198663542936127,0.5170901787556895,-1.198488227701366,-6.080608194181176,7.51943716671454,-0.0031216568873514783,0.004920700523917119,0.0017853925707173952,0.7166907034585868,0.1378124819152462,-0.272352839025768,1.2776566774823725,-6.135257606906133,7.660996480366321,-0.0015736051264519232,0.004412830836445448,0.004568021115857543,0.09122564528629332,0.43767375516472246,-0.7934482770723685,0.4782701724207983,-5.908844010886319,7.8061683333460365,-0.006250282645979572,0.0045495503096761175,-0.002028021899559403,-0.2937212391818869,0.46365107292551117,-0.45177726866507906
2.0945870918362686,-6.058153938647151,7.409404275204578,-0.003000457549559439,0.0008749631300243107,0.00857926074987757,-0.5552049982196425,0.1177076472809521,0.0818669753167279,0.12761131094146266,7.486627882407095,6.340768518815558,-0.008775430850565391,-0.0028022401935499743,-0.009759400764626799,0.21035664779783875,0.514419677915883,0.5115235516896317,-1.1977885896051408,-6.053430494930617,7.560338750118859,-0.0019195298533418203,0.00365841424389615,0.002348999651380836,0.7208145937837099,0.13188678382984254,-0.2781640017138192,1.2757024096192868,-6.073766363521491,7.710732073598232,-0.0002539003077128059,0.005502721669618781,0.00535566707894089,0.09570804081819914,0.4308248433961798,-0.7996529820518392,0.4764456579992383,-5.949949945123842,7.810502598172505,-0.006861010747678583,0.000717512633886931,-0.005823184536012198,-0.29013860695806704,0.4582441650461542,-0.4554658385143559
2.1161075979411015,-5.981799182551044,7.396080074121736,-0.0017229501690960037,0.0009267118474625562,0.010139218750307372,-0.5581409411726288,0.11380317093189678,0.08114438178196715,0.12744134008301883,7.509516000160045,6.276137655997286,-0.007435849398876739,-0.0017275334341523103,-0.00995785709633907,0.21433837719400284,0.5121195085566622,0.5205611483798268,-1.1869894756177053,-6.035679005409935,7.540087024071839,-0.005136606847808891,0.0015508909658362843,0.002566336358143689,0.7255091736135757,0.13274852028658882,-0.26770054413517297,1.273510577580039,-6.081491064687757,7.717203731593182,-0.005495596500194874,0.0024078765919988217,0.005411675750148929,0.09856134522772955,0.4317571973721267,-0.790666981105362,0.4997986947095485,-5.955334753831484,7.856908238967446,-0.003780129575556621,0.002389887310624296,-0.005538538889862477,-0.2874379284451654,0.4557760304075279,-0.4498687696407789
2.112921075284664,-6.016712983503708,7.399101945627577,-0.0052704544925858635,0.0018354819339486397,0.013896069426702273,-0.5495891208798012,0.11550566781522036,0.0823260843847637,0.11950696298921355,7.462983427577322,6.3394636643901,-0.01373938928558181,-0.0019665005107324025,-0.012106595012658556,0.21605538050210643,0.5118931366120987,0.5215283098878882,-1.1888805267411722,-6.0455447325462055,7.55916209612206,-0.004916465485336178,-0.00029612367027129184,0.0006239510424730172,0.7259964936455565,0.13348088561187949,-0.2677118674183607,1.297445483893815,-6.031878286805616,7.757148809019168,-0.0045173267114313135,0.0038854821847335843,0.0046433379776091134,0.09999699156228026,0.43004130634323845,-0.7916749853608451,0.4947434967408154,-5.952560093332876,7.848675568828639,-0.009919532221917713,0.0030420522945271353,-0.0025945528199862217,-0.283989278411827,0.4586718018569057,-0.4496485863977215
2.1045252906961296,-6.016969208171851,7.410492988251604,-0.006866476225199974,0.002116975674719126,0.009048904698437872,-0.5512855500817313,0.11135379864166799,0.08550438067814861,0.14866418224828715,7.577495339159332,6.262060719588806,-0.02023740880341479,-0.000806964081595342,-0.008228808838129886,0.21431027629609647,0.5199061629708511,0.5187360803335523,-1.1753541602464368,-6.016457417751915,7.7546833135321105,-0.03764062196814839,-0.018340223257922995,0.005441471832187111,0.7259854552477641,0.13834902095760865,-0.2689907991637781,1.3626252666927183,-6.043364939148383,7.95000447992683,-0.04199430369926515,4.3662769106924276e-05,0.01836524019381394,0.09862724235068501,0.4395668302187519,-0.7899130179961197,0.4883432459545425,-5.942116739059374,7.8456890833706225,-0.006705335474589264,0.0006429289864241103,-0.004189237936860405,-0.2873350024589783,0.4645644027525523,-0.44767166978720396
2.0712597575745293,-5.928598945383615,7.404915994718007,-0.019071707847889145,-4.973864591956586e-05,0.0160063369898258,-0.5569213455092773,0.11160540514352416,0.08113651048009148,0.06717112371986247,7.479387741410167,6.277173293114547,-0.03236390736333143,-0.003545678104582908,-0.010406033488144402,0.21274978021895238,0.5160455278710631,0.5056208866018722,-1.2208659414111054,-6.187712400788831,7.507907712691498,-0.04414173452712047,-0.029876165173797847,-0.011650941268634467,0.7215046249274191,0.1386416448894593,-0.2850846079073535,1.247293158456988,-6.360040633697806,7.657120436536715,-0.05022073895987993,0.009456729356542851,0.009075168163769652,0.09837792814999484,0.4403415519988307,-0.8040686012618424,0.45460297941502675,-5.905069961121744,7.86345727239715,-0.024755832057677212,0.004528976586098039,-0.0023108481591521666,-0.286962442614348,0.4635839054465623,-0.4628117248133627
2.0909889305003677,-6.146449969784848,7.314543413610707,-0.014792062848240289,0.0015025950925168067,0.014881300705303075,-0.5507788097951639,0.1133030923573408,0.08916581008372342,0.17203440337449202,7.427040787048358,6.382374948924319,-0.02461998252906123,-0.007192429319509243,-0.008459620957973455,0.21674087888002205,0.5223403259986161,0.51794880183564,-1.10383658100108,-6.0365293512936065,7.323540591806714,-0.033237930989930345,-0.01768105690479785,-0.007173059545126327,0.7240024406950528,0.1439068059412583,-0.27368464165786066,1.1814073431616443,-5.971919800195684,7.492096309253806,-0.03768464367755164,-0.0029768588179525284,0.0085803296250171,0.09908772489918981,0.4425013899015076,-0.7925980806193872,0.5318396908937763,-5.969101115779568,7.705905691243122,-0.019824128553357225,0.0019507026631520178,-0.0024495028515881165,-0.2838978007556789,0.4681923715139323,-0.4501364083366828
2.1199140513971435,-6.034566163533814,7.433419346838958,0.0055839223435320455,0.001987868661767422,0.0038911908774778184,-0.5478689320411698,0.11477032917230195,0.08475820556588913,0.11983923822081338,7.477679372755223,6.348106318120207,0.0004909442420802005,0.0030669965129313755,-0.009691886872061347,0.20821865133255768,0.5164886040623893,0.5195674800032574,-1.1290395861927118,-6.1011636422385545,7.277051353650403,0.010160963377662905,0.012945063649496763,0.0044429471466888686,0.7164674760072199,0.1366349012021763,-0.2686753270721284,1.1837434639691706,-6.217179425180224,7.195764308826893,0.012197162649870185,-0.006668368450239799,0.0006454312546338309,0.0930340704933443,0.43813445734506096,-0.7881075076735333,0.4883556863264398,-5.9712946950291155,7.867634992116105,0.0017584682319938016,-0.006222666912930183,-0.009547049594916354,-0.29202160907219943,0.46168101159954233,-0.4503252694012482
2.1232966239658224,-5.996711115181598,7.354323365031606,0.007890569146554368,0.0005979296988464249,0.010894954594613126,-0.5566874750768191,0.11404951562057314,0.07869663146735309,0.15450687726075635,7.473002305043545,6.314164704899611,0.009015591018995007,-0.0025673383961270176,-0.013108684416751686,0.2101493193973768,0.5171839743137201,0.5168557259515315,-1.1150225019856201,-6.050041623602637,7.42282071263548,0.03584360351449365,0.03314029186920019,0.011610647179205928,0.719871394074502,0.13905352841640356,-0.2709195376660412,1.277604172505179,-5.977413789972448,7.339722526155848,0.04928768525349175,0.02349175592307027,-0.001045957457846395,0.09538578345700101,0.43471098695428695,-0.791822443153466,0.5323339867113985,-6.014948558921271,7.89156677526186,0.004971170309047297,0.007813894078096515,-0.002731088994290519,-0.28985469283495735,0.45848525386607397,-0.4500956685960378
2.149634738581127,-6.042232825889485,7.40731380984705,0.012314008446932985,-9.738316187598604e-05,0.012531177617791796,-0.5503160139696778,0.10695909422586934,0.08451865463852912,0.184959593310772,7.482147937412873,6.326985492618866,0.012649540316682683,-0.0072226247792884,-0.017653208945521165,0.20894320175124828,0.5088781014345499,0.5167448524255515,-1.1521734999306406,-6.075134347373571,7.555102636663084,0.04798714579129826,0.035421746109683905,0.019110008119981994,0.7203509588055709,0.1268042719153509,-0.2744387662519865,1.3141623727794638,-6.149944931424258,7.783181901065253,0.06493698940934982,0.03073086251877838,0.0033441024658242154,0.09528203950895885,0.425196718489223,-0.794045994989591,0.5232782083079397,-5.921392841439252,7.844378983070107,0.010273296201124358,0.012899249120960089,0.0005714212801201509,-0.28969904398654966,0.4511593772933907,-0.4522954462843055
2.0386796581781117,-5.997771809484673,7.402143552405527,0.010756155618324922,0.001165400002147298,0.008426749856817413,-0.5517859082950981,0.10842614690521529,0.08330603016734241,0.04352633947177253,7.489939694381688,6.318928775058216,0.007913286482142344,-0.0012319804001088965,-0.013223029204584355,0.21277722554207387,0.5146279736294344,0.5088152473714597,-1.2888285740328937,-6.064893874821244,7.748143461821941,0.029007717619339516,0.025412003070543032,0.00837493608688276,0.7200705924652115,0.1321050180750801,-0.2803597917430065,1.2695246747252367,-6.076158538755161,8.26143713614826,0.040600638657093215,0.009194539356688935,-0.002639378270435342,0.09467804640852397,0.43010732772069066,-0.8023230441806042,0.4397067325477984,-5.958663569606515,7.829070757237111,0.007503511939002533,0.00777366641552649,-0.003367785628771818,-0.2887099804326783,0.4574979632087297,-0.4596259777029865
2.0547604134175677,-5.916674716346379,7.425692200465393,-0.005373136598589089,0.005050425360507621,0.011867519908171375,-0.5491237188498913,0.12039334257608937,0.0769573312350538,0.0881154617660011,7.596039614778234,6.209664706641939,-0.016001139474458713,-0.0013511268157353532,-0.008976739377230465,0.21772913842180355,0.5204038285118747,0.5189461155084238,-1.2400978272273366,-5.980755284565417,7.871475104312969,-0.02992249877105181,-0.007675727977623586,0.0013729167163122672,0.7283997411325351,0.14024882388600912,-0.2736647382412412,1.3667248232222595,-6.069167763023855,8.333612320081738,-0.03861360588006666,-0.029674988624046987,0.014483286094721855,0.10246995661305512,0.43857402933175077,-0.79315848367866,0.42290829374671735,-5.814693328118297,7.789977599144287,-0.007070598619713119,0.0019796218933066834,-0.0034095528032942668,-0.28177470505907437,0.4640210872801676,-0.4547907055450921
2.1009219374926285,-5.912047652621317,7.415671649714475,-0.03314592433172544,-3.916057479621007e-06,0.012852639373297026,-0.5515624740027181,0.11282552147436684,0.0784269866629974,0.10190139485609356,7.5075181328634635,6.263360173065546,-0.0494082479661847,-0.0031312737926210157,-0.005927070384907769,0.21386040798767939,0.5143454921291024,0.5224849666074756,-1.225757768828352,-5.937775321660476,7.817267525259818,-0.0736415323880073,-0.045169288614736264,-0.014337066840352264,0.7191509029144465,0.13687827891268795,-0.26893663976527404,1.397915585607514,-5.767955766423865,8.200413113492228,-0.08869418336903095,-0.03989944033997967,0.012489087639099885,0.09516427758616194,0.43348761681375164,-0.7901127889052537,0.4399053131880779,-5.883312850874067,7.831600990078718,-0.038931218472667006,-0.008476313541007707,-0.00728614651156569,-0.28886437538669285,0.4589643871940139,-0.4488825104836221
2.1241354503821497,-6.104634721512423,7.383520544223992,-0.038419402738902465,0.0026137919913995426,0.017858343725320913,-0.5522971124683137,0.11233843551085214,0.07794104161567793,0.1611894738102784,7.497299823845106,6.278099602522879,-0.0690082217569649,0.0029839844039256493,-0.002653357876104105,0.2127797296565936,0.517327229520318,0.5097521387018393,-1.1677239608133207,-5.94862839035629,7.883430843761527,-0.1453613103216689,-0.08437321658496894,0.004406442405545997,0.7222404720069492,0.14158658040193556,-0.2839024704775667,1.5051140551439428,-5.842297729047573,8.113068593937177,-0.18171309798362772,-0.05968573125210101,0.0602079558870294,0.09651240072468442,0.4396065449809735,-0.7989094153658782,0.5631514221719872,-6.048333053901116,7.875358346480106,-0.044830019103394424,-0.007514489714392091,-0.00670587067587695,-0.28622487974398,0.4626004679438382,-0.46061890569394354
1.9925107929639059,-5.8355968446597375,7.504142026457166,-0.050066364084566155,0.0009678027275599473,0.026893614488056283,-0.5562369090591724,0.11210223448269448,0.07112358007218854,-0.06596598038717119,7.485373940373786,6.357646489198466,-0.08355385532898431,-0.003693228405912422,-0.00855661461121876,0.21307579988328,0.5250231403426043,0.5181813510633998,-1.4305273954556634,-6.495332855051982,7.966383171733587,-0.15566326126833968,-0.13660414276767505,-0.03158332328956648,0.7149454027208936,0.15020598984011796,-0.2771292406683383,1.5256364029337337,-6.99922235930723,7.352553731736081,-0.19296498609085103,0.016620070485883,0.029158796717319118,0.09554503878018152,0.45179333037585884,-0.7893325345267251,0.40470805122024617,-5.885400579003191,7.854111059874848,-0.05722621868799568,0.004430492154207859,0.0018429118115624195,-0.2868003409808988,0.4716394854874192,-0.45109286978116003
2.0842340912575428,-6.194391263900329,7.172424535750176,-0.057773138879386454,-0.0009214556911893935,0.01947062385832305,-0.5532655678572765,0.11844113885401558,0.07892834757885801,0.2728445980224734,7.564717894940846,6.48659243183096,-0.08577670587643274,-0.01871567151406764,0.003297189525257766,0.21061372687376115,0.5190976157842172,0.5141382166105589,-1.0674226613196072,-6.234322674955786,8.225437728016882,-0.20069551549408302,-0.23353082874827852,-0.04785664913788354,0.7112767566604481,0.14749672893527502,-0.2787864861035913,1.7904445350573976,-6.201995825954676,7.068019689574435,-0.2381223375250529,0.24094659324064757,0.039214608430159524,0.09899364787247455,0.4524990913125143,-0.7879281464646694,0.3913327875051845,-5.830158016255535,7.537579522912694,-0.062064147702594614,-0.016277154391215954,-0.007784352566208601,-0.29025044771728037,0.46825569580368326,-0.45082507343350675
2.247123945393331,-6.036016948472636,7.426168647663006,-0.029120395001777145,-0.0015243299250952917,0.0008158371283115265,-0.5474105829877806,0.11404368677659908,0.07865226714710168,0.22212263845204971,7.071859515065605,6.369729314834672,-0.054318565146729086,-0.007389999218001097,-0.00948293989006005,0.20845477062786125,0.5105933101494421,0.5172111571564572,-0.932098713621172,-6.3736932744791375,6.801733695503166,-0.1547202734968887,-0.24889167402234985,-0.04684758186289135,0.7034616215303803,0.14137006205371724,-0.2801368263648607,1.1260465025193442,-6.6223657056395355,6.817635310384557,-0.17561625542962872,0.3646496981304142,0.03324288634088836,0.0997910873149647,0.4471067683813967,-0.7823414363646102,0.6829009651237814,-6.029822683607705,7.998576019711007,-0.0328342596368697,-0.03228700645055777,-0.021640129726049943,-0.2917722636550509,0.4611904767784199,-0.44886201704699985
2.218066475639147,-6.036883843421404,7.4707953137342304,-0.0305558093934772,0.012595562910134726,0.036517227883374845,-0.5564256752388265,0.11819641414258797,0.08187326577002918,0.19436732696839085,7.70295877746305,6.293340306889508,-0.055011364921522046,-0.022519680089923586,-0.017521242396549185,0.2052654136242884,0.5147236490616024,0.5161982626039711,-0.869842210761769,-6.543096382081497,7.065650344980574,-0.11321048743678187,-0.17689135011064844,-0.07368265098622774,0.694871845638056,0.14737823833859032,-0.2874868044498305,0.7795304789436791,-6.252165532788691,8.423842765954204,-0.10458447274559103,0.22267398269462133,0.035806306950622785,0.0997983166985794,0.45272665577862276,-0.784034279942296,0.7411984060679081,-6.368628104622721,8.14847222868643,-0.06550323815816415,0.010541555901658327,-0.01381415820696431,-0.29639853229988905,0.46538686143882496,-0.452979457417874
1.8237187556126473,-5.997677067588337,7.2759540003926375,-0.0396743429052779,-0.0006929781034788998,0.04549260338101705,-0.5495838521696647,0.12014421202378371,0.08281836973483711,-0.12611340266683918,7.371090773620178,6.571714252042102,-0.06907031143715088,-0.06101467984692124,-0.03572590431539402,0.21286027696265242,0.5049867663507969,0.5172604579473948,-1.3701376912087948,-6.428090820242348,8.415322866799233,-0.18912187811181994,-0.2164348996955251,-0.07351219568374968,0.6997416345413138,0.14882117594922756,-0.2897282783152855,1.126979305283844,-6.784920410007814,9.51523803478538,-0.22295304614797065,0.06749849274876343,0.057614970406882876,0.10970940230256242,0.44921524638572263,-0.7747000538776468,0.1911480549147675,-5.889249557215833,7.6295340588401865,-0.03386106929700898,0.057089615985055804,0.03846228085725045,-0.28543324162230255,0.45941819488897506,-0.447685393669416
1.902051677503211,-6.015689089177207,7.39751517006194,-0.05554905312539669,-0.011636220031085243,0.013362973107060664,-0.553741442421804,0.10623060181598097,0.08306934041169664,0.016571627933838505,7.636156638180892,6.241180568995781,-0.10345520501038091,-0.03944965732354613,0.012289851801988633,0.20406285628096113,0.5216149106335048,0.520011463593118,-1.2484595073497793,-6.60958569304468,8.921345086331378,-0.38281364584855637,-0.34773706662968695,-0.15856108389171902,0.6821529070221226,0.16933010493879105,-0.2884126533851893,1.607448367657666,-7.855682193823319,8.717768015745255,-0.503209232608054,0.0910140825726621,0.005813133102736904,0.10189106030307739,0.4770925653885042,-0.7717910042740396,0.1993062672054318,-5.417283858264021,7.2534230158354,-0.046464593706534524,-0.012962492533923552,-0.005439903399385711,-0.2940537073567015,0.4763509444151153,-0.44762374136165645
2.3461123974129885,-5.999943746102483,7.25880481612371,-0.12135017885761877,0.008938352222588843,0.009120651225042917,-0.5474078880745636,0.12014690938293195,0.07841391540074708,0.475655023913368,7.191732423321129,5.6322679247140375,-0.1778196343444295,0.01887567827012711,-0.0019661448207202413,0.2043325398325382,0.5030442403957319,0.5190649543739831,-0.6777925433699257,-6.114186903038489,8.319768956994103,-0.4911100155688798,-0.5596381926286689,-0.3142618111435936,0.6701447257798236,0.16726251171023038,-0.29711338556663863,2.0575527762167476,-8.371746551373716,6.302130468589892,-0.6708239186638901,0.41381034037211134,-0.1642406991477449,0.10778393678347456,0.4711822280947335,-0.7677635755830948,0.6370768097303392,-5.907238176417487,7.898541136373199,-0.1440679304424571,-0.10465938386438574,-0.0609188918575715,-0.2985887692010218,0.46247945474623464,-0.4478372956506017
2.4903868076566025,-6.061823810271427,7.532029768295552,-0.14157555055846366,0.014475224931834571,0.03931285739094395,-0.5517825098385876,0.11379714353219192,0.08331099841643136,0.5069964362823794,7.346886561779384,5.887680400554574,-0.2284225016730514,0.11750084635333662,-0.0317905733932942,0.2067999894403981,0.5021189915223633,0.5222340067489057,-0.3321039687692602,-5.905999690736416,8.0488209236031,-0.5005000668698986,-0.7061549548210696,-0.4203363730857468,0.659577656515287,0.1768853151604026,-0.30840206843568213,1.8318357496626054,-6.769324348032969,6.809019169901276,-0.5909684678947303,0.7773874816905675,-0.30985496625833325,0.11631312883528509,0.47719849369568335,-0.7573992789276455,1.0767302679185644,-6.656731118440995,8.484671088824085,-0.15305482152183306,-0.02209108695426836,-0.040013461723509794,-0.29544494072421684,0.4609830884424517,-0.450056426199563
2.370216471058278,-6.176823875402569,7.361253625518877,-0.17147533112007624,0.021557538257360027,0.08429593237839338,-0.5527530582719605,0.11843607423381404,0.0840529530538757,0.28291442746819506,7.456791356290907,6.29988298528104,-0.301760364219037,0.14440285620400778,-0.07686166519480836,0.2110495070605707,0.5113812839069384,0.5369580328891462,-0.6015115055769515,-6.526317112247556,8.23781596356178,-0.4284430080553586,-0.8783546768729953,-0.4425243944765215,0.6429638252673417,0.19714718318115987,-0.30733375735073637,0.8753464302952405,-7.117073670250245,8.151089474217182,-0.4927673019987461,0.9866255363629758,-0.3606449245037936,0.13065761268016177,0.49414296844382055,-0.7400260294119729,0.942997005405856,-6.659985533079375,8.313365188070293,-0.18124421021780043,0.09701015255113238,0.05191892622668347,-0.2893792531425596,0.4709328654891917,-0.4347175295025416
1.8073173616752125,-6.252416214993435,7.320672550472361,-0.1742261588805792,-0.017656616861771605,0.08739973068445786,-0.549560487298231,0.11647722988020194,0.0881859186206355,-0.14128489089992352,7.231367199641215,6.980128902593888,-0.29419476005177486,0.13078998537928455,-0.08671502819906769,0.20907536040030758,0.5145223332894311,0.5349722950563712,-0.7028493927375368,-7.151711194874744,7.894742395085968,-0.42924588592103385,-0.9895778088073636,-0.4650305582731997,0.62137039197529,0.2122968135338883,-0.3252215587762162,0.10517794524571777,-7.742588249579004,8.659980346225794,-0.48382165269153204,1.0376623502547972,-0.4058715971234318,0.1397992656079801,0.5026185727832226,-0.7372347345817517,0.3123206456933813,-5.765214054382532,7.118244518914041,-0.164877067853549,0.15295026792448296,0.08349830924542764,-0.2857788864046512,0.47260626453882437,-0.445972791381914
1.8831469815803157,-6.376868650450295,6.920004715186194,-0.11715682925726918,-0.012250005995712016,0.02284109965584176,-0.5519554167790144,0.12281860315531258,0.09699235965931782,-0.03833415233400298,7.232250142438318,7.009996608812286,-0.17142436773541778,0.12692610204503127,-0.049852682898381344,0.21670251585242004,0.5163636704902003,0.5429436885369602,-0.06332811329425249,-7.49541369928625,7.12884879761274,-0.2049440344115899,-1.0378152806234706,-0.4683276838737251,0.6098407423220699,0.22195070611805898,-0.3338202181395875,-0.2583370788756991,-7.890207619992925,9.724073833544745,-0.2253991616010787,0.8529840930250007,-0.4570818413346213,0.1547279280728371,0.5105387721334711,-0.7247823917795841,-0.017033502028424796,-5.381937812099181,6.778151721350499,-0.11219032379296129,-0.007045858034044641,-0.024466037946398074,-0.2791223858897632,0.47375985328293535,-0.43845097498527436
1.7072588937585493,-6.163166077990068,7.183626191005755,-0.03294624295143689,-0.01860064638410875,0.002682305627298399,-0.5500442041313643,0.11769785548412255,0.08892237307299285,-0.35401364342645614,7.010439451357959,7.454748768049386,-0.05170117033406808,0.037594531761194865,-0.013278137246774844,0.21394665536972696,0.5221054584719248,0.5353104766459634,0.04557338973460383,-7.588364114469519,5.8637590815572675,-0.015338828480634345,-0.9382009795188049,-0.4297110527375307,0.584337210072536,0.23733226335310778,-0.3524228601514606,-0.7088431368885029,-6.769029458780702,9.884338935237354,-0.017178938714418217,0.2935401476074247,-0.436960567278396,0.149565863746821,0.5188890189487634,-0.7297929136104689,0.22897138443232293,-6.09746016478085,7.533768570674495,-0.04446908541860353,-0.1046061719545944,-0.10619126409944826,-0.28277418240279384,0.48112076905018564,-0.44745806165604995
1.783233184180481,-6.572991154899292,7.254703425991596,0.04547490825055772,-0.00634472828013767,-0.01518851107431462,-0.5517535147644652,0.12087238108162049,0.08844448669486668,-0.3834899711862201,7.245668604727438,7.461973799321112,0.0935240497470609,-0.06697458157025626,0.0070279078251189765,0.20343787802102584,0.5178998494066055,0.5330125166756571,0.4152408788850724,-7.512988851324571,5.781065552003753,0.08659759875808316,-0.7483177309733422,-0.3278979963025737,0.557453091182315,0.23406585811956676,-0.3580992711079325,-0.4678933271075896,-6.3833366223575965,9.531809910911072,0.0880333996135926,-0.4103104930999163,-0.33674705886551864,0.12860276771633639,0.5187806803800195,-0.7277074638817044,0.44239149436183844,-6.898810024093738,8.173495592503249,0.0375995400854801,-0.021557306005180216,-0.027132009825285616,-0.29333368317251174,0.47463467089218403,-0.4468968993095797
2.5466617267204303,-6.158540217855928,7.094997744226024,0.12590117620178196,-0.03059150486582399,0.005213663016739925,-0.5536914162912047,0.12624333855331893,0.09090076650585484,0.46077663166587113,7.095185372181214,6.808088319261316,0.1879182365190679,-0.16026108579051887,-0.0066748038778393914,0.20517446338389622,0.5204064706758398,0.5371132443050035,1.1745027217772817,-6.965009502664958,6.41080618247515,0.1443276760523703,-0.6184292639902678,-0.24450199964576533,0.5403393230797473,0.24304876322268834,-0.36104451239513663,0.7282853015415233,-6.602825613066773,8.340620480228614,0.13992132275398259,-0.9223858384521588,-0.2446930587321264,0.11062467919768695,0.5237759780848213,-0.7244393739110938,1.048908045415912,-6.025929899344542,7.990582163525774,0.11751309373877779,0.09284661744832452,-0.006712411887369724,-0.29276224951236873,0.4814652770098117,-0.44470224042084927
2.469884289945376,-6.195760135499773,7.3971279060666415,0.11489919918770347,-0.01163183309985004,0.009863920354588995,-0.5568735881521375,0.11696779244618825,0.09041836868042324,0.43928275491599933,7.384010327450281,5.890702064371871,0.16516155708011557,-0.14212656158701018,-0.019193880074792738,0.20783250997695857,0.5130080438787141,0.531831077870984,1.0534889511909367,-6.202765048623519,7.52954752036901,0.12888687126410373,-0.6388734904440521,-0.27930003779731966,0.5254018104691701,0.2385320362377978,-0.37018844608654133,1.2369746627734683,-7.6031484194860495,7.026464815319811,0.12577010170003577,-1.0139942622660891,-0.2880151725079994,0.09205540328996238,0.5160817660923861,-0.7221752411680189,0.9671245591011375,-5.889969327243538,8.633254566338566,0.10667848105563066,0.22851434711904092,-0.007685995473710846,-0.2897077206178868,0.4711803684875649,-0.4471665183925459
1.7793670946489262,-5.66230639006851,7.74794290495677,-0.09204936743016268,-0.04372838438356629,-0.030701802176907822,-0.5524793298528028,0.11745403133922003,0.09039780809601204,-0.18916041228703095,7.665350461693305,5.481012574682495,-0.012298652369834774,0.01109458937808223,-0.06236051675072699,0.2097599374704303,0.515412221678964,0.5290938825249784,0.48856590589628,-5.760045899036262,8.028643887254951,-0.03273649460888399,-0.7539147516278448,-0.4246524472961949,0.5119009640129687,0.243740227381736,-0.38287401820506556,1.0928078097673857,-7.461345323139456,5.544397164468865,-0.02881334771969661,-0.6960648474438225,-0.4312859121594306,0.08272537685546606,0.5190860856560375,-0.7261495083572074,0.3667460788007051,-4.93126382927518,8.481714390931563,-0.13114082703407098,0.43716326254046,-0.1507801701776487,-0.28020103383233297,0.4713296780491101,-0.44967393020878355
1.9713348047811954,-6.009029022886338,7.382487888352201,-0.21121025582774916,-0.04136264366935616,0.005685604616804047,-0.5527442520092537,0.11574903704046934,0.08624744332984399,-0.05198682305849909,7.507740395250231,5.742963708153935,-0.21650655767745344,0.10363376534182916,-0.06128774332388351,0.20709684609438866,0.5164316257784297,0.532273844884008,0.9394505656080284,-5.795796527779786,7.60513791471848,-0.3061044361142526,-0.835787305546064,-0.5654573316362833,0.4881933391861931,0.25735906740932546,-0.3855949853816007,1.350146699692104,-7.32844783605513,5.256567361951848,-0.3123892643907227,-0.23318171390306783,-0.5582043908324719,0.06776003135179817,0.524048077547921,-0.7182968557849404,0.027752395985575606,-6.734443356103864,7.124918830939449,-0.24131282413909622,0.40080823419120926,-0.08353561324093085,-0.28141466392638276,0.4737829371258095,-0.4521073039773216
2.4121931011700855,-6.34009817294219,7.231130843219237,-0.23796075484803242,-0.036323952289395736,0.034050527326787504,-0.5546684419539276,0.11696482604482347,0.09211684194926895,0.25726202651849855,7.262857087803694,6.482947077824732,-0.29709393239645054,0.17353477761273353,-0.07338254532320591,0.20645917119200857,0.5139156138114439,0.5437929203460777,1.5667124762078322,-6.730018076959041,6.85650783244767,-0.4525298636154247,-0.8627456297700448,-0.6494133615694199,0.4716177892064054,0.26596473998995074,-0.3792598393451916,1.5027069848377137,-7.370987083570236,6.36089236484644,-0.4484846239200946,0.02985048527360262,-0.6569405661931541,0.06296508878856086,0.5308714707602983,-0.7023189955751207,0.4520099312870639,-6.751876571518726,7.65718065332126,-0.2435381652608214,0.27425244422373607,-0.04443013929417016,-0.2742998725553898,0.47297988708496885,-0.44605289282683386
2.4006665219220937,-6.5194347011414795,6.802714447116958,-0.17077750353828483,-0.0020120470521292496,0.07146257015313072,-0.5500032974288057,0.12330560219592428,0.09673947435530733,0.27035301274555334,6.756927786084167,7.22830242488021,-0.25996182926177747,0.11563764985794484,-0.08634832426400534,0.2049965333325982,0.5126921433439217,0.5438225262123964,1.9927527858246445,-7.75493793397904,6.421297382080589,-0.4751956775989148,-0.889522074832882,-0.6643656586258149,0.4473920567951999,0.2741360776676435,-0.38826079033371425,1.5996659432374676,-7.5888879352926155,7.046879567901056,-0.4637768650354574,0.054370352044623614,-0.6767299670987142,0.0566593638810485,0.5355514357680053,-0.7017028690317741,0.5200366295436666,-6.810629846889164,6.9362740955320055,-0.16476383868407427,0.17261423784551377,0.019220663674825285,-0.2728641892156764,0.4717445608049211,-0.44850408219730126
1.6305515604352625,-6.346939438230048,6.897988039382873,-0.005504358195977311,-0.0013392037366894852,0.058037765292971215,-0.5602493637430537,0.1172057824867669,0.09922483561673542,-0.49371266784493634,7.254968759212857,7.751838050027935,-0.04494529644870304,-0.004136316939609094,-0.034636845184186506,0.21061986647575276,0.5122287373612019,0.544761847380197,2.1535957861965374,-7.981868302932592,6.304760740718437,-0.19250751928350135,-0.8121175492934265,-0.592156488991678,0.4324725194532107,0.278956638822052,-0.392389414154989,1.325547685667577,-6.715502341971195,7.615289488622394,-0.15971678745783574,-0.0980097502801555,-0.606068313608433,0.04992876918192649,0.5380237865663082,-0.6966918933257582,-0.3054888082059222,-6.176140281918693,6.990951422834391,-0.003848076382413412,0.09945839805290851,0.0510027607282617,-0.26724960487479704,0.47168860495921483,-0.44854328197387433
1.6897763913542365,-6.610382612754605,6.751541629836437,0.14979121493387093,0.016294233303273977,0.027024200463535653,-0.5443941636547172,0.11597830526652546,0.096461850486011,-0.37533586585748724,6.64732887693462,7.808404184208329,0.1925899750912704,-0.16469776382451273,0.042762971079531725,0.20644060502538966,0.5126547272978343,0.5411254763453057,2.2006290000798474,-8.01836842284531,5.591964746357382,0.13937847039366238,-0.6653307050349698,-0.455314724860061,0.4097605630690173,0.28259025784711905,-0.3930428228962597,1.3044502923245411,-6.426891024077018,7.9488203289333255,0.17604529790174445,-0.4421037775297134,-0.4470754336604101,0.031143018631782038,0.5337483957897954,-0.6941687524307906,-0.23933994899792688,-6.248791445211875,6.608780019070808,0.14586039229215342,-0.02644399457531791,0.06118097622038789,-0.2709032920604703,0.47099294349170373,-0.4463207829138368
1.7440136872797098,-6.742886357774928,7.026503583235961,0.2564854602929711,0.03129843106295677,-0.023459643247501705,-0.5517189527135339,0.12013358372946517,0.09576872269168463,-0.19074665951532133,7.122463903305303,7.214819341041238,0.3576397034902122,-0.2384046764408314,0.05817432903416768,0.20978053944131422,0.5095720755498147,0.5304019309755246,2.4310443995064697,-7.137352740637784,5.927449820832356,0.2935961237362448,-0.5581891896015458,-0.35727968122189835,0.393343175839975,0.2799961038347078,-0.40464388545671376,1.594742000854166,-6.757516151697667,7.427054684166653,0.3117370034211003,-0.8012418527249267,-0.34019396621480524,0.01610688364975772,0.5284953303012893,-0.7000192100005718,-0.17173824495253875,-6.302883659721057,7.51545749700861,0.25935451727983044,-0.14344643242436833,0.03650091966330827,-0.2709687722782943,0.46904061414833054,-0.45291265635589245
2.282821170475377,-5.88914659384548,7.3420082594026415,0.35991577640793104,0.03567268861438766,-0.030702232096333288,-0.5522294903707374,0.11403451998710563,0.09185845738518526,0.1997916564695976,7.477060822546074,6.106071785018399,0.4098438413203661,-0.21942667234686797,0.11627190102319145,0.21312722855327051,0.5089509640555859,0.5211058553788198,2.67084072590477,-6.468630630118091,6.554295527277704,0.3301721942933808,-0.47569508987345754,-0.36656655877313365,0.37816081737193896,0.2781697788676723,-0.41333045551991127,2.1199981036276854,-7.322576225238142,6.8373695790210265,0.34802695709647197,-0.9459396004023525,-0.35299527217628335,-0.001603846372176091,0.5247252146084859,-0.7058162608674392,0.6649289683774584,-6.593561561741876,8.112485193884886,0.3772655211412489,-0.0344119704665267,0.08673552658877894,-0.273020442630368,0.46393392612904355,-0.4597349448458416
2.7944247098852353,-5.920314322984202,8.367935221602993,0.13144668025995157,0.005507256506743857,0.017918798045822755,-0.5529873391569312,0.12087564000738005,0.08576535759234863,0.515617796052212,7.739491882108395,5.640933323208005,0.21926900677714734,-0.18921590491304877,0.0023261964447191907,0.2188035787693504,0.505648858455352,0.5281929321266273,2.7562996807780418,-5.834611674544231,6.489540038375218,0.18401102232461872,-0.5041218712887714,-0.4536858156173235,0.3664682631326445,0.2752822215529946,-0.40883800918015295,2.349925730293644,-7.190017991491484,6.691510493747855,0.22097044547794062,-0.9336705615335472,-0.44274547553296517,-0.0187890158418449,0.5184625922248332,-0.6950263500625004,0.6775288181032278,-6.410025211873602,8.63945305184011,0.1290365600039648,-0.021086340805235495,0.19153306187389335,-0.26879114602832155,0.46486765003534075,-0.4497541439802433
1.5619658956921862,-6.40627013911517,6.987781993156112,0.06669919547627588,0.0010632547957196937,0.09572019336094612,-0.5431804226446142,0.11744412317982099,0.0947483868577259,-0.0915764777999894,8.26749395425105,5.269994612000668,0.07300319837104834,-0.05486155848840295,-0.024841557053069546,0.21312366422249998,0.5037990756476494,0.5194734206549448,2.927509429535222,-5.123059056365011,6.79661925350838,-0.06865689604687832,-0.47534989455909626,-0.5724764474612595,0.3459251542826191,0.28203342399459824,-0.4144245416796999,2.3086981092770085,-6.614709352826182,6.195283552044378,-0.034511655231647176,-0.9281360764756219,-0.5743753917418563,-0.04211751729466456,0.5174196325467396,-0.7019366705381124,0.007871376981362983,-6.584113313813754,8.187957603345897,0.11752368156450563,0.0722087139712262,0.152177590242934,-0.2693411919759702,0.46462926890980477,-0.45829553314679367
1.4867844322603903,-6.2160621845213395,7.135601752821337,-0.039185485295498756,-0.08969018504294173,0.13180669778171034,-0.5434465863545439,0.13038915948960111,0.08841359776747278,-0.0986602398202418,9.333700543350322,5.043950239396653,-0.049618193269627894,0.15594359445282352,0.27481784633606154,0.216171784589458,0.512874319215856,0.5053965057796513,3.638416438261975,-4.904643257141195,7.742239697480274,-0.24139478290639718,-0.09830957967294157,-0.6976503626467221,0.3380778147208343,0.2980950562294804,-0.41823573752266574,3.1254237507451568,-6.38768037072745,5.548976251624016,-0.2230283240770195,-0.9008229181352938,-0.6962049498298687,-0.05805087416719989,0.5287407486549673,-0.6960002074634811,0.24213299715522218,-6.263201704497883,7.943053243211545,-0.03926751247773277,0.3989070010599089,0.12263081974039362,-0.2570606549625328,0.47402940312411046,-0.46131051580257
2.874142068701483,-6.436130812377935,7.444408397110122,-0.0643799829224558,-0.1689989905135329,0.19634333248753605,-0.543446431965531,0.13063315933636752,0.08841382347083858,0.7761814637292063,7.333169473994383,6.726487590237131,-0.06684649538140473,0.22641407599267424,0.30438888015104515,0.21882758211935213,0.4991031397278452,0.4985000890296864,3.4311995907989723,-6.743942384996163,6.813272662339386,-0.3297335224108132,-0.08624812183928439,-0.7681758328096202,0.32884649632965074,0.29280649962975325,-0.4105536765458134,3.7673035391289593,-6.644116232019216,5.454350738695871,-0.32449095184670196,-0.6141039376391506,-0.7754909624255538,-0.07390897000997139,0.5163813057974496,-0.6906239950892135,1.1571733693610509,-6.995715651873899,8.371263272547647,-0.1029445616736432,0.6191009769227147,0.15419226423255414,-0.24253318163270948,0.4626530835547228,-0.4626329505671011
2.5934395382061863,-7.0726353944327816,7.5187797918242385,-0.06182800692199252,-0.2673413892465591,0.25442055431268484,-0.5492812993853843,0.12965585741020585,0.09381188054147568,0.20734948494352054,6.709040718918298,8.912615694759586,0.054381009438237975,0.10794061336559126,0.1528444021079549,0.21418075502764117,0.499812257470204,0.4975495134108042,3.7399491113324594,-8.406803268378546,6.239915850236229,-0.1418932371074576,-0.2474722514437827,-0.6575602367825415,0.3069115513422427,0.3031454810074965,-0.40176917778549354,3.989564612562699,-5.6989029042551556,6.2715193502487585,-0.12486901550014484,-0.3938243853592524,-0.6738482946987636,-0.0908050312090618,0.5213527852947641,-0.6815154377081365,0.6898730816841498,-7.409793259253644,8.260074629365212,-0.12162369228344479,0.8191335956466859,0.1809557184956411,-0.23978803249487166,0.46628784717621286,-0.4592347146090015
2.4918422788206205,-6.676559582372372,7.8590141951038435,0.0017525106123565171,-0.2547304517945521,0.2585722902924769,-0.538782234319959,0.12598558345331673,0.0944912801538865,-0.007614350689570143,6.116225481046983,10.08555405746859,0.45509180374188984,-0.33833693712140944,-0.01167305749393349,0.21517393000102988,0.48982521024103387,0.4661921798488676,3.985310761903576,-9.89238472439104,5.469683512970504,0.3556815768313675,-0.41772082466976473,-0.23735573852334743,0.29192807681481125,0.2943677335031232,-0.4201409864562608,4.235969998965821,-4.677114863692597,6.399363008522667,0.34048892078950893,-0.3633258300769803,-0.24272020399725436,-0.10084834778288465,0.5119317467616287,-0.6933278224866286,-0.4876420258212837,-6.278454486792796,8.963356149514327,-0.04037962874039705,0.8755303327015793,0.20402204489527415,-0.22577609920244326,0.46199826010142087,-0.4744692728282711
2.7059340980254065,-6.790809588975067,7.469257842910747,-0.038759335372409345,-0.005760385772476364,0.2431388700665555,-0.5380634763569999,0.12379061696654625,0.09179977442053992,0.9005382910834148,6.743789431448759,7.316581505237373,0.5766074116170413,-0.5853664278471353,-0.06051465891650089,0.22413199609849288,0.4754864325410602,0.45315035797214254,4.0138366393093365,-6.50342291916364,6.003521117532111,0.659710392851501,-0.518384490696973,0.0506545299608829,0.2823893695793936,0.2869838541295013,-0.42439737866948446,4.021823793245322,-5.60090273785402,6.8423134872929605,0.6432670400288452,-0.4300394280682003,0.04246351998249218,-0.10481954402131968,0.5041482907002796,-0.6940125714748612,-1.390122831224049,-6.467548879269657,9.131435773093104,-0.08504905774655312,0.7038062654663747,0.18714551493610063,-0.20936698852230937,0.46451979370149876,-0.4709215146641913
2.594497207389365,-7.4039731471844865,7.852694204528077,0.3560686510744323,0.3576808237680639,0.14172904165213757,-0.5207689388872573,0.13184533008285337,0.08244744292932035,1.3513549017228488,7.721993747379286,5.246293163581201,0.48600245715391205,-0.4470544661933374,0.04576774831636433,0.22771333395949656,0.45769866158938716,0.43873753535836707,4.246480769582674,-4.920496610963864,6.820250458969279,0.5434298606230579,-0.5188489394466587,0.01173659099915367,0.2657421656479752,0.27610359896648723,-0.434677574088516,4.135171241629847,-6.844861003600045,7.445969124656566,0.5346514824211323,-0.5306822264972187,0.004458903434741365,-0.11723937256953132,0.49057860676730797,-0.7006666578728787,-1.7785313616703016,-6.612691489436484,9.200138195092206,0.3036345275100597,0.3601137453484421,0.23955058313613053,-0.2029120227005867,0.4561551823880651,-0.4785354885816387
2.4689423728925917,-6.937714944807358,8.444614280260886,0.4971146923695438,0.6619516925614928,0.08343429658305193,-0.5191294875122523,0.12160249787172522,0.06924594148123993,1.2425466405862453,8.353648169081302,4.559208742408868,0.46878284227198275,-0.10304834816589378,0.15412189570817672,0.23912803529861928,0.45564525029202785,0.43062124702055476,4.074567761753297,-4.334949042123928,7.191800228020073,0.42323148996193866,-0.4627712366579795,-0.2091941009867195,0.2539993926301969,0.28215550320948235,-0.438104822385117,4.058204782291103,-7.377568264020963,7.224080097069131,0.42553151338004613,-0.6277525339165341,-0.21925287325793083,-0.12424784334982907,0.4945247460668822,-0.6980867505198777,-1.6370415742641802,-6.720100709582155,9.476834887341083,0.4509180911315967,0.03689413599956437,0.22589697389536378,-0.19043831283818055,0.45676286540506517,-0.476425459999045
2.511975093384698,-6.381698410691508,8.616056548181739,0.14974868620870707,0.902419286062748,0.12921796577398312,-0.5087101843779652,0.11550640614491178,0.05356527718236173,1.0964678348926504,8.363029412558694,5.2542727698178195,0.10116000526055317,0.17378778517465016,0.19664573456033696,0.23102373168135024,0.4320182880765669,0.4190716845462313,4.078376551954712,-4.923181359389107,7.417204056576818,-0.05425446802791347,-0.4807854503411087,-0.4274567498043578,0.22126403248414453,0.2776786917480586,-0.4425143416613094,4.4163221027260215,-6.6387637719876444,6.193297768612777,-0.048974429640620556,-0.5251171979370659,-0.4316130174833704,-0.14938983825922547,0.4856504207185319,-0.6942428119684031,-1.328342626517461,-6.313449087374271,9.427795134264993,0.11979998071639698,-0.2605226718739103,0.16233899156096107,-0.2040582811853483,0.4407848849739856,-0.48097088380394887
1.996298512832503,-6.874043027937435,8.391841737375321,-0.11633246343882261,1.1004305842787143,0.15212229124051005,-0.4917012907103828,0.10940762546746363,0.03736509544099666,0.7225959380689054,8.32364321605161,6.861898277865051,-0.11723892703030289,0.28101456815477716,0.2302215627250572,0.23561191519888858,0.40498176502863376,0.4064981097368156,4.399286687240772,-6.566466118734781,7.694949655179057,-0.27473758819445027,-0.561968768212534,-0.5071283571373069,0.20368857359666218,0.2737550354392244,-0.44261740506200853,4.828546157908779,-6.619295262996648,6.015489617395373,-0.2687699990749792,-0.23457808932048618,-0.5030976319910337,-0.16010805076902454,0.47985348340359535,-0.6906488437769074,-0.8283019731823043,-6.396677396859733,8.790523707709289,-0.1579499858821056,-0.5462289124796827,0.10787570085568729,-0.20416580995165054,0.4276012422367416,-0.4775531971973194
1.2108308043587848,-7.122322479670261,8.35972773808696,-0.09102857575482788,1.0699320027343964,0.1202866169605398,-0.4766560596102831,0.11014778734262237,0.018250615313534245,0.10893670583595746,8.609858699470463,8.012046532387302,-0.07665460947057737,0.22776747251519797,0.19743685631855015,0.2433305082210184,0.39035946804483895,0.3910288055612415,4.607718086250684,-7.47197369431389,6.897255032418809,-0.20237959983413012,-0.6114113837083524,-0.41883417563376474,0.1829011859335967,0.2868670950714087,-0.4470571600493333,4.613075396599286,-5.746935928479005,6.723340497365612,-0.19177366732595985,-0.030309379038297484,-0.42180160417388757,-0.1632659920747626,0.48671560683808396,-0.6922811800410865,-0.1796938209879188,-6.859717018502114,7.973267730790634,-0.13618884197554645,-0.6085596189517167,0.0932200104736152,-0.2026422752769066,0.4329573123806408,-0.4768303488671109
1.0578457417107914,-7.13360114642561,7.656451441849976,0.09813980767607539,0.8579717364372293,0.09589609487976235,-0.45861169135200214,0.11160596628747779,0.013282628666579298,0.344956509187083,8.68783929601734,7.738263017797235,0.07815501264298155,0.08786056138846762,0.14008998988249913,0.25596602833003457,0.3552338846283619,0.3753377639697232,5.345643288993513,-7.507840505241494,6.416116553255231,-0.018723369119911473,-0.5523440841065094,-0.24136070979001728,0.17899576694277497,0.2834401952058468,-0.4474834977295131,5.022721994064909,-5.758125871353695,7.110813849368432,-0.023756693425547287,-0.11358569066442108,-0.24122218620966648,-0.1565810912935792,0.4798125889498543,-0.6846082959952721,0.32397661467826955,-7.081268535669917,7.230852365747266,0.08983176678036874,-0.4421779492196375,0.10006886576269917,-0.1881040984898271,0.41865163843597614,-0.4722949705260497
0.7068705423297544,-6.759809773451721,7.773139938192741,0.3194161438838719,0.5606324514183892,0.08409896061168064,-0.43775112603309785,0.09721325264772562,-0.013197789186238191,0.40514542040052337,9.17370128503544,6.922643078577185,0.24695073608543056,0.013840505912153342,0.1427240872276283,0.2448453476040323,0.3189401109436361,0.349838428725207,5.079640396376493,-6.958037966663306,7.237466396771596,0.1793938128732911,-0.4547175766043056,-0.16551094303365596,0.15481961161341978,0.28193721028641255,-0.44880103324054976,4.868932456267477,-7.13952805386239,7.558882407179918,0.1579946123562482,-0.22319887372665703,-0.1634310449686677,-0.1710022261911127,0.4769791876771681,-0.6843576538298614,0.4851380324326551,-6.492794640316425,6.9574198885780705,0.32801753957649826,-0.15677952259646072,0.10222104222520054,-0.19212100523325568,0.4094142577324637,-0.47495279820160985
0.9272091046109897,-6.428197759292892,7.930733982389733,0.23550212551579608,0.19727571054374154,0.06637878808779298,-0.41192166053836915,0.0913458320229585,-0.022847854961593302,0.6325137600146377,7.997983811391571,6.805880320650703,0.12445037316073472,-0.003533260030635083,-0.00831902354304866,0.24009817840997758,0.28564916005247387,0.3283963728674949,4.387372342528543,-6.855437539654404,6.594177792370613,0.02686979179917484,-0.557936879548583,-0.20142042246569497,0.12895117402042208,0.28511787657047777,-0.4462588498312349,4.328607280635005,-7.454029768012017,7.814987059132367,0.029987132910226803,-0.23578371478027946,-0.20590961047565565,-0.1807231916470508,0.4743486252281051,-0.6807722601546792,0.3511558497072599,-6.3066903558092,7.0832034443800636,0.2331386424611963,0.174878862843573,0.08087970971071322,-0.1858199445809803,0.40349113951265336,-0.4732882591631678
1.1068281339138288,-6.708535922320925,7.7105583423239565,0.2481666652127078,0.0033257415489928,0.047821020005360614,-0.39538636574324465,0.08744163901329435,-0.03611470070508551,0.8009878778079395,7.491938712731814,6.825859961318288,0.2235037581955702,-0.03857155235146498,-0.15369551028138162,0.2353168823508151,0.24322798426204728,0.30049671941888806,4.8987789779200215,-6.807308155599132,5.85922928510631,0.15676952002476577,-0.6600846941234696,-0.1933381142871992,0.1071915787095199,0.27304425925826636,-0.4538111958842195,4.592761450354265,-6.232784342807846,7.254853067044925,0.1782130898471907,-0.3579514859699906,-0.19014875105556917,-0.1888852567375012,0.46122284498149235,-0.6816405345219624,0.011678360792135092,-6.3228291555083,7.493368839378415,0.24896564873015034,0.3154893579832465,0.06707012564245231,-0.1787120807683709,0.38657458418553015,-0.48017551731759894
1.3376000055430304,-6.3673425041787075,7.754641043899357,0.38791358660892467,-0.04917484660049846,0.026341829302797437,-0.37367760020495083,0.083525387331861,-0.039884182442812395,0.902886378158284,7.04567982520114,7.047074723149944,0.25821167209971835,-0.10539157360324468,-0.26394922514548025,0.22787794022202373,0.20550963189618793,0.2771872986665535,4.653738608936823,-6.809155257646143,6.054869544410487,0.13076631172756226,-0.7849539564468917,-0.14155050366403293,0.08059818192173855,0.2657212431425473,-0.4516282647683708,4.582492674109971,-6.453896353565476,6.735367640779507,0.12836495631771822,-0.3886594243566255,-0.13647628835195816,-0.2023088207366772,0.4549577928106199,-0.678976521598519,-0.1988318137000548,-6.2179689845823924,7.948076562573938,0.39571288714156677,0.32416329968431323,0.06920952836036202,-0.17306960022672335,0.36893957966588653,-0.4860765845032253
1.4230316609336189,-6.256343541661533,7.637941169810588,0.4638055312124892,0.033423470922652763,0.0173844917723601,-0.36913218165946154,0.07963414750348012,-0.05895275419961537,1.023154273635698,7.251966657029632,6.550156677788743,0.3574320148160818,-0.1946454358823238,-0.3106992143274528,0.22801125512493864,0.17246771031338318,0.25545954999688125,5.309504835696857,-6.965559087575325,6.250709635753887,0.12463717766692316,-0.9713591612277342,-0.11987041721866182,0.055683193186748796,0.2673827032075147,-0.4537115268229024,4.970315088471294,-6.973699211964675,7.2086787816371665,0.11575830903418206,-0.3346554384989588,-0.11256676312134255,-0.211107226220151,0.4520853272628253,-0.6783388950423661,-0.5526029851144916,-6.101338826377096,8.420304804748277,0.4671971483228653,0.23313618464895378,0.08053886976678734,-0.16292269339223375,0.35833893683938706,-0.48639234763782824
1.245794697573217,-5.946909272711192,7.913689081046469,0.4277889627017346,0.19270191474060155,0.00813641388327104,-0.34259482885595255,0.06888834870787973,-0.07300578431509469,0.8674531676360496,8.5425807929101,5.958018079913207,0.3853605363570449,-0.22300887918890203,-0.19557643144182893,0.22931307485651836,0.14398275607298722,0.22803800969898738,6.070547988223998,-6.116544000269082,6.098531866158844,0.3069263530982389,-0.9836417899104175,-0.14740770870156406,0.036856136493051535,0.26534699082517443,-0.4592027814471842,5.266533911185091,-6.884371705107168,7.5116802221002,0.3129951665695711,-0.43949092741168844,-0.1338700119814012,-0.21674353118112313,0.4528602556894014,-0.6796996276834847,-0.8193290503021051,-5.745908797247424,8.692844323028494,0.4214864480379707,0.1124229565395357,0.06773914723588349,-0.15376637000060628,0.3528765829086933,-0.49597797450745806
0.8284578454467519,-6.231400885505417,8.252603622764457,0.36036201156491815,0.2905399460880798,-0.011653615663023554,-0.3226519409248996,0.06889049743483876,-0.08897033060844227,0.7440782570258855,8.926650756351988,5.486028533112985,0.35263222710256353,-0.1445821526359594,-0.045176386938733826,0.23116995698845422,0.10925688429314846,0.2077861626998049,6.126835691888216,-5.4654259199318656,6.00918448124923,0.2662549556416564,-0.8409864830759477,-0.21694359347260833,0.010485375643852884,0.2655597209756213,-0.45979588103196123,5.2234847908286,-6.418636760916039,7.062520775639571,0.28291443200274047,-0.6620890544577112,-0.20026904523131064,-0.2324327336922202,0.44173282014517073,-0.6789625844182842,-0.7586504188920009,-5.58386960912431,8.58675325743106,0.35826193783638455,0.03224763915500905,0.03438571099522082,-0.1497273549300908,0.34282686221272185,-0.4977160867573179
0.4640086093581992,-6.376891094139881,8.206895711797424,0.4308975604888792,0.26245207125816306,-0.054651464848005,-0.3061165737409686,0.06352030471752095,-0.10223853720434077,0.6325176629388336,9.206834809477972,4.8474056042552425,0.4428868078045473,0.04112345818192814,0.052532566336103745,0.22109804213383819,0.06624239020554562,0.1899479015584003,6.339536570532101,-4.69335895323347,5.941842722501356,0.3350892871622691,-0.6643183769638199,-0.2879315169727666,-0.01706110302494538,0.24507892845158336,-0.45525418987813376,5.543487205557466,-5.478111689151082,5.726184905026116,0.35442198512653805,-0.7670682056193201,-0.266254457896803,-0.2507363674487219,0.42670264839010036,-0.6728182044397238,-0.9084172022736181,-5.826604230207155,8.1347226005622,0.4311308018955406,0.05953143704434825,-0.0022014848041558765,-0.1477487674505603,0.3210770684729636,-0.4979757978733988
0.6409819203672166,-6.004467994740062,8.076255565946548,0.5849405144312201,0.18000546169612872,-0.10860918950762476,-0.28863748842607373,0.05327416559418291,-0.12161885380701339,0.7415483620838484,9.11480477556138,4.550333357833164,0.668530073481213,0.25796359259578183,0.163158875775367,0.22116214113506022,0.03453795994171423,0.15965355104607057,6.467150483185996,-4.71842126475063,6.316608945205031,0.6185227018610808,-0.48183346543584715,-0.3753123301459078,-0.03518427077347718,0.24078024769334727,-0.4663367899113997,6.0230439408904015,-5.8647235424133655,4.647694502706783,0.6551638663399486,-0.663559577489315,-0.3301771860602907,-0.26163880898409847,0.4150696159058469,-0.6772954684243467,-0.5403152061656498,-5.4079635962585,7.832745049662475,0.583783275419854,0.1080170228168006,-0.02970456274483337,-0.1384623167907363,0.30511492192195555,-0.5090292826463922
0.6076505206434908,-5.473122926091814,8.065828923263242,0.6379487093117904,0.06548414734414149,-0.14028230829306781,-0.27528818195225696,0.03985133083050972,-0.1363433162955132,0.6249161361484636,9.010274717943764,4.428873519257547,0.7851009171801994,0.44013991682487075,0.2302505072854468,0.21935274324936546,0.007147938356131592,0.14054205608014597,6.086944573514435,-4.413509082246732,6.307769606455422,0.6973757895886639,-0.3939268151768622,-0.4716557878328238,-0.05229561635697481,0.2314225291376941,-0.471749183998613,5.839007928831046,-5.465513809560711,4.06039670890793,0.7382160857218686,-0.34198602568110437,-0.42808077605672273,-0.2678937817871666,0.39973784844648663,-0.679914780319669,-0.496444731078992,-5.286184779156829,7.891566832591838,0.6408259930789643,0.19977251852282438,-0.05346635711741534,-0.12932860265800453,0.29379241281906726,-0.5134881367319781
0.5553152016755685,-5.465581244657212,8.163598328501614,0.6295995591859274,-0.03747381961569563,-0.13575788029906827,-0.25747943559102204,0.03398194918704058,-0.13838694179068384,0.4224638289025144,9.16696296857251,4.69229681736858,0.7369882660355637,0.575327364908744,0.2869761308995126,0.21005291786226996,-0.01937184516840365,0.13173128048538008,6.2970869626936805,-4.382306135728674,6.1972627784282395,0.6042444941493484,-0.3028717659919615,-0.534913161543169,-0.07594969985462062,0.22534515324807852,-0.46764366951407893,5.917236610929271,-4.778221927709293,4.363290174638557,0.6449106105656964,-0.01451548487269832,-0.4877528858445547,-0.2821007036582883,0.3885987159709909,-0.6782272307230046,-0.7095242919731574,-5.503427577134386,8.207574080834709,0.6457615648523759,0.31458593317802536,-0.047730679608839824,-0.12654821198409538,0.2791159841047101,-0.5139978355575904
0.490447930629263,-5.245833242569895,8.440545715627106,0.6363327531454124,-0.10710354643288451,-0.13097663742010865,-0.2414696270454957,0.02617886213011409,-0.15897898005107994,0.21393779910090388,8.961857563690598,4.880659808588738,0.6683553336915383,0.6570765581310944,0.3280953600916464,0.21042640154292896,-0.04384647795191212,0.11133819229225213,5.955449629730936,-4.17154064505447,5.650155125565509,0.4867001573800586,-0.18266720034847628,-0.524643890394309,-0.0813186823780545,0.2175174985164101,-0.46849886660531054,5.416310586693443,-4.032884678270006,5.003686221683327,0.5196774795988806,0.1756551196177642,-0.48026530499487896,-0.27547830308709353,0.3746567134696094,-0.6849803628056841,-0.9776691758607785,-5.028823384371685,8.416753330634872,0.663396861030655,0.40852473893504254,-0.04144945889549283,-0.10625006261436959,0.26426511547439646,-0.5229300417290503
0.8613756183162165,-4.643615904135312,8.410641608267467,0.5324647343514806,-0.13339878909999803,-0.1375194624904469,-0.22322812943733983,0.031064401629054297,-0.1741988502153073,0.35262417485230213,8.675107877388138,4.892256125089325,0.4700791895646579,0.7071931697877104,0.3223811978401426,0.20029571368431315,-0.06443160475902461,0.09121284564066888,6.069874740096449,-4.591364437305066,5.75254064813178,0.22520728965916614,-0.10331529171778563,-0.5062518999427472,-0.10064146771190155,0.2196223823279892,-0.4747677594965488,5.4687587460665865,-4.675659165357665,5.688195978459347,0.2608427220283234,0.252980399776327,-0.48144879254897355,-0.2802688344919029,0.37226817378377985,-0.6924706228831949,-1.037605886190913,-4.529192312970252,8.591892481809184,0.5717022939201559,0.43201493113918227,-0.05389262198333979,-0.09783007356596914,0.2590541291395043,-0.533487530248693
1.2832767419940077,-4.774477344190069,8.247836871492972,0.41363829659091567,-0.045024580339571546,-0.11045694717676713,-0.21793020447008354,0.017157497280745344,-0.18766524852696834,0.6547295627384441,8.791139082431114,5.113144730910084,0.47228374469466977,0.6591539916777477,0.41992166713980317,0.19071254122473427,-0.10033692758151302,0.0752181117690829,7.251223242604844,-5.460317945109633,5.7594001089204605,0.3921584837938716,-0.02297999743922797,-0.48217573872104436,-0.11945801036107553,0.20758029425056335,-0.47989506370708035,6.5110424471858455,-4.589307205494827,5.988166433121111,0.4467114974350007,0.290096807327777,-0.4349502325250672,-0.2868045324330973,0.3591446129247987,-0.6980088678039335,-1.147254919521905,-4.683512392416117,8.715358492210429,0.4370734503694815,0.3145160459036119,-0.06921241178627952,-0.09538882256142227,0.23876489943801535,-0.5396094868520196
0.970394639016459,-4.649151764778632,8.47969600466985,0.576600827755989,0.07649460509366912,-0.13339966761080013,-0.1965047169057808,0.011783650217552614,-0.19924682110470252,0.3791593389286855,8.740093797370186,5.383184825846906,0.6294130275812293,0.5853093171089311,0.5467933963011143,0.18036802600661692,-0.11621124792556824,0.05990791198212862,6.588424309043651,-5.133008937415965,6.056818652151599,0.6134091171245384,0.06185913941676647,-0.42843092272630284,-0.1309773755810335,0.2074717819123905,-0.48813367257033435,5.933505712442791,-4.608898808285771,6.165060506929172,0.646673863670582,0.31723757553190346,-0.3572519846956785,-0.28919951906261127,0.3533254071694624,-0.7067734675336136,-1.2861251885241456,-4.3866616062986585,8.595432820422891,0.5880795698697693,0.13996299423709693,-0.04121805452679233,-0.08790802949454055,0.23478426999920768,-0.5464982226113149
0.7525648493689947,-4.52035857096955,8.519389574206965,0.5330437612837289,0.1187945726109429,-0.13489215726527043,-0.18533104982334417,0.011787695663287025,-0.211263387900807,0.1982940546365518,8.63480759986077,5.48304687409815,0.5538658478434499,0.4848839693440401,0.564541654609139,0.17621512390436103,-0.1593418650558205,0.04983946328867698,6.430794169237961,-5.535003846232586,6.00629576736307,0.5668656186232333,0.0405897869106798,-0.36853022575013367,-0.13999061470092272,0.18182216300472928,-0.48851337437365977,5.658280022540877,-4.822428227729654,6.846795025020323,0.5971268486604557,0.38817601427151055,-0.2995776290965621,-0.28244967434008733,0.32082682532874124,-0.7130945183611076,-1.3409706266209858,-4.319578577313688,8.531276956628789,0.547803129972832,0.03528237290785283,-0.0521432712913151,-0.07871351733775242,0.20515024996074746,-0.5512041006971575
0.7854347733610607,-4.157818870446729,8.628284142480956,0.4766406234448026,0.1339753658127052,-0.1447244884582485,-0.1810385447511599,0.0027695196758507016,-0.23131251990358703,0.291227144463046,9.726550039542357,5.9603387902065155,0.46505854531504337,0.32553717991488273,0.6318199820649242,0.1596510921597989,-0.1815968234834135,0.04956781691700127,7.512599286954654,-5.552290671381318,5.994447369823878,0.5070040385004654,0.10684517075257094,-0.2911492590065663,-0.15389402375144054,0.17547723080606106,-0.48714222406523894,6.431197143668216,-4.656509545103507,7.959787527494546,0.5266430114416081,0.24590707599069628,-0.22667630160963037,-0.2901759715019708,0.3145104723967221,-0.7058932083549737,-1.214789267554399,-3.927504675595724,8.592703734704482,0.5045392582285095,-0.02406130485435621,-0.058486576450764965,-0.08069165181647493,0.19784448128350812,-0.5443547607275869
0.49581763027125164,-4.049591221471116,8.544687422451348,0.2174902818965025,0.1218164738232971,-0.13190346697050026,-0.16349722882489828,-0.0013849517292665095,-0.23848033595306437,0.15979712664070359,9.630206908429638,5.935815691062722,0.17053794442043924,0.1189121649096886,0.759230543353165,0.15246661982046186,-0.20728861543926505,0.03047180557163013,7.177624631329067,-5.553643631826926,6.073536338640979,0.28164627244620355,0.25965581152766265,-0.17353311743603828,-0.15783641706782872,0.17514862766266348,-0.49395374540140513,6.190315777069354,-4.431237719303975,7.45530344798419,0.2951358490939718,0.008764094452754343,-0.13613731227332038,-0.2881487360435394,0.31281270481638107,-0.7147250775025109,-1.250069973184048,-3.732500758289141,8.499111709620285,0.24551477764916754,-0.027558307109374767,-0.10367279947095676,-0.07250227292965557,0.19288077558411157,-0.5532015762098887
0.28609121627216544,-4.094955703730037,8.619450037537124,0.04969019919920787,0.032151004175982587,-0.13018730593271755,-0.15084985850801827,-0.002360638586516433,-0.24855183555462773,0.16359857962835536,8.91808151475408,5.689661729691774,0.032867802181451515,-0.08570325540987654,0.783458204266769,0.14434370784026046,-0.24320123614094627,0.01373372314564484,6.2776429734412025,-5.428958517531006,6.058338978395797,0.2676529963335379,0.31965241281883716,-0.046804620549416406,-0.15493662010622916,0.16261103367996815,-0.5013888634708497,5.589342559448135,-4.0733036350858045,6.721927525151364,0.27013128777070716,-0.04274379689203795,-0.016800395578425924,-0.28732010411614806,0.3006102801032156,-0.7184385424947302,-1.1405369189295433,-3.872904846713695,8.24315963175931,0.08006787305390708,0.052555942512675306,-0.13017653161083909,-0.06264193306544283,0.1805749678263873,-0.5571775764855615
0.3058268319394403,-4.281977668539068,8.518218907072217,0.10049369390283036,-0.12102123983030254,-0.1420765172176621,-0.14846982905396128,-0.000885165448214817,-0.2615010002310064,0.4071387839429226,8.413161620648898,5.473237636097203,0.10092968137768507,-0.27460736225601534,0.702117445683265,0.1242627363335956,-0.26197531787659106,0.0017168906040869332,5.940447608661111,-5.47021829309605,5.958135099123872,0.39312842002105086,0.3088236676617497,0.0793776881541493,-0.16693627780134954,0.16520823402651566,-0.5079479235833834,5.325066852564711,-4.158008335779576,6.758728388764127,0.3883582298480794,-0.0383907959974688,0.11682361952082776,-0.29615901315768745,0.3001891055642562,-0.7209674869312739,-1.0540044726993913,-4.05497884614985,8.105288366381972,0.1320330929556279,0.18413465204226745,-0.1330219059435085,-0.06068034141674316,0.1834846148873519,-0.560121088364996
0.5632685603361973,-3.8363286210775187,8.45480174669189,0.23357509778604724,-0.258585073675176,-0.14473455396912738,-0.1404502439908264,-0.008207879147163763,-0.26838222399559714,0.6929580349247312,8.112545733740188,5.0934344529887845,0.22833021988840183,-0.4495455623714566,0.5962458081520112,0.1174250123639569,-0.2830611559458821,-0.00328745918691135,5.624474898992592,-5.064640278272293,5.906944626012608,0.5196695895339761,0.26769596018988184,0.17520395115865967,-0.16475679405770682,0.15709852765008733,-0.5125025796735088,5.164953075867841,-4.221555358688607,6.3142735537108186,0.5010896968972481,-0.006714758531585277,0.2273860396028886,-0.2903499873406479,0.2935587407235929,-0.7213354028682248,-0.9533747193241674,-4.090079396575208,8.389061757032817,0.26319003255782436,0.33731970289196933,-0.10585248531368958,-0.04610566185251025,0.176503034594609,-0.5609554583164659
1.0410721228396305,-3.819602035534425,8.563014887747391,0.20602881331714007,-0.31336625522051215,-0.0965441055228329,-0.13562122157876888,-0.010397750485793526,-0.2793934773331648,1.1377091338483085,8.135052346130639,4.956785213517882,0.21205640687321137,-0.6430705924568083,0.5247469353957893,0.10861652898802353,-0.30981940576055883,-0.011854466743302105,5.797521835063747,-4.670113150354005,5.8553729046244944,0.5134548513942363,0.2188385691147253,0.2657189092660558,-0.16403914196097105,0.14556982316096695,-0.5170077368595108,5.294268458456615,-4.037992596763548,6.478022729065576,0.4643186550977495,0.06325738579205303,0.2822286661148588,-0.28685550518787706,0.27987480181306235,-0.7255891939276018,-1.0458809266399853,-4.105744386603281,8.796402082192829,0.23290028352178843,0.43651070736590575,-0.061016315698238635,-0.03183266583324937,0.16537429320031222,-0.5639861367245171
1.082090450998584,-3.9574611311954957,8.965230588591549,0.16746539441710928,-0.30925853341268866,-0.06445651796486458,-0.13175482100401223,-0.00648605067654513,-0.2881974391798477,1.3381713866730414,7.996321030353973,4.3643213342194835,0.14835782734145744,-0.7585452179825629,0.4362893282253286,0.09129804176139825,-0.3348122981115898,-0.015497926240949134,5.2109533754338715,-3.849388641693003,5.397769516962653,0.4188381600939122,0.22121423837288887,0.34417396014842416,-0.16867711715216818,0.1384718421171047,-0.5181195534931387,4.598628492186711,-2.9974846191226985,6.6911235228059,0.36046908710476583,-0.0069123021546217455,0.3455770806343788,-0.29124724011676295,0.27037170586901416,-0.7218757324975317,-1.3819151857181007,-4.224273731407764,8.985739148865052,0.2008564909281333,0.4297888587685907,-0.011947015503008793,-0.027050275041672556,0.15629320811310002,-0.5654853481690618
1.2115145334476622,-4.055767727709691,9.029708267938819,0.14010015394499095,-0.2877275369528991,-0.007882015834031282,-0.13328452779837655,-0.012821343958699882,-0.30089215466119507,1.561177820259657,7.685974278031373,3.9669409848100123,0.09294080701967047,-0.8065388292480902,0.28520596037714985,0.08174091226937123,-0.34273859470774676,-0.021898422092238936,4.976712518527303,-3.415145801176658,5.196112922215612,0.34262764019447217,0.23375096110444782,0.40432188857334234,-0.1713684695201311,0.13576731697651553,-0.5195380781476236,4.45838309008639,-3.016094123681158,6.153465957779788,0.30886316814779824,-0.1178811418154684,0.42847534977754126,-0.28975777417823395,0.27402479084923426,-0.7218917120235617,-1.7249527695102522,-4.218327628038212,9.033374483247853,0.1494055695412106,0.36370995274647955,0.00945192092751779,-0.015571760942765253,0.15569076160056516,-0.5641004953679595
1.3396860115593427,-3.9697066653301776,9.019862153589676,0.19371290849749753,-0.2013283355629249,0.006095976205863789,-0.12986493704677007,-0.012090718426125356,-0.3006638250251909,1.8171989215786593,7.618430689973943,3.4976318110090587,0.15231071500596532,-0.7956299801963984,0.1648998635446689,0.06588459246011215,-0.36626405896915193,-0.025576119658902587,4.9106618644614795,-3.4915833587460177,5.638474766525571,0.37954023263942893,0.2412778327776815,0.41706144032398074,-0.17871429629387167,0.12250252441863933,-0.5256884723143992,4.575977606623641,-3.782889485043349,5.552724512967797,0.35937799617571087,-0.11558291008263612,0.45101278685926416,-0.3037328238064508,0.2623964779440133,-0.7206988499748952,-1.8224838913316923,-4.00234552234573,9.1820217409854,0.19395606761238207,0.20673950066728267,0.048195209245148925,-0.01672192620411229,0.14129658567894707,-0.5684888259627414
1.418307934272255,-4.283038450377926,9.087797239949492,0.29387030832495853,-0.10943299929946579,0.017282477840775128,-0.11747952016233126,-0.014039079659343564,-0.31415201527086695,2.1545059814723664,7.551338334324018,3.0259076419894844,0.27663896914533304,-0.7203072473885938,0.052148007475596336,0.05560073811844699,-0.3724646588020229,-0.030775510737867183,4.796133836292076,-3.1916299506925143,6.03437345038006,0.472153016744367,0.19912394037493075,0.36262314714142907,-0.18146930630604724,0.12479399949816182,-0.5381539978064409,4.722897546785583,-4.112037242862811,4.869950018843102,0.44209069563867864,0.06926094985241774,0.3864737605119526,-0.30098406330519994,0.2643614642858444,-0.7314862017529351,-1.8268027074459896,-4.198902163649755,9.005588484529447,0.2785614259794092,0.04026936722498988,0.08873810215244061,-0.0138111469118729,0.1451749152810994,-0.576809010600653
1.2424792107868075,-4.167235278853218,9.175531491968284,0.45467791450743317,-0.08427328140009732,-0.006989378744297729,-0.1221659482146864,-0.015003875368437149,-0.32414062049631326,2.1840694447511075,7.447397300256238,2.7025719626392357,0.4299288955842654,-0.5557863233580962,-0.14039141096514274,0.06299709123277727,-0.38260260300722754,-0.02384496704344511,4.3515737627476945,-2.443677703693732,5.856562249471101,0.5763573115958434,0.08732737857433973,0.2659161204108279,-0.17311600352662335,0.11488760752760568,-0.5300233348075847,4.402196364963925,-3.518722547764339,4.300025319943854,0.5486716426422954,0.4377093927691889,0.3106715161321251,-0.2843518003960689,0.2581341425050265,-0.7276515811772203,-1.6797151323064123,-3.8818954836262165,8.674356220119693,0.4296173085467005,-0.10917193209949325,0.11666229567753571,0.0007788582868891092,0.13452986825009158,-0.5700756219286893
1.5418536065798056,-3.7553281050556104,8.849761400751111,0.41428589089793616,-0.11309855392321827,0.0025371220664745188,-0.1065778336272078,-0.02135534474027478,-0.3310571330153682,2.3695981373729764,7.8547343619435965,2.453247697536682,0.31062260571314704,-0.3792515414072262,-0.36447609582278195,0.05272393016519922,-0.3934380446035318,-0.028731333392039746,4.830619367779402,-2.0846602445255837,5.708957871899658,0.3619587025193864,-0.02888069564336154,0.1643804537183112,-0.1836660572951586,0.10742452645724328,-0.5408649196741165,4.469625896442171,-3.4477830004768073,5.396256150232924,0.3309156573014735,0.7387497370712455,0.19895757277344225,-0.28196342754868076,0.24741114486270874,-0.7401801521134728,-1.3352585786604894,-3.856686296967591,8.57606945722975,0.3905186353676309,-0.21129845452715262,0.12238548521389372,-0.010132463005063565,0.1238962364482736,-0.5790345965556847
