# sampling frequency: 40
# units are seconds/meters/radians/a.u.
seg1_acc_x,seg1_acc_y,seg1_acc_z,seg1_gyr_x,seg1_gyr_y,seg1_gyr_z,seg1_mag_x,seg1_mag_y,seg1_mag_z,seg2_acc_x,seg2_acc_y,seg2_acc_z,seg2_gyr_x,seg2_gyr_y,seg2_gyr_z,seg2_mag_x,seg2_mag_y,seg2_mag_z,seg3_acc_x,seg3_acc_y,seg3_acc_z,seg3_gyr_x,seg3_gyr_y,seg3_gyr_z,seg3_mag_x,seg3_mag_y,seg3_mag_z,seg4_acc_x,seg4_acc_y,seg4_acc_z,seg4_gyr_x,seg4_gyr_y,seg4_gyr_z,seg4_mag_x,seg4_mag_y,seg4_mag_z,seg5_acc_x,seg5_acc_y,seg5_acc_z,seg5_gyr_x,seg5_gyr_y,seg5_gyr_z,seg5_mag_x,seg5_mag_y,seg5_mag_z
-4.218308920225836,-9.032842858471973,-1.0555564412593066,-0.017548888525467495,-0.04153687734746165,-0.02172144925511745,0.09854509081388332,0.4786028715738963,0.08121750939116518,4.0821383639407065,-1.1084243001580198,8.715287557041115,-0.0472510791665038,-0.12500414082077316,0.013291307658056438,-0.1896292752077536,-0.018292766322581196,-0.3469974287836287,-1.1392064938737654,-9.330916613302616,-0.4367401070282631,0.01868008791192927,0.017271764693261166,0.12403544231784402,0.23496565078980597,0.36102007905567285,-0.05238436145032899,0.054127331767903124,-10.346305786454325,-1.507299277200592,-0.11140026338743085,0.03149044354628964,0.0625032407277333,0.16628964019620915,0.6163617304303933,0.08056005136087153,-4.176252379245332,-8.870395904929333,1.8784703267096297,-0.03853296437790829,0.0817643906964307,-0.023336208095838674,0.18613589920805299,0.6624485901862532,-0.17530157592633044
-4.187560252524559,-8.894439625890177,-1.1096693782569018,-0.024238029938469356,0.002714680934733741,-0.022068640491078206,0.09758941511912454,0.48227622221006217,0.07487297606946001,3.956824416410487,-0.9089692651153688,8.738357286548165,-0.01474097448533922,-0.08661886670884927,0.03517100888938474,-0.1940174355461465,-0.020754714704858887,-0.3474306689105278,-1.1878405687230509,-9.618051252167133,-0.6478795545616398,-0.03837308615245761,-0.02829827546707199,0.09886322982143451,0.2367118633638464,0.3659159847246554,-0.0510090635456236,0.34299180839862253,-9.794559031648438,-1.5017042648652392,-0.1031153241915028,0.0960065700624904,-0.005810709054616038,0.17046066718366729,0.6183074018892466,0.08197420497491065,-4.124421849635548,-8.815390460216292,1.9532339983241875,-0.03842776777940935,0.050456446670600084,-0.024558032776846747,0.1866830419173564,0.6651133140150353,-0.17138784742629662
-4.239398702005673,-8.79692722155287,-1.1229878827056574,-0.04455963701005283,0.02269339283929726,-0.02259868356727139,0.09247034946345689,0.48377492279052703,0.07096935552142025,4.0042496687963,-0.9421141935090408,8.72662557380363,-0.004420286612830614,-0.07246239518958093,0.03951169097431075,-0.19647146016095104,-0.017604667684155306,-0.3484506198688048,-1.1888081453796164,-9.793082609808705,-0.9483599231675794,-0.0017025732363796316,-0.007942342110350966,0.05203697999669955,0.2362295676050649,0.3659300494671285,-0.05027342709731469,0.8102541068928347,-9.8207962217501,-1.1413729079026858,-0.05133410641176556,0.08676044948743768,0.024798607836798096,0.16462830222224217,0.6158684982503393,0.08424322216234331,-4.289940735035679,-8.781101434595216,1.7770353792238798,-0.0620053922666235,0.0503086120226047,-0.0034980890813671372,0.18763852828110364,0.6643776272950435,-0.17310782122223667
-4.059757996385432,-8.797606733188314,-1.096324157137011,-0.05709847381632459,-7.525766466466594e-05,-0.014491414497225753,0.09171297952077191,0.4796288857753716,0.07145381484776049,4.0086433890857,-1.1261415317362113,8.737633952841486,-0.04821733608682286,-0.07640669656801119,0.016642700900221595,-0.19233187101286223,-0.013926685295988245,-0.34828171978781525,-1.336010799031167,-9.603465230493958,-0.754378919124014,0.0011434824429369613,0.027386946369493785,0.020546124949906396,0.23380873007069986,0.3647757709558371,-0.04681810761127863,0.4357546839262088,-10.077427855833376,-1.262388568043896,-0.017037839820215398,0.04210026756558549,0.018597637784589536,0.1658600070973611,0.6207492223839819,0.08472454121649269,-4.2046039973437574,-8.859030027615587,1.6170052953553586,-0.07106577894110054,0.07737627360380564,0.017976556057366536,0.18629227578705512,0.6709576283185072,-0.16672218979273168
-4.003598737446006,-8.803291608823805,-1.1115236975045153,-0.04610832437030665,-0.019623618744091548,0.005930925825629999,0.09292909814709317,0.47839047650756744,0.08292746749075658,4.002749797776001,-1.0370066445962953,8.718933236865123,-0.06041187985384298,-0.07071194174119262,0.013095556869221786,-0.19452784941215634,-0.018140337490789925,-0.3516228495445108,-1.4370919141557166,-9.508710910289011,-0.8016421295172581,-0.05186520620488775,0.005857067435828765,0.01227915894418781,0.2365248079604082,0.37134468786526453,-0.047429732115428114,0.3229064231226412,-9.825290756531944,-1.2189042549819298,-0.02627982558089882,0.007838036053362283,-0.03954646564819326,0.1692577172762436,0.622945823988033,0.08297504959507866,-4.127798234180196,-8.821309250854094,1.5970270891452774,-0.042788148885676676,0.08595592524821281,0.01567378791679974,0.18822059501944965,0.6707051511620953,-0.1694241909443723
-4.151185049735085,-8.795167208796277,-1.0908413123881149,-0.056845721982747316,-0.007578680999125226,0.01898585980601608,0.09170524053062785,0.47790968808975415,0.08292728883891937,4.057348327428708,-1.1512704944233776,8.716900724022251,-0.039395743774002075,-0.0402606878800757,0.010598599809234376,-0.19721088549369742,-0.021602326258573147,-0.3537535959294406,-1.3390520995103532,-9.709807989975074,-0.8028151798316361,-0.05830170664880419,0.005124672576083043,-0.005592163161489808,0.23817190558580345,0.3671060189713548,-0.05250418434401592,0.4937881394051339,-9.855898123719271,-1.3449269145722185,-0.011348270049617604,-0.024479888196341178,-0.04928176464754065,0.1670229287327944,0.6175819354001655,0.08055278817586474,-4.165232244905758,-8.785471357283322,1.7464936045338704,-0.04316292782552955,0.07418215018904574,0.03113166689815996,0.18888112794578352,0.6663172251422127,-0.1728659694813015
-4.247006555484749,-8.942222380843566,-1.049452805625859,-0.043548910931217974,0.01025125459210662,0.02565804008478935,0.09533439437226987,0.4725219691554914,0.07754974329479966,4.122121224095287,-1.144743698844523,8.703600935719706,-0.019646468875495576,-0.0033650044337066357,0.000759125737489007,-0.20039116725039655,-0.015944049060440658,-0.3506620404799782,-1.3299346429436947,-9.635166513182853,-0.7314662117309623,-0.05466444677373959,-0.0018584155956929598,-0.04452740314002914,0.23351388604089918,0.3622602904293457,-0.05165932292552907,0.3666833030238872,-9.945330489497696,-1.439791308576347,0.02613678146475499,-0.02407235752994298,-0.05763560482561311,0.16377841090745784,0.6144212934319744,0.07546180325838733,-4.236894157346291,-8.795716399034443,1.8171317121096187,-0.03040482735738613,0.04871995501500992,0.03088720961341368,0.18934035191385562,0.6616654775520923,-0.17069195137996104
-4.142247644258102,-8.938640644269993,-1.0783070153312928,-0.01631799422437025,0.03335539673127777,0.026359073834117976,0.09514811193083915,0.4820374925684843,0.08512726604493367,4.027985085545169,-1.0499761788248012,8.791514191268485,0.017281465787282582,0.009989443953254466,-0.009711097556289374,-0.19646605461380842,-0.018817406981770132,-0.3479424671593947,-1.2753670597230866,-9.73306313944113,-0.7341314782671045,-0.047118675047016,-0.02822524824651557,-0.07792184362061952,0.2286982786862125,0.37353048440066233,-0.0508215767501366,0.38567113863290897,-9.815390622610561,-1.438527051388072,0.06197274597541358,-0.014014186309960068,-0.06327590138699397,0.15844346549999763,0.6205268407880964,0.07774081948947709,-4.183088399083002,-8.782817249991524,1.6759543000399777,-0.009341374881000775,0.007122098057204759,0.014150881124374124,0.18572653296560304,0.6658490073420901,-0.1699128755778388
-4.09026726866974,-8.835892410857216,-1.1244310648309388,0.013507948841384638,0.0329966421909799,0.038485669127858245,0.09367557891202216,0.4813282925329103,0.06925792794222645,4.204395367375902,-1.0416783874265456,9.114655096701876,-0.008164705554962747,-0.012522010670203646,-0.023381876164586677,-0.2069904404996691,-0.015504229953170051,-0.352355982844498,-1.354763595095499,-9.71711670816208,-0.8956783170548683,-0.018585273781199497,-0.037869449615906124,-0.10819954183482575,0.23576383252486807,0.366942844286643,-0.048087274886548334,0.6434226846467457,-9.739620290718113,-1.4898653395011885,0.09944070841707482,2.9033482803614977e-05,-0.04487379125466422,0.16405307261887977,0.6180792421237383,0.07741844587079767,-4.211992048916607,-8.823781753233634,1.5890520555958687,0.023476311855194314,-0.004207602850293835,0.004072880299230762,0.18963055798472078,0.6638477370837178,-0.16775515571579525
-4.039502283942625,-8.852160216087112,-1.1288859322428695,0.007974483568758056,0.021567607237888455,0.04351361394832414,0.09023176676707778,0.4767030103296735,0.07657851148800712,4.318520873378082,-0.9055536890187127,8.968375536854564,-0.05280666441083503,-0.02806725932149895,-0.03494309508302291,-0.20209298448283686,-0.016905822023908293,-0.3494200981004324,-1.3481820652900742,-9.777900095079216,-0.8758644502615835,-0.03448333057240051,-0.022074098954567984,-0.09024073469879604,0.21915656907283526,0.3694365389757958,-0.05043959702266544,0.5099320730291265,-9.660826408999379,-1.2595549703845375,0.07780036511441818,-0.02933964117290947,-0.05239328057974741,0.15130162390138185,0.6220079418532651,0.07295398094874517,-4.163005249865591,-8.747323156896224,1.575975383433259,0.023335752964592962,-0.005218026682690753,0.012626204382720012,0.18009522722904708,0.6644415516924419,-0.17011646903477037
-4.0950569227005635,-8.990392530782467,-1.0057657490459644,-0.015786653884271255,0.010651735960462247,0.02761972923775356,0.08998185148923538,0.4759784267973319,0.0687649134014301,4.274083348904525,-0.944695810971617,8.740470703905183,-0.057326430758036125,-0.01587950622469582,-0.043042768633115784,-0.194298576160356,-0.014990334334633783,-0.3531410560167059,-1.112328120170356,-9.645973454295053,-0.7160276511667838,-0.048123523240768296,-0.026664270885197766,-0.0528255786438353,0.22452992149218365,0.36989531979101525,-0.0504884738174603,0.4698894649409782,-9.454773516112596,-1.375223172265986,0.03666799801414874,-0.038826165667273656,-0.056015191780550075,0.15230904690980332,0.6263980947791085,0.07490342347670353,-4.151115766331394,-8.65134091763899,1.6624176518929503,-0.009185099571293435,-0.0051680073577290275,0.01582367188157931,0.18476238801823058,0.6673247545316369,-0.17014284242979846
-4.062957955798786,-8.944726908021298,-1.0486516176004574,-0.011773035312949452,-0.006300595819601533,0.011163792583081473,0.0970520076529024,0.4737255541831774,0.08463146834589595,4.22862691930046,-0.9849099734194268,8.83385113241283,-0.06798562421921575,-0.008533180092787512,-0.05427964040068466,-0.20137329152021524,-0.009784155157579456,-0.34709825484892143,-1.037285254588826,-9.617006084532479,-0.6799155073734479,-0.04305165816326486,-0.03724196841132001,-0.04005704925782268,0.2327935405860232,0.37170781746254494,-0.05668483328594099,0.46213272693152274,-9.596002662179327,-1.589117348092994,0.02620939750916663,0.02245472093228174,-0.04671961116126544,0.16150722199979034,0.6224929282492313,0.06915866322166501,-4.142168969168569,-8.716303257382696,1.6833834970834185,-0.015842502581571476,0.0044346142764039405,0.0030596599766012254,0.1932475965531154,0.666778236833249,-0.17680708938837272
-4.022804677113127,-8.877989092576401,-1.1065163545430394,-0.006731294774234234,-0.029472992202960686,0.008064107406687079,0.09510976538388469,0.47569352297713163,0.08072661741475103,4.229259381650607,-1.0734369015757685,8.92446007864099,-0.08103609568297232,-0.019856083554854062,-0.06329860845486898,-0.20284401924913809,-0.01650505724636559,-0.35455190395927855,-1.1515679076453353,-9.622538528206665,-0.7448388789460754,-0.048255397984245586,-0.055577902349321924,-0.03315364397515457,0.22556221001238852,0.3774884430158963,-0.04866162978940931,0.4622265318609881,-9.529885464052562,-1.4303107336321939,0.018837441284845977,0.07661571261850704,-0.04656110882268937,0.15303113706478239,0.629085185729813,0.07392205859516143,-4.159683093343312,-8.752066471661987,1.604630626933784,-0.013775943656018039,0.040623637402503084,-0.004742482638467846,0.18604118516847118,0.6714541311460618,-0.16818312902606392
-4.041190762968194,-8.862176393238686,-1.1401655199945806,-0.013043026839652291,-0.037077402456166406,-0.0003503854500044758,0.09124853553282991,0.4832852129723409,0.08097817268494653,4.206181143314714,-0.9966433105056561,8.970969052741351,-0.06408419565945607,-0.03389823800887188,-0.04729962620966918,-0.2060236755049262,-0.020753009097208147,-0.35984237729991175,-1.1921472344877715,-9.725697014094681,-1.0199407830967129,-0.04013329085337075,-0.048612344798956285,-0.01219614916381951,0.2257289187512894,0.37105241487534324,-0.05417838743954971,0.7990903639941273,-9.416109034386858,-1.2121299475278677,0.0009221488289706747,0.0692690985241477,-0.0343541522990911,0.15199670774461432,0.6254312771243807,0.06977820134801524,-4.108825924946104,-8.667958481942645,1.6481617289757593,-0.020907938706816034,0.04296797680547147,-0.008250321768057841,0.18571414805452635,0.6678180993628673,-0.17381076837109127
-4.062871562319805,-8.885281386704063,-1.198039711655803,-0.0177654942821798,-0.01928039128630284,-0.006905560785113278,0.08976603300209811,0.48011468851861416,0.08683565182999645,4.188513961970668,-0.8846519649941674,8.921791478636045,-0.04101760424317467,-0.03724409420204381,-0.006903348116644999,-0.20016673108461538,-0.012322306718242963,-0.35316518945960795,-1.1344252226704745,-9.854159474703513,-0.7219052121054496,-0.027500019911638043,-0.026274846252019098,0.007788442225006811,0.22102889102848644,0.3666070403084687,-0.05895629695785047,0.5485399026812526,-9.756349269584202,-1.3575519655642099,-0.014316461739831294,0.06299909648285032,-0.016715760186017878,0.15024847033339409,0.6159164007292824,0.06758454705893313,-4.120052588765621,-8.71706503187582,1.731251700345017,-0.031137998597669206,0.03622092940544917,-0.008537300881251523,0.18168654951861316,0.6573680893441725,-0.1757741301927353
-4.147609702277638,-8.959874145817645,-1.0864448501060422,-0.030837615306055374,0.0009770166413523526,-0.013567838247792464,0.09100095709176927,0.482800707667619,0.07755978994961416,4.190308322627091,-1.1688276940784308,8.853630154395224,-0.026483348696404823,-0.04991451754555907,0.002329207379927639,-0.19626284670550231,-0.011582725709478433,-0.3534348479213552,-1.083317453049869,-9.872330217772653,-0.726575296978605,-0.03136674831432117,0.0019806354202561494,0.004022227556722337,0.22554884873056344,0.3767365163241582,-0.049869982687531296,0.6077335144307153,-9.973955202403303,-1.0638317511917859,-0.013912932344972985,0.05505400486608072,-0.018994622232878598,0.1505649058440391,0.6234746741097685,0.0724784433669312,-4.219208509975285,-8.84176468631121,1.7165971138016494,-0.0484865870246842,0.028272865096760736,-0.003476565822488378,0.1882080075164206,0.6682582166611009,-0.16796917922530946
-3.9927122863676456,-8.89718952658164,-1.2204716606688704,-0.023918080176123856,-0.00539749831184881,-0.003927928927832116,0.09315238143379768,0.4749734920734653,0.08023837508792214,4.119309404365576,-1.196230598169199,8.922894243099886,-0.033099530547116625,-0.07383698838095297,-0.016076319584765318,-0.20333043248403945,-0.016746443829599333,-0.3543022027731631,-1.3026376378146047,-9.878797271928699,-0.8608811945494299,-0.0264234361631008,0.01795540726112858,-0.0029593440863725225,0.23065347511216525,0.37642283153559947,-0.05259113177526648,0.5157266226824655,-9.849178189719158,-1.1304189322812923,-0.003905412495334476,0.009114928427242578,-0.019576845047339225,0.1588297116230903,0.6261573525442361,0.06944491096199383,-4.186587362859002,-8.875264303701234,1.4954237970802609,-0.03636684110196885,0.03648341926719371,-0.0050291137229444395,0.19358375734647268,0.6699192020190211,-0.1694715068877953
-4.0147959300870495,-8.862688797145523,-1.1573743733385073,-0.011395615813354423,-0.01674102028888041,0.011177409580118331,0.09952043485928137,0.4783539832561423,0.08024008798849787,4.263170821053469,-1.0707357054027575,8.919332499693683,-0.05824604227092859,-0.09988001313688633,-0.02195748058290426,-0.20724777584270374,-0.017798767214089364,-0.3581779088384864,-1.4382339947933895,-9.728185144354585,-0.7435346118267949,-0.02301483461319694,-0.0072027641009676695,0.0018592823973252108,0.22429399415536375,0.37353529729295126,-0.052008640610000156,0.24137633143927834,-9.689768395717195,-1.2495079689934507,-0.005046970368636116,-0.023552504137013777,-0.018213926017584946,0.1510376233383065,0.6212790391280856,0.07149190690139944,-4.162734720365684,-8.871193428188786,1.5293051990679016,-0.014965073523628782,0.046499832219860836,0.0002118772219393395,0.18670966705561132,0.6675531572088016,-0.17113393151138576
-4.034310184708093,-8.815827572650495,-1.173404626343731,-0.022113445027843445,-0.00935910420730424,0.015046179396689585,0.10173318655048963,0.48102619246091993,0.07999801791815375,4.331685507012865,-0.970002754742759,8.646488480627449,-0.05388363588741643,-0.08608612619883566,0.015693375565201693,-0.19872859397341544,-0.005760210381094219,-0.3552321602652482,-1.1703642261440845,-9.604856963937497,-0.8658720816174451,-0.03648151714619017,-0.023760781410277012,0.03490707446185181,0.22305250821494937,0.37301591686289354,-0.05443227045562974,0.6390225349980537,-9.35891608107448,-1.1520005706236314,-0.041196106466731316,-0.0582215883421812,-0.019241705534991632,0.14736312031516868,0.6212848910298506,0.07056305476666726,-4.118960845035628,-8.656781565099356,1.6043815002228485,-0.01709330799493744,0.036607250323527143,0.004014471265413398,0.1849651571951026,0.6651355502345145,-0.1725946956485641
-4.097016924123691,-8.943481645553435,-1.1523615966865088,-0.05648611788904221,0.02145663266928497,-0.003391342701733241,0.09686970028832308,0.4839755887382584,0.09049964426729318,4.23450773816768,-1.1590750608803444,8.481703973564173,-0.047245352174066876,-0.032268314170204544,0.034342413202356224,-0.20579189372013784,-0.005948548463401347,-0.3505651931071567,-0.814975294173907,-9.639583770418513,-1.086370913854096,-0.03520024173295875,0.02478195584809742,0.04008185965351682,0.2297080220573039,0.3805966108591585,-0.05142770808662824,1.1644833353591877,-9.918904652047562,-1.2179727283900772,-0.04762296615381556,-0.07292051538458524,-0.011424110676941313,0.1539688346148363,0.6312872619227525,0.07073973275623295,-4.166731681710753,-8.765536397011905,1.6860830807218314,-0.058215575665378286,0.008382738937694359,0.01793772245439976,0.1914202227444947,0.6716420827227104,-0.16749350306906816
-4.169451942809028,-8.933714303266973,-1.17803011128541,-0.053316720731974014,0.03771232607582291,-0.001258499638259715,0.0926936451181594,0.47985732569791223,0.08243982282099127,4.103603580648785,-1.4512009684695495,8.569310936560566,-0.07784840333661534,0.005575540254538333,-0.0013951278829130694,-0.20405048114093197,-0.013217837638231134,-0.3475212458143006,-1.093951897218364,-9.572567115223649,-0.8457288086911204,-0.06833036647778808,0.053852913589522954,-0.009980921046203593,0.2238950781594963,0.3783057726306712,-0.04377769308979044,0.5723681970944035,-10.441911488097874,-1.5871977720793118,-0.008375474787482975,-0.03411145743652995,-0.06581885769017905,0.14890658349157715,0.6285969000522111,0.07592841472476786,-4.312106796210841,-8.844217972832293,1.5526100518676595,-0.054517000040489254,-0.010995443825348679,0.014674796750513993,0.19000667225229706,0.6733484887250074,-0.16332463516982593
-4.104062703953172,-8.826851877393565,-1.1603682048678585,-0.039748708143636895,0.028024678221893633,0.012709100852196223,0.08439477762508459,0.4801478963028358,0.08512777744410904,4.019326387172026,-1.4827396819248393,8.592349399058449,-0.003549076562196078,0.011270107948762889,-0.056491717883057,-0.20061608686964846,-0.01857781514943804,-0.34744416099912084,-1.442972977924831,-9.771539353286325,-0.9251192437309922,-0.11253508475063141,-0.0039250114402882,-0.06508403155430532,0.2260631636095862,0.3753375944033632,-0.04545748875952018,0.26038667399789595,-9.965540289453873,-1.1311733798206731,0.03285369258457999,-0.0180859920214502,-0.1226398873538212,0.15134439872118868,0.6259092654575208,0.07589122343952937,-4.270765472527904,-8.788131678117889,1.5521271798851943,-0.034729136835723484,-0.015909401220343147,0.010021673336112001,0.19067639004435893,0.6652754804434406,-0.16116654287227494
-4.098043585127436,-8.823167250970103,-1.2020141670452562,0.02079308778817459,0.010444290556080373,0.03396107795717673,0.09392102057414026,0.4810692361500317,0.08341765284001264,4.314299157329925,-1.0549985815544902,8.533244393742999,0.12243766243085223,0.031949808381826095,-0.06757927635624159,-0.19991161552149408,-0.012025003887529473,-0.34999653610584663,-1.4516728107679695,-9.955418065507867,-0.9719191077505493,-0.0005817386681200585,-0.0721206985073563,-0.12374149656413982,0.22558676897899185,0.37222378704480086,-0.04174266495620135,0.4753758286126905,-9.222050035278121,-1.5314898120485914,0.12132130065775482,-0.045628718073233966,-0.02642759907187915,0.14990430072017913,0.6222446104618728,0.07810022762928556,-4.272342157133838,-8.837734311569488,1.5756373055403166,0.02258479111782011,-0.007504355738638365,0.0007653836373996782,0.19259612009339072,0.6625730439429324,-0.1619255570352293
-4.02361908324208,-8.969702651945019,-1.179841966675472,0.09968125704056227,0.004916329845625619,0.050220049707884296,0.08687448021312016,0.4864757261079554,0.0914799140163444,4.356358835399549,-0.7936195038094814,8.96508848808591,0.16875093648942152,0.0459694686037039,-0.027307383822627644,-0.2013984179965584,-0.012382614809352935,-0.3565784627104766,-0.8542118846381113,-9.69423682947854,-0.685454123081839,0.1121256772231116,-0.09233666901108226,-0.16460938855422683,0.22388190727724183,0.3790034092791512,-0.04598580600233777,0.5723984752532195,-9.501430863940772,-1.073756052772922,0.19415072252296597,-0.03446429299185863,0.07148291100942653,0.15320193152615552,0.6266533155625238,0.06854364082211584,-4.17930783499752,-8.720421588899265,1.5633003803831143,0.09675512133300192,0.008037851638351344,-0.02687552726693805,0.19411081225983423,0.6698950414350984,-0.1648377401279674
-4.081626066039185,-8.922512343823161,-1.1385710427684326,0.1153162418609463,0.0113556229941911,0.04413659432354899,0.10246195214053966,0.4802850999145456,0.08536821079667006,4.277714027604873,-0.9623146016101265,8.977068148305182,0.06800382188262263,0.0370030497111199,-0.017221485169198504,-0.19917035806962713,-0.016437418408745026,-0.351147112258484,-0.8796601384036662,-9.495264501474622,-0.7380766426717045,0.11107735896136628,-0.06733602625790103,-0.15522972695319365,0.21943442093665896,0.3818197951298025,-0.05478553792953761,0.6460145253257746,-9.563755350691544,-0.7685937647359368,0.1840464928943494,-0.04669692942014951,0.06408319299956708,0.14893916378956623,0.6315582642972883,0.05957527602505149,-4.166871475998898,-8.682357908891,1.664649461370984,0.10895428548757448,0.007371981035348792,-0.04930644332647179,0.18889126445034585,0.6685211740136673,-0.17432196935193683
-4.120459348025858,-8.758117886253029,-1.1165965734149812,0.0511226729588607,0.007376402920934789,0.020376144912357626,0.09169192477946944,0.475713250505134,0.08121633307454705,4.297462899295368,-0.9540453549412518,8.715490046686408,-0.017435799558912356,0.03507311241996047,-0.018809269467957707,-0.18989454001089548,-0.01245152145603519,-0.3480704800374204,-1.0820502578040758,-9.376912574243194,-1.0694265018910725,0.041991671588788373,-0.03686219152374145,-0.09377133204368139,0.22284578971011376,0.3805804094377013,-0.054792693187207454,0.9188306150551969,-9.417252608681432,-1.305382641213706,0.10590716750871847,-0.08604835479777335,0.019207511756517495,0.15553456315186318,0.6293531932554989,0.059972498824591644,-4.235303943374242,-8.591687260526436,1.5497959265230203,0.040330992007760046,0.0005413456706428807,-0.02978229147555425,0.1940385126052489,0.6677224951459159,-0.17094941979736322
-4.046122025280927,-8.760778037841641,-1.1418051336007928,-0.007159825383740045,0.008055318495080658,-0.0010523585022050347,0.09559383113725557,0.475207222752288,0.07559908297432738,4.242480043364241,-0.8098244910692407,8.625563236142126,-0.027736820851861296,0.06669214742602105,0.0010588209185824395,-0.20284348611791866,-0.015015985943533466,-0.35311137753784333,-0.8693472736297537,-9.487772906960615,-0.8968466338469662,-0.01596989896576985,-0.0064012868980400355,-0.05488051901241536,0.22828776146298416,0.3840754022944238,-0.04805242395130752,0.8457318851882828,-9.695730666705579,-1.5693222244784046,0.04453834100109301,-0.0522767177389558,-0.022778559772555877,0.1614283726424835,0.6352015902328364,0.06210365660470664,-4.163102461652231,-8.530800538004247,1.542080183418674,-0.016671189656061267,-0.01468997143715897,-0.01321657779559782,0.19945264901352702,0.6705912381333736,-0.16927291670328065
-4.169855612608794,-8.908255357827258,-1.1343403180747498,-0.032625759683205136,-0.0028376608589291362,-0.02125387651567234,0.08803495450702079,0.4767153183656018,0.07731097132056779,4.132526781212545,-1.0586588466128979,8.787635686908358,-0.039500009794083815,0.09507660992834308,0.01635986811685774,-0.19674570699833188,-0.017747017459857253,-0.3569935453170072,-0.7465693126715108,-9.496685449463124,-0.7191098145829848,-0.049290552443186066,0.002365452344276579,-0.06123053034273409,0.21511211130371774,0.3875416432054906,-0.04946941189305888,0.7536003075819195,-9.837179971077429,-1.4724452871894782,0.043012659510240296,0.04302273242221947,-0.05795431865514631,0.14676025599300535,0.6332672777225585,0.06082728398282686,-4.289952092438299,-8.656893756625655,1.641975139588306,-0.0548659664403615,-0.0184984495583577,-0.007191395657452099,0.1887002633784826,0.6721773065237212,-0.17235214634986934
-4.136767510811967,-8.866843801980117,-1.1523351699997366,-0.030295177197778595,-0.0036354795233116068,-0.02006806301541776,0.0932201264423492,0.4864480703601066,0.08049258908745098,4.086155763534398,-1.1044885027203675,9.011317969142702,-0.10314414893544942,0.08762731173424054,0.0031642870622078474,-0.1906660243497041,-0.010910854694661704,-0.3581048092549303,-1.0266296070471304,-9.422500060303767,-0.9847009214719697,-0.08710411954368169,0.021698479842283153,-0.059906285313429695,0.22235582063963766,0.3798549633343718,-0.05453353635989838,0.7433307673461392,-9.658913695515391,-1.0694993000080875,0.03075423882884714,0.07251925406277,-0.10216730031784947,0.1505566887431161,0.6301046399858078,0.05271463528342134,-4.259666860674008,-8.74965592969814,1.607108995510515,-0.0467015736330666,-0.01974474228805568,-0.019519150908108775,0.1918070593573587,0.6680068128655863,-0.17532509629783283
-4.063586865196892,-8.721912110805647,-1.1791079404702836,-0.053801592050022926,-0.006448100770511381,-0.022040771182883785,0.08662232814905656,0.4855106275924556,0.07976110037365987,4.062389269518646,-0.8924382508123667,8.989815982956475,-0.1589102171397513,0.05105430710134228,0.007980979200507221,-0.19747433762026248,-0.013026904176376499,-0.35194155313491765,-1.1807096356501632,-9.652718039657112,-1.1213841213692204,-0.13576219155734756,0.03713071501827424,-0.03382125939077036,0.2240989327007062,0.38522737088609316,-0.05389875809879859,0.8337140807879033,-9.693741955281839,-0.7615896174355372,-0.010824411851193405,0.01215709752778628,-0.13704350135915105,0.15277360499775045,0.636692358976009,0.0536743695310532,-4.194737607057819,-8.646514700827304,1.5825096015980955,-0.06417781888574622,-0.023006588483139422,-0.009946731294039876,0.197217096835592,0.6713685791968629,-0.1748665653632112
-3.990315411835433,-8.639159152814795,-1.174322138545462,-0.10819401929784536,-0.02079949838133487,-0.035496462644358226,0.0875894782220827,0.48379480707889794,0.08097937402990477,4.222202703520093,-0.9548084543491003,8.642446848418802,-0.16201690317851866,0.023973146639626,0.03419617706173465,-0.19896254412905154,-0.012648575172854629,-0.3582916382959444,-1.0586089717096538,-9.836374647281064,-0.9445319390831409,-0.1655519170149892,0.07443923755726964,-0.004510396607228683,0.21923910549641293,0.38216026621274646,-0.048685405773552744,0.756482085193847,-9.759841006903278,-0.7212664414035598,-0.04978356010864153,-0.09655019360737342,-0.15206483232913512,0.14236274794828524,0.6364469691875946,0.06040310220127739,-4.178006937191439,-8.60959663214146,1.4714456613234517,-0.11829688871507298,-0.0028707373038483943,0.0201056239064082,0.1889670083537544,0.668237682102645,-0.16480236472792634
-3.8738284709642388,-8.856152435973575,-1.2650713756741738,-0.14469641881667492,-0.039223148944966146,-0.03587443126337207,0.09852602346868844,0.4751801450304321,0.08658546472304088,4.148555659757993,-1.1419436339259619,8.790714520582494,-0.06755825586733771,0.03853465335843035,0.08065617485790497,-0.19481253781777283,-0.01015805311955192,-0.3561498118514443,-0.7255145964745284,-9.845956999625185,-0.6123879699669239,-0.16139384715963126,0.1004050416321341,-0.002954392807838643,0.21681199134191861,0.3812357329857031,-0.04620976925072752,0.5452773346737152,-9.855186908540007,-1.2413830912964543,-0.04349325550790587,-0.12044549837403487,-0.1477512116760955,0.1398578829911301,0.6364590544001243,0.05555256867453475,-4.104116182873008,-8.780754471397954,1.3916281461948632,-0.14955269744511737,0.014756689558046083,0.04368249886598334,0.1869913801812406,0.6667964512415643,-0.16576815814736867
-4.1111561488799495,-9.076289635200308,-1.264663133409066,-0.11779333238250858,-0.028636626833500406,-0.030307485970015733,0.08727898380868321,0.4723162274656829,0.08682920858161071,4.075264988692107,-1.5223717312860812,9.037483476587237,-0.00910608323262079,0.049013736063649456,0.06856769542753709,-0.19993561957558895,-0.00916925666299441,-0.35443941778274823,-0.8980092565098322,-9.94973123303117,-0.5729014450843102,-0.11045158069768862,0.08245191955267042,-0.04690854839431659,0.22196409296533678,0.38174151770576714,-0.043328216773516386,0.4024587959637916,-9.834067304385265,-1.703648790912064,0.012953385246244002,-0.0066765569041457775,-0.10564318596373404,0.14428543921388148,0.63815857286905,0.05793996555569143,-4.233049747790413,-8.929771562131128,1.6436295404134464,-0.12475832661446196,0.017977087068915126,0.03131467820169766,0.19511672967128282,0.6730590549197452,-0.16507688408109392
-4.156586459996603,-9.11167034436579,-1.125255335109288,-0.05781739503898741,-0.01359023595398688,-0.020132316474281743,0.09051743654606798,0.48353157356704,0.08317654247388905,3.99182899910339,-1.4695062610584264,9.136697156792946,-0.003345279731191168,0.02161770418957195,0.0004752537135520882,-0.19605800713270827,-0.002109902084939964,-0.3565229822007873,-1.3473494965032484,-9.907896013197561,-1.0052861893736211,-0.07281433597058559,0.031783099219152317,-0.06258690230542013,0.21122964976345882,0.38277951084088024,-0.04301602388904577,0.40337978713490286,-9.763264956222535,-1.3547362456046375,0.036099214831547585,0.06322485950623478,-0.08109456128472886,0.1359718395174225,0.6406109101353685,0.056832705414955255,-4.249150589915583,-8.91908428139728,1.697423415421446,-0.06914993487169725,0.007588806741191388,0.0032256193955388737,0.18731176291460006,0.6711715310431943,-0.1618464697821956
-4.01355278058072,-8.91345126951395,-1.2166528984664966,-0.008453459274484645,-0.022879843392605004,-0.006396670276362431,0.0883231604071746,0.4837830898848629,0.08928021724964111,4.115203081781432,-0.9937846689268028,8.921008939671323,0.02995625990602549,-0.019627479381920086,-0.006903246740118132,-0.2004093070728359,-0.00835286000556857,-0.34932359373840344,-1.3900182365960734,-10.167784764547132,-1.272265337119003,-0.03297546488013609,-0.019967740150023786,-0.05308065121341334,0.21879480133527848,0.3875636564414461,-0.04681194137602844,0.7605598917690747,-9.672507712502563,-0.9960992217603672,0.040615232330928376,0.0014654804753040144,-0.04555414210235127,0.14031207240999422,0.6464751124212321,0.05214768076307666,-4.21662089653228,-8.878466370730088,1.4838187128996614,-0.020180232193484478,0.01840382867999914,-0.017507617328874125,0.19443022004319746,0.6769701408579456,-0.16432198454171332
-3.9794674861146673,-8.883756046129221,-1.2332533966305157,0.010255557287350073,-0.03613444860439433,0.002588699052084867,0.09512571091858349,0.47837903930870224,0.08121800806666726,4.188629724102648,-0.8963533204111757,8.742888387845154,0.02263037799493213,-0.010027259462736136,0.007784830728632461,-0.21092305433885797,-0.01539742943351886,-0.3599143738796868,-0.9097803005961237,-10.083968099785507,-0.9868563794516841,0.019492677594746693,-0.009387144817967092,-0.0644887139610783,0.21077598141874748,0.38237036930801116,-0.0381233786700371,0.871742914236839,-10.071453478245674,-1.1311866785451374,0.06920996176928688,-0.056653344546216435,0.005505713180100921,0.13452556857655493,0.6391446643959183,0.05831397844756821,-4.1988746275979585,-8.854649055285014,1.4196590565344613,-0.00209108390129633,0.03190501275865718,-0.012795979446203472,0.18564566218324172,0.6704314263235089,-0.15573159657362728
-4.15795831685197,-9.010256559713874,-1.058844633288398,-0.0039319716191921735,-0.047388151479702746,-0.001680436705923247,0.09054595018757496,0.4881654861422553,0.0887956693827166,4.172305325058638,-1.1624005709849372,8.443197490474223,0.021733002377560443,0.05451998081977449,0.010491563614084176,-0.20795254466973795,-0.018660490860185303,-0.3510801989079384,-0.626581122482449,-9.584438118351114,-0.9572558913325049,-0.0063337521206359125,0.017894996496070376,-0.08211637479504298,0.205277662583572,0.3777967189026353,-0.05143838591585415,0.9670943098458097,-10.15844497237866,-1.3110599876071884,0.07723868321127768,-0.023859968087301855,-0.022720701566211157,0.1268012385606349,0.6342920594866706,0.046929953394894586,-4.262343801352511,-8.778998402378258,1.646144883339796,-0.017132156153300306,0.029457404265875356,-0.009064430950463628,0.17988034418243737,0.6671288332281143,-0.16985954253883584
-4.045540002353725,-8.967315405007243,-1.0729853182376754,-0.0038338351633796387,-0.047474725168247425,-0.012922538610482391,0.09024801151298563,0.4791359154311975,0.0856136804889284,3.919354749107877,-1.4381185955466815,8.810409331247294,-0.025977327508162843,0.07026522501181467,-0.03400943925695778,-0.20602746425149152,-0.010366936778814895,-0.3519563610405762,-0.6755614674674429,-9.520479877223272,-0.9671956229176056,-0.0319317174148004,0.01821170691078323,-0.13271327035506686,0.20464313892000968,0.37920327498470296,-0.03973562010138202,0.8115625667502396,-9.943675098938197,-1.3788446244139245,0.11659923942033848,0.05792766124101023,-0.06335859881456775,0.12881972661207583,0.6328160339793727,0.05202805977746417,-4.133614898773555,-8.746512737999522,1.6033174931707788,-0.026291477896817322,0.0132329354426499,-0.01917294644992851,0.18088814081918286,0.6626857837768287,-0.1606078647173597
-3.8409954392155936,-8.637545128041605,-1.1416171751019435,0.012045587076691516,-0.04808585520397039,-0.004563322175853433,0.08707615728640217,0.4794001524784154,0.08390556294373953,3.8666959462903985,-1.2953653114753578,9.177877384925,-0.12798551509934392,0.020532119705016335,-0.08134582984501722,-0.19946106934956692,-0.004773415119757429,-0.3545139040884317,-1.2445599599112596,-9.318795298284202,-1.2318049224836516,-0.06862376220128691,-0.03233654832176987,-0.1362366267564456,0.20463952833834226,0.38523411028481186,-0.04446836481736456,0.6559647817305148,-9.491967681284859,-1.0152531933832853,0.10851124127772226,0.0819348738675019,-0.10200943373377043,0.12882513244642899,0.6376980219907705,0.05203743173157997,-4.008540453834524,-8.606018516467659,1.4681963820395056,-0.004665971904855899,0.015068140880996499,-0.030047422694359952,0.1843523604295215,0.6660631430539279,-0.15915724422779734
-3.991350043807346,-8.623244399763259,-1.2005727528428705,-0.03223687821561707,-0.03915894835948214,-0.006259324188032185,0.08515735985663403,0.48526896355974036,0.08684118705374286,3.9883294798400692,-1.0921301439747508,9.055325316695935,-0.11227721419468017,-0.020504517348479228,-0.04825076938234068,-0.19867830823383348,-0.014434672272766364,-0.3482515729522549,-1.242789290964288,-9.69540736400836,-1.180920453768129,-0.11277405670427879,-0.05953584837957534,-0.0733031390677393,0.20687730961327844,0.3886853989126438,-0.041610128337829885,0.7646942390874839,-9.212308950953407,-0.7711726339725479,0.03757739010418294,-0.012170851320006037,-0.12386754130563972,0.12904808278800936,0.6467364557587267,0.04961077350112064,-4.118798793754917,-8.659525269020593,1.5455852947740698,-0.04002629947800398,0.01812831560073758,-0.0008660413253376643,0.18709642298615,0.6736138145573447,-0.1613465458362555
-4.108840159371354,-8.991295128780349,-1.2429318383941914,-0.0535293887331153,-0.0021645799698723697,0.0014950011414899655,0.09320254836275865,0.483269121987608,0.08610476150605206,4.1749619210653925,-1.210018330686883,8.844159971667443,-0.01250100250415316,-0.020559194558985545,0.00011853048947670672,-0.1962411175876375,-0.0114775217804907,-0.3470877569358121,-0.8414418481422783,-9.933460666616574,-0.9272801178442924,-0.08353485772455368,-0.029071564291036845,-0.036639673833301044,0.20711395294476598,0.38094068252476415,-0.03709549679085162,0.8436909756710776,-9.470495368954584,-0.8033074354479561,0.011061304088364629,-0.1018097695096113,-0.07851696449344274,0.13200662607268546,0.6389146389340769,0.05248707550096745,-4.202699730085182,-9.018959888563597,1.6613179188430052,-0.056574541567059974,-0.01836845517366505,0.023608482077636002,0.18805133852760322,0.6677251007622275,-0.15673962895531593
-3.9798359777112786,-9.134172844011486,-1.282106547781044,-0.01116494041010081,0.03447909259086697,0.018410019927999014,0.08973435370881375,0.4744934777800182,0.09391065085859499,4.2319978377220835,-1.3382837983178726,8.719856652429645,0.025627379163819915,-0.013746812254688183,-0.01559313233536366,-0.1938307323728054,-0.0036906854526806867,-0.34917935659158206,-0.6819534842362025,-9.854118247281372,-0.8959418952144054,-0.025391337393915477,-0.006158880804532133,-0.040339952337402625,0.21154216188005118,0.38509010896620344,-0.03572937936085339,0.827617486449416,-9.554254464597156,-1.3863748021590245,0.03174918587878109,-0.08375473710772369,-0.026891977801022728,0.1312720149248133,0.6394039036127277,0.05225264099914094,-4.171380538293625,-8.987666676451665,1.5100171057082394,-0.007012412173382738,-0.045999330307568434,0.0074610463586422945,0.1897603788257305,0.666726912208554,-0.15553675786052124
-3.843991485928431,-8.961623631421906,-1.1568844331687438,0.032177580090411745,0.02173516006291995,0.022917812778805648,0.0856058736259892,0.47843085387614903,0.08610200009912712,4.040340810560634,-1.1069767955042271,8.797411400227595,0.006338955995930789,-0.012081334745929364,-0.04588804803691755,-0.1989539432175788,-0.004926903226244334,-0.3491413269147261,-0.768796258287517,-9.643014269329111,-1.2594821810518952,0.010194162551262504,-0.03644314379152727,-0.03990984306494457,0.2106077670212114,0.39170173439717565,-0.03484910417189523,1.0139680251331407,-9.52930526906323,-1.538732316583144,0.04545400796885092,0.016958289121152888,0.0007403983056596635,0.13250689539080773,0.6462376199343656,0.052738696006403865,-4.099988898199533,-8.734436085369277,1.3578700084807858,0.02720120843471997,-0.025178854541797503,-0.016229593391515463,0.19228497568599964,0.6745118769110553,-0.15503717075707923
-3.9551202814894486,-8.663192971463094,-1.2206507664779815,0.029876295104835835,-0.0020022789093035627,0.012349120170203244,0.09562989115734481,0.48105958942679294,0.0829292951119189,4.044370079930779,-0.9412318570629605,9.01991061695755,-0.011456991954337553,-0.022021758842842132,-0.0028732328179159033,-0.18821086208482857,-0.015540869076664961,-0.3580364713037313,-0.7248061950891477,-9.645468433114402,-1.3322174486317868,0.01109517929900816,-0.034413963381366305,-0.037180069872296356,0.20691910219216347,0.3894934524389797,-0.036739315687057295,1.302610426827823,-9.609521448619658,-0.9087527167266911,0.03780479370650748,0.0380031294904006,0.004220782480092588,0.12980059451834822,0.6479528273302422,0.05106837951637704,-4.144602961047011,-8.459901079107935,1.4843249734063524,0.017975209729210587,0.0005900369911584396,-0.02147010825636326,0.189386324093901,0.6772251472378342,-0.15451408082079074
-4.143711780700777,-8.89484164894806,-1.3002757694776055,-0.019260939130145177,0.016245787952559685,-0.002102587602291287,0.0890266929657979,0.47889868179874007,0.08610171861236371,4.251404892108813,-1.1600498779570418,9.044887936497561,-0.01752677051730636,-0.0006655080493688772,0.042156059828569195,-0.19799864351372143,-0.007258212666953413,-0.35740714428310966,-0.7025423472984061,-9.66722058255405,-0.746111103935446,-0.009784090129594311,0.016286764666477,-0.02969755287956857,0.21393924510706586,0.38812857850312904,-0.04360957103846756,0.6992014737336857,-9.863957294944097,-0.8418797609223887,0.025116717367394025,-0.004330326941432945,-0.008592722401354957,0.1364936050692415,0.6408852799620349,0.04071197106731617,-4.3036299456375975,-8.718899093946755,1.5304854835050845,-0.028102108710023357,-0.01332669235548141,-0.0038476313378990245,0.19482969585702614,0.6671947504797947,-0.1631457779149158
-4.26192256802291,-9.183445559274983,-1.2821408686316935,-0.0415471796560431,0.029599674375847852,-0.01465613951462849,0.08686712762792666,0.48525540029806224,0.09074682748857318,4.161190038579666,-1.4239202516991034,9.043440595853744,-0.021450296750345915,0.02242794579010195,0.03347252410497822,-0.19482220856682475,-0.009214558174701177,-0.35811869700951066,-0.7013377183588493,-9.644370844569274,-0.7464298595550423,-0.04626077500484742,0.003160392973983825,-0.010011675893719176,0.20811001727474823,0.3916007614206092,-0.04215324735655738,0.5526253701779226,-9.667055392559432,-1.2961784775810528,-0.0006281371086610211,0.04967726758575742,-0.039303136032456464,0.12919811580178558,0.6487033520216777,0.0422879646011447,-4.468128222000047,-8.904693449829713,1.466933039328485,-0.05200982065633201,-0.04652475318502277,-0.00747716004702946,0.18803842733442375,0.6726392145751338,-0.16428745193514882
-4.080427732049491,-9.122952908701533,-1.2925640120913484,-0.026742075291085146,0.024658772580677276,-0.02423557050990077,0.0868815217883791,0.48794666318349017,0.083669220414875,4.056897372663109,-1.2947695675155875,8.908157831870497,0.0068785313694194215,0.0002660768473698581,0.0003620971019031952,-0.19898391770479937,-0.011760726089646463,-0.3636780505690355,-0.8963879559521497,-9.687792453449415,-1.5333338770553069,-0.04681895603160457,-0.01676093685245692,0.02045596621865195,0.21054613307040157,0.3889209206638785,-0.04090917688076708,1.2614342509058145,-9.211381017726172,-0.8117888284724111,-0.03426464669668354,0.0657042803498898,-0.03343123083965857,0.1306831673260457,0.6408845369281141,0.044450545351765576,-4.387545457022483,-8.942925061505317,1.304767632171914,-0.04623312675284375,-0.07522363760272845,-0.024956432506848016,0.1921963539869869,0.6711214318214903,-0.1616427908104208
-3.9023035432820525,-8.870803845981463,-1.289636631123203,0.005997673868695976,0.0011249211888392841,-0.01941723006722797,0.08951244747333982,0.47865528890779896,0.08219540085019407,4.134719218083321,-0.9402386571773523,8.79365449381813,0.05793423636520513,-0.01580150348722582,0.005525357755271073,-0.20553406384662037,-0.01157821112790508,-0.3514499032519017,-0.8849878497507045,-10.046244708022762,-1.2612798128770966,0.01497319991294124,-0.0014049805453612923,0.040779860176737404,0.20778574881394954,0.3863691733227166,-0.048906165017785,1.0541702532489239,-9.519637196306887,-0.7066029625535527,-0.03587571074816995,-0.028867017446554694,0.0321257706530746,0.12940455888631558,0.6379648935469062,0.040310312751485756,-4.182109975829025,-8.728642784961936,1.340987870453827,-0.018561559666437622,-0.06877995239472824,-0.039074585747365144,0.18797897134522196,0.6687435783769484,-0.16674523215248632
-3.929693915166715,-8.828493674986907,-1.1917082848263751,0.01769106845039248,-0.02451183187899016,-0.02692947182957084,0.08565821556044753,0.48746782713571807,0.08147204247213624,4.211307958581646,-0.8883013356818967,8.788139796749574,0.06458522788459371,-0.013421386896097133,0.022819622868933895,-0.19431088008291714,-0.012076924959376914,-0.35416544384641446,-0.6559586152771537,-9.903755662956678,-0.730545473113204,0.06693530676334246,0.002979452715550356,0.017732592450429827,0.20154196133086083,0.3890270609689024,-0.03717836483504494,0.6746126293461174,-9.99202352051237,-0.9819341054939883,0.005992017418193158,-0.04255396439763393,0.07669181519761398,0.1256389029392338,0.6457617407372483,0.05038569310056747,-4.112063685208267,-8.610663420559739,1.4976586903997433,-0.017074139682952703,-0.027646180234069673,-0.043339303865571666,0.1805115278134705,0.6707320179001256,-0.15690922766068335
-3.875039995339462,-8.922708495195375,-1.0830483761313885,0.01890907042217758,-0.04394935959605422,-0.038168050629628,0.07852227100405917,0.4777370214858705,0.08903282924951897,4.151772575673817,-1.23141836062774,8.825922394639763,0.045146717094699584,-0.01392995162754021,0.013942317749411298,-0.2001494090639462,-0.015211420416137513,-0.3506750115566785,-0.5453251270762598,-9.680507420446574,-1.0027223389553472,0.05325706858489152,0.002617732959495953,0.007227826429634928,0.21298394205801863,0.3867261868806059,-0.03991772342222473,1.0257110902872861,-9.740714389724731,-0.9503065265714232,0.012063718607386064,-0.006634149188087159,0.05926707821305189,0.13462754739889415,0.641118643193619,0.04732949170370882,-4.002273652490179,-8.666961677495737,1.5516465635540861,-0.021883216101509426,0.011733746226382543,-0.05442786923580136,0.1870821032722959,0.6723938992155902,-0.16159550066096728
-3.9038158333710133,-8.881012173359116,-1.0940813396457347,0.0068335519711200466,-0.05537497316139273,-0.05204477487541891,0.07932011522097966,0.4889652441856533,0.08708967366912673,4.053611980509965,-1.3014496588711035,8.650639909535212,-0.0010267906269404753,0.002531933777317787,-0.014447515300414271,-0.1972754510736751,-0.008537531527493172,-0.36105093968731766,-0.7860116670508831,-9.656914195416364,-1.370845656773871,0.050968613483350626,0.03611367241552395,0.012806049283406387,0.20544301234743498,0.3863392685038257,-0.03594554464103335,1.2083101282699544,-9.654115458335049,-1.0935117727845756,0.005019665053888979,-0.006630083866813139,0.06433796699201638,0.1290466468363892,0.6396555293226847,0.05008513912529804,-4.001020807796702,-8.6839674730006,1.6038179182271326,-0.03622689056227205,0.03668143927017637,-0.05579059105492186,0.18268107502456796,0.6690060998430771,-0.15815526247527428
-3.923497262131527,-8.94683258912098,-1.1599690167703696,-0.000580196344852687,-0.037470135416558525,-0.04843030033012583,0.08586134100930137,0.4803825972043978,0.0858596874979275,4.031570900368048,-1.2434699554407012,8.61096579048639,-0.05317554098299979,0.025925800127809855,-0.026820483718571608,-0.20116133671394376,-0.015388347800654057,-0.3611691182900684,-0.8455574585425679,-9.394636402122666,-1.027685694714461,0.0096874541865173,0.012683965826425097,0.008227228773907332,0.20731848287567445,0.3929352759325313,-0.05071421425945756,0.7278072667614658,-10.110788737474126,-1.2798860571896884,-0.002676336717322127,0.02096719955342927,0.02074049639382309,0.13160068318510293,0.6460199123197592,0.03956500769094816,-4.033317059205338,-8.955268363283638,1.5756852735135347,-0.04224770071107758,0.032087339609316506,-0.04950593303255281,0.18415474285222658,0.6758573586725114,-0.16546324801068846
-3.8654958341067904,-8.853371152397955,-1.2216965798743795,-0.006388299483782506,-0.020453938447090723,-0.03116294000424427,0.08636487934945097,0.482815670099515,0.09147675572139118,4.069916707626913,-1.204041088375779,8.677983684616558,-0.008035476384011803,0.03555239551444744,-0.014011702696899006,-0.19989593164737363,-0.017151276652282638,-0.34991162110456603,-0.7996527522718612,-9.457987625523156,-0.9595117157058908,-0.05795500819675301,-0.028112363127462816,-0.0014138689132871646,0.2034135875943289,0.38571343416837445,-0.04544347091765029,0.6927473326413839,-9.722621279552,-0.9093496500718852,-0.015352187825571469,0.04658868070656551,-0.05967968739856188,0.12676071245000975,0.6382056605159921,0.04351975433653294,-4.030559746389991,-8.841606132180194,1.527653220125969,-0.03177208183286047,0.02714910931546599,-0.0427981858188276,0.17824533387725394,0.6690715448214781,-0.16324577152927147
-3.8052348665817757,-8.850946726537314,-1.2856027499849048,0.013578815572242794,-0.007282017884451159,-0.026084274231527895,0.08638111783090839,0.48575018695041616,0.08635336590960671,4.171474091890181,-1.1494597435975864,8.858268307337983,0.07176596596509069,0.0322687043942737,0.007220598300170612,-0.20553746120509872,-0.014071466850690828,-0.3545830201279137,-0.651942418197625,-9.873785509681321,-1.1736352961081244,-0.01833215684420491,-0.02932310189416528,-0.021640656407416838,0.20179264133387206,0.3871072664251061,-0.03495303284954248,1.1884660912864244,-9.34827181867831,-1.1929626000195128,0.015024788737181003,0.05479811096122388,-0.017509718572394996,0.12536740056758164,0.6391728554183933,0.04891138284924165,-3.994192905772113,-8.6544128966981,1.5271672219581334,-0.011963553224649683,0.04804873040836906,-0.04997447521870385,0.17762205100068637,0.6697592060243578,-0.15078627095638206
-3.888106199922401,-8.941735895202088,-1.2154537234092886,0.04299554558272264,-0.0007147131235226938,-0.03813643203283553,0.08663623605818266,0.4877034544663598,0.08440105402333649,4.04584372324731,-1.0568346004104885,8.912688076156181,0.0781685724531972,0.04549776466013341,0.001822667155675685,-0.19771531063968448,-0.016233553052331012,-0.3538408572154299,-0.6716786049560186,-9.800438498994634,-1.2378887219589303,0.045429673814943256,0.012459609552790872,-0.032549934483188464,0.20030664345374635,0.39021263201945167,-0.0398736735421471,1.2119797793126401,-9.680727841896466,-1.136094143460772,0.04273595104463579,0.0787741542790027,0.041526209457863755,0.122891691327529,0.6423551536796216,0.046020770537757855,-4.11536292225521,-8.573955278205206,1.4438788292918194,0.010416243092581446,0.07161019994305375,-0.07722368979757516,0.17541095504116774,0.673960411301056,-0.15758696466223612
-4.033053153539876,-9.001926110943264,-1.1264327400399496,0.051237671609932034,-0.02060709788251524,-0.05565385310877587,0.0795343011632252,0.484335550423443,0.0751224983110777,3.7863430046710156,-1.2608151291869698,9.017397859626751,0.0472334095817063,0.045814529478498164,-0.01657132583562936,-0.1950464702025778,-0.012339282368106847,-0.3551357168832151,-0.8261462389113485,-9.717718111705326,-0.8573618856754047,0.04647735751976534,0.00553118679164913,-0.0375967808150618,0.20540580563767252,0.38674824316528406,-0.0410794131032199,0.5753312036716817,-9.815765206622135,-0.889704287725424,0.049135351772407236,0.09429077260938117,0.032844480372320864,0.13094127623122373,0.6391729156246412,0.04566495479942541,-4.222975427759165,-8.838265982146504,1.457034581616094,0.003103956559916748,0.08653017990185605,-0.09329239866584298,0.17929217843848475,0.6704982816332758,-0.15641216080473627
-4.052635313460333,-8.968777688039975,-1.180707217908228,0.04198464944681791,-0.031130373575623312,-0.0402903371525971,0.082429442624104,0.47821015210046564,0.08097544981492306,3.908991299674937,-1.2180659231796858,8.992156949096868,-0.005622604646514974,0.035415871109346936,-0.028857825256853875,-0.1938034161796431,-0.015944495596873408,-0.3519057609591825,-1.1499685956849828,-9.675992906495896,-1.0587472790677757,0.03610094654393055,-0.018851795811858797,-0.03585269463095141,0.20615012070540392,0.3913549793128909,-0.04286630737717143,0.651560276336729,-9.715987756473945,-0.8348067900816076,0.0490326941858017,0.056454431436016465,0.030428437112637957,0.13286372671678312,0.6435709865553255,0.04296199600964669,-4.271379254949798,-9.21365096823,1.3576873426690954,0.0026631927312108965,0.06602123305253095,-0.07628015750311362,0.18056404921592517,0.6741406995580159,-0.15469842150512675
-3.9258768278450478,-9.032035248740472,-1.2024564930166677,0.010866201444091747,-0.009411277646505279,-0.0022396082775361596,0.08370420891451774,0.48723361179119457,0.08342523350223341,4.130989506372793,-0.9196687090817813,8.903086029866483,0.022434776838956193,0.04365689549665951,-0.00011632617927515032,-0.1984551512494976,-0.012057019412463753,-0.35219830626427845,-0.9505242873450217,-9.66589115969001,-1.0100897640134252,0.005075848861621155,-0.04211901124262864,-0.02445024388993496,0.20491513556781424,0.385537669065105,-0.04056864678627953,0.7380567244204198,-9.873173060622857,-0.8253570049771698,0.028067290398261856,-0.010192301943073037,0.004791399044211129,0.13361561414576417,0.6384394298907894,0.04489537478598479,-4.121764887482708,-9.1963782315458,1.493729850113867,0.014457762386742883,0.012920341026705024,-0.06157775121358465,0.17787106801596797,0.6724537354615742,-0.15346224902768124
-4.017320932956658,-8.993175650620161,-1.019834108136652,0.02697778455341789,0.024618676996093176,0.005178437269234799,0.07707845729931485,0.4814105568591923,0.08683939749837065,4.140735935492713,-1.0324867240806823,8.91191163852074,0.08435851973909197,0.0630252088215769,0.02356011352743987,-0.19042759213409985,-0.017129591740108238,-0.36508356305759115,-0.46846682940286427,-9.755792558383861,-1.1214129002081756,-0.0009607554645389213,-0.011641687626710018,-0.014913245493166988,0.2022698280844356,0.39142949145295597,-0.039418822770006155,1.300187163108001,-9.381786914386206,-0.9297413114489863,0.013805603839271954,-0.03681407514492393,-0.004324743675291492,0.128811627791357,0.6457583075172227,0.05034404906473955,-4.043405877220866,-8.670058122464905,1.5034815336022915,0.01603173732567728,-0.04544573089595987,-0.060902834766967,0.17280468852618616,0.6778729200808798,-0.1526661140344801
-3.765202654554301,-8.95019079277593,-1.0708722941696829,0.015116548809607824,0.0328279903514079,-0.03997684245378335,0.0885676485914739,0.4840297801675701,0.08464238527422889,3.947506773449702,-1.0297294084052717,9.09075297250822,0.03995248742392623,0.03493011067235257,0.00458501112956315,-0.1974938988833456,-0.009405894308441123,-0.35444385465417977,-0.6008488005615978,-9.819544234096565,-1.0042271627827084,0.0701786970755145,0.034447957758267166,-0.019843059342445506,0.20875211251501996,0.3902084267846084,-0.05288014564841289,0.9927754163913594,-9.391620415456082,-1.221520021848378,0.04266064349233618,0.011742508599778653,0.07255428394384386,0.1351995984929269,0.6443159263064825,0.03487507312065107,-3.853993505278958,-8.673225981288844,1.4939351615263559,-0.024065497414645417,-0.06853439284852328,-0.03809831643353779,0.18095804318031544,0.6754104106446832,-0.16763593705149107
-3.738985680228389,-8.898831589085106,-1.053967861808936,0.013230275612692308,0.02535053542288605,-0.04059512250240414,0.08005964835766273,0.49043068728905836,0.08171982662750346,3.903594084439527,-0.9444319471746098,8.897222957126885,-0.04636045908148654,0.004663223317465519,-0.007765703319420484,-0.19358557631181073,-0.01210711072456129,-0.35612170642061025,-0.979864434923089,-9.542149299035247,-0.8079241396758692,0.04586672501206605,0.010698158302673429,0.013885190333533562,0.20469783322764226,0.3962186123308739,-0.04464015346641414,0.42740718102051356,-9.873252700192445,-1.0683010670572477,0.000697247924442516,0.04300309445410867,0.054299797989521725,0.1335946664565618,0.6484541263546347,0.04247380568076405,-3.94151675962042,-8.900229595994114,1.4216330848326562,-0.02777770980722866,-0.04873956450910524,-0.04183984649025569,0.17401256862624234,0.6805667485018032,-0.1575480644748793
-3.832442670723416,-8.854898717511182,-1.1424426572700264,-0.015536815055310293,0.007882230570953616,-0.024078811954982487,0.07978669635295195,0.4855498669447047,0.08098253159207482,3.9441014479410303,-0.9900819580231416,8.773964197711233,-0.0379702353321775,0.0069908223704775365,0.019621924125923302,-0.19114699292066037,-0.014594018986224595,-0.3592622884275759,-0.7850658019262872,-9.549913353111767,-0.8491825766903052,-0.04001349590820469,-0.020673059984527623,0.059052003192780936,0.2066599311478048,0.39405318562318153,-0.04193620414638123,0.672818613760864,-9.757896753789398,-0.7465870439361144,-0.06730759663975036,0.027922647794787283,-0.020341548852261127,0.1336445279755307,0.6442951101911726,0.046615471937355234,-4.01946666466518,-8.98621128175688,1.4245437129273077,-0.03607993984089727,-0.03367381496325896,-0.03154070263797924,0.17691522862442072,0.677851453272785,-0.157583175075077
-3.8567793917042907,-8.950585601747003,-1.1606959850526448,-0.0370818117385231,0.01905709247105381,-0.01235144731351088,0.0768890839081169,0.4909395733443049,0.07927892657751132,3.9767111871196743,-1.1313408104155573,8.801703597352873,0.008980840441284882,0.019297660036882738,0.03848795442822444,-0.18723669785427735,-0.01877217543926337,-0.36164877143563423,-0.6167203180608859,-9.772137401921936,-1.099824794769262,-0.03293846357696518,0.01114720522735281,0.04993743883909363,0.21100956465455437,0.39152394157384596,-0.04608115515886162,1.231403607503691,-9.551007763806547,-1.0935183983381098,-0.05689346195176458,0.015572912513609791,-0.008791076213215952,0.137000246691217,0.6403939197384587,0.04216950062021352,-3.9863594363028625,-8.9378019577937,1.5518300308903679,-0.047365143476843244,-0.043007866472297464,-0.007606723730955705,0.17933924130266293,0.6763630140016285,-0.1578532733383071
-3.7850504028961636,-8.923541633975596,-1.1501825213159518,-0.024734663747890122,0.027464985652063092,-0.010760473475213753,0.07781029487876553,0.48140689201114284,0.08610624449510831,3.8734505751160806,-1.2470833670864032,8.86562838536143,-0.00923183453298499,0.007126040880030648,0.002491859051334526,-0.19628694261322271,-0.008973987772105693,-0.3581176700150657,-0.776047424883762,-9.779089750923527,-1.0902310244566105,-0.00265667545761564,0.048768139450057306,0.024837825007288112,0.21489386459297327,0.3863878556915097,-0.045299090712882115,0.9220039464898162,-9.985077320496643,-0.9825170876955632,-0.02523498456169247,0.04048150871889584,0.013821652976873034,0.1409259014089466,0.6381893934878686,0.04382286840979529,-3.960021625144559,-8.758866401186335,1.5115914630231924,-0.03629278800969728,-0.028988029810248568,-0.00875954651813173,0.1817488538294993,0.6741466577711591,-0.15910231518315185
-3.723567992461572,-8.779998638762116,-1.1952861486456317,-0.012001078686542327,0.0031666946917199234,-0.012177732058509597,0.07877778173983158,0.480190159968403,0.07487495773401837,3.881577299928022,-1.064780560978945,8.893528300830434,0.005290455516364069,-0.027993007399297068,-0.014866316361905945,-0.1962720195010849,-0.018563414117283093,-0.3621093693613519,-1.053443622311421,-9.889078152986839,-0.8197581604679391,-0.01009897703262441,0.004204986144386026,0.009069197396685453,0.2022155656226783,0.39180420257194964,-0.046749357822957374,0.33176743511394713,-9.94512101588871,-0.8864800475135498,-0.01040989645743928,0.014102741778632013,-0.0032194049249232902,0.13146567582470028,0.6489345863983632,0.04763012598072861,-3.952234364669118,-8.664018244916475,1.3834476347227396,-0.029377439725931296,0.020864898678889954,-0.016316809592225125,0.17476128562098475,0.6820222868317832,-0.15730316443048858
-3.6946207410856124,-8.757334198984614,-1.1568718415016912,0.005133309165247066,-0.015435226231417559,-0.008236809588605879,0.08267606815661836,0.47869779144785557,0.07975583359922687,3.9046951645492425,-0.8669306202362348,9.013750463048806,-0.004117175934676138,-0.06715417572619552,-0.009422325660800299,-0.1882203195509619,-0.016330410824659955,-0.36144184167778864,-0.9216112228075255,-9.887054288754287,-0.8230676674725355,0.011697107483967068,-0.04345248264147179,-0.00489088149530468,0.20265520737914808,0.38180052391403146,-0.04610866020701056,0.582193383860553,-9.78224387556217,-1.2032160840856623,0.009634775901413657,0.02293596979766672,0.015324276419135047,0.13140275282054426,0.6355137019079085,0.04394267046378761,-3.9263642107423795,-8.65698029765392,1.2948035882890598,-0.009240102602723737,0.05142436828498289,-0.024622765165220252,0.17169784211885744,0.6700975295644039,-0.15903655533370564
-3.7085147840052324,-8.797559812080205,-1.1401738521786724,-0.006503134980926608,-0.030254610695703562,-0.007373642320540665,0.0844577498067027,0.49089144590430345,0.08318433990584205,4.131599561566018,-0.9708904304146695,8.931383879508411,-0.032734823672968996,-0.0825713442267641,0.018325110659552935,-0.19624367616228627,-0.025610043245097237,-0.3600393878179108,-0.7492921832205583,-9.668846564674952,-1.0874076113969118,0.005039052673702909,-0.024944643997406462,0.010967572019107122,0.21073148465243324,0.3849379755360585,-0.04573223129677916,1.2017298793197155,-9.659963476488015,-1.2454681026344225,-0.010479420662775038,0.05211961072715091,0.015169652112782907,0.14386394343333964,0.6398942751774844,0.04427565145642246,-3.8865673195441017,-8.71216530752712,1.4222701120717651,-0.016585440103960264,0.06963680458966505,-0.018541602953864325,0.18172485636538976,0.6709687956697244,-0.1581392634784225
-3.7693104527545147,-8.952720951122082,-1.155864746179786,-0.04481777932837553,-0.0273146660526596,-0.018451203199377538,0.07708415907225588,0.4826370633044676,0.07951648650413595,4.093373705308854,-1.25298453142621,8.83772839490181,-0.060863882131077185,-0.07738488982998759,0.021148846491830832,-0.19821228635604848,-0.01801256914758624,-0.3579612628835853,-0.5804462210680282,-9.796638456897245,-1.1435159195253244,-0.025499946331277386,0.037716072399413283,0.02753693517558168,0.20581132812695196,0.37667602182683235,-0.04483304851704583,1.1250238926588307,-10.018150077601428,-0.5517862667620965,-0.03367112453844003,0.03544888587535089,-0.006519167547563809,0.13285819331240778,0.6298976043959804,0.04366768553481866,-3.9689298286696264,-8.763291244503217,1.333164718818247,-0.05830206811297293,0.06914188549783114,-0.005837460454262144,0.17314108460296884,0.6649409106613573,-0.15540765321036337
-3.701390835694766,-9.02510914663248,-1.2634631816572857,-0.0711147172363709,-0.022316080878659356,-0.027844382263001406,0.08440872937549199,0.48259081112822705,0.08293295114015152,3.92133138082188,-1.3079689328823876,8.859445646998353,-0.06832033948649545,-0.0794655027025549,0.016650207166286263,-0.19333834119058557,-0.0170453313448369,-0.359459190637849,-0.8135990900287743,-9.692308045985513,-0.954938384915915,-0.05178018713564605,0.034067123002231185,0.01539101830771202,0.2041861667132316,0.38433985092290995,-0.039323117939854414,0.6746449980841684,-9.943842654029798,-0.9427528985925523,-0.029680574825798545,-0.00512203861783499,-0.03287431831091834,0.1317140101544831,0.6355035219618298,0.04906601704983535,-3.9569583112243607,-9.035170763611061,1.2123451353032157,-0.08768104233473753,0.04856268166033183,0.008503072976944165,0.1744734074433099,0.6724779665351371,-0.15099313572771325
-3.8200493467089456,-8.998700681145737,-1.1881763830500038,-0.061394566522684366,0.003932463386335773,-0.00809396239222877,0.07831789597832915,0.4850746519513225,0.07634440598256695,3.981071555019148,-1.2578540660722488,9.003689270401546,-0.04377900183183952,-0.09243029221712301,0.023894102248568444,-0.19676400357996823,-0.005945711010571706,-0.3520613567231726,-1.0257087651779975,-9.65291774945542,-0.7809786508698946,-0.06684976996441007,-0.019456257174731442,0.01807314298776413,0.2097642092499255,0.3837528977562435,-0.043752939769112716,0.44267391166489306,-9.575170851355958,-1.3428350457969531,-0.03443928785832276,0.03519883845778356,-0.050850470961776154,0.1358033158813942,0.6359960025322035,0.04437389529527089,-3.967762862714165,-9.07704845255946,1.3754330222643427,-0.06715697153452257,-0.00019405988873184705,0.014858447734232134,0.177110315716573,0.6710032718974503,-0.1551710911468117
-3.849215761117921,-9.055924471469107,-1.22318844807838,-0.05030237533617846,0.03701813177108043,0.014918272879832674,0.08492210631626698,0.4867349419130221,0.08733054197550617,4.21009110651689,-1.0928423206774238,8.963522886564732,-0.004700837725476525,-0.10123525549323323,0.031184304768561516,-0.20261750060013997,-0.009405093679795265,-0.35344918747031595,-0.9349480835322159,-9.766331034789623,-1.2683554581924175,-0.04098529047932356,-0.031235971624559676,0.03464657873434507,0.20742949405247849,0.39653938009748435,-0.0388064771660047,1.1565153765775578,-9.277031389009528,-1.1741448914395551,-0.045886601252738364,0.054710703104941145,-0.020710866235751038,0.13127453270768358,0.647461827649576,0.05178015091760409,-4.015218416929455,-9.115080874201414,1.4336724744180853,-0.04306010960910546,-0.03583064147511206,0.02479906824729114,0.17609258647135326,0.6841633098957287,-0.14656276093315843
-3.8324549156657453,-9.225546911242617,-1.2079740549255413,-0.03126738623395945,0.04639915662493762,0.0259817525119248,0.07368177136302932,0.485094178373111,0.08513437368843842,4.242613006793632,-1.0683207236735093,8.833144504020819,0.04389170924337898,-0.08802773181887238,0.04289776525087714,-0.19897886733586165,-0.01396550196853375,-0.3641295932775918,-0.66186590731469,-9.962300842526885,-1.1151159272719646,0.0029836369202436287,0.004020834860236572,0.049441633172407094,0.20326264741404346,0.39193977471668157,-0.03772523138790759,1.0681153835364736,-9.702151026224612,-0.8113381628781184,-0.046657814069041424,0.02131840000090319,0.025689753126494835,0.12787118792950172,0.64306870335175,0.05328144643304117,-4.066101420252962,-9.16989298344017,1.3365598757525212,-0.02221955459266436,-0.04456771546139468,0.024147603923697476,0.17069585433291484,0.6820214613638791,-0.1470163390328946
-3.8241593472444717,-9.232116990078513,-1.2023306025550429,-0.0011411868662237314,0.04010976822278011,0.03446499877631243,0.07441281758058182,0.48484368876138184,0.0875750021694281,4.182220764645477,-1.123913247313187,8.909589494515227,0.037440261943312396,-0.07813839875410178,0.022832081503032956,-0.1972515182550586,-0.01857849485495723,-0.3628388710832931,-0.6838796126116194,-9.869736860918518,-0.7851605487767719,0.03009025548428356,0.006381480105243101,0.02777409517080493,0.21167910090914552,0.387529737167333,-0.05139586741473973,0.6684751325174029,-10.025296481254514,-1.120146077718283,-0.015425631197233182,0.044918411974684234,0.04260004377743632,0.13530334927392657,0.6367314183319227,0.04340479313711594,-4.036888822935415,-9.084386370887737,1.393561138964584,0.007624737953544075,-0.04764800667102455,0.01236518424520171,0.17808661240883691,0.6744284825594477,-0.15931607337712525
-3.835368486852302,-8.989658227775566,-1.093716155740747,0.009251750334381362,0.016600409450390485,0.03180092080160039,0.07293264549844798,0.48216354975586906,0.09074691681493803,4.036236910182857,-1.2248657036683237,8.993843321764208,0.005323784608027269,-0.08892667933485073,-0.012157202923533304,-0.20872845862731712,-0.017384011267291655,-0.36233030874648486,-0.877285558828365,-9.67062048230631,-1.1046079180731319,0.028513981974281465,-0.02601510608870386,0.0248621345254955,0.2099662154823263,0.3814939565095964,-0.04762586617252754,0.8466030586719221,-9.472387633635023,-1.1627209272773187,-0.013897961467769178,0.08661236670514053,0.03867029007874994,0.13604663102686074,0.6316012763187009,0.04460622318498912,-4.031841373041585,-8.818161850314404,1.4029827477480905,0.01536699530880411,-0.019461613518144842,0.0033111627035762475,0.17928525206568457,0.670011322943591,-0.1566581349088613
-3.873094107794673,-8.955542125698742,-1.171164076149214,0.005281531622694715,0.0004954033304353082,0.026342374176574694,0.07074655714792752,0.48413230459875195,0.08757511668057517,4.175114699825778,-1.0017602670375028,8.86372583798256,-0.01755441330763354,-0.0871585253955182,-0.004858149164402878,-0.20626904484883946,-0.010603547132481812,-0.3514635422548927,-1.0330043307325059,-9.617307908127042,-1.157119452768343,0.03385227874859386,-0.03188721982059231,0.054152716456709035,0.2002358430718905,0.3849987617742148,-0.04540765026524265,0.9156874762943866,-9.47410024342839,-1.004826901860077,-0.042628112080036785,0.07214281923962486,0.05550879464238647,0.12457559918392398,0.6342986857982674,0.04476198119561982,-4.018636049104214,-8.813340500845527,1.5194822186396273,0.008239855333500004,0.0013986684727004407,0.004009291656448225,0.1680701603385911,0.6733061420341693,-0.15874943180630083
-3.9010282287783022,-8.960271544205936,-1.1889955953905966,-0.005940264784429832,0.020092075505624626,0.020588130346564777,0.0846534666652686,0.4828364139787777,0.07951511865467273,4.29444107276754,-0.9356639183039606,8.819827699916607,-0.044356885877742926,-0.06909592083633326,0.016457300295250697,-0.2146027966080833,-0.006824163911505426,-0.3576015297169442,-0.7576512928175635,-9.597915775058334,-0.8386551766508202,0.005722043010736287,-0.02925265332747304,0.07390800746256095,0.2059252035049892,0.38753079494346865,-0.03767713334254662,0.7412140895595412,-9.844902696745471,-1.042469860528421,-0.06901207773906048,0.056825062323855514,0.03203332463276029,0.1311030409133619,0.6376838382172427,0.058112047096921554,-4.0185828325961985,-8.765287753437569,1.5606869158785401,-0.003537026594613307,-0.006479835995842212,0.0012612189881165566,0.1723742610867075,0.6785854545186789,-0.14655536318910156
-3.8571389099207742,-9.003468859270514,-1.2062660675449353,-0.0445547335837454,0.020845922979285433,0.00032867829738190355,0.07708630260446994,0.4826277060398942,0.0900144821150547,4.0954001801891,-1.172795758964287,8.777603898765795,-0.034585523634929505,-0.06581176903093243,0.016203389210808227,-0.1979578008924281,-0.012015097336182709,-0.3497593542020512,-0.6670139515697948,-9.66338005472577,-0.94157247590687,-0.02489360437169476,-0.025552405245674557,0.08115107445712819,0.19589347890896772,0.3918881375899127,-0.04352809836475096,0.8838252835046229,-9.605951570070973,-0.8332977124863196,-0.08190515697570738,0.07715818595950236,0.004530418658753754,0.1212538188256347,0.6399051490725705,0.05165302036291354,-4.061983796758825,-8.826332206720739,1.3985322455692535,-0.04679912564873493,0.008717671972634358,0.011774077114214321,0.16600110449276947,0.6820964563833446,-0.1538127532113795
-3.8344093168429763,-9.018577092049815,-1.2524691944391633,-0.04578987281531424,-0.0016689220506856596,-0.0010971384352403209,0.08565891346415373,0.487464780543004,0.0848900410431136,4.144373602283168,-1.2788974834960496,8.628863363437384,-0.027994428557160497,-0.0551664626145064,0.004105673435662578,-0.21017971286425846,-0.012124562803920982,-0.35411032766372635,-0.9069047974227444,-9.672891329715387,-1.2825655689879885,-0.0024461351689074717,0.0034871429360137495,0.08477847142924462,0.2137527152987247,0.3880029794175765,-0.036036014839408326,1.2009019646713772,-9.4715860304927,-1.0246344774352314,-0.08210453576472415,0.050303021256136206,0.03178449304871548,0.14335622602728412,0.6369315493751447,0.06161210896237618,-4.101817179096706,-9.002607576857756,1.3623144660185726,-0.04823762387044299,0.03681537083354591,0.013611558974715747,0.18265936993883328,0.6762571525230889,-0.14005723040211923
-3.833763831117066,-8.986804771050956,-1.2474850042819652,-0.02124258032408895,-0.00460969282490564,0.019018236570056708,0.07903222081958144,0.4813955541979538,0.09074498682996086,4.157406615850953,-1.2444349893948827,8.697195397642938,-0.049820375982281624,-0.03493658691552224,-0.007983612821164127,-0.2055638643198788,-0.0062727062035456875,-0.3554443001312054,-0.9578274160078479,-9.543580363559233,-0.9571795496537239,-0.005369808538893605,0.005996062407497609,0.07538161434236482,0.20396869999341308,0.3870534673791584,-0.03765449696607109,0.6523325203457081,-9.987122018253974,-0.9891328907068431,-0.07408614507145005,0.02594296735754814,0.02142624750480701,0.12501902328999426,0.6350021440923639,0.05989585431160116,-4.062916531126426,-9.016543689045173,1.3182762470424143,-0.016493946198881494,0.02938276140107465,0.011395883477638768,0.16990728105295616,0.6764141519139621,-0.1470331293576628
-3.8438881510226395,-8.992177994517165,-1.2543887292932754,-0.02584459505446771,0.00414328410004598,0.030620982942043018,0.07418327199715477,0.4872858672306826,0.08782122594815941,4.135795595752933,-1.2407959259036805,8.577746957861455,-0.02577009534071879,-0.020865737596446797,-0.011649654487858874,-0.21312335767501117,-0.010713080754603619,-0.3568100303607994,-1.0035985903465625,-9.619764540600494,-0.8365497742033782,-0.034470978752419355,-0.04414792611097846,0.05679773814114291,0.20984557275439275,0.39236908064347037,-0.039248262374004486,0.5011118400463617,-9.730246643658301,-1.1377487752587159,-0.0607073852574107,0.033945781159854214,-0.014312979936253674,0.13016004976198886,0.6393891700998261,0.060568935751027876,-4.072670788091784,-8.998100615724386,1.3702630968271219,-0.014104010910531962,0.010169771053952222,0.022646006865356876,0.17678611683789916,0.6802491724021946,-0.14658469976606053
-3.7782926601959756,-8.924883574833602,-1.2669641460919912,-0.016221310308201106,0.008198251554167204,0.041106636743227294,0.08197045748762465,0.4828437668456104,0.08903667701914371,4.216376469290281,-1.175509931727694,8.491661833882858,0.0502426710105867,-0.010103219470143567,-0.013010404723146114,-0.1955651364360701,-0.0048102311640946345,-0.35745605097674493,-0.8801588194672902,-9.776976832497912,-1.2641071258869094,0.00034796809206065607,-0.054568602179940286,0.03739100330740436,0.20173249273921298,0.3860199827623419,-0.0420166810134339,1.1811428135564201,-9.486509030036096,-1.183596036438797,-0.02845496945735427,0.04548664757104098,0.02082220297972688,0.12595482846583483,0.635495224482051,0.056710247712823444,-4.015471552135235,-8.906029468158861,1.3140379236219253,0.0007884238289097311,-0.0017905142102488873,0.0281462862155721,0.17013058669366343,0.6771588342004565,-0.15044901824388404
-3.6981315482141923,-8.945575664930152,-1.2727809598486999,0.026317711292878677,0.003575115127939762,0.05807183723739643,0.07731663954979515,0.4804323523342731,0.08659447685207135,4.233533942611192,-1.1709772122882147,8.778976126918769,0.051026031138179495,-0.0031785485462812865,-0.01872866595421226,-0.20093120742354878,-0.007528165204143716,-0.3583697701410848,-0.7974358349980623,-9.830832209601345,-1.0854933080492326,0.06533968704934691,-0.03383579927129173,-0.01192136451780003,0.2190713963914894,0.39052619609489375,-0.044662965113565226,1.0272304291631438,-9.961703911043838,-1.1840434338187225,0.03364796860686169,0.05511195647802792,0.07028223109574427,0.1396037996144156,0.6389022000608733,0.05458454289076615,-3.9842031236997744,-8.871381786464452,1.2692769577880727,0.04265879541936104,0.008020108452046645,0.019449705056542924,0.18749076631219083,0.6821234372123164,-0.15350114300330941
-3.796928556116922,-8.92091462904632,-1.2477927952381456,0.034917960052031516,-0.010077577880520378,0.06112091331014923,0.0751221141012396,0.4806849569755903,0.09147715213830812,4.099211202242871,-1.1636958439560348,8.813104126437574,-0.014772257405594286,-0.0023495019037978277,-0.03085191491539731,-0.21527874548882098,-0.0157205260841511,-0.3491505684577887,-0.9497404354442818,-9.633048215488778,-1.0010326802999825,0.04440087245139954,-0.039327759249870385,-0.037715076228728266,0.21319408628975758,0.3934190553110329,-0.04905812125683025,0.715568149840251,-10.154765741124653,-0.9556429804279629,0.0489796747392052,0.0661921648958944,0.039986807109800446,0.13665988110338728,0.6376862629291671,0.05364373967427361,-4.035581928379223,-8.80967442408576,1.3444072097840278,0.05437592037399577,0.025711967503870392,0.013548621758717162,0.18308683780006924,0.6836436894562485,-0.15638878352368962
-3.9158299819550026,-8.872646927438941,-1.2291434867466042,0.007188318276834189,-0.004055988857243065,0.057868941192498524,0.07978858459568966,0.4857919034415441,0.08318074786185745,4.283954799093843,-0.8985491827866829,8.69753498845381,0.004243175691182304,0.01065354798863756,0.008094075939077676,-0.21019619661716415,-0.009232405208877721,-0.3563565239444026,-1.0244342333601266,-9.696735194509124,-1.0839581649242458,-0.013245718259160938,-0.0541422472757708,-0.041834138376787684,0.19785620415921257,0.3848936980557942,-0.03732931217747109,0.9134958851583855,-9.955049517067968,-0.7602468122455395,0.03764176165228714,0.00870114037474069,-0.018127716069363586,0.12045271435303838,0.6308458420623717,0.06580725669409543,-4.07394194690465,-8.802446448227471,1.4819631133059081,0.029934984676053194,0.015808319650373718,0.02598781093659234,0.1684130366988493,0.6725180435372445,-0.145815970646939
-3.879304775458862,-8.919763190355667,-1.269644958080079,-0.005114308680082362,0.028909934576361932,0.05364583521127532,0.08144556183847994,0.4767433251895167,0.08951934684221663,4.507230922480378,-1.0243542819194884,8.71225076324367,0.032358939517037937,0.04853984519928681,0.06170463213051314,-0.20478816312915218,-0.017458458742563097,-0.3528202007050078,-0.5293092695590311,-9.697885784348639,-1.099543340412031,-0.01935678475210661,0.004008011706514522,-0.057124905839931635,0.20441068035601903,0.3898547598990851,-0.04575984603794167,1.3377526977287217,-9.806135558581152,-0.9469284895934936,0.05340970284454399,-0.029466743760666946,-0.02629016626422712,0.1313147046979387,0.6374442977850183,0.05566659114278367,-4.034108064185683,-8.676532635192613,1.4905337483205707,0.017232124239966378,-0.009298126291886873,0.029452121818953646,0.1767107344997947,0.6785706510894102,-0.1536713454962795
-3.852361744766635,-9.133738002111796,-1.2370011696350074,-0.03428169751413678,0.04895337238959091,0.024422644005825143,0.08393226551697675,0.4842963488394695,0.09001457159786168,4.305530469719048,-1.282560393254907,8.79590635027117,0.020677620269991075,0.07579623437383047,0.04288220800888654,-0.2065383789778911,-0.011470702423827668,-0.35950640087777164,-0.5049809622635751,-9.608842945706012,-0.887686732177591,-0.025648185676421544,0.04980537686004961,-0.07101941059552831,0.20977478491182064,0.38256632778348487,-0.04153718033832533,0.9001338541698296,-9.653537426816243,-1.113716423098998,0.058348230589077975,0.010658460922065275,-0.03492412647292116,0.13570879321557516,0.6320676108630477,0.05608756838953787,-4.047242752259612,-8.786743054789921,1.4215264079038765,-0.027398562207241895,-0.02038786976189829,0.030005723679787655,0.1842481535293098,0.6721297285674582,-0.14960981137236593
-3.8304189265050854,-9.15168841707844,-1.211558639272131,-0.02696105625968321,0.035532788861019564,0.013365182345198328,0.08123140716533288,0.4821237204530645,0.08049118254464417,4.045738186788862,-1.1996217150943065,8.990663980994318,0.018524853614202866,0.053366185940812494,0.0016874059093716842,-0.21090669543823173,-0.016309557621321705,-0.3559927518230136,-0.9457223484731784,-9.699926997130069,-1.0231812196935683,-0.02342675371538355,0.010788088396374292,-0.06527528612048192,0.2058498730768279,0.3910019200848132,-0.04993954373282955,0.6249768468418646,-9.581908273144892,-0.9044627617603149,0.06059115030345673,0.05453726974054814,-0.03345756558912507,0.13369010690743813,0.6391605683355568,0.05051128603634626,-4.1032804046380305,-8.966657600637175,1.2944197804036077,-0.027844412648893476,-0.010645286516964385,0.01586321279595899,0.18037033276929382,0.6817238749979171,-0.15783949778340878
-3.7923845703553027,-8.901991008171517,-1.2130678411937565,0.014306890648097741,0.011650680038329659,0.028227475243596267,0.08049704583271658,0.4813875643607068,0.09001268030712056,4.113316381473248,-0.9402192694035268,8.95588166457,0.0023837319104223027,0.01120163617648595,-0.005086529971294351,-0.2096891592797272,-0.009633902460682742,-0.3512238706251886,-1.1419958181313385,-9.786888461741597,-1.0580515845750122,-0.009753362177718165,-0.024774669306516766,-0.0471990695245467,0.20074197362916651,0.3857546606647927,-0.04371411115255153,0.7629326659131048,-9.462227646885694,-0.882110635673752,0.04340598398795674,0.004047978764102219,-0.01616518329505176,0.12442989238784907,0.6362387799409968,0.0520922903464623,-4.059732219771639,-8.893443218255808,1.2707388701939606,0.018875419286234943,0.0043805788474346324,-0.0065671430417068065,0.17446429197784435,0.6729730289831701,-0.15270007892560739
-3.832773430862062,-8.793630123627933,-1.1958650010533174,0.005778702827287304,-0.003547914508625486,0.031187670725358548,0.07756445501297139,0.4811650765538922,0.08415307833601662,4.253342090588172,-0.8862440209185433,8.750671453732803,-0.013269841680698181,0.01522165539924907,0.01353009499876911,-0.20163290128341388,-0.020760050903945473,-0.3610784671626081,-0.854158496332708,-9.685866563712178,-0.9854846085023864,-0.004018322965520052,-0.008646284106182593,-0.007190052065176472,0.2013234021830761,0.3902872877341122,-0.034754954345844156,0.9355523300748553,-9.471551590251531,-1.0905921919678165,0.0038582764309380373,-0.034533599088311585,-0.0019575921409307096,0.12132962107620583,0.638916819802977,0.05750962938808104,-4.061369768849648,-8.701112939003242,1.3520408168966458,0.01332905387524042,-0.0005424089906433073,0.004164441532523611,0.1728705086033982,0.6798025057610371,-0.14704340998568224
-3.919521538338238,-8.969020760937125,-1.1573596046188348,-0.029909172277465076,-0.008745198331938578,0.014029317938231119,0.08368702342387678,0.484303228965164,0.08391062525310714,4.178431988158964,-1.119125342828422,8.798060143950545,-0.02769536899933372,0.03296631901421141,0.0063013600630330326,-0.20188449857482982,-0.008901834352911775,-0.3527279336448176,-0.6212563558052205,-9.624236390716613,-0.8303512918510259,-0.01279975516888171,0.009826577277808904,0.004879856208940555,0.20800672532180686,0.3795594339268186,-0.04709240325202581,0.8300765998900993,-9.733636968467057,-1.1075074757554995,-0.0070362374997557965,-0.004242264521698097,-0.002060053779630986,0.13216316511490586,0.6294047319067851,0.04660611122114659,-4.102603116956366,-8.734760132155822,1.4270690671085702,-0.029097119668719525,-0.0002749935693801377,0.017819615695098892,0.1807177623628684,0.6687857967748706,-0.15911609073805016
-3.8186115932439146,-8.989578899568622,-1.1646975362121972,-0.0294995867393388,-0.028017604128127146,0.005768052628728284,0.08418068514103098,0.4850274614214397,0.09050317274692872,3.944409143704937,-1.3199439199733045,8.89272087572012,-0.05286287098909902,0.013144689264364184,-0.03335667156556814,-0.2079974779629124,-0.013675832394928065,-0.35970889029098746,-0.8755557400991284,-9.602431740188715,-1.0278271396479037,-0.028424407348698593,0.002060053403039096,0.005686399550847304,0.2088434905659527,0.38870145133171835,-0.03991638550576158,0.8310609255657447,-9.63772749497734,-1.2535347440169105,-0.008301843379304015,0.048586129776657265,-0.01605350366217055,0.13132946017032457,0.6420818687257579,0.05640843212685193,-4.060635235784752,-8.842349371033922,1.3268766729132233,-0.03179560122089544,0.013607461531460665,0.009848047048608706,0.18432558615955466,0.6792062683698272,-0.1488480518215499
-3.8586353363189403,-8.843565464684488,-1.2812232653907838,-0.014351576708720191,-0.04904725816684947,0.019155220705805977,0.07561641153300655,0.4819069729840959,0.08708413860271494,4.044903102151803,-1.0331498164570982,8.962638926279435,-0.03511971542254453,-0.015074365692652655,-0.026372738227261584,-0.20334368175581247,-0.007148913401045278,-0.34982157345020226,-1.2040871651374936,-9.673006448181035,-1.0026732117625818,-0.03047032718045291,-0.02549300997881425,0.025052928107034307,0.20293777968884782,0.38694834802167494,-0.04472592746112069,0.6850757777234268,-9.405690237167686,-1.3483616377582495,-0.03415794109735448,0.06540688131390665,-0.017657818630232604,0.12785856561136605,0.637453660965034,0.05278270835301488,-4.113714849240703,-8.894652725031808,1.3381011143219912,-0.011847071495848412,0.021997877982423135,0.007848921342622803,0.1784029756988274,0.6761075658321076,-0.15271942546835976
-3.947737874662467,-8.861394442769178,-1.232567943305773,-0.010561745545285602,-0.03673649917978537,0.02938142420050921,0.08708132270228512,0.48037974671005695,0.08097643381380802,4.198381413958974,-1.256422154930135,9.058931601507629,-0.007663137482263817,-0.015575455624751407,0.0009174906044876955,-0.20309075693295994,-0.007848710339775888,-0.3478575603956305,-0.9265865021012994,-9.849364890648515,-0.8514071330174879,-0.007811861011825803,-0.03228679354901132,0.04918764164762768,0.2068932685714645,0.3899252746606159,-0.04040840647265293,0.7656377984437716,-9.541981422184762,-0.9781758333341799,-0.046877793453875764,0.06325790355587296,0.010501417219196557,0.12842394884536018,0.6379308000741889,0.05863572689640198,-4.108559579476713,-8.796613825625789,1.4728372761009163,-0.00011239842521071389,0.007283244146494721,0.01434175154214298,0.18136839234193483,0.6785138985414647,-0.1512687370026101
-4.030267545863666,-9.114100036608805,-1.2157513310255692,-0.022803261552864777,-0.009514771150097488,0.020364183718305815,0.08074153381283106,0.4816342555347517,0.08537384833212643,4.297268995512921,-1.3650654779381548,8.992249082470128,-0.011778465157973733,-0.012319554873214175,-0.03464347419425863,-0.196978285754985,-0.023143267051636822,-0.35836851530401514,-1.0209812019055475,-10.07457460398519,-0.9365879732145531,0.024257520607285955,-0.023447748631782138,0.038638229411916074,0.2091168024728219,0.39069094512329083,-0.037507169024235204,0.6702746734697244,-9.982306323941929,-1.347288528710166,-0.02914562692827335,0.060936914460731434,0.049751692835152926,0.13211527172701368,0.6386545868193285,0.06078587692161914,-4.15584288332802,-8.858563001631394,1.5511439231887054,-0.0202794793095701,-0.021438440276455542,0.018866417000733528,0.18263058349665326,0.6801973656162725,-0.14834199528237085
-3.969900299161569,-9.20276631903392,-1.224091692199878,0.003573956767764941,-0.0008450883785138118,0.008975520745597331,0.0824344650453358,0.47868878615068605,0.09147387980331917,4.228023562859868,-1.0650731444652581,9.000557595163626,0.013854102020107836,-0.0078051149789801705,-0.04850701610469709,-0.19919456069488378,-0.007140499090002953,-0.35007995228278627,-0.994684867235767,-9.992989650356575,-1.1029627320524007,0.02781630491472739,-0.07575588500483252,0.02711963082391619,0.21849840060010847,0.37345259107883766,-0.043660091453144784,0.7505415367645585,-10.152524334855661,-0.9614390897247228,-0.017656777991494944,0.08277786794093053,0.044739732521696246,0.13645307175307805,0.6220535370186673,0.057767581632910125,-4.164873816342595,-8.884003975483651,1.4568505455085368,-0.003438932344282409,-0.02996822308649209,-0.005376330288374295,0.18875170816436004,0.6620909065636597,-0.15383863738264
-3.93688754385152,-9.137177767655247,-1.2467159808049537,0.041249901005100696,-0.005233938969247418,0.005052914301231076,0.08902406338644234,0.47840960216045186,0.08732228372440168,4.280653241134052,-0.923999323120881,8.994689620551322,0.03767946166912395,-0.01511545547892775,-0.028593565866984357,-0.1962651033548352,-0.015556948651719653,-0.3575195612421278,-0.8295175779317397,-10.000126068863313,-1.168759647229759,0.037521999109869135,-0.06955375336303206,0.018473245435317708,0.21275262089280578,0.38699432555119173,-0.03845488741916046,1.1679320650242044,-9.872791752633484,-0.8374983273926845,-0.004588053872808795,0.03614820428489856,0.046343196033910364,0.13557859678911885,0.6364468113670424,0.06439847765605929,-4.166675130954523,-8.96346045533944,1.4379028431782848,0.022546142279035404,-0.019560893677728394,-0.03090466721810959,0.18655110910834352,0.6784339937113264,-0.14447535145950224
-3.9095858952592413,-9.05069758722062,-1.1845934463577947,0.0401815124701416,-0.010973310852496861,-0.002167986288316858,0.08268963329789035,0.48064183528886045,0.08976656781461753,4.296614024013044,-1.0046224152226144,8.808575483796895,0.019535214083836152,-0.010302591522814094,-0.015812390603976646,-0.20163213403937047,-0.016297880608909392,-0.3570008363959209,-0.7043294473351729,-9.875907072325976,-1.0870653804786952,0.05847607104115521,-0.01246382253737389,0.02137366296044316,0.21486763710273327,0.38391953577345656,-0.04696964568081886,1.1888968262265402,-9.754065408034402,-1.221552597359663,-0.0032182604643223936,0.02321945735350492,0.06780410404829891,0.13763541294786277,0.6286508114014203,0.05434652506837002,-4.087115531086524,-8.822761502765841,1.4108270131534106,0.017709724552795316,-0.018638872621587595,-0.03832742962501334,0.18811171015295217,0.6721117370937093,-0.15476883952917816
-3.849413640463049,-9.022082510200777,-1.149256212143858,0.02050554447137143,-0.010292753369777552,-0.01954736941385059,0.08046684343703857,0.47651074445158903,0.08317233672003901,4.175954230396945,-1.3087603868609055,8.72780634267068,0.039851635097165376,-0.0017123754363898933,-0.029346235098343106,-0.20210299248710864,-0.02389055418701746,-0.35833858460036494,-0.721564542796293,-9.73550661518178,-0.8727766912131464,0.041769663036470464,0.010802643169136854,0.03049488777451089,0.21172420224705588,0.3847229694000485,-0.043539252013063814,0.7973511455555665,-9.848397864256379,-1.0200713022674568,-0.019655955141420274,0.06215982824890291,0.05786824488910446,0.138652656080873,0.6303530852128334,0.05726572552043239,-4.033619251939774,-8.804143144726737,1.4130789477396561,-0.010713042988336842,-0.031066998016020222,-0.03486638910473298,0.18325110833072797,0.6753397025662374,-0.15593657016333826
-3.747829968667642,-9.065638922728873,-1.2072728017217143,0.04053651760361686,-0.016807014262153485,-0.02406926773218144,0.08001873442044616,0.4830968079144735,0.0929433027097509,4.030664433366263,-1.3024184301125443,8.94972634217362,0.07213452894735617,-0.022830414153412016,-0.05722874734892175,-0.19604553654590293,-0.009234395567230802,-0.3590903199474151,-0.9959442450577576,-9.927580531383635,-0.9584651215161542,0.05871995437967606,-0.016896791669037174,0.010817302479912362,0.21041431584861578,0.37609819253135873,-0.049010404779025935,0.6415200861312244,-9.895470418624136,-0.9513154189556882,0.009455578271306197,0.0660788903598113,0.06813671505415593,0.1349724051181026,0.6193720183363584,0.05680474059073397,-3.9872375098666764,-8.938649753008157,1.3746742240081467,0.002807993430313774,-0.028870882571142956,-0.04675984125784206,0.17997723511103095,0.6663431959226987,-0.15716706085981438
-3.794067600413689,-8.904960837193569,-1.258337163592069,0.09012647488500505,-0.017721914191373315,0.002145802226710682,0.0868730284006133,0.486732343109071,0.07732013712520026,4.195718832303907,-1.0572607742401203,9.275826118844,0.04448496976119578,-0.07330365442124186,-0.06522876757870445,-0.20528707770212987,-0.01255434007185299,-0.3514345693281752,-1.2652953091047057,-9.933656268502675,-0.9442941898164652,0.08329997164887734,-0.051056602715370596,-0.008540711941111397,0.21661044979716135,0.3917069730636218,-0.048080793899503246,0.5514057020784724,-9.928054161551243,-0.9307671141678638,0.031704283386667184,0.029492854923719322,0.08027906741104024,0.14110124267044838,0.6345009619200447,0.05748563580924604,-4.037043995578749,-8.918829546166153,1.389511201859217,0.06086667916222362,-0.02125048286126832,-0.06902805513648688,0.18643587997340272,0.678000740636365,-0.15790477136579367
