# sampling frequency: 40
# units are seconds/meters/radians/a.u.
seg1_acc_x,seg1_acc_y,seg1_acc_z,seg1_gyr_x,seg1_gyr_y,seg1_gyr_z,seg1_mag_x,seg1_mag_y,seg1_mag_z,seg2_acc_x,seg2_acc_y,seg2_acc_z,seg2_gyr_x,seg2_gyr_y,seg2_gyr_z,seg2_mag_x,seg2_mag_y,seg2_mag_z,seg3_acc_x,seg3_acc_y,seg3_acc_z,seg3_gyr_x,seg3_gyr_y,seg3_gyr_z,seg3_mag_x,seg3_mag_y,seg3_mag_z,seg4_acc_x,seg4_acc_y,seg4_acc_z,seg4_gyr_x,seg4_gyr_y,seg4_gyr_z,seg4_mag_x,seg4_mag_y,seg4_mag_z,seg5_acc_x,seg5_acc_y,seg5_acc_z,seg5_gyr_x,seg5_gyr_y,seg5_gyr_z,seg5_mag_x,seg5_mag_y,seg5_mag_z
-0.585773,7.495538,5.864262,-0.234468,-0.004224,0.226076,0.133301,-0.206299,-0.469238,0.852132,8.335077,2.818712,-0.391609,-0.043732,-0.06229,-0.174316,-0.466309,-0.356689,0.289161,6.037582,-6.970553,-0.221519,-0.181586,-0.028879,-0.075928,-0.537354,0.188721,-4.378024,8.961877,-2.826418,0.098051,0.272561,0.1472,0.018555,-0.575439,0.209717,-1.078329,9.618017,-2.350702,-0.035711,0.16123,0.0341,0.041016,-0.562256,0.177246
-0.032781,8.120259,5.963421,0.143495,-0.002039,0.061816,0.130859,-0.212891,-0.460938,0.916391,8.737342,2.997564,0.098315,0.154182,-0.089019,-0.174316,-0.471436,-0.351562,-0.290629,6.515747,-6.797903,0.35088,0.125124,0.043772,-0.075439,-0.5354,0.199707,-4.02273,8.76555,-2.864631,-0.230566,-0.069983,0.090704,0.018555,-0.578857,0.209961,-1.097281,9.269566,-2.405716,-0.111866,0.060167,0.002342,0.042969,-0.564697,0.180664
-0.102595,8.517844,6.234475,-0.255899,0.040128,-0.069962,0.128906,-0.215088,-0.47168,0.323342,9.093015,3.173646,-0.172444,-0.015361,0.008626,-0.177002,-0.477295,-0.360596,-0.406798,7.614165,-6.473525,0.521316,-0.012805,-0.086379,-0.078125,-0.531982,0.210205,-3.249285,8.213505,-3.153573,-0.070313,0.070737,0.121952,0.013184,-0.574951,0.214111,-0.797337,9.050529,-2.550369,-0.010498,0.079447,0.006111,0.038818,-0.561768,0.186279
0.216371,7.203366,5.875691,-0.426462,0.099006,-0.122068,0.136475,-0.205811,-0.461182,1.237006,8.618597,3.058762,-0.119056,-0.040607,0.023232,-0.17334,-0.473145,-0.347656,0.120018,8.161095,-6.355495,-0.015279,0.031451,0.029963,-0.075684,-0.531006,0.206299,-3.67723,8.633009,-3.003321,0.15658,0.153563,0.005809,0.015137,-0.574951,0.213867,-0.74226,9.193865,-2.421398,0.075212,0.023168,0.045401,0.037842,-0.562744,0.181641
-0.232479,6.331347,5.705069,-0.095547,0.064785,-0.106642,0.131348,-0.195801,-0.476074,0.820544,8.958821,2.959565,0.067945,0.057676,0.028602,-0.179932,-0.463623,-0.359863,-0.297739,7.361721,-6.591432,-0.586696,0.066341,-0.021376,-0.062256,-0.538818,0.193359,-3.374814,8.861404,-3.018482,-0.04226,-0.093147,0.055085,0.025879,-0.580078,0.204834,-0.398244,9.163475,-2.556311,-0.050378,0.050127,0.020347,0.051025,-0.566895,0.174561
0.036117,7.490938,5.860951,0.436932,0.048592,-0.083774,0.138428,-0.20459,-0.472412,1.001493,9.046274,2.816,-0.045795,0.001482,0.092524,-0.175049,-0.467285,-0.362305,-0.214224,6.383694,-6.880409,-0.462814,-0.04184,0.05535,-0.070312,-0.535889,0.188965,-3.106521,8.364074,-3.094742,-0.123557,0.130367,-0.062155,0.020752,-0.573975,0.208496,-0.772853,8.902,-2.66524,-0.005551,0.112749,0.026313,0.046143,-0.561523,0.179199
-0.074109,8.905861,6.139737,0.034488,0.014387,-0.131162,0.134521,-0.2146,-0.470459,0.721464,9.301637,2.553189,0.277305,0.039164,0.063359,-0.18335,-0.477539,-0.355469,-0.017404,6.331652,-6.860911,0.290171,0.068211,0.007825,-0.067383,-0.537354,0.192139,-3.813773,8.363513,-3.019393,0.12894,0.121174,-0.000587,0.021729,-0.578369,0.205811,-0.707752,9.191864,-2.616483,0.228696,-0.04317,-0.006188,0.045654,-0.565674,0.177979
0.635838,7.566117,5.71864,-0.301984,0.051431,0.050163,0.142334,-0.210938,-0.470703,1.158533,10.439207,2.578023,0.222335,-0.11084,-0.002809,-0.174805,-0.480469,-0.350342,-0.011881,7.316739,-6.738947,0.640297,0.146696,-0.091155,-0.06958,-0.526611,0.205566,-3.399391,8.712735,-2.976684,0.084209,-0.188012,-0.080951,0.02124,-0.572998,0.212402,-0.23771,9.65128,-2.614892,0.070098,0.046104,0.090962,0.041016,-0.556641,0.185547
-0.51168,7.186179,5.690692,0.125118,0.14783,0.115419,0.134521,-0.209961,-0.463867,0.741174,9.774213,2.626084,-0.265424,0.052814,0.020641,-0.182861,-0.47583,-0.347168,-0.576507,7.715871,-6.679719,0.054898,0.13043,0.024482,-0.064697,-0.532959,0.202148,-3.035581,8.575366,-3.029353,-0.144336,0.115364,-0.07614,0.027588,-0.579346,0.209229,-0.657116,9.469661,-3.023593,-0.116642,0.163799,0.107354,0.041992,-0.564697,0.179932
-0.435206,8.249698,6.102524,0.274948,-0.01359,0.105643,0.140381,-0.206055,-0.465332,0.739094,8.751237,2.830953,-0.153675,-0.115843,-0.000591,-0.176514,-0.468506,-0.352783,-0.655896,7.043431,-6.758969,-0.470393,-0.149889,-0.04199,-0.071777,-0.532471,0.188232,-3.858214,8.253389,-3.021096,-0.026514,0.154181,0.008055,0.019531,-0.576904,0.200928,-0.549689,9.226313,-3.028654,0.027805,-0.019104,0.079204,0.032959,-0.566162,0.174561
-0.231478,8.325087,6.187936,-0.101542,-0.003998,-0.023541,0.138428,-0.20874,-0.460449,1.413606,9.305967,3.012965,0.176368,0.126064,0.017778,-0.179443,-0.474609,-0.348877,0.203119,6.484325,-6.81837,-0.294029,-0.147904,0.030598,-0.065186,-0.540527,0.197998,-3.440663,8.682504,-3.158437,0.114918,-0.081061,0.001865,0.025635,-0.579834,0.212646,-0.148879,9.591152,-2.819633,0.090375,0.14305,0.046864,0.03833,-0.568115,0.18457
0.076747,7.820607,5.965312,-0.071187,-0.098967,0.051849,0.143555,-0.210938,-0.467285,0.523744,9.985448,3.000219,-0.042644,0.08712,-0.051871,-0.170654,-0.473877,-0.351318,0.031503,6.563367,-6.647011,0.219024,0.120668,-0.056559,-0.074707,-0.533691,0.194824,-3.186335,8.840134,-3.087627,-0.075784,0.139647,0.027176,0.017822,-0.574951,0.207031,-0.764967,9.398126,-2.759436,-0.193663,0.167632,0.033917,0.030273,-0.561768,0.17749
0.164052,7.6325,5.786941,-0.021327,0.032347,0.02946,0.146484,-0.206543,-0.467285,0.902926,8.904977,2.760782,-0.404079,-0.037467,0.002162,-0.170898,-0.468018,-0.355225,-0.366833,7.387768,-6.546391,0.53136,0.104748,-0.090283,-0.067871,-0.525391,0.206055,-3.582532,8.436803,-3.106073,-0.192873,0.117018,-0.052658,0.021729,-0.568359,0.207764,-0.29174,8.876655,-2.966013,-0.063983,-0.004787,0.099799,0.033203,-0.555664,0.179443
0.114244,7.913359,6.020598,0.177388,0.022373,-0.052021,0.13623,-0.215088,-0.467041,0.955762,8.166253,2.653943,0.067546,-0.078819,0.008917,-0.178711,-0.474609,-0.354492,-0.06765,7.926551,-6.559031,0.04043,-0.018789,-0.067023,-0.064697,-0.537354,0.206055,-3.346324,8.320904,-3.352949,0.042204,0.022628,-0.021292,0.025635,-0.582275,0.209961,-0.305962,9.120125,-2.854834,0.115463,0.219518,0.028034,0.034668,-0.570801,0.179932
0.236259,8.542432,6.254537,-0.043135,0.065064,-0.108292,0.139648,-0.207031,-0.463867,1.556992,9.570576,2.941442,0.36519,-0.002377,-0.006482,-0.178711,-0.471436,-0.351807,0.111599,7.219937,-6.823176,-0.495186,-0.0127,0.018567,-0.072754,-0.532715,0.19873,-3.374024,8.724023,-3.285801,0.092743,0.115071,-0.081349,0.018799,-0.573242,0.210449,-0.674782,9.363015,-2.84838,0.041192,0.064699,0.053886,0.026855,-0.561768,0.179688
-0.071079,7.824758,5.944197,-0.24743,0.070238,-0.192863,0.14502,-0.206787,-0.468506,0.873306,9.584591,2.910854,-0.206914,0.076174,0.0683,-0.175781,-0.471436,-0.356445,-0.029857,6.298159,-6.636641,-0.302288,0.009109,0.025069,-0.063721,-0.529297,0.193848,-3.372473,8.667542,-3.17735,-0.072941,0.043644,-0.079882,0.029785,-0.568115,0.20752,0.079715,9.267886,-2.948707,0.069816,-0.003148,0.109219,0.035645,-0.556396,0.182617
0.062122,7.14377,5.727868,-0.022857,0.024361,-0.133672,0.149414,-0.204834,-0.470215,1.015142,8.725112,2.384807,-0.021686,-0.039781,-0.011968,-0.173828,-0.46875,-0.358154,-0.044039,6.350867,-6.76402,0.254205,0.055749,-0.002916,-0.068848,-0.530273,0.200195,-3.199508,8.38376,-3.26423,0.015482,0.08423,-0.029465,0.019531,-0.571045,0.212402,-0.10272,9.495957,-2.861351,0.161143,0.169467,-0.014998,0.026855,-0.55835,0.185547
0.258357,7.91039,5.997855,0.126612,0.090704,-0.130623,0.143311,-0.21167,-0.46582,1.178647,9.276743,2.819067,0.135321,0.036688,0.0035,-0.179199,-0.475098,-0.35376,-0.031488,7.180481,-6.656222,0.444379,0.067954,0.008332,-0.075928,-0.536621,0.198486,-3.345623,8.657894,-3.274819,0.137068,0.104486,0.017582,0.016846,-0.57959,0.20874,-0.20607,9.729863,-2.928759,0.087293,0.018397,0.032059,0.02124,-0.565186,0.182861
-0.402897,7.646829,6.087984,-0.145514,0.129671,-0.192198,0.151611,-0.211914,-0.458496,1.213164,9.034165,2.983478,-0.138748,0.026494,0.050385,-0.176758,-0.474854,-0.342773,0.001297,7.607887,-6.519343,0.042229,0.022657,0.066158,-0.069336,-0.536621,0.200439,-3.262447,8.745098,-3.236116,0.01723,0.059871,0.016897,0.026367,-0.579102,0.206787,0.112573,9.520201,-2.941785,0.021136,0.072918,0.074753,0.031494,-0.567871,0.180664
-0.324925,7.207457,5.871914,0.031411,-0.03449,-0.186888,0.156006,-0.213379,-0.470703,1.052438,9.128978,2.611996,0.184947,0.153298,0.018269,-0.174805,-0.477783,-0.352783,-0.218207,7.15274,-6.794455,-0.339327,-0.009151,0.112381,-0.069092,-0.537842,0.197998,-3.24235,8.46194,-3.251563,-0.018814,0.126883,0.031136,0.022705,-0.583252,0.209961,-0.268028,9.343441,-2.949861,0.064087,0.136419,0.052298,0.026611,-0.567871,0.182617
0.137115,7.722123,5.787445,0.164646,0.009655,-0.117011,0.151123,-0.208252,-0.462402,0.755747,9.985848,2.882613,0.069415,0.047999,0.018058,-0.179199,-0.473145,-0.344482,-0.085998,6.74206,-6.76458,-0.152321,-0.107852,0.081908,-0.071045,-0.531738,0.194824,-3.521121,8.513815,-3.326896,0.146336,0.14327,0.056564,0.019043,-0.571777,0.212891,-0.230321,9.410132,-2.915235,0.152499,0.011921,0.081339,0.022949,-0.561035,0.185547
-0.123992,7.988776,5.988284,0.035128,0.109647,-0.062036,0.158447,-0.204834,-0.466553,0.959881,9.343446,2.933438,-0.322097,-0.025409,0.028321,-0.17749,-0.463135,-0.35376,0.343386,7.136195,-6.597221,0.268202,0.047833,0.02032,-0.070312,-0.531982,0.195068,-3.513001,8.93416,-3.19466,0.096287,0.037612,0.081418,0.020508,-0.578857,0.207764,-0.084196,9.688535,-2.768189,0.105806,0.09429,-0.008009,0.022949,-0.565674,0.181152
-0.305795,7.41159,5.998826,-0.064199,0.034886,-0.069989,0.147705,-0.210938,-0.469482,1.041742,8.70445,2.78021,-0.031854,-0.07495,0.011634,-0.187744,-0.469971,-0.355957,-0.223862,7.627165,-6.803907,0.109838,0.171959,-0.017846,-0.072998,-0.527832,0.197266,-3.283159,8.727129,-3.285807,-0.123052,0.057515,0.046248,0.019775,-0.573242,0.208252,-0.375485,9.434983,-2.727777,-0.11965,0.089523,0.084798,0.022217,-0.562256,0.181152
-0.240639,7.550528,6.091796,0.066236,0.08187,-0.049668,0.155518,-0.210449,-0.471436,1.340234,9.459699,2.836688,0.21758,0.034922,0.043297,-0.182129,-0.471191,-0.353027,-0.295303,7.392364,-6.926514,-0.272392,-0.110424,0.096176,-0.07251,-0.530518,0.198242,-3.408531,8.361023,-3.3781,-0.003774,0.098826,0.03131,0.019287,-0.571533,0.212891,-0.191334,8.94724,-2.948952,0.003839,-0.024719,0.044912,0.023193,-0.563965,0.185303
-0.288716,7.714857,5.9469,0.111532,-0.005918,-0.019968,0.156982,-0.210205,-0.464111,0.929897,9.94663,2.874176,-0.007204,0.011811,0.064082,-0.181396,-0.470459,-0.353027,0.349106,6.946281,-6.789127,-0.271707,-0.081237,0.059119,-0.081787,-0.529785,0.189209,-3.496824,8.660657,-3.401759,0.177305,0.018816,0.06405,0.007568,-0.57373,0.206787,-0.138532,9.344554,-2.886923,0.230201,0.072108,-0.013721,0.011475,-0.561768,0.181396
-0.120593,8.329877,6.068173,0.248878,0.057916,0.043541,0.157227,-0.220703,-0.469727,1.204961,9.594634,2.667376,-0.085039,-0.022753,-0.013858,-0.182129,-0.473633,-0.359131,0.06588,6.766688,-6.884761,0.002947,0.097452,0.046251,-0.080322,-0.542725,0.192871,-3.339677,8.862858,-3.247165,-0.00684,0.006065,0.032765,0.01416,-0.582764,0.2146,-0.378387,9.627527,-2.783651,0.014601,-0.029199,-0.008476,0.013428,-0.570801,0.189941
-0.350853,8.685938,6.148892,-0.056275,0.025314,0.063131,0.159912,-0.211182,-0.475098,0.830766,9.552716,2.848091,0.038913,0.010916,-0.008707,-0.178223,-0.469238,-0.364014,-0.332888,7.144549,-6.940366,0.251545,0.010464,0.006551,-0.078613,-0.536621,0.189697,-3.404798,8.541488,-3.317008,-0.084166,0.0861,0.068751,0.013672,-0.581055,0.204346,-0.054418,9.196818,-2.932854,-0.097064,-0.005315,-0.034916,0.019531,-0.570801,0.17749
-0.173899,7.426308,5.928175,-0.349544,0.062101,0.038775,0.156006,-0.206543,-0.474854,1.212997,9.685288,2.736505,0.005282,-0.085009,0.012703,-0.183105,-0.469482,-0.360352,0.074853,7.669969,-6.876533,0.077423,-0.075532,-0.016158,-0.074463,-0.533203,0.203857,-3.656487,8.538836,-3.333525,0.007193,0.007314,0.067496,0.017578,-0.575439,0.218018,-0.515957,9.193855,-2.833591,0.026751,0.06845,-0.129911,0.021729,-0.564209,0.192139
-0.13539,7.198531,5.8976,0.180828,0.008657,0.20752,0.156494,-0.207764,-0.470703,1.147495,9.728767,2.864948,-0.042666,0.029274,-0.022902,-0.179443,-0.466309,-0.355713,0.058016,7.406547,-6.642226,-0.303307,-0.031794,0.026119,-0.078369,-0.53833,0.194824,-3.432179,8.545998,-3.339197,-0.057022,-0.057808,0.030184,0.008789,-0.577881,0.2146,-0.565762,9.310639,-2.780758,-0.042474,-0.065562,-0.046831,0.018799,-0.568359,0.189453
-0.379829,8.238269,6.281437,0.026122,0.080255,0.176057,0.161621,-0.203857,-0.476562,0.902519,9.159562,3.032279,-0.176768,-0.069578,-0.016185,-0.174072,-0.463867,-0.362549,-0.026524,6.808283,-6.825159,-0.188915,-0.038262,-0.007066,-0.073242,-0.533447,0.189209,-3.32779,8.42052,-3.347893,-0.039287,-0.02069,-0.017219,0.016602,-0.577881,0.206299,-0.259908,9.103319,-3.042218,-0.063435,-0.056766,-0.012893,0.024414,-0.563477,0.181641
-0.284588,7.407413,5.846076,-0.124354,-0.031381,0.187999,0.155518,-0.212891,-0.467529,1.24967,9.054138,2.848392,0.075372,-0.022816,-0.010985,-0.179199,-0.475098,-0.354492,0.01798,6.864438,-6.808107,0.140458,0.003762,-0.04095,-0.077881,-0.539062,0.190918,-3.365667,8.60397,-3.279105,0.053512,-0.034945,-0.007654,0.013916,-0.585205,0.208984,-0.243606,9.305396,-2.96179,0.101228,-0.001213,-0.049594,0.019287,-0.572021,0.186035
-0.243158,7.866826,5.987468,0.187421,0.021287,0.178405,0.155273,-0.208496,-0.467285,1.050374,9.586251,2.883737,0.085515,0.042659,-0.00914,-0.177246,-0.466064,-0.352539,-0.107564,7.11809,-6.646662,0.097007,-0.004054,-0.019121,-0.074707,-0.530762,0.191406,-3.345286,8.632201,-3.196191,-0.093064,-0.041982,-0.006576,0.014404,-0.575195,0.205566,-0.322032,9.643974,-2.845946,-0.001639,-0.036151,0.008276,0.023926,-0.563232,0.181396
-0.055562,8.488587,5.948168,0.013893,-0.083208,0.161928,0.148193,-0.20752,-0.467529,0.930656,9.423711,2.806101,-0.123369,0.024652,-0.023399,-0.180176,-0.465088,-0.358643,-0.085383,7.148324,-6.492412,-0.009396,-0.05341,-0.010021,-0.072266,-0.528809,0.200684,-3.339967,8.317877,-3.318514,-0.098906,-0.019034,-0.004397,0.019287,-0.571289,0.217773,-0.207902,9.357216,-2.949278,-0.174548,-0.008524,0.033265,0.024414,-0.561035,0.19043
0.093468,8.059019,5.901676,-0.128408,0.060115,0.134194,0.150391,-0.212158,-0.47583,0.891572,8.945036,2.806101,-0.077549,-0.035713,-0.043451,-0.178711,-0.473145,-0.36377,0.108265,7.14244,-6.506288,0.022489,-0.017624,-0.045686,-0.077148,-0.537598,0.195068,-3.396833,8.475555,-3.279194,0.082602,-0.055857,0.018602,0.00708,-0.580078,0.21167,-0.327654,9.040964,-2.918265,-0.044668,-0.02162,0.018505,0.015137,-0.572266,0.184326
-0.202664,7.749128,5.892178,-0.035902,0.031277,0.063208,0.155029,-0.211426,-0.472656,1.028964,8.919477,2.731911,0.02301,-0.052036,-0.017536,-0.172363,-0.473877,-0.361084,-0.16601,7.148843,-6.765339,0.005676,0.077046,-0.051762,-0.075928,-0.528564,0.188965,-3.280159,8.788599,-3.142794,-0.010465,-0.066817,0.000569,0.012939,-0.573486,0.203125,-0.230325,9.332062,-2.897931,0.060687,-0.042296,0.001919,0.018555,-0.561279,0.177246
-0.418061,7.848018,6.047074,-0.005457,0.039638,0.010417,0.147461,-0.208496,-0.459961,1.177302,9.32723,2.911686,0.136084,0.019605,-0.005627,-0.178955,-0.471436,-0.346191,-0.272547,6.950522,-6.76226,-0.12381,-0.070041,-0.006462,-0.072998,-0.530518,0.191895,-3.345494,8.494858,-3.215223,-0.162314,-0.008255,-0.029081,0.015625,-0.575439,0.207031,-0.281313,9.498961,-2.906135,-0.027035,0.000331,0.077969,0.021729,-0.562988,0.181885
-0.14256,7.645772,5.925049,-0.112536,-0.084262,0.04051,0.146973,-0.208008,-0.466064,0.768864,9.537047,2.80855,0.003512,0.10671,-0.007151,-0.181396,-0.470459,-0.352539,-0.058709,6.744007,-6.659808,-0.017051,-0.027934,0.027497,-0.076904,-0.533447,0.192139,-3.465425,8.244463,-3.210656,0.032676,-0.034931,-0.022449,0.012207,-0.576904,0.20752,-0.249113,9.365365,-2.966952,-0.020937,-0.050026,0.106174,0.017578,-0.5625,0.182861
0.240454,7.282906,5.769879,0.064467,0.019273,0.066338,0.138428,-0.201416,-0.46582,0.806339,9.178235,2.784753,-0.105018,-0.059359,-0.00922,-0.18457,-0.463867,-0.352783,-0.057842,7.056522,-6.593904,0.299447,0.019165,-0.071266,-0.063232,-0.531738,0.191162,-3.345244,8.81497,-3.267576,0.167771,-0.084819,0.034822,0.026367,-0.572998,0.207764,0.003989,9.511739,-2.995819,0.031204,-0.020239,0.069718,0.026855,-0.560791,0.181396
-0.028415,8.020483,6.115046,0.198393,0.036515,0.076462,0.145264,-0.206055,-0.47583,1.175667,9.12213,2.76206,0.04169,-0.030683,-0.013843,-0.178223,-0.467041,-0.360352,0.063878,7.651692,-6.66093,0.199669,0.051657,-0.045071,-0.071533,-0.529541,0.201904,-3.232218,9.059037,-3.301898,-0.080061,-0.038808,0.001707,0.016113,-0.572021,0.21167,-0.154693,9.479784,-2.94892,-0.114712,0.013007,0.06212,0.017822,-0.559082,0.184082
-0.144577,8.054793,6.129306,-0.067465,0.037222,0.064118,0.14502,-0.20752,-0.470947,1.098553,9.517681,2.907419,0.054462,-0.001689,-0.016529,-0.180664,-0.470947,-0.355469,-0.302267,7.439031,-6.885846,-0.243999,0.024402,0.009043,-0.072998,-0.536377,0.192139,-3.252625,8.53799,-3.360412,-0.162528,-0.002082,0.004334,0.012939,-0.579346,0.202393,0.001426,9.139632,-3.152656,-0.065814,-0.066586,0.039247,0.016357,-0.564209,0.174805
0.108721,7.420077,5.725239,-0.002547,-0.018999,0.035881,0.140381,-0.211914,-0.467041,1.079385,9.438742,2.751184,-0.06019,0.03467,0.050834,-0.180908,-0.474854,-0.356445,-0.076384,6.902092,-6.751646,-0.243189,-0.148196,0.027708,-0.07251,-0.531738,0.185547,-3.36177,8.509273,-3.418408,0.084568,-0.013233,0.042057,0.011475,-0.575684,0.203857,-0.016841,9.375629,-3.035009,0.125256,0.026245,-0.037724,0.017822,-0.55957,0.178711
0.151845,8.45431,5.990866,0.264759,0.034576,0.079045,0.149658,-0.2146,-0.460205,0.879044,9.269468,2.841801,-0.030453,-0.019246,-0.025854,-0.170654,-0.472656,-0.352051,0.33494,6.888491,-6.71692,0.103282,0.027321,0.011793,-0.075439,-0.532715,0.191406,-3.385099,8.91185,-3.248708,0.082931,-0.039325,0.01091,0.01416,-0.57373,0.207031,-0.280544,9.63828,-2.885871,-0.028581,-0.030638,0.000272,0.016113,-0.560791,0.180176
-0.039601,8.409819,6.082815,-0.196295,0.04307,0.015768,0.136963,-0.20874,-0.468994,1.08241,9.383736,2.762113,0.070863,-0.054044,0.008333,-0.186523,-0.469238,-0.356445,-0.324292,7.247534,-6.827638,0.246607,0.139504,-0.03823,-0.075684,-0.533691,0.197021,-3.272579,8.759498,-3.241481,-0.122582,-0.033122,0.007141,0.011963,-0.57666,0.210205,0.010765,9.16984,-3.038779,-0.127722,-0.056253,0.002484,0.011963,-0.561035,0.18335
-0.20721,7.323428,5.826291,-0.131913,0.019823,0.038528,0.146484,-0.20752,-0.468994,0.961782,9.502173,2.8278,-0.062442,0.040423,-0.008367,-0.177246,-0.472412,-0.355957,-0.348391,7.433146,-6.68727,-0.036998,-0.087731,0.043705,-0.062744,-0.526367,0.188965,-3.301853,8.382071,-3.265322,-0.026107,0.027151,-0.011042,0.023193,-0.571777,0.200684,-0.157675,9.148691,-3.077908,0.107244,0.030633,-0.033003,0.026611,-0.557617,0.175781
-0.060642,7.647583,5.85901,0.139585,0.011574,0.015569,0.14624,-0.216309,-0.458984,0.693542,8.979549,2.759911,-0.117212,-0.01978,0.047266,-0.180176,-0.47583,-0.351318,-0.032002,7.110565,-6.606673,-0.197796,-0.04387,0.053431,-0.066406,-0.525879,0.192627,-3.485697,8.68785,-3.200869,0.166838,0.011754,0.041443,0.019775,-0.563965,0.210205,-0.172412,9.690239,-2.934302,0.165037,-0.072662,-0.063358,0.024414,-0.552979,0.184326
0.278493,8.224834,5.9647,0.091387,0.033221,0.002272,0.150391,-0.209961,-0.459473,1.026743,9.175182,2.71888,0.127071,-0.0913,-0.019694,-0.178467,-0.470215,-0.346924,-0.01751,6.978136,-6.670095,-0.022086,0.004625,-0.009967,-0.071777,-0.533203,0.195557,-3.354723,8.949669,-3.173111,-0.025257,-0.045293,0.039399,0.012451,-0.575684,0.209717,0.008403,9.69257,-2.914364,-0.117828,0.015351,-0.058926,0.019287,-0.561768,0.183838
-0.036302,7.999325,5.936559,-0.050786,0.12066,0.053994,0.149658,-0.217041,-0.465088,1.124972,9.795256,2.873123,0.062172,-0.036844,-0.010052,-0.17627,-0.47998,-0.349121,-0.043769,7.055222,-6.811901,0.037665,0.02273,0.032571,-0.078613,-0.533203,0.189209,-3.183971,8.418193,-3.351226,-0.181419,0.043018,0.012325,0.009033,-0.577148,0.207764,-0.355535,8.991549,-2.999948,-0.164367,0.039694,-0.033905,0.014893,-0.563721,0.176514
-0.185036,7.776593,5.932804,-0.037824,0.006075,-0.020753,0.145752,-0.205811,-0.463379,1.049673,9.268151,2.933798,-0.296885,-0.056409,0.026379,-0.180908,-0.466309,-0.348877,-0.107731,7.172459,-6.752675,0.00745,-0.011089,0.001494,-0.07373,-0.54248,0.191895,-3.562313,8.280377,-3.372424,0.077074,0.060432,0.049796,0.012451,-0.584961,0.205078,-0.28832,9.066615,-3.074828,0.175491,-0.064024,-0.093709,0.022949,-0.572266,0.179443
-0.085922,7.600923,5.913243,0.089531,0.085503,-0.03739,0.145752,-0.21167,-0.464844,1.182067,8.642379,2.736342,0.060882,-0.002195,0.039743,-0.182617,-0.46875,-0.354736,0.004255,7.141504,-6.757622,-0.067557,-0.01767,0.031631,-0.068115,-0.5354,0.195068,-3.395358,8.714596,-3.152231,0.119284,-0.070492,0.02926,0.015625,-0.576416,0.211182,-0.200955,9.662875,-2.838019,0.118914,0.004126,-0.069149,0.02417,-0.564453,0.18335
-0.113864,8.207101,6.061428,0.151697,-0.094702,-0.006119,0.144775,-0.211182,-0.464844,1.09449,10.058882,3.002839,0.292686,0.057047,-0.044554,-0.18457,-0.471191,-0.35376,-0.02943,6.997293,-6.619341,-0.114427,-0.017039,0.016768,-0.071777,-0.534424,0.192139,-3.171666,8.636714,-3.248728,-0.132155,0.021859,0.030112,0.014893,-0.576416,0.205811,-0.3394,9.446822,-2.880905,-0.170364,0.004296,-0.028127,0.024902,-0.563721,0.18042
0.042018,8.129338,6.038289,-0.090624,0.044187,-0.007255,0.14209,-0.205078,-0.46875,0.906099,9.760847,3.033761,-0.362527,0.013932,0.020683,-0.186279,-0.466553,-0.356201,-0.07254,6.943643,-6.718755,0.054366,-0.006549,0.000111,-0.069336,-0.542725,0.197021,-3.460557,8.260061,-3.32101,-0.042228,0.052593,0.024716,0.020264,-0.584717,0.209717,-0.267019,8.965117,-3.028148,-0.029042,-0.028298,-0.018013,0.028809,-0.572266,0.183838
0.033348,7.581829,5.827539,-0.053027,-0.062791,-0.015249,0.155518,-0.209961,-0.466797,1.05794,8.52112,2.563821,-0.113928,-0.022797,-0.005681,-0.172607,-0.469971,-0.357178,-0.025296,7.29503,-6.584928,0.155706,0.002351,-0.028544,-0.067627,-0.526367,0.195312,-3.338903,8.597177,-3.22108,0.116191,-0.089682,0.028762,0.019043,-0.56665,0.212402,-0.216892,9.392472,-2.894489,0.141416,-0.001714,-0.033208,0.027588,-0.552979,0.187012
0.143578,7.806121,5.883473,0.114749,0.042712,0.041977,0.150879,-0.216797,-0.463135,1.187519,9.602924,2.695785,0.40882,0.034167,-0.061508,-0.175537,-0.477295,-0.349609,-0.10715,7.317447,-6.790057,-0.070896,-0.011797,-0.001769,-0.075684,-0.533203,0.195312,-3.053203,8.687774,-3.216116,-0.07697,-0.005214,-0.006345,0.010986,-0.575684,0.207031,-0.225755,9.473812,-2.803632,-0.11088,0.001181,0.052466,0.019531,-0.562988,0.180176
-0.006931,8.406162,6.022991,0.050005,-0.044333,0.053459,0.14502,-0.206787,-0.4646,0.944842,10.319733,3.01758,-0.165536,0.02249,-0.017365,-0.179443,-0.464355,-0.349609,-0.095926,7.052838,-6.590042,-0.126947,-0.100032,0.003723,-0.072998,-0.536133,0.183594,-3.424325,8.400028,-3.26058,-0.11693,0.069813,-0.009173,0.012207,-0.581055,0.197754,-0.260961,9.028711,-2.960393,-0.114408,0.023169,0.035727,0.02002,-0.566406,0.17334
0.039203,7.861385,5.917878,-0.154441,0.031154,0.041858,0.141846,-0.215332,-0.468018,0.886617,8.602233,2.83112,-0.404705,-0.03955,-0.032544,-0.184082,-0.472168,-0.35791,0.064972,6.919466,-6.593887,0.011789,-0.028697,-0.033975,-0.073975,-0.532471,0.204346,-3.538167,8.390516,-3.27009,0.037715,-0.065217,-0.003508,0.01001,-0.57373,0.218994,-0.400825,9.189579,-2.920896,0.094639,0.013961,0.028361,0.016846,-0.561035,0.192139
0.003166,7.531843,5.891408,-0.053306,-0.017574,0.028039,0.151855,-0.211426,-0.45874,1.118407,8.480874,2.69071,0.320516,-0.033506,-0.04639,-0.173096,-0.470459,-0.347656,-0.110723,7.098774,-6.925865,0.194668,0.026159,-0.028856,-0.071289,-0.53833,0.192871,-3.247336,8.799557,-3.323652,0.092284,-0.056125,-0.037518,0.015381,-0.580322,0.205566,-0.266027,9.545881,-2.946506,0.027212,-0.037756,0.069115,0.020508,-0.567627,0.180176
-0.013348,7.703945,5.902659,0.061656,0.009976,0.000887,0.144287,-0.209717,-0.467041,1.265701,10.108456,3.032121,0.256028,0.043417,-0.027155,-0.178711,-0.469727,-0.356689,-0.038669,7.321542,-6.746208,0.080961,-0.041891,-0.010966,-0.077148,-0.526123,0.194824,-3.397399,8.87142,-3.326696,-0.052511,0.015459,-0.042794,0.012451,-0.567139,0.207031,-0.08807,9.444368,-3.032384,-0.049793,-0.011379,0.068836,0.015381,-0.55542,0.180176
0.034604,7.993246,5.951366,0.044597,-0.056675,-0.012575,0.146973,-0.215088,-0.462158,0.82756,9.481505,2.827859,-0.364991,0.060355,0.038062,-0.173584,-0.470947,-0.354248,-0.042301,7.190068,-6.555491,-0.116666,-0.020946,0.032998,-0.069092,-0.533936,0.194824,-3.381837,8.591006,-3.304553,-0.090175,-0.040064,0.000604,0.017578,-0.576904,0.210205,-0.075062,9.456731,-3.022663,0.052514,-0.012706,0.001038,0.023438,-0.563477,0.183105
0.212695,7.973518,5.941229,0.002927,0.006254,0.000828,0.142334,-0.212158,-0.462891,0.897396,8.620815,2.549936,0.031456,-0.032657,-0.042855,-0.181152,-0.468018,-0.351318,-0.162963,7.001873,-6.651885,-0.035142,-0.020336,-0.021022,-0.071289,-0.531006,0.187744,-3.253261,8.565592,-3.243339,0.048143,-0.028206,0.048858,0.015381,-0.573486,0.200928,-0.083332,9.624898,-2.825736,-0.011617,-0.019317,-0.026247,0.020508,-0.562012,0.176025
0.133793,7.969888,5.888819,-0.014846,0.048232,-0.001595,0.144043,-0.209961,-0.462891,1.052846,9.681612,2.897099,0.198683,-0.00012,-0.035962,-0.179932,-0.471436,-0.348877,-0.025435,7.150959,-6.780518,0.047584,-0.011528,-0.008633,-0.069336,-0.528564,0.197998,-3.310887,8.786513,-3.197677,-0.011371,0.005952,0.036719,0.017334,-0.570557,0.211426,-0.147872,9.326561,-2.955164,-0.16418,0.019346,-0.003252,0.022705,-0.557861,0.181396
-0.368333,7.677714,5.925319,-0.09313,0.044156,-0.01947,0.146729,-0.213135,-0.463867,0.950398,9.487257,2.922918,-0.224916,0.002676,0.009058,-0.175537,-0.473145,-0.355225,-0.270885,7.150276,-6.699141,-0.049823,0.017698,0.013986,-0.070801,-0.527588,0.195557,-3.37438,8.546007,-3.165202,-0.103091,0.001725,0.00767,0.017334,-0.570068,0.211182,-0.335644,9.032487,-2.955782,0.010092,-0.003244,0.003777,0.020508,-0.556152,0.182373
0.045672,7.412881,5.752835,0.037207,-0.054021,-0.006086,0.147705,-0.210693,-0.463867,0.808145,8.788783,2.47318,-0.031254,0.042687,0.001215,-0.175537,-0.471436,-0.354004,-0.286906,6.991172,-6.699774,-0.074911,-0.066087,0.028011,-0.066406,-0.532959,0.200195,-3.369212,8.454877,-3.20271,0.046947,-0.001439,0.025588,0.020264,-0.575439,0.216797,-0.162426,9.477666,-2.949553,0.177083,-0.051641,-0.00576,0.025146,-0.562744,0.188965
0.197468,7.966386,5.907926,0.165352,0.060724,0.023402,0.141602,-0.209473,-0.466309,0.799199,9.452228,2.894892,0.161276,-0.038804,-0.029719,-0.179443,-0.468506,-0.355225,0.007529,7.068325,-6.652895,0.070906,-0.048144,0.017006,-0.078369,-0.541992,0.191406,-3.424094,8.780308,-3.236179,0.093731,0.00129,0.039712,0.008301,-0.582031,0.202637,-0.120164,9.779825,-2.843446,-0.004758,0.026011,0.001621,0.013672,-0.570068,0.176514
0.00826,8.16338,6.007766,-0.028779,0.067568,0.01403,0.155273,-0.214355,-0.46582,1.103495,9.569837,2.95566,-0.136284,-0.043953,0.008394,-0.167236,-0.469971,-0.356934,0.007776,7.317319,-6.794358,0.100076,0.058101,-0.020254,-0.074463,-0.539062,0.189209,-3.449778,8.887766,-3.289034,-0.03557,0.004149,0.025113,0.010498,-0.583984,0.200928,-0.372411,9.408586,-2.976334,-0.13795,0.022198,0.028566,0.015869,-0.569824,0.172852
-0.118803,7.704423,5.894079,-0.042497,0.04868,-0.032912,0.145752,-0.213135,-0.464844,0.975739,8.956442,2.754828,-0.099876,-0.02147,0.024198,-0.176025,-0.472168,-0.355713,-0.253443,7.315186,-6.824491,-0.069264,0.004869,0.035955,-0.07251,-0.535889,0.195068,-3.418246,8.64396,-3.335584,-0.049031,-0.014136,0.024719,0.015381,-0.576416,0.209229,-0.195937,9.197727,-3.057675,0.050429,-0.07212,-0.005467,0.018799,-0.563721,0.182861
0.037369,7.680427,5.872216,0.078855,0.02049,-0.022609,0.155273,-0.216064,-0.459229,1.235882,9.375327,2.729173,0.159996,0.02761,0.020538,-0.171875,-0.472168,-0.345703,-0.051879,7.082134,-6.903084,-0.191793,-0.070054,0.046415,-0.06958,-0.54126,0.197021,-3.26214,8.566739,-3.319158,0.029167,-0.021353,0.051105,0.016113,-0.582275,0.213135,-0.037385,9.522389,-2.985888,0.086171,0.011801,-0.046709,0.021484,-0.567627,0.187256
-0.072104,8.234145,5.946104,0.145072,0.028118,-0.006466,0.142822,-0.213623,-0.460449,0.777184,9.867851,2.971225,-0.037809,0.071873,0.018568,-0.184082,-0.469727,-0.354004,-0.052235,6.822126,-6.629615,-0.106601,0.000494,0.063346,-0.074463,-0.534912,0.188965,-3.427685,8.701043,-3.283799,0.063399,0.060134,0.044499,0.01123,-0.575928,0.206543,-0.417705,9.493472,-2.942142,-0.016617,0.000443,-0.036422,0.019043,-0.560547,0.181641
0.088067,8.241258,5.913852,-0.130566,0.021177,0.014127,0.146484,-0.219238,-0.466553,0.964905,9.10827,2.859679,-0.271154,-0.0361,-0.013597,-0.179443,-0.478271,-0.359863,-0.059769,7.015078,-6.657367,0.147717,0.003915,0.035011,-0.069092,-0.537598,0.190186,-3.366684,8.759048,-3.225579,0.022313,-0.049242,0.08515,0.018066,-0.577881,0.205322,-0.021838,9.355756,-2.979528,0.03479,-0.111221,-0.073369,0.025879,-0.564697,0.177979
-0.062375,7.461994,5.667238,-0.150248,0.054934,-0.052656,0.15332,-0.208496,-0.464111,0.917519,8.686872,2.741481,0.011728,0.025092,0.034347,-0.172607,-0.468018,-0.356934,-0.103688,7.471464,-6.742816,0.119069,0.064134,0.007614,-0.074463,-0.532715,0.19165,-3.150259,8.63784,-3.233806,-0.040706,0.024335,0.077645,0.009766,-0.573486,0.207275,-0.233168,9.391027,-2.919144,-0.013145,0.089579,-0.093038,0.021729,-0.559814,0.182129
-0.152222,7.452285,5.82591,0.164955,0.034616,-0.031828,0.150879,-0.210449,-0.462646,0.960951,9.508904,3.077976,0.184238,-0.031312,0.013733,-0.176025,-0.471924,-0.353027,-0.206924,7.491976,-6.511022,-0.107152,-0.017073,0.041697,-0.067871,-0.527832,0.192627,-3.49489,8.494416,-3.27168,-0.00272,0.066775,0.042233,0.015381,-0.568848,0.207764,-0.628046,9.204397,-2.865675,-0.046873,-0.050083,-0.053429,0.027344,-0.558105,0.178467
-0.080045,8.116501,5.986751,0.1157,0.022509,-0.045842,0.159912,-0.211426,-0.45166,1.035719,9.488635,3.11217,-0.177615,0.010171,0.063728,-0.173096,-0.466064,-0.346436,0.118201,7.177983,-6.565716,-0.223918,-0.012313,0.021904,-0.069336,-0.533203,0.191162,-3.317354,8.552089,-3.21562,0.039341,-0.096422,0.034364,0.016113,-0.574463,0.209717,-0.05532,9.133463,-2.936021,0.053555,-0.087649,-0.022898,0.028564,-0.560303,0.18335
-0.238869,7.735347,5.890951,-0.059353,-0.001341,-0.076814,0.155029,-0.207764,-0.462646,0.853095,8.592595,2.676102,-0.213013,-0.003326,0.041389,-0.177979,-0.459961,-0.358643,-0.169483,6.7615,-6.518848,-0.198838,0.091419,0.028384,-0.07666,-0.539795,0.187988,-3.010177,8.502758,-3.176276,-0.007847,0.012944,0.020566,0.011475,-0.580322,0.20752,-0.327858,9.322109,-2.869959,0.055213,0.065293,-0.065082,0.022949,-0.566895,0.182129
0.038318,7.464442,5.705504,0.183754,0.083523,-0.100963,0.156982,-0.213623,-0.452881,0.95158,8.672248,2.701606,0.324635,0.014302,0.065337,-0.177002,-0.467529,-0.348145,-0.268431,6.654464,-6.784247,0.090728,-0.008384,0.046035,-0.067627,-0.529541,0.185791,-3.377982,8.43275,-3.172028,0.043217,0.088655,0.034868,0.017578,-0.56958,0.207275,-0.402479,9.258109,-2.899468,0.024393,-0.068206,-0.000725,0.030518,-0.555664,0.177979
-0.35274,8.421998,5.949509,0.289834,0.018257,-0.077627,0.153564,-0.211426,-0.462646,0.828356,10.258826,3.178824,0.281851,0.003538,0.011537,-0.179443,-0.464355,-0.355469,0.158713,7.38144,-6.472325,0.405591,0.060205,-0.038508,-0.065674,-0.540771,0.19751,-3.433297,8.672911,-3.191053,0.087895,-0.069272,0.030683,0.020996,-0.579834,0.213135,-0.175666,9.364069,-2.909855,0.061338,0.004171,-0.045808,0.032471,-0.567871,0.186279
-0.009095,8.420597,5.928579,-0.046475,0.088168,-0.081054,0.158447,-0.222412,-0.454346,1.041742,9.577049,3.032127,-0.344455,-0.098961,0.068839,-0.181641,-0.470947,-0.354248,-0.166744,7.831361,-6.401068,0.080696,0.151991,-0.03616,-0.073486,-0.533203,0.192383,-2.920493,8.671978,-3.159519,-0.075519,-0.059708,-0.006887,0.013916,-0.578613,0.206543,-0.331663,9.33309,-2.821728,-0.062793,0.009498,0.035189,0.029541,-0.562744,0.182617
-0.577075,7.67301,5.760434,-0.105041,0.000881,-0.078339,0.16333,-0.221191,-0.459229,1.115591,8.621308,2.689937,0.029257,0.021002,-0.008215,-0.176758,-0.469727,-0.35083,-0.295357,7.3298,-6.573954,-0.41092,-0.054482,0.00706,-0.060059,-0.541992,0.175049,-3.132491,8.309548,-3.266276,-0.11624,0.103996,-0.003056,0.024414,-0.585449,0.196045,-0.174297,9.033351,-3.025543,-0.067468,-0.009215,0.044523,0.037109,-0.572998,0.169678
-0.307892,7.597236,5.878028,0.127179,-0.012825,-0.015285,0.150635,-0.22583,-0.466797,1.05595,9.767758,3.027805,0.351488,0.020451,-0.026554,-0.184814,-0.478027,-0.358398,0.074863,6.51399,-6.92217,-0.330315,-0.047742,0.003685,-0.078369,-0.544189,0.182861,-3.53604,8.316443,-3.240303,0.096896,0.011422,0.000148,0.007812,-0.582031,0.207275,-0.38493,9.156053,-2.956536,0.111862,0.078569,0.022809,0.021729,-0.570801,0.182373
-0.264017,8.122051,6.228151,0.11369,-0.071704,-0.070276,0.159424,-0.219482,-0.45459,1.017284,9.836372,3.114307,-0.22631,0.112778,0.039131,-0.176514,-0.467041,-0.351562,-0.109145,6.489657,-6.768004,0.243267,0.067306,-0.019307,-0.072266,-0.537842,0.19165,-3.263328,8.823876,-3.200889,0.112901,-0.059976,-0.014791,0.010498,-0.577393,0.218262,-0.411844,9.577659,-2.860726,0.077613,-0.036373,0.072723,0.022949,-0.564941,0.189697
-0.060186,8.058698,6.270918,-0.018794,0.026911,-0.008726,0.151855,-0.221924,-0.455811,0.799826,8.856556,2.737065,-0.086267,0.031825,-0.01295,-0.184082,-0.471924,-0.354248,0.064594,7.48097,-6.482529,0.57046,0.053835,-0.08907,-0.071289,-0.540039,0.199707,-3.264731,8.867467,-3.254816,-0.106849,0.047047,0.001183,0.013428,-0.583984,0.213867,-0.084682,9.514398,-2.959559,-0.075291,0.009579,0.038399,0.025879,-0.566895,0.1875
0.137343,7.907157,6.117071,0.146054,0.056689,-0.03152,0.154053,-0.231445,-0.452148,1.265816,9.579254,3.179075,0.323206,-0.038907,-0.042402,-0.183594,-0.477051,-0.346191,0.029574,8.171685,-6.737507,0.148045,0.10024,-0.097247,-0.067627,-0.526611,0.194824,-3.361643,8.548764,-3.41095,-0.132123,-0.024598,0.007823,0.017578,-0.570557,0.208008,-0.252091,9.308536,-2.935951,-0.105852,0.056262,0.020706,0.024658,-0.559814,0.178955
