# sampling frequency: 40
# units are seconds/meters/radians/a.u.
seg1_acc_x,seg1_acc_y,seg1_acc_z,seg1_gyr_x,seg1_gyr_y,seg1_gyr_z,seg1_mag_x,seg1_mag_y,seg1_mag_z,seg2_acc_x,seg2_acc_y,seg2_acc_z,seg2_gyr_x,seg2_gyr_y,seg2_gyr_z,seg2_mag_x,seg2_mag_y,seg2_mag_z,seg3_acc_x,seg3_acc_y,seg3_acc_z,seg3_gyr_x,seg3_gyr_y,seg3_gyr_z,seg3_mag_x,seg3_mag_y,seg3_mag_z,seg4_acc_x,seg4_acc_y,seg4_acc_z,seg4_gyr_x,seg4_gyr_y,seg4_gyr_z,seg4_mag_x,seg4_mag_y,seg4_mag_z,seg5_acc_x,seg5_acc_y,seg5_acc_z,seg5_gyr_x,seg5_gyr_y,seg5_gyr_z,seg5_mag_x,seg5_mag_y,seg5_mag_z
0.4279120321424855,0.008881488695590217,9.756436892722476,-0.0036898155252564823,0.002454065534933719,0.012899101896637094,-0.4776589408960695,0.1184004825561305,-0.5199689629713687,0.07714420200650192,2.22820683577457,9.572737751334113,-0.01014872794628015,-0.003583196634707142,-0.008765952826100296,-0.9778269758248697,0.41942408812615734,0.5097333728271393,-0.0690573654824606,1.8441679397411073,9.538943005443354,-0.005581432514054109,0.003807485055553469,0.003433508503382019,0.791749510319613,0.34661300598149297,0.7433799010648097,0.23690699658378345,1.860141494183053,9.712911445272683,-0.005368503609013914,0.004227100001027974,0.006257948751892577,0.30098640806884375,-0.022650545246162078,-0.6290243414017196,-0.9491248691418188,1.6668995771756892,9.588713579922961,-0.007283742803422237,0.0028039337645765906,-0.003210513076980393,0.3092763759674375,0.0075972193322095816,-0.7103307095275176
0.42675194735197763,-0.0012743260659177358,9.758783839847737,-0.0009401517256261843,0.0016926199920800052,0.011223141373751522,-0.47753246918008657,0.11099143361782206,-0.5134749460530964,0.0953383441445877,2.2511376716064726,9.547604923799001,-0.009325263650441154,-0.0025874164732514536,-0.011982736534018762,-0.9804569931297473,0.41260447495126473,0.5134658815171327,-0.06522298985419993,1.8515835081413763,9.536268541975229,-0.001484324638175589,0.002204985932954386,0.003681729403959256,0.7923224191484779,0.3510968285698381,0.7319302467263569,0.21401370597054029,1.8807190036480064,9.717638297091531,0.0010001340834801381,0.005023023014304179,0.005184850201580746,0.30143673098974166,-0.016962888754070184,-0.6394848454954466,-0.9603762791318091,1.6344863648048518,9.626556499432958,-0.004108009960713992,0.008091560720815358,-0.0030953693259500774,0.312044384644947,0.012901579246071217,-0.7202942943675964
0.4299688826903392,0.00014622254535828771,9.767712197069075,-0.0024226070576859183,0.0003919094226546813,0.010731782845757029,-0.47378554924033855,0.10680848049833087,-0.5079399940058554,0.07311746105381872,2.232541949363599,9.538643443400526,-0.009953427436388674,-0.004029649864180398,-0.009751197579818393,-0.9727962966190485,0.4058624102458274,0.5220029089552204,-0.07121816259008565,1.86046272927083,9.555244899291667,-0.0034076870985701112,0.002298091595595155,0.002815518008554328,0.792375270782199,0.35154746316994234,0.7370603937185981,0.20776883187880768,1.8933720209140328,9.757938298513915,-0.001710021551196826,0.00458739857156402,0.005200998907907479,0.3016463925341477,-0.023087597266410347,-0.6368457682560189,-0.9614696734837154,1.6609989965092853,9.657256960730736,-0.006462161082492098,0.005877637562185407,-0.0037160646968953212,0.309194185681006,0.010601323539784314,-0.7151671682182176
0.42413052644304194,0.01403659996380796,9.745241260384045,-0.006016882613396218,0.0013978146920374356,0.01016077687499015,-0.47361173878871493,0.11363977057920152,-0.5073639369271692,0.095309154456139,2.2295736860874866,9.539016775774018,-0.009748559119309184,-0.0037817106820796993,-0.010555628518206676,-0.9745590047265353,0.41487195973167723,0.5197526962564242,-0.07215308112201763,1.854842234660612,9.542379143049798,-0.0076758478346991,0.0035706165388126247,0.003067821792624675,0.7933634577649006,0.3561633178496276,0.7412334887406707,0.20845184928144117,1.8817003513634452,9.730917367383963,-0.00512445982076305,0.002641235572340759,0.007277184565255089,0.3029592290071635,-0.016041178987948115,-0.6338757965659059,-0.972275642190349,1.6586688428096974,9.667344501067586,-0.009597685298368347,0.002625594953632721,-0.0016447808525583193,0.31115049403274014,0.014721872413934928,-0.7121966725342161
0.42323445167869445,0.0032287264193827936,9.747573783581016,-0.0040948020226256425,0.0005295053351141217,0.01121869183530712,-0.4845715040512331,0.10749055868345413,-0.5129808734099592,0.0956457163848379,2.235821639887849,9.544372418160947,-0.00918269184322917,-0.0015454774221404788,-0.010306413685174223,-0.9880068228396137,0.40866977058027265,0.5137962886370819,-0.08511862563466346,1.8587221180224835,9.541167110629083,-0.010170779738882686,0.002770578926061346,0.0021813999902810578,0.7823950374932749,0.34902436239382745,0.7381290451922883,0.22374999607670426,1.8647992279098953,9.731032500517523,-0.00716387098699432,0.0015763847898096447,0.005633790240695676,0.2942984697683134,-0.024720739806233908,-0.6377715449418087,-0.9634334042852335,1.637800417980467,9.637461128099057,-0.011728591128577768,-0.0005108589133786595,-0.0027715667607453413,0.3007141584705623,0.006826693619367679,-0.7121916890174784
0.4175256300838529,0.005551789913250588,9.759728648985526,-0.003552797802422506,0.00012873564023000597,0.01186962046192027,-0.4873372208516007,0.11167454761933379,-0.5177898059489539,0.08297536112764581,2.2378507864596275,9.577456557908668,-0.010484984549295657,-0.0035033512784429606,-0.00928001626188572,-0.9882997823653189,0.41082787070870946,0.5086553021994478,-0.07929674612210269,1.8560803879355563,9.54888041537407,-0.004872092416716774,0.0028535873102086403,0.003991796706495351,0.7845281807122667,0.3505413386715445,0.733233169276774,0.21242229397586954,1.858603137943187,9.743249149986147,-0.002981866816261442,0.004334739738497957,0.006653191090714704,0.296988268007949,-0.021058844721194386,-0.64118588277164,-0.9547425813600364,1.6479565589887204,9.57963017591337,-0.006788955285447922,0.005108708578999847,-0.0019636404424033652,0.30547362831135233,0.012097455089437126,-0.7190054423414726
0.43275744759776325,0.009358070943443736,9.742033577950288,-0.0023709285432572977,0.0012731187941610132,0.01076792665180822,-0.4813591183173025,0.10554046143168691,-0.5105882462753875,0.08281117848762472,2.2294052954767856,9.549349544778146,-0.009005547510420375,-0.0033757116028255065,-0.0116533304343484,-0.9823649103010098,0.40798295152536546,0.5169326707076469,-0.06343123919705132,1.8532223955204312,9.534707605159923,-0.0019557357123104,0.0025673185877851832,0.0028924920211482737,0.7838225488644026,0.35659049628401357,0.7398775757871244,0.22433299843879084,1.8777045636813963,9.715181871101924,0.0003713574693750853,0.0054323927646903174,0.0058113391296739534,0.29343917939579206,-0.01447638522647688,-0.6352462274766367,-0.9654313689613304,1.6540952329252225,9.629055941541386,-0.004338253963268695,0.006900723563392043,-0.0026539029469498806,0.3003655364680283,0.016142909426967177,-0.7147297988901163
0.42323157692539626,0.010006751595660918,9.745285099800865,-0.0031543582660706997,0.00222707762752212,0.011052069949573333,-0.47830398583391837,0.11488251106051092,-0.5129294880915098,0.08734632303726131,2.2206106557288585,9.561197647816947,-0.009418266999214933,-0.003877609280205217,-0.010045401535108755,-0.9797309269259128,0.41676810148997073,0.5148947240255402,-0.07030724384759322,1.8533676468903706,9.527471772099018,-0.004060608732496743,0.0031541951240768888,0.003779028822438481,0.7850352499636997,0.3468885393136868,0.7324679146619655,0.20821256365214658,1.861989338609065,9.734727936184584,-0.0008239004078508318,0.0036635646869530585,0.005395540093674939,0.29500152034625604,-0.023964954838555194,-0.6419222866788342,-0.9630990267146451,1.667243760610815,9.662431427984965,-0.007389312642665668,0.00431886467815306,-0.0029227330635456894,0.3018284948747786,0.005763892797066804,-0.7217455591123852
0.42239235608655246,-0.0008834357538040072,9.747611136962476,-0.007704874131745707,-0.0008631696919914864,0.008826261139167771,-0.48357021889856394,0.10338686092546118,-0.5157280109664147,0.0832865108195946,2.22488380014428,9.550399354823968,-0.010409518134323253,-0.002920604950661963,-0.011401008373532764,-0.9826225406028356,0.4040472811304713,0.5130574503048395,-0.08238461492202706,1.8668848670933123,9.552300413240161,-0.005043145276967245,0.002523613130827027,0.0044923213911429345,0.7909240226946431,0.34934136635493507,0.7368162916268823,0.2261308976436465,1.8983589333485404,9.735033364499202,-0.005128429649181677,0.0026462874224918217,0.007275256023739364,0.3033845546202616,-0.020668169894073753,-0.6361108194466553,-0.9837977207020103,1.6462244312009822,9.661897270350607,-0.006815109355597137,0.00197712617711453,-0.003125997369004147,0.31017567789062395,0.009637004120976502,-0.7154380964392825
0.42939876714517733,0.0015310435429005953,9.76544714738531,-0.003410526364479684,0.000380619100945089,0.010171696270395846,-0.4821279802286926,0.11014530681671532,-0.5085693185052094,0.0752203975162117,2.241833279574545,9.556930936042939,-0.009940248707939671,-0.002656910904301917,-0.009392406457926815,-0.9816661155985276,0.41334591554222233,0.5154227061657844,-0.06934930173354134,1.841573262753141,9.538178258064525,-0.008490382980142338,0.0032740005585680867,0.0032786521915270533,0.7899732442004973,0.34883184551649016,0.738776224730399,0.20680008206608996,1.8780820694577196,9.710347529899991,-0.00692088893399648,0.003429605093243361,0.0070864912522124995,0.30143016017716184,-0.022617201956246183,-0.6341552521679852,-0.9582749897190573,1.658342403186615,9.630080673170406,-0.0100884178600698,0.0003168215635238748,-0.002889764380967926,0.30921878743683495,0.010086956612391347,-0.7134660960805308
0.4138269534898241,0.007872379669619983,9.748533388352767,-0.0013840418527216573,0.0012775952190168388,0.011312929974425729,-0.47854458814865347,0.11104459080592467,-0.5183494965458927,0.08825898788268285,2.232796286698731,9.54873810277124,-0.01008581096678145,-0.003704876647183118,-0.011070662228227734,-0.980967226531375,0.4125808871264649,0.5105407677603045,-0.07554284062949201,1.8492422188115678,9.55738900677243,-0.006385520975073152,0.0026871313050375787,0.002391115477426355,0.7903633951666738,0.35011411815988885,0.7307235635496722,0.22925855715304677,1.8625388855633667,9.741876989318047,-0.0038269823511936276,0.005042726103818508,0.005425633744137169,0.3009035678716341,-0.02085682969367214,-0.6404851039862286,-0.962832795318174,1.6215596456533206,9.605917426919797,-0.007407411626751802,0.0032995963480450642,-0.004016494234009291,0.31060090923046324,0.008994862213946964,-0.7210693032441206
0.42626101659112303,0.007709560923144787,9.754227240726047,-0.0030193223128396045,-9.73264147643599e-05,0.010026615348170988,-0.47732272796453346,0.11320989540239557,-0.5149116356273905,0.09244136434148294,2.2151887832566453,9.55580864438372,-0.011146923614778037,-0.002645242111209003,-0.010124366503608524,-0.9792444549601645,0.4128462086749,0.5124788308628285,-0.079869029480586,1.8662884557334263,9.53723604679558,-0.0035807397823654345,0.0019681024074244702,0.003316064614098396,0.7894733028314717,0.35296551021618044,0.7405209882611017,0.2074113595839251,1.8722445710828246,9.719417682628544,-0.0014680229669856994,0.006439606119010077,0.006656701104932569,0.2994677711633126,-0.02135997107755814,-0.6365701912719789,-0.9665555885040878,1.660902581203267,9.634192952135214,-0.0057621818533765525,0.006242535678383085,-0.004064013606366516,0.3087335407760328,0.009354967335550171,-0.7137155582555591
0.4176476337259367,0.017569955937820403,9.75515426918962,-0.004736960295855726,0.0017333762381625947,0.009801892060845176,-0.4785050964559453,0.10786148623365269,-0.5176592895565133,0.07590025075494686,2.2430811676056956,9.563470930311704,-0.008531688338657386,-0.0024266598284724498,-0.009465810328170307,-0.9770373702382409,0.4099234004297855,0.512238616390862,-0.0849974273092749,1.8529243953095078,9.527087324575685,-0.0034096943460328677,0.002299076532127315,0.002815547294231253,0.7850738422414075,0.34637645056756583,0.7356380365448271,0.20660743140526597,1.8843297027687942,9.725065334584563,-0.0029705266486111446,0.005412173103071305,0.0064530467790248165,0.2975055347606259,-0.02256441908648018,-0.6363181609290149,-0.9774994617745634,1.6684549179214079,9.654362023728513,-0.004927503294923632,0.005015780278069424,-0.0025838741224460905,0.3038167170157439,0.007667883403515892,-0.717588515512815
0.4223804474210717,0.003693117447527372,9.745326758058033,-0.0028685294271229987,-2.2098047728093224e-05,0.010818599059121102,-0.4736926017665718,0.11665765517336603,-0.5141606839987555,0.08024586013129792,2.234192835621072,9.575331165245267,-0.010550494752870211,-0.0032822130009699307,-0.012900353300817853,-0.9765717325794577,0.4162767596455661,0.5126772246967324,-0.07264773478393392,1.8542972590161155,9.555179738868027,-0.006527313547464841,0.004537142144160007,0.0018531036173860037,0.7896473094246216,0.35374197096144094,0.7346652157743491,0.197406839202323,1.8745214525846738,9.745879489682498,-0.005438637536450755,0.0033917102633546766,0.0074874560590739644,0.2997437718077131,-0.015483810203013851,-0.6392152942984723,-0.9591716308893172,1.6569644252207296,9.653837882967379,-0.0067949629591950635,0.0029933798991417827,-0.0020303074059316696,0.30742993666308654,0.016218003963587743,-0.7160349466574711
0.42868996624246625,-0.002887634529319408,9.76547753446148,-0.004149538257717952,-0.00035947421300126835,0.01116246632863554,-0.4778810292490434,0.11524661500571086,-0.521717759482654,0.08451260167134221,2.227457747121675,9.56344077948467,-0.010482361275497202,-0.0028280086729141228,-0.009102009285640129,-0.977356045014093,0.4145072073457289,0.5048828028026459,-0.06889588503999304,1.8607486529504504,9.55271018044537,-0.008593559524148928,0.0020195093432440643,0.004046719500714024,0.7907269316973718,0.345907498942083,0.7387466228755923,0.2120614922445372,1.8763126984451535,9.721108774584229,-0.0039237680334080986,0.0020555068416280094,0.007055486378983747,0.2992287432451579,-0.023084615482721733,-0.6341397251993744,-0.9731063189659435,1.6583412998693423,9.651159414298688,-0.010913993815890817,0.003652868486946993,-0.004299367256209518,0.3090040164475178,0.008597574960538645,-0.7120212425525659
0.4250837584255881,-0.005932792452148478,9.75656276113814,-0.004043181263782199,0.0014088587030945457,0.011243810582845805,-0.4835861095963744,0.10197947719429332,-0.5201407742185015,0.09324016210171249,2.2251458306809937,9.543888438440552,-0.009012531868305893,-0.003388776378573116,-0.01165818124660942,-0.985107106678568,0.40399596259335824,0.5074613903674311,-0.08033310836888066,1.84751504166498,9.535327269962078,-0.004635185335520989,0.0022620292808224664,0.0037588586616249583,0.7886951661776657,0.35760587109786646,0.7395862726702818,0.2070907890533758,1.8643356688561494,9.728902581421037,-0.006265480196915262,0.005169057686793928,0.006060634994178358,0.29929526161966463,-0.01354443984223937,-0.6367549288347727,-0.9615415424701822,1.6445647097210352,9.614938368296556,-0.008102282847726,0.002931630088233678,-0.003661653681222197,0.3059731955473789,0.016679197063799084,-0.7150338716122701
0.4247540453507807,-0.006596622568243865,9.756576467533211,-0.00039715523464122144,0.0012801111257602893,0.011854907347816001,-0.4828670372699101,0.10775629294270096,-0.5132337197957926,0.0721491680531354,2.2404024422297293,9.554320679335675,-0.009953794001045076,-0.003362341258174138,-0.009576108773836012,-0.9843423956977291,0.4094219807271294,0.5144959389903186,-0.06848725831061918,1.8403610744991037,9.537162845944364,-0.00493457692450377,0.0029573507381543025,0.0024681078152489835,0.7912833533697438,0.34295110534083645,0.7428693225732448,0.22889133314158752,1.8672916642749582,9.735588891430448,-0.003034729378760373,0.004566705767896773,0.0076854286170094,0.3011434278024437,-0.02873112162134878,-0.6324888776980775,-0.9595544067818025,1.6401951457167108,9.598705410489424,-0.007029219928637596,0.005007917616908603,-0.0025473861774573,0.30930476548582386,0.003935773103202084,-0.7103877143284782
0.4117681436561884,0.02611385402998262,9.765043383907859,-0.0029129762431735267,0.0016680853206478541,0.010101920845549414,-0.47724982983536335,0.10900946565978037,-0.5110606082527648,0.09421250125743766,2.235129238810737,9.578466327237892,-0.009536486606395946,-0.002169063929544356,-0.011002163736083023,-0.9787304603530198,0.4096869070399466,0.5142073341816589,-0.07660355801744508,1.8579393802311293,9.546043040799232,-0.0032406671722802144,0.0026310428761235167,0.0023140593472305445,0.7874227222942006,0.35228644882974053,0.7312608228147605,0.2259149051378433,1.883198691522563,9.732598977304175,-0.001440337731363436,0.005149351124676778,0.005822868641348595,0.29794584685066244,-0.021544313188935366,-0.6429068401002268,-0.9665948882724036,1.662024557671599,9.652237288264113,-0.005992434714439497,0.005049729766319329,-0.0036245779727202667,0.305729226914908,0.008700800117057157,-0.720282354770916
0.4337486535900581,-0.00023037197355921246,9.7510691704659,-0.005270529665435243,0.0019556870931352194,0.011625846723551424,-0.4824862893712614,0.11274277739594446,-0.520741155965034,0.08569167031831161,2.246183079058878,9.556340257323075,-0.00921938246412973,-0.0036447381325694565,-0.010855676161579774,-0.9831718644338595,0.4133003532887557,0.5100631809511824,-0.07721376802635693,1.8570165106681333,9.546218056554864,-0.004535052828819702,0.00351951238444897,0.0029888465025030564,0.7840539541314449,0.35684342927234997,0.7388997836283319,0.21172268127658203,1.8816202570520548,9.736015900992838,-0.002361003991172866,0.003935451506861161,0.00602584488605623,0.2965916372332865,-0.01744128033482598,-0.6345632878165586,-0.9810359506584723,1.653281557990314,9.66840807373467,-0.006458020854201543,0.005873530686287766,-0.003707176948020412,0.30478442247053794,0.012278949199399892,-0.7153315262840434
0.4125345839888753,0.009027801027366389,9.746312554374487,-0.003706677250367789,4.578935387791465e-05,0.011053555495707131,-0.47907894184989364,0.11806404511285058,-0.5141034664759392,0.08995428795011558,2.2288382416275825,9.563319246104193,-0.00975092499622321,-0.0031164174818958446,-0.010381509707001357,-0.9775184290049166,0.4145854802154904,0.5156260613770907,-0.08822768499739199,1.8525645606521977,9.555035722459783,-0.006800532024832319,0.0029526769710877085,0.003122684563582807,0.785373709261882,0.3536289807329483,0.7456984290804216,0.21025082568089087,1.886336763601702,9.705888521815874,-0.005655966162083908,0.0036923434844347114,0.005632433165721042,0.2949704718776889,-0.013071318280507595,-0.6291456487981644,-0.962620901234474,1.6613069943523389,9.659192125063436,-0.00904052692853699,0.002465956891118994,-0.003897474626670488,0.29970796998056976,0.016042659132285798,-0.7086181545783957
0.42934939875129513,-0.014007982868136731,9.744464160253854,-0.004987704070713257,-0.00029057389153080206,0.011396436018183537,-0.47139484122299863,0.10907954546054188,-0.5115899684048402,0.09037721060511499,2.2348880779030758,9.568747698320765,-0.01062332557879041,-0.0031926166169627536,-0.01060133217025628,-0.9731086005394338,0.4138829076516673,0.5173068381908231,-0.07194651518124552,1.8531849227984862,9.554158824959927,-0.006730655885043587,0.00202817494393437,0.003390205267225709,0.7917363437326096,0.3541531456526562,0.7473413045257484,0.21061616746089293,1.8794542954634514,9.736457455714685,-0.0036052087247082543,0.0023905600031948705,0.006641190173636982,0.3017515195429391,-0.018009702010893514,-0.6302167018748441,-0.9443836054939604,1.6414723726872997,9.619299357793192,-0.007393312772455887,0.0022025520306901505,-0.002989439713515449,0.30879140100438573,0.015565028884438007,-0.7048294613759949
0.4247690264822582,0.007457455639077709,9.752019459160586,-0.0009815920907589972,0.0033690992880920445,0.010486260198676031,-0.4843231173923886,0.10772442564728915,-0.5120035002412389,0.09517530900095103,2.245146199059187,9.566578435051722,-0.010086186967956906,-0.0030315534965117096,-0.010893617619744321,-0.9843508658770654,0.41284526079160405,0.5152027839918806,-0.07942027041201176,1.8483121165925778,9.533934898451202,-0.005729276524505684,0.0056644504855573015,0.002895613959494208,0.7825434279531465,0.3573498625660671,0.7350137716644168,0.21386828317192727,1.8637858123987745,9.7180973791393,-0.0048464410291835375,0.0042846862383458745,0.007693965634806012,0.2941326601911869,-0.01641904736253168,-0.6377087297023325,-0.9613934197019053,1.6455675314838087,9.633020585145095,-0.008208808285103411,0.00444550679806735,-0.0033708777561274133,0.3015756051184128,0.013748739996404292,-0.7172230643391039
0.41172922916315957,0.006502284294984839,9.746348371118573,-0.002274875606511432,0.0004564333680749814,0.011498645987915576,-0.48095453945093725,0.11215914207016882,-0.5122138758600948,0.07283862804432324,2.21798559808329,9.552703755579032,-0.009427228917585267,-0.003901703900181043,-0.010053156101978928,-0.9785163930720472,0.4165218451198662,0.5139102590347978,-0.07348358582216326,1.8505677236760638,9.554653738688184,-0.003813254966876763,0.001738899324419362,0.002292867352710048,0.7848366378254218,0.3512289060336356,0.7395823325548706,0.2292248270722962,1.8726537610259335,9.729181249022247,-0.0032510588814513752,0.004866322311741042,0.0058313896549268135,0.29727648479797564,-0.022328985932189013,-0.6348493504087399,-0.9591832793876743,1.659817905798502,9.63725495696185,-0.005990402807048946,0.005048714855796754,-0.0036226180469595822,0.3043627898604012,0.009289852695997514,-0.7117099335356223
0.42707756120227236,-0.0015397905228493602,9.763268523252684,-0.004454210446469433,-0.0005137278301648764,0.009560469549926754,-0.4739847659215976,0.10313379357509311,-0.5072544885499372,0.10466517388400393,2.249014417210837,9.552441005765157,-0.010308216643697235,-0.004671306190390479,-0.010455807242973776,-0.974518473223423,0.4036369489879234,0.5191022504208677,-0.07587916371128182,1.8585837608353337,9.544689636378475,-0.005578059209696538,0.0029907089372913794,0.0021784135295037773,0.7768042614161041,0.354796458164019,0.7443362062401966,0.20640923641832615,1.8931864404558918,9.7339211002369,-0.0020414463550600752,0.004268480668431473,0.005613525234880372,0.2883295899556297,-0.016904543911718972,-0.6305818220319669,-0.9702640672891392,1.6379523157215254,9.655973276866916,-0.005737979298519061,0.004049399658644999,-0.0020088409529707587,0.2980215961810325,0.015033345760459331,-0.7073919894485348
0.4185302340388677,0.00832023079843447,9.764202071272635,-0.0034475276113620323,0.0018874118647283034,0.011923843374591063,-0.4836727679207383,0.11530029121228404,-0.5119092054595759,0.08720046489839003,2.2429893337215665,9.540712483948868,-0.009542456420751676,-0.002180102591320765,-0.011004037038713183,-0.9816717228736406,0.4165270120041411,0.5163763302313539,-0.0808615856934508,1.8489356572659643,9.547756520906185,-0.006161093688717281,0.0029223031558585776,0.003410444959841323,0.79098230863627,0.3490600409798983,0.7419410475998403,0.2141506981800247,1.8700410088750024,9.73281014311508,-0.0047851815456315975,0.005136181210404488,0.006461653747241079,0.30190545539668223,-0.025318407983520214,-0.6327142298043421,-0.96104462504939,1.665762093463113,9.647872655362894,-0.009009313480976664,0.002386173265726788,-0.0017766780089320793,0.30953197776269326,0.006858717608471816,-0.7098571570739305
0.4195664828314176,-0.007383373930484494,9.745445354183609,-0.0033589200988739377,0.0012580380794597547,0.010191789291385978,-0.4765758368002842,0.11295156269585106,-0.5132112066222582,0.08721444639886401,2.2297609030188332,9.56017207622776,-0.010097764563131472,-0.003730983343424463,-0.011078379218940625,-0.9767861529621388,0.4136078779614007,0.5151396843320193,-0.08527335993330624,1.8656685223631266,9.52770122996597,-0.006803568638219719,0.002954668914068958,0.003120732348867434,0.7896838404630976,0.3452162226396851,0.7321605040070382,0.20858873445665593,1.876642602061258,9.7157518124833,-0.0038674775012169367,0.0029130703410734514,0.005820262018632753,0.3015667473299935,-0.025234896645331878,-0.6436974003257332,-0.971817796725766,1.6448221722681722,9.637480905010763,-0.0077311596276901165,0.002524692093946355,-0.0022641995587710847,0.31403369345374244,0.007069298475169166,-0.7211409256170875
0.4264136718585098,-0.004479744506624278,9.763296904805225,-0.0031657019325443477,-0.0003588599928530593,0.011694439737747784,-0.47215742521209186,0.11367483863382388,-0.5088391292035843,0.09630986539194986,2.244398843615826,9.550384422095172,-0.009740719873030749,-0.0017426611901745776,-0.01001870327594361,-0.9721212560556932,0.41634859596166024,0.5199672932324261,-0.08359682703326216,1.8591947143575371,9.551313674319358,-0.006632530625805057,0.003286642984093034,0.002620222393780732,0.7788044482702418,0.34554884473410336,0.7422936476977362,0.22618940358300343,1.868906294618259,9.729972765139584,-0.005061780031539313,0.004583293498805306,0.005839910668505031,0.28969868280292504,-0.02618737231579758,-0.6316383311875903,-0.9628557242004735,1.6539505418657034,9.608925423898684,-0.008456248829731644,0.0022355330227940735,-0.00403118305633215,0.29902344953728804,0.004856643454465508,-0.7119575274264449
0.4290361638887706,0.0326497759291722,9.754098043475746,-0.0017206148358117387,0.0026280453115744614,0.011474017449311119,-0.4792624695859574,0.1105327638533771,-0.5171308713317189,0.08313922426907086,2.220744844214898,9.568881049889265,-0.010514062558545261,-0.004930271167684367,-0.009654287686209528,-0.9811983375103654,0.40989579467587106,0.5108063506045432,-0.07867468289993679,1.8483127054449546,9.532705582822452,-0.005820017575660383,0.0035862437915121933,0.0024094360101161614,0.785696741814406,0.35349889537533863,0.7305556031628545,0.20944183690942053,1.8707918850485143,9.724813781785935,-0.0020261175227188908,0.00534286204067347,0.005415324089882523,0.2950609090380252,-0.01810997955496028,-0.6413914737063263,-0.9672259049559158,1.6452586282894495,9.615331425736624,-0.006669107280430019,0.005695955235426194,-0.002171055051843745,0.30663934826835365,0.015802587570443144,-0.7211597367224808
0.4098505896475983,-0.008295019384290891,9.748700862009917,-0.0036126275694881352,-0.0007660099905962089,0.011791353897601454,-0.4831118381105148,0.10943050305798731,-0.5107688078220474,0.08815493228006284,2.230922119923932,9.566747731982632,-0.01096456085678948,-0.0031197986365271596,-0.011116305981992545,-0.9835962884709556,0.40870378018519604,0.5159606522686511,-0.0623661575580821,1.8535802841672058,9.544896367931663,-0.004367029399558125,0.003853463831931901,0.0024883841583219633,0.7802553425318769,0.3521283627456145,0.7454998625342304,0.21820559448702673,1.8859887855575874,9.740217572684225,-0.0015095110039318527,0.004307937671367507,0.007054323252348261,0.29075529526803706,-0.018636266046568022,-0.6306155442061654,-0.9750399198956933,1.6393067847828378,9.638095944167588,-0.006086856659761102,0.0054675306549440686,-0.002305708034589117,0.300478562997386,0.013340212134199479,-0.7072040783339987
0.43286288881914387,0.008310484455914396,9.746566636377,-0.0057230274027234365,0.0017272767761924448,0.009228858503959353,-0.4762563290268036,0.10850982119253863,-0.5093651105235578,0.07558622821697172,2.235038484673901,9.57611336860913,-0.009635065934521746,-0.004164684212457778,-0.009252591844879116,-0.977251130993088,0.4111775985055642,0.5168702458585979,-0.07353248895100159,1.8492574997554256,9.553674649947682,-0.005821017487432809,0.003586236287117658,0.002409446970564403,0.7825488033303186,0.357346308578603,0.7355017291159363,0.20776290534961972,1.8696066846452768,9.725077512371321,-0.004158385932196998,0.004728830026788026,0.005835196827584658,0.29220262439593087,-0.014204738428655252,-0.637431697620462,-0.9693888148042273,1.6710004260477975,9.617215402158024,-0.00937535416235037,0.0027871054558986077,-0.003171286412199284,0.3010836791984087,0.01640778518268715,-0.7157106392710313
0.4296178055534685,0.002717236044407545,9.769962567578942,-0.005031208653989459,0.001399724864346954,0.010671751626801968,-0.4782962014898089,0.11127845776975968,-0.5173721233771723,0.08001019313131068,2.2394591228577636,9.545262411549682,-0.010086564195482251,-0.0023542157303355956,-0.010714602513647248,-0.9802259392147605,0.4094063553110374,0.5100695333525356,-0.08223803689052242,1.8579536924799134,9.536383367254624,-0.005440314177581829,0.0011426898195168625,0.0027134842224665057,0.7906333299479713,0.35058536099766263,0.7334102563869151,0.21400530583574429,1.875533682936673,9.726394594914147,-0.003241691224389826,0.002504728583022114,0.005193806478018413,0.3031122678930672,-0.019164887375158427,-0.6409806707386884,-0.9737857855634262,1.6422973448345877,9.632353821593705,-0.005736927352696118,0.004047361487297356,-0.002005884727752133,0.31036882402377725,0.008977824566837902,-0.7200905498658794
0.4098722119049367,-0.002288048536000037,9.746427930047503,-0.0006036557196102695,0.0003079980079505574,0.010998600956452612,-0.4679999155074352,0.11203034734631327,-0.5103557595016421,0.08879681418908482,2.226296908904911,9.54460674147533,-0.009643655956801212,-0.004861102018524791,-0.009437398367789016,-0.9684819012438557,0.41413588018874814,0.515805738419395,-0.06222503096083165,1.840262853198541,9.55586078171802,-0.008170863456736083,0.004770625055089033,0.003527053863372603,0.7857963002984087,0.35270470420577,0.7390944671092142,0.21505577456115255,1.8763918817212484,9.70492049720777,-0.005112671011503922,0.004812241032524589,0.006872108873774784,0.2963164372781408,-0.0196268137659018,-0.6357981540466976,-0.9616656087394525,1.656834537804521,9.626827016973445,-0.009286871325866159,0.0034612584508416687,-0.005507387122155301,0.30362519137082117,0.010015929492515944,-0.7116897109312689
0.4258192434393631,-0.0006620964597535417,9.761051815888338,-0.003948175074256134,0.0005932275812508639,0.011969550685797099,-0.47518915412579804,0.11717849726396803,-0.5178054946320739,0.09378674010656202,2.236800647896506,9.542413207218809,-0.009222750143284874,-0.002973427058163568,-0.010678593976939082,-0.9751256306923735,0.41724424652217246,0.5107059894302648,-0.07749629933120146,1.849599318854845,9.531239845090651,-0.0052827115697914855,0.002298371863867488,0.003467230486393062,0.791528095806192,0.357691867162015,0.7307659248655312,0.2188881354618613,1.8550278563014173,9.71687426099946,-0.0029670737391525636,0.003059634861390972,0.005815581565191247,0.29970148213157927,-0.015693500176415617,-0.6438547793667044,-0.9565392781920221,1.6391223826049361,9.613157886156007,-0.007042247449732823,0.0039856275575634904,-0.003637255122908211,0.3090619808885158,0.017778450245116748,-0.7214027261843058
0.42284327147879547,0.005911116794816179,9.749839900066325,-0.003208166978991995,0.0013303975231056546,0.010973734690861619,-0.47982864173375295,0.11688946859189063,-0.5182638691103665,0.08505869538869351,2.2260678712892443,9.558123587949446,-0.009078145143928731,-0.0019284357436904127,-0.008996308761276507,-0.9797685717402012,0.4155057139439406,0.5092890102840452,-0.08552125885332448,1.8669727574800419,9.540192548146422,-0.004526646678729131,0.002699766669434667,0.0017346745448527736,0.7899544857199293,0.3481148858223773,0.7365740179016872,0.21660764036241947,1.8834935038890845,9.719452561896592,-0.002368927198325474,0.003944533096700647,0.006024980296902807,0.2994158502519629,-0.025745630744393445,-0.6378232513286635,-0.9704031872879477,1.6486116740130459,9.64988170626165,-0.006810913850159191,0.005177348732682093,-0.0040707195464567214,0.3063123486012632,0.005925643366819573,-0.7142272198334837
0.40986831005072644,0.004599673334691856,9.744162689396372,-0.0032967889847177875,0.0019578369189084456,0.012700763047518151,-0.4762626157974395,0.10493028266966749,-0.51576054150511,0.08983643461895813,2.236610720954255,9.555927376942149,-0.00943519620467379,-0.003920779891036915,-0.010058955145806639,-0.9801970248305923,0.4028163891746462,0.5103619547601047,-0.0781685930186445,1.8513822084769234,9.54484742128163,-0.006394631056754748,0.0026960924044226267,0.0023872807532425407,0.7967842087326781,0.35181376239715284,0.7384788918223728,0.2142014260494594,1.880826178459553,9.74130499765861,-0.003580511307251096,0.004545393235689747,0.00624288403797419,0.30726095820804006,-0.020433649537248834,-0.6398047484425744,-0.9648708801690417,1.6695840819133734,9.64799642145442,-0.008078009510795726,0.003940823802402629,-0.0025601220873057323,0.31381134693931056,0.01187407542654553,-0.7161799182118278
0.4339234086172225,-0.005169511803076884,9.757865140553017,-0.004641037001241892,0.0009208470061208634,0.010520665299515137,-0.4740611581429156,0.10829833140186296,-0.5101167852264517,0.08115544566377968,2.2282685977434866,9.547871427705937,-0.009762863398584782,-0.0031425094209533684,-0.010387226809875336,-0.9750275975399827,0.40606508434059296,0.5176241191210825,-0.07630201676267151,1.8674413934578045,9.53215870961218,-0.004953063613896148,0.0037850355373154933,0.0037204484700042338,0.7875354870893987,0.35439798930478,0.7429939815507205,0.2178864741705624,1.8905836142791943,9.733995896443636,-0.003904039567311718,0.004216408601509714,0.006654267770534895,0.29954150767206406,-0.016009205392461458,-0.6338460885737552,-0.9792120425253921,1.6419628406104072,9.643684944543649,-0.007710945676286826,0.0035369000064806753,-0.0011655724436990152,0.3077236544872659,0.01663988608078677,-0.7116371447839273
0.4120290441416928,-0.005063214465730076,9.755408122627005,-0.0026671556092123204,0.0009256828547581389,0.011619618376205565,-0.4795335756321434,0.11464760828028742,-0.5146328807684768,0.0862286899175703,2.2363233446175634,9.5694616644007,-0.008563794971647927,-0.003846592112757386,-0.009840110304343664,-0.9802665318869609,0.4147591539285503,0.5075892065201774,-0.0813729033113765,1.8577156553386314,9.535222002880449,-0.007449102472863266,0.0029920264512242815,0.0028290896175194955,0.7884622479610413,0.35395290222164366,0.7380981048391175,0.2075256071482591,1.8736720587894948,9.718944221604438,-0.006295605252292827,0.0041218590753483355,0.006253164340577618,0.30048371532210305,-0.018696928013411673,-0.6348501502536535,-0.9574534791868593,1.6477499256660462,9.618083458434404,-0.007155904490935657,0.003389275191059453,-0.0034200549112369237,0.3087048891349964,0.01229107448141468,-0.7141578691320581
0.4173122832351706,-0.009351312264725478,9.743265655375767,-0.003749207335247064,0.0017312434125216541,0.010317799552420563,-0.4782162162398598,0.10802198395778792,-0.5110665416695316,0.09068089681279506,2.229838517445706,9.557502019200559,-0.011175377236451893,-0.0033877909188100774,-0.010315682106066513,-0.9806374221589854,0.40800788984767106,0.5193614991905262,-0.05932792812875934,1.8532398255498665,9.528602001301916,-0.0055955459873164885,0.003818401240847105,0.003430743223810786,0.7862335213296744,0.3495843323606523,0.7322303276643882,0.21820427170285747,1.859143794359722,9.732025567750343,-0.0017900714911804748,0.0037590870933076753,0.006432644190485788,0.29770627810309297,-0.021298852213751492,-0.642658943499101,-0.9617229076266309,1.639173253462801,9.624461010371922,-0.007013018288741338,0.003903828353438876,-0.0015164655184560598,0.3025420435404719,0.007000845925210284,-0.7224672538265569
0.44006999365009697,-0.004400204981160949,9.775751863239059,-0.004250829296538091,0.0004419038262782309,0.010374578415531598,-0.4794070613476294,0.10819527911649468,-0.5066612007386535,0.08655762535577988,2.231358014321595,9.570617867466531,-0.010959323319676712,-0.0017520549988704367,-0.01075241738660304,-0.9774474524650191,0.4099970845821482,0.5224957633242432,-0.07006623154035573,1.8530616234668391,9.550526898789887,-0.0053546133960780335,0.0032248660556354145,0.0031987465203970355,0.7819425613656811,0.35361222296384737,0.7445149983509024,0.21602302587565803,1.887628455281756,9.734611153911754,-0.0033425031113144873,0.002957599863734564,0.007260157504964356,0.2939118083265484,-0.019143090466559817,-0.6321116054745454,-0.9694171531925556,1.643781731288049,9.628287781374407,-0.007175945777277541,0.005580257618081471,-0.005463309264302755,0.3036219523485061,0.011953518542757221,-0.7106824988477832
0.41893343557657425,0.005183762583811202,9.771001945290486,-0.003057388658968291,0.001401730982563788,0.011757666726035947,-0.4751258137863034,0.11610595529635397,-0.510495149446715,0.07808272287525847,2.23130730224201,9.567498450496863,-0.00945137977842607,-0.005314618797308047,-0.010429568415004467,-0.9757873831443973,0.4151038023822227,0.5187832632015317,-0.07492929806874583,1.8438702557983286,9.553481785136722,-0.0025353303132318373,0.0016761224506405112,0.00287138411454591,0.7904066633611367,0.3471710477986242,0.7326558217394578,0.19455846241142968,1.8664109422091755,9.731351144969281,-0.002012732018503637,0.006423261695324568,0.005217184203674088,0.30232625933266927,-0.025018425521322003,-0.6407721600329946,-0.9543035052352676,1.6545296889956977,9.6355363632728,-0.006414588738762484,0.004690594940938712,-0.0005533962527716181,0.3106785022605075,0.004304682130153536,-0.7177241637697077
0.42225448514327957,0.018051525108166017,9.745350251790986,-0.002372055329332855,0.0012547116248360054,0.01072168915111257,-0.4789928503338859,0.11360051138454799,-0.5087908087693692,0.08682349957090907,2.229335058185941,9.54789249973848,-0.008677404069131724,-0.00143359378538447,-0.010605094647362806,-0.9814000151173654,0.41385830587264194,0.5185910815670298,-0.07926884854391514,1.86115014225874,9.533364677079431,-0.006238035784654734,0.0038527668896999484,0.0031410453423977797,0.7859548711703114,0.3571358642468451,0.734241568391029,0.21544006825898526,1.8756972223911728,9.707654223742912,-0.002049350725940422,0.004279562116090672,0.005612675270903263,0.29903003962002345,-0.013769895713860425,-0.638951450617241,-0.9810997753315819,1.6583929901323813,9.659019112031256,-0.00727055367542291,0.0027919150351892125,-0.003202858206208765,0.3061966336124703,0.01743189905316099,-0.7162451829456105
0.4308716312760711,0.003737995229914276,9.776727615748948,-0.005182102557638723,0.0013227188797246296,0.009862743525375393,-0.4735722965642484,0.1090205799574532,-0.5088897378024086,0.09109975955364756,2.2204169903723754,9.559691477492198,-0.010298372327691785,-0.002624211990813982,-0.009913956315593702,-0.9759908812224058,0.40705430864371234,0.5198212613161385,-0.0654336749200608,1.8485653655339762,9.558592828727651,-0.007280079131829265,0.0033259854031017486,0.0023286163128901603,0.780156023603527,0.3500069373565935,0.7349865900622886,0.21786937200140094,1.8650761460721523,9.746825273130856,-0.0057177392499538505,0.003938429678100986,0.006659851615478421,0.29016163784296817,-0.020510547815314917,-0.6406339297903303,-0.9526173292789434,1.6667901638940423,9.640126400191106,-0.009370283805405005,0.0027811151232419685,-0.003169440499116446,0.29941216846244645,0.010062290284982296,-0.7167656560305021
0.41243710218300234,0.017281693319269986,9.748614345053758,-0.004289265765348348,0.0021331130947174538,0.009660870598416872,-0.4798205920586849,0.12046483262865668,-0.5116254783258969,0.08276470852677753,2.2287134128255617,9.561507684764987,-0.010844088645550996,-0.0034846928110727014,-0.009806455346346618,-0.9790171010816063,0.41871319062066686,0.5134098658041439,-0.07257228516965437,1.8438833620571042,9.538327596526985,-0.004175821095842571,0.0019016283121832957,0.004545242560944252,0.7840699659926932,0.35829057194787195,0.7413513602020865,0.20999328256414818,1.87553391644641,9.721136851556619,-0.0032782438723484757,0.0038090667723682334,0.006027819542508709,0.29472384702517324,-0.011097126308638263,-0.6315700817711146,-0.9539711007154007,1.637147493216966,9.609528343160825,-0.006887290977424565,0.0034021670870112704,-0.0007096020746470685,0.30088268779653643,0.0199766466309494,-0.7097928279003065
0.41059305789856304,-0.0025523917447221323,9.753206033670308,-0.002278947881227529,0.0004427968928600733,0.011467493730816774,-0.48233863453029313,0.10673152297549553,-0.5091004575177512,0.08294370498951192,2.2263101654039845,9.562066088827482,-0.009426975199750505,-0.0025490242479542314,-0.00969511882168704,-0.9808849783772475,0.40751351066010616,0.5186339868966764,-0.07609718262323811,1.8696371247319514,9.54450252057748,-0.004529672276999373,0.00270175132965472,0.0017337222429478906,0.793582426127015,0.35520953355059715,0.7382948743788811,0.20491727149387878,1.864080926706807,9.728792432177253,-0.0026494868900448897,0.0033966898414015995,0.005402308612139762,0.30222667698591094,-0.015542748650524085,-0.6343538255764211,-0.9676767951001274,1.6573973933362374,9.62731704675586,-0.007163891012088991,0.0044842436827079975,-0.004439214475670668,0.31086920531439616,0.0157335686216118,-0.7146200634313487
0.42646669657662994,-0.0012514260431391866,9.767841204231715,-0.0043404837736116,0.001066450361452005,0.012092575417898922,-0.47579809695416003,0.11072458451591967,-0.5103165861086397,0.09655834350473366,2.234363649497639,9.563605321445737,-0.010321163031804236,-0.004708453439008837,-0.01046843550314962,-0.9752823652378271,0.4109559253033977,0.5188100335769713,-0.0734581721283627,1.841985030447563,9.53868756096496,-0.002777270240160623,0.002270650076778898,0.0031033991431883433,0.7884438912220105,0.3481341226261111,0.7324394368820143,0.22044741756453518,1.8732444098758405,9.73985598898485,-0.002423789597767119,0.0041765178350494266,0.007057235206457977,0.30108856233974246,-0.023516033461866537,-0.644413614310256,-0.9719823727652436,1.6583009383088534,9.643904691569157,-0.004455712903584158,0.004185826779983958,-0.0024884434268841165,0.3076920300537519,0.006287002321845067,-0.721075763897391
0.4240878997790587,0.01468642464659009,9.754358072318551,-0.0038433689583290513,0.0025383439587261195,0.009556938003217939,-0.48055973423696446,0.11616237920561091,-0.519245205839582,0.08799431058514938,2.2345162861122514,9.560446078939036,-0.008347120159206642,-0.0015274924543495453,-0.010094882359377513,-0.9797585975040732,0.4162512979948185,0.5109925286836202,-0.07727533655850308,1.8676634890849433,9.544880157489974,-0.006536446142419548,0.004552088349950047,0.00185131290750582,0.7819490561423229,0.35093625474500206,0.7432753302866183,0.21725793773519983,1.8762715333670061,9.731395326907478,-0.004167279212354161,0.004742935403353629,0.005832377622024798,0.2916956259864694,-0.018368924779168246,-0.6350159595032387,-0.9667785200678398,1.6501029778790652,9.64043979346166,-0.009844836427887992,0.004698861274033881,-0.004270202739392394,0.3014376194879477,0.01071148267763063,-0.7104310572759935
0.4174470073008918,0.007651853952882148,9.768813663321643,-0.0031728135034423937,-0.00036951645586723417,0.011662348222430032,-0.47642747395662605,0.10239129919846636,-0.5084677109352752,0.08340077302219845,2.230536184297288,9.544780465028298,-0.010505198293008115,-0.0028861735322916484,-0.009111407145226172,-0.9784265803366294,0.4019031921073837,0.5179246669330054,-0.08050730773295446,1.8487842753590003,9.55807641580124,-0.005701744296874671,0.0025639020778618696,0.004196843588721498,0.7884738270523866,0.3549164026162797,0.7398141438579571,0.2005711628818867,1.8654533486370937,9.720670530492422,-0.0038976794927419608,0.001855857652827443,0.006014718110127905,0.2993130400367924,-0.01503641197727637,-0.6331038780166989,-0.9549589385083508,1.6551599678124385,9.624727002984715,-0.00783355812453933,0.004031508795921725,-0.0019675820028323128,0.3104199209589702,0.015680587204661044,-0.7114407936193591
0.4321514420872874,0.001678676343286778,9.753428890139796,-0.004554508634866108,0.0002915951825780231,0.008777626578092014,-0.4828450154165799,0.10843497011263423,-0.5090745490446706,0.10149271969324555,2.2402193116491436,9.562543568933295,-0.01030994869651646,-0.0033276564532314415,-0.010100688412403669,-0.9828372031508859,0.40824117772027535,0.5191314766782178,-0.07022867125717973,1.8550604287235757,9.562896323387823,-0.0032477146893938745,0.0026359973547291204,0.0023131729814599524,0.7892544024502387,0.35197427882179094,0.7422253291735582,0.2137231892932139,1.878085045267409,9.723177684359946,-0.004424549987564468,0.0052633843233357335,0.005013391254670525,0.297104861685599,-0.017467509301835403,-0.6316377183501405,-0.9757657008801643,1.6232827997104013,9.642909804402466,-0.006214568804448477,0.0038508954575248336,-0.003179333381385227,0.3058292652391088,0.013649489816951379,-0.7087297699264817
0.42837011737430125,-0.0008982802919000887,9.744512496030328,-0.0003424599246668442,0.0021348534606873124,0.011852679355377356,-0.4802121934009295,0.10783971672644646,-0.5174032366147587,0.084040178381555,2.2341663293901908,9.550822160931842,-0.009437556324118425,-0.003249457389004091,-0.009880880644261375,-0.9797232700941813,0.40991252472170636,0.5122591025528395,-0.06627008420893274,1.8622230304924459,9.560340659778891,-0.005930256243097041,0.002335721674994937,0.003174609763131117,0.7824056739773512,0.3504750590568135,0.7400926643145235,0.22589481743257564,1.8653912900231262,9.714592323608334,-0.0042364901574671,0.003897522234404932,0.007063802982671839,0.29190644435855495,-0.023017898053108866,-0.6338320747486377,-0.9667544200473985,1.6620577166286654,9.615980714541596,-0.007733068143688277,0.0036126783447462943,-0.0032815408366306704,0.299213347526601,0.011453359145410761,-0.7121018078703436
0.4187434280417667,0.0001003733684124819,9.747763316905372,-0.0030017430363658867,0.0022801018580178123,0.011784743835174891,-0.4772270007321795,0.10753192651244656,-0.5101039693971124,0.0887263144544913,2.2252447964220226,9.562601049300605,-0.00944416222812871,-0.003943874546432521,-0.010066717060233127,-0.9762742690807008,0.40824084450655196,0.5154194123900661,-0.07142237838994858,1.8484646724691314,9.550205330372572,-0.0048747959303332535,0.002039802415349015,0.0027317900255954294,0.7902185624215502,0.3544199231022344,0.7427205630609838,0.20126325308131354,1.8712629736808148,9.73547647352241,-0.0023768409873419507,0.003954614615449989,0.006024123020337539,0.3017216498360811,-0.018477003264594748,-0.6331500887124264,-0.9678469499306446,1.6400955661420515,9.624868960344767,-0.007607360766551009,0.0031120323985566376,-0.0024756616323468447,0.310443179854144,0.014200693127991448,-0.7104867880923137
0.4274514238126404,-0.0023789265223705253,9.744552781014589,-0.0038069829389765293,0.0008432833584946225,0.010257608838302797,-0.47481692560395133,0.10976790070225129,-0.5110682428535669,0.0932052590662771,2.227308362749726,9.555538400493273,-0.009762605149630519,-0.0017797858513728796,-0.010023263341629842,-0.9728468676324615,0.4104706247770425,0.517819056375731,-0.0752989931884158,1.8698420275567909,9.543285114540648,-0.005116724842144883,0.0026343227587262044,0.002964804967048354,0.7872039934877392,0.3503246165701813,0.7322250286509681,0.21383007127485298,1.871682473438247,9.732355015138252,-0.0023595131135872574,0.00502796995598124,0.005826897114979788,0.29970086692884373,-0.01913833347240185,-0.6402180100333,-0.9718114647616108,1.6592274064910977,9.662084468469923,-0.005286294425314114,0.005412490170975178,-0.003960632701727086,0.3064559391363253,0.010647984653619968,-0.7195279353068157
0.4251113746012788,0.0017572076952465099,9.765649038322989,-0.004492334330817683,0.0009893551179744886,0.011289573716960908,-0.4787533098206038,0.11241423077334288,-0.5112493076312716,0.07989929670915161,2.225615758907955,9.53622289162124,-0.009774813503025163,-0.0031676087740225814,-0.010393951204225087,-0.9777380037135668,0.41362734575394106,0.5183209502989041,-0.07854200886194757,1.8466913240246556,9.543334239976089,-0.007558355834843906,0.0017405264593027237,0.003592245219684786,0.7933378588731949,0.35132147755017656,0.7355830160868695,0.2106332918472604,1.8745383990340436,9.72392915243568,-0.005724660947576689,0.003949516558987058,0.006656993088893617,0.30460645849477674,-0.016743184904777286,-0.6402426012360583,-0.9535704551676651,1.6582037308395652,9.642679661329575,-0.010047934115800102,0.0034213645020049355,-0.001717998529964713,0.31326832271505106,0.013147664321068737,-0.7198163040576389
0.4305792094863343,-0.0028658342304696827,9.753497863275989,-0.00455004846508354,0.00010618531248027336,0.011245446929526828,-0.48501821724612193,0.10740869795758831,-0.5071190692386248,0.08475391783712835,2.2336318269898867,9.557843076269148,-0.008358704738200485,-0.0022289369876065624,-0.010281629151300108,-0.9832967605218336,0.40606209445727487,0.5218371982373807,-0.068570467091904,1.8483040729551667,9.535101429725913,-0.005131152734623723,0.003457023283336987,0.004219064781729412,0.792107025742684,0.3522910382570236,0.735359615458904,0.22599945004126898,1.8704742283220328,9.729557969343372,-0.003952578769198922,0.0020848499982975806,0.007045951146429878,0.29918281944161634,-0.02255332960212589,-0.6399947786848131,-0.9613749716918594,1.62404420043724,9.634640677219863,-0.006809966551289666,0.0030631219000895426,-0.00414045478124176,0.3103747763225364,0.011629412120874368,-0.7178511642328501
0.42926840854886433,0.010803854669810015,9.772304993872439,-0.003179352964247683,-0.00018790566026852582,0.009177491334322713,-0.481852590519575,0.1024317715689638,-0.5159969032734774,0.08949571641033552,2.2442458677900605,9.555692615578185,-0.009844241356413768,-0.003765352412072475,-0.00827589447308101,-0.9850711155357578,0.4015792691156101,0.5108971414166558,-0.07925075617016636,1.8479000777100383,9.557055046285528,-0.007456197883164202,0.002999002668755939,0.0028252182428783147,0.7860546028553156,0.3541554624516852,0.7412993796473899,0.2071988521636906,1.8762618393701795,9.715727980051946,-0.0035211472656152274,0.005408913457467527,0.00500967734923888,0.2965847337395027,-0.018174228225750603,-0.6345686479436773,-0.9586570468497528,1.6688914930021965,9.611485931590817,-0.01004691428587348,0.0034203571223541066,-0.0017170263503723227,0.3023434833582141,0.014434560214845231,-0.7138031446563017
0.4187966990330959,0.004776172629414516,9.745514768602067,0.0003783098362451308,0.0002887501433247823,0.011518327006233592,-0.47849887326365287,0.10952558549641012,-0.5142192110813085,0.07209365566417512,2.227138152980701,9.562814449175551,-0.00991121924923083,-0.0028318300070072403,-0.011710466335935974,-0.9775337683507885,0.4101582143525617,0.511264600304994,-0.06493969671347923,1.8581553511672126,9.545993130513578,-0.0019657276476361604,0.0025692288689598964,0.002894616180812554,0.7843477567122437,0.35171143292936985,0.7398362539050383,0.21590266614815262,1.8601911126690547,9.750409343266526,-0.0008936219033792884,0.003908674030552835,0.006430020312307157,0.2953353090994453,-0.019614066244592138,-0.6362776308424553,-0.9633418596885859,1.6384744065893209,9.655693975845418,-0.005013468152455369,0.007534494643971074,-0.001170584701884894,0.3020854535350439,0.013966362345852502,-0.7152725300263887
0.42777881104801063,0.0025560304552418867,9.742291640544112,-0.004939310368044993,0.0005842570886068726,0.0113825146054172,-0.47433936898895035,0.11099085347871035,-0.5108116806076697,0.08958925548542854,2.222825759974364,9.546882461118392,-0.009056657591859776,-0.004831867115502111,-0.012047219863600814,-0.9779978315087753,0.41361194335035756,0.5163699284428498,-0.0693692795529292,1.8756916505815957,9.525866880770579,-0.005014574314383083,0.003893798913500651,0.002197785355022324,0.7916602344937658,0.3532313150105515,0.7397667689854636,0.21025282045077115,1.8857084570216787,9.70852002877243,-0.004516058553322083,0.003349677018481831,0.006440122670789829,0.29952502306363515,-0.018210664729429154,-0.6333731931885349,-0.9743069542945586,1.65655101392993,9.656986471623172,-0.007149805445555431,0.003384246233392424,-0.0034152060732077485,0.3091830936375091,0.015449594332928324,-0.712894582624028
0.4210887297007846,-0.005017073594271851,9.756741550011741,-0.0065584349074297955,0.0017995881484083292,0.009433849641642303,-0.4816523507257453,0.1096935734529754,-0.5110199224193518,0.10778816035008765,2.2328737918627932,9.56457105580243,-0.008765390383670775,-0.0027428247029225934,-0.008675657731312913,-0.9836162873236378,0.41040010963921797,0.5142391911365576,-0.0767579980203848,1.8528465383906136,9.554925426473869,-0.006416150768335272,0.0035267618091251013,0.00363867647087335,0.7824092379185548,0.35071549172772976,0.7405824187724706,0.21227574358298967,1.862242841946586,9.742146253912173,-0.004497721342959902,0.0044240229334479575,0.006242895386389996,0.29335393472021815,-0.0210480567166571,-0.6379802587804879,-0.9526742344905799,1.664012130071694,9.60223576620487,-0.008767771612511086,0.0035618679660391808,-0.0022035134543153217,0.30162751884632316,0.01199089202251239,-0.7140762830525289
0.41086662855345807,-0.014284105645280945,9.76225880214477,-0.00365720817628035,0.000913632218142881,0.011039535023057784,-0.4774815362256137,0.10754839969042664,-0.5115660816763129,0.09040449014886115,2.246532367417465,9.538909899297854,-0.008905407477172344,-0.0030964363661456777,-0.01017606900998286,-0.9794210346385293,0.4077634338539929,0.5186210205161313,-0.0669392577800836,1.8545472437454018,9.546680938897937,-0.005533739306648156,0.002898860753427229,0.0036953886965103563,0.7858078130351025,0.35439761053340435,0.7413038619636368,0.21379446277515057,1.8884850288277752,9.731804522253107,-0.0032485013629122888,0.005966838231515916,0.005631491757436657,0.29853184588870235,-0.01744871763285555,-0.6360451680613988,-0.9734234926968083,1.6410037944822902,9.630694073310119,-0.007599108555855883,0.005219146097473295,-0.0023941462297752784,0.3101727087434216,0.012298932405581685,-0.713931584244913
0.41214519230010477,0.0038769427376407484,9.757720339698198,-0.0016255588256437878,0.0017946780764562466,0.012179523229841917,-0.47899478296353604,0.10881708757591001,-0.5164221366965321,0.09035795691320145,2.2247034521864757,9.553343128891273,-0.010984819330397447,-0.0024805773980595166,-0.01094185884805516,-0.9806929205269866,0.40746405857034895,0.5117965092716329,-0.07222637168386746,1.8407489548716698,9.536535802884778,-0.0057612513410981,0.0026706878549548323,0.002673143910471732,0.7967830929244077,0.3544871692910941,0.7402075246157673,0.2296842033745249,1.8429341860931971,9.729336555913315,-0.003899566179525887,0.005308913774906704,0.006453294053590285,0.3063325152520756,-0.018988504098451535,-0.635879804450841,-0.9482157692606743,1.6611782665618817,9.638595660585926,-0.007844689954291984,0.003013326841620378,-0.003063411638451576,0.31552800824153165,0.01429428596455228,-0.7139659566211091
0.417413099426886,-0.00029027250439703223,9.745575561987998,-0.0036572262384860685,0.0009126846198949643,0.01103552232679252,-0.4741033720360577,0.10933259490218353,-0.5144974566360795,0.08631664012172584,2.226237295344544,9.56646024876407,-0.01031790017644159,-0.0033487249946558455,-0.010105472817199293,-0.9758083985314647,0.40797541347638006,0.5122436535831703,-0.07109835801172353,1.878812740908645,9.553192039395073,-0.004078688565977961,0.0031620741730674926,0.003777285203129381,0.7865333376108402,0.34639099849302446,0.7351340220366336,0.21593994310704834,1.8849052899683696,9.719124736574955,-0.002006326444311637,0.00406569574567001,0.004579656352009024,0.2998850607076974,-0.02548816468406471,-0.6402665511006949,-0.9688369297236559,1.6492689085049312,9.64808344625126,-0.006335188107623901,0.0043494885803387305,-0.00397930518187832,0.30579033652465526,0.0049977975495391555,-0.7176538803844036
0.42988094763657125,-0.0007909775227868676,9.751284758210305,-0.0018927834647644297,-4.591398326595083e-05,0.011300306042831538,-0.48243157241490164,0.1164727854062918,-0.507263319851717,0.08696786580455618,2.2323255035835974,9.571947686740753,-0.009321329097130621,-0.0049951497204494925,-0.008942830264143418,-0.9835683072615853,0.4173087198714663,0.5241974092790024,-0.08506809822940323,1.852870249569719,9.561659723044116,-0.005830138825750962,0.0035981899397052024,0.0024066342535324038,0.7855936607229641,0.35146060140597324,0.7420178935964038,0.21305639244049857,1.8693990969888896,9.735432001821971,-0.005354144813487964,0.004062612334728648,0.005210541174763958,0.2936421463901544,-0.018381774376076975,-0.6357658869703298,-0.9667559859265912,1.65585726829845,9.612929211952322,-0.009247492592475707,0.003369447336044216,-0.003380874946183527,0.3033522952923761,0.0122257599007594,-0.7126283792950544
0.42232051750213945,0.018660623787034175,9.74996924740984,-0.005630204801299953,0.0009148978259310057,0.009933654506953906,-0.4804005850970218,0.11132629468829708,-0.5041708551705596,0.09147846252782643,2.2261044008801782,9.55991664803441,-0.009043809043725993,-0.002761665661780609,-0.011492561540107664,-0.9823290117088823,0.4119392532300126,0.5237395877860965,-0.07539765242021568,1.8546038788288437,9.553412108453008,-0.005831138737523388,0.003598182435310667,0.0024066452139806455,0.7852611066525683,0.3493312369150786,0.7324832177416524,0.21011413230564124,1.884999914501927,9.732560536651757,-0.0018671317568901681,0.006369778566166769,0.00810371951762983,0.2938145553571719,-0.0222591040629955,-0.6399463116672992,-0.9677065034058059,1.6522878295859786,9.64238527796256,-0.0056140431152864306,0.004634585551108467,-0.002210336098687631,0.30303882427875073,0.009412368795710401,-0.7202385635512762
0.4295288020268671,-0.002702241017144877,9.751299329576078,-0.0007017745409692248,0.001093410977317681,0.010210481571812792,-0.474679194320982,0.11690376093099009,-0.5151274627157567,0.08710917843818129,2.2306278165120297,9.549190863514594,-0.009441897069922598,-0.002579128192437716,-0.009700783653291111,-0.9780439506074847,0.4157738358333822,0.5114710523553604,-0.06183047020681259,1.855915937640143,9.516171972813297,-0.008273799096147056,0.002705393142336276,0.00303210396622478,0.7899175316771886,0.3505691985357092,0.7348831517023969,0.229157215127476,1.8793767401455506,9.72509727725666,-0.0045210188820759365,0.0033557381520177313,0.006438210133492496,0.30042953788350124,-0.02061910469301051,-0.6390141640165455,-0.9719144382162667,1.6546335906272258,9.629792388430438,-0.007857889130540086,0.0019991748156377247,-0.004162154306204882,0.3101059225083445,0.00875836468468386,-0.7218000741135309
0.41454792620571473,0.0015715168333183538,9.766698895883827,-0.004045488225543222,0.001390767268936905,0.011172582934158284,-0.4816496710938423,0.11088569475041113,-0.5088071211106544,0.08298582101376412,2.215606453579984,9.552334201424246,-0.009463344889714871,-0.005352784097247334,-0.010445196786397251,-0.9816561413623994,0.4140914995931002,0.5171262245653592,-0.07223156312359558,1.8597514962173485,9.551262535056402,-0.0037345870961702204,0.0038270154189423557,0.002779250475271409,0.7802182706276692,0.3560394874343006,0.7447956932765453,0.20595317768493698,1.855846015864785,9.743502561231319,-0.004431434012642784,0.005278470919861232,0.005010561978438347,0.2935099698012352,-0.01552190852646366,-0.6259769703463333,-0.9726224172137292,1.6616630591407886,9.640398825539853,-0.009448401675968022,0.004201078202802841,-0.0007510510658400966,0.3009529842981039,0.016986658189906367,-0.7059331953369274
0.42621822113932106,0.0031197889723212358,9.74012301667831,-0.004045491866966447,0.0013897935420423718,0.011170570015214338,-0.4775333151188225,0.11171056403007162,-0.5124884351638683,0.0884130946318406,2.2512889735757606,9.565124400985844,-0.010317260594877399,-0.002664339155831692,-0.009920517107494559,-0.9760650122989054,0.4128644614413506,0.5131865816666308,-0.06839180422764925,1.8671283684368694,9.548687739165878,-0.0036513085971086375,0.002078827265746057,0.001789515221469581,0.7879371048416216,0.35931816940371075,0.7383869884993706,0.23390364883984138,1.871653689819567,9.7211039899296,-0.0017856099081183915,0.004847570369512457,0.006234641029654739,0.29883295816023053,-0.009132541853919658,-0.6384274295528759,-0.957991417177308,1.6245138664083338,9.625430940376573,-0.006799685756412563,0.005171204914582929,-0.004055948513656631,0.3064145614127821,0.022060817875289386,-0.7154440662175385
0.42724595469176285,0.009346962435634598,9.770165305013306,-0.00207701673628261,0.0015730685920439303,0.009798618151654184,-0.4831505156536587,0.11093675758795289,-0.5139232019538283,0.07956500279543592,2.242766324074506,9.55709105452666,-0.010318256452509098,-0.0026653431694469393,-0.009920502132923361,-0.9797224567465764,0.41334482142549617,0.5141878790239784,-0.06284970785574169,1.8610312667694466,9.543108802164834,-0.004480275226229968,0.0026039191475522696,0.0032535981574620845,0.7852094325815435,0.3566530521712821,0.7327821360321763,0.22430049095073834,1.8807728003786721,9.716998954708343,-0.002711291414440047,0.00363574695729517,0.0064336756157349585,0.2977700773587745,-0.015201705769628971,-0.6418813620603445,-0.9716516571720359,1.673867701425213,9.64500671710224,-0.007588039287534602,0.004118155920535008,-0.001372116826292076,0.305944807398055,0.015023336946743088,-0.7184778121439462
0.4371856147879626,-0.007717848800722488,9.748135243151399,-0.0034477519304979263,0.001866251159514738,0.011859561384611056,-0.47856557308999176,0.11491176114668658,-0.5153694914808351,0.07979927366636798,2.229286077361848,9.57645382588628,-0.009786760115555905,-0.003191700783919663,-0.010399683002211692,-0.9780316656505377,0.41504987105680347,0.5126973696397963,-0.07234311265018722,1.8433227960464669,9.548814904079643,-0.005605633950536201,0.0038273402703152236,0.0034289192856961945,0.7889782086152334,0.3512653802521541,0.7388049105173888,0.20823090914668835,1.8644575062048563,9.736483140492327,-0.0029858986860119723,0.003082847930596952,0.005810915218249709,0.2985072931317324,-0.021857845382535712,-0.6341244328768598,-0.9631329747238968,1.6523777857421897,9.644024274083888,-0.007828423535801324,0.004023456879871458,-0.0019617679984970044,0.3060562058182279,0.007872635493151509,-0.7139499229984848
0.42433783627347527,-0.00905767190901334,9.74243874253425,-0.004406845501270454,0.0003611445343506902,0.009542555651042384,-0.4816489064125197,0.10777275865862838,-0.5134873161176747,0.09771228668895493,2.241828868071728,9.57043985542902,-0.009655958471119405,-0.004227914582585469,-0.009271967659907933,-0.982129489425008,0.408711512397935,0.5161934650081943,-0.07639410938359531,1.8645863266914269,9.541965786327935,-0.005536764904918398,0.0029008454136472813,0.003694436394605474,0.782668656283732,0.34949284307970374,0.7410586985172517,0.2167009274097938,1.8851773151483775,9.7216993523118,-0.002386744399635806,0.003966722094819935,0.006022297816720331,0.29266830642097846,-0.021080921614303902,-0.6326032429971946,-0.9639811436772192,1.6705510347176387,9.635668152668844,-0.007385118230831243,0.0032865254634917586,-0.004000965020399987,0.3002545974952944,0.008478678729909385,-0.708741863238608
0.43187080883921464,0.002899106967655829,9.758049372156986,-0.00428395017730723,0.0019401333115517127,0.012096582311204961,-0.4849216079036179,0.11797163838355505,-0.5118652966027973,0.08044937387019258,2.235673861329206,9.5587457611498,-0.010666737216082642,-0.003971328185263928,-0.010806268070336116,-0.9834160975020023,0.42016214359817894,0.5136766086809053,-0.056333428688220305,1.8469763314133238,9.561377258666306,-0.006110404095673901,0.00200972343391461,0.0036692630740716974,0.7855526203123231,0.3490588505872366,0.7366293844622005,0.2247669953624748,1.874460055921733,9.726147846939384,-0.005664286773804128,0.004815034677960496,0.005422792398215654,0.2955448520264778,-0.021801565743590986,-0.6380047231108679,-0.9485197535493098,1.6626558262224083,9.622491100983073,-0.00876892598812442,0.0014467646466230892,-0.002282238390720339,0.30379752337919447,0.009384175038897288,-0.7180498176119168
0.4106060591657674,0.012696464457469275,9.75331916850995,-0.002762397042143955,0.0017172320907046551,0.010823557526442424,-0.4797310241295992,0.11455882439677995,-0.5080398829288836,0.08988745387090247,2.247614143176038,9.572915752304292,-0.010809769391721515,-0.004324966752775912,-0.012308656355800324,-0.9799211311095832,0.4168193539561542,0.5219761879669313,-0.07783899943235163,1.8536321383469399,9.516148674241945,-0.004067304710804425,0.0023423655367591895,0.002521080538513391,0.7823738631800476,0.3558404343959497,0.740864156727554,0.22626220240966832,1.8696880835238956,9.734975240570593,-0.001259674863347519,0.004886076176537595,0.007676483819804622,0.2953707367797591,-0.017429858520873608,-0.634552675336039,-0.9823735383943866,1.6250004452661344,9.627195826766918,-0.005861360832837999,0.005635785434165341,-0.0038141442981778264,0.3030512564447778,0.016164237843970003,-0.714762191869551
0.43824520171113174,0.0046138783830508845,9.77594580519565,-0.0041659486290398515,-0.0003785086943419088,0.011075326279099344,-0.47440185261034973,0.11134326517853371,-0.519108549823879,0.08108155631557801,2.230836543462408,9.559869714089785,-0.008579108650158866,-0.003201380356000932,-0.009669745166496407,-0.975363611751316,0.41577931041218247,0.51071860724434,-0.07998746366913823,1.8474416305533279,9.568725840014555,-0.0066487399505062396,0.0033045729088910045,0.0026135309373271107,0.7869493196004572,0.34960049482260575,0.7307574323489066,0.21957856170464884,1.8875463898129772,9.745082564668076,-0.0032625049989974076,0.0025309749356094815,0.005187179581124361,0.2979133089410792,-0.0227461780688452,-0.6453566039857634,-0.9633992376921936,1.6918677638342376,9.62166414959136,-0.008081007064569032,0.0029146137538123736,-0.0036501738983880133,0.30619284858803786,0.009944365662648539,-0.7214889966722364
0.436647763430691,-0.0033779809059961696,9.745925572684154,-0.002465278795794967,0.0020491907229734964,0.009932652809792714,-0.4782162093401492,0.10850135023274857,-0.5103281969164638,0.09442344166513261,2.2390990147020764,9.561422477540217,-0.010122378976532054,-0.0024214476655742686,-0.010725834981871893,-0.9777595570034667,0.4143423086483884,0.5158747014327301,-0.06803399937633318,1.8626146675568784,9.53444568394009,-0.003736601767550881,0.0038290003007957463,0.0027792871257287756,0.7829964209346113,0.3443377237482902,0.7451689030149039,0.2096275988031414,1.8840186583321683,9.73540065979702,-0.0015149458016151113,0.005406506387569737,0.006857480069189875,0.2948528184464734,-0.026013006644390185,-0.6287522978578209,-0.9648124267667137,1.6299562812256119,9.647563525565339,-0.005248903764807847,0.004225600215740258,-0.0008128407497916738,0.30273589619236396,0.0055468389418926595,-0.7073521800972687
0.4225190990112616,0.010263082458452283,9.759060119536263,-0.0032710652460805818,0.00042888157121153173,0.010875399567545043,-0.4829179879034528,0.11072096045067689,-0.5158809157840211,0.07703474242891176,2.2414701516655873,9.554676705429292,-0.00911721726176668,-0.003373461893053255,-0.009379371154712945,-0.9819263441484665,0.4118583675719449,0.5125064955873248,-0.07903068564398559,1.8581673403463292,9.54319618785776,-0.007395431583537666,0.002080476470546349,0.0030868823023750963,0.7952718617295242,0.3513485798715899,0.733852759338325,0.2124508833195707,1.8684034658201767,9.717006672699258,-0.006951057729223337,0.004578581569235207,0.006866232537488384,0.3037871410047684,-0.022076254374252396,-0.6444262383957936,-0.9719988579297263,1.6545550277854293,9.642890741082274,-0.009496048851612754,0.002258620803316576,-0.005068360412856377,0.31280308830615333,0.010214232391836817,-0.7198560288778434
0.417164006207503,-0.01166799499696361,9.754660727338736,-0.005481505627388561,0.0009863532471148476,0.0107066019039102,-0.4801048516126249,0.10668842998489925,-0.5039895579031144,0.07720762849449082,2.2308696912162786,9.55021335817964,-0.009460092697221171,-0.003983026492724488,-0.010078307800332234,-0.9830366739895869,0.40803943289771843,0.5249948094686262,-0.08828075165153286,1.8401974231007847,9.548934708141273,-0.004882872813371557,0.002045763900403708,0.0027289221594325396,0.7882425360556122,0.35320566499002914,0.7398042317975534,0.22617130398727034,1.8749409636189935,9.749928828039268,-0.0026643325903495424,0.003415850989366373,0.005399578119302106,0.30023801951725465,-0.0182012679146272,-0.6355764137306046,-0.9596912823899028,1.6707351423182994,9.608377451568888,-0.007577986525931365,0.0030161888971482467,-0.00035209054165414124,0.3087154310691886,0.013969600285707415,-0.7121786445384491
0.4321749022696775,0.01580991442943097,9.753585353466331,-0.0030336429760555363,-0.000123364267708984,0.009941368947548499,-0.4753313810547673,0.10741763044752774,-0.5184200566650619,0.10404242464578198,2.257858753664987,9.557827780131333,-0.010662479303403269,-0.0025955372298570854,-0.010435431020946033,-0.9760698287171546,0.41040913751102864,0.5112516265768925,-0.08140275536896757,1.868924204595079,9.54674196531183,-0.004951749282907262,0.002973258702392881,0.0024634124153037015,0.7853206844271594,0.35536455675843537,0.7420493347781794,0.21325397244431446,1.8813179018157187,9.701269220148898,-0.0011059054370334141,0.004212245478285675,0.004576975769544975,0.2953714811364362,-0.01915317721867992,-0.6326122985397119,-0.9610679564209439,1.6197854706612622,9.615334304999307,-0.0055105002910726605,0.004216701413179156,-0.0035193165152030623,0.30332173211626284,0.01540684546895848,-0.7130678761665581
0.4312421614437782,0.005756607345651504,9.755852991715905,-0.0008501110199559057,0.000823935195008948,0.01187221563349382,-0.48429058868383434,0.10646851125913867,-0.5093338452199381,0.09045583267214322,2.2195487129423817,9.542460809760625,-0.011542456403930009,-0.003375164631201351,-0.010842016089070457,-0.9860042575158529,0.41019567467686946,0.5210952254645973,-0.08299515481284789,1.8368467025797615,9.556779768182402,-0.005351339710813667,0.0024141260231066958,0.0019386961711489901,0.7788608085056321,0.3469693106553611,0.7484079048963183,0.21962426352508552,1.8689494872679222,9.72732552234472,-0.004202403860088514,0.0036957835642829466,0.006024950426575243,0.28733466070498614,-0.022293108401072518,-0.6269508511521206,-0.9713379521500476,1.6851458986057408,9.639221264007078,-0.008531250268078073,0.004746459716592278,-0.002626149276447272,0.29907670931755365,0.006722475878492444,-0.7063132146461981
0.42316071210217726,-0.007992494337448336,9.740253902625609,-0.0035120090220818897,0.0011676394589494477,0.009334616688580181,-0.47661364351523094,0.11421704016866328,-0.5166127801431613,0.0912632812012664,2.231178365009711,9.57674778795448,-0.008920352751502051,-0.0031245551386525424,-0.010183748424538473,-0.9770705406470849,0.41528340793159535,0.5107352347678138,-0.06426343834013948,1.8553088274823994,9.543058695044142,-0.004552169870118012,0.0035323986644402645,0.0029871287466479227,0.7936114239503476,0.35130374712586837,0.7382661075464765,0.20547518100686063,1.8672069096834571,9.730704857967973,-0.0017915340738574904,0.004855625927641195,0.006234751680141413,0.30266220403648,-0.019192818366195172,-0.636581712750172,-0.963254107816896,1.634597305986845,9.636370175610287,-0.005371542793657009,0.004725192777617865,-0.0016137726699443815,0.3109200351126013,0.011077379332944049,-0.7134714979609856
0.42723829467610536,0.0022180729567008173,9.746939640197821,-0.004344714676935122,0.001053101301349881,0.012039425610265622,-0.4753672620397745,0.11298716545401728,-0.5149286470118698,0.09546845882360858,2.2250218700624727,9.564697591726649,-0.009449210807808368,-0.0019097889717809074,-0.009517656601961513,-0.9763170187539492,0.4145724088953671,0.5131758933115368,-0.07534213542717652,1.850750774180351,9.551824297245322,-0.007466333739571188,0.0030099634371501104,0.0028204092958931345,0.7879743463556316,0.3532198414268733,0.7376090977894657,0.20672694279890813,1.8683324200443867,9.709204999390687,-0.004929713541542253,0.0021925409954536186,0.00807423918283266,0.2980211135707319,-0.01693271925820991,-0.6392111532440462,-0.963954363948323,1.6601742381347775,9.66762347836776,-0.0093773358523444,0.0028539511381416673,-0.005281637266363167,0.3076874300592397,0.015235539137753357,-0.7155651924484048
0.42955755804516743,-0.006779543950089673,9.75814961773676,-0.0057189748736395166,0.0015357432269683055,0.011629594323771609,-0.48240980511317083,0.10997104539316664,-0.5141851883123498,0.08719438716063534,2.2307604177316644,9.59032654468545,-0.009258613998209656,-0.0030417106081258383,-0.010696818705043616,-0.9828801636079089,0.40918031307442376,0.51399758564064,-0.07552082093683657,1.8533204003318622,9.56529215371657,-0.005941388178557803,0.002344682331113308,0.0031687971342228044,0.781700924947299,0.34680776607366515,0.7400737175366594,0.20954397613957645,1.870137808517163,9.75395094461056,-0.003277685395222898,0.004910608723853855,0.005826946405378457,0.2909290023417991,-0.02226960372500665,-0.6347941759399943,-0.9617215798500585,1.6667607297287315,9.632536378506797,-0.007346559901877345,0.004206801923275712,-0.0007785718890710686,0.3004420578815927,0.005894235082197531,-0.7151333712480977
0.4293165701174949,-0.007879436805748805,9.758159987152657,-0.0022850743917349945,0.0004204143227336068,0.011415239674289689,-0.4813607361477524,0.10937254100004255,-0.5049225402677998,0.09137502936596795,2.23562152528022,9.55953718955819,-0.010333816677895494,-0.003383847568259284,-0.010113093171845828,-0.9837816762363767,0.41121035658170135,0.5249770712997806,-0.06315985490315623,1.8723400182807535,9.544271678798234,-0.007362157766830971,0.004270432697751268,0.002056374866182535,0.7912937613132844,0.347317411279651,0.7468083501338725,0.2417473447892603,1.8839400956963532,9.718587038304332,-0.003278685313694256,0.004910618078328837,0.0058269550970086945,0.30172524246552496,-0.021925444759833747,-0.6290253508605227,-0.9563785941584177,1.6383272749966478,9.637648375953733,-0.008555736318260773,0.0027232326755320907,-0.004827580123344192,0.309269071686498,0.00929841082373906,-0.7098162008719755
0.43424699041109643,0.012384384693967326,9.762592663540133,-0.0006420862822229595,0.0019639048860437213,0.010231425941908326,-0.4780873559919141,0.11325934325639037,-0.51930096506245,0.07411723349865715,2.2267509282029887,9.571590425401551,-0.009398016753829482,-0.002702929337291089,-0.012011333110539878,-0.9780593825040396,0.4177195651528489,0.5104807573124887,-0.09982065094005023,1.8491590477304247,9.559552012573581,-0.004190904543686362,0.0019055519413561722,0.004540436862737189,0.7872973077658704,0.34929076977810714,0.7400301520488406,0.20302145919193587,1.876355481714123,9.737021066091105,-0.0026998586564868548,0.0047211649654455125,0.00623558967572778,0.2962748590833271,-0.02426729547220219,-0.6355870929484169,-0.9606611772646448,1.6698266545092284,9.626867796179868,-0.005846013467330875,0.006644814854297029,-0.0027065053282599653,0.3043657621993037,0.009286077660034534,-0.7114659808469612
0.41433936878450783,0.007908902061342732,9.73902211179908,-0.0036593525781899038,0.0009040691682164897,0.011004421640757649,-0.4767002829703239,0.10842478364470091,-0.5032593405875473,0.10001775511632563,2.2314858413254117,9.540480977662066,-0.009797710257280002,-0.0032167960879538504,-0.010406415023576325,-0.9759682229525225,0.4087920688913145,0.5237144852917994,-0.06454386339160839,1.865665760069606,9.531592211268608,-0.005422230851730033,0.00334360570694926,0.001673223077477519,0.7853461183092885,0.3512183376627902,0.7415308134878276,0.2201729983191001,1.8872974672111147,9.726526401496514,-0.0030263944990392686,0.004393223111302135,0.006645006924789894,0.2972948549606181,-0.023082597877422242,-0.6319248922412966,-0.9751664594134024,1.649879977421824,9.66176365749544,-0.006888011331551802,0.004482992150897226,-0.001716066511358992,0.3045946007627204,0.008581566731422451,-0.7131890023974242
0.4302453344889891,0.008734851084217649,9.753679846010735,-0.005245155377180282,0.0004342271785120739,0.00976257946583167,-0.4772789882777141,0.10595074650972731,-0.5198903412015202,0.07875303808937231,2.2350760210060265,9.570061694026354,-0.008919713169937856,-0.002440169299828389,-0.009998792714833737,-0.9782725590807129,0.40794391383713996,0.5093334430134248,-0.0751852720367192,1.8652452186461494,9.553523277087645,-0.006757974631932421,0.0020490804184457186,0.0033756571675601444,0.7943205468195693,0.3561830883775797,0.7395139403500582,0.21453188834906953,1.8628416109825578,9.728611354118085,-0.006019052229818036,0.0034278689626523647,0.006025633794847406,0.30243062394404047,-0.018218204103057793,-0.6360844776962238,-0.9630045085729932,1.655282285408791,9.646140056240627,-0.009127950788297388,0.0018487213267660996,-0.0036749160347389286,0.31113616889675316,0.013531272813835437,-0.714168300638784
0.404806694575206,0.007064365413043727,9.742268174224387,-0.004134233315106637,0.002004705131449313,0.012861431538992973,-0.4768286450581066,0.11248650788817101,-0.5151696774570245,0.08743443470856863,2.2333993692926493,9.550432011991939,-0.009269850937340077,-0.004435580919365218,-0.011074469716752062,-0.9777649297102048,0.4106606194577458,0.5132157588162888,-0.07437330344631969,1.8463447623165592,9.537562294018251,-0.004712845969365876,0.0023807230192357445,0.002229445171945895,0.7833271037962389,0.34930413459366527,0.7342134744901968,0.22087401277166974,1.8685389265077395,9.730027884956005,-0.0027221853270691285,0.003648863720049953,0.006431866416336145,0.29332676067496455,-0.02077880188018094,-0.641396254009451,-0.9641568618737613,1.6459323775826176,9.606796808554241,-0.007353501123624886,0.005303700695775222,-0.0017927133497804319,0.3020648984727223,0.009400835806131724,-0.7199828283082937
0.4170713446314091,0.006591252894224436,9.747994197935778,-0.00046636703072170304,0.0005274458944264734,0.009253283666953504,-0.4735652838011722,0.10805009648352408,-0.5093905228341182,0.0789507999817362,2.2335326404393196,9.54731430391979,-0.009120551674210234,-0.0026991066533552377,-0.00919631134922445,-0.9715964922504721,0.40829745802076395,0.5205107431430799,-0.07021072374712181,1.8575285651748343,9.548249823521136,-0.00561169257099459,0.0038323095360765606,0.0034270220466668705,0.7872899956673447,0.35099612234462707,0.7405306959101344,0.21611547128713696,1.88833355479102,9.718485529907458,-0.002310182879617882,0.002450575031701521,0.004151306791447907,0.29778743468229296,-0.019892724447020893,-0.6348357418966057,-0.9588253619464147,1.656287863844467,9.623975407123547,-0.005152346459954752,0.0049056611134661345,-0.0031389464787437735,0.30653298661782746,0.009825448069841996,-0.7136814660942103
0.41951657645362095,-0.0016727776279688578,9.759194849964295,-0.0036603849770824154,0.000903136825699848,0.010998416235695672,-0.4809072562037283,0.1053719711428223,-0.5159653042677169,0.0923939331517658,2.222074361138102,9.56268558451147,-0.011212157726051395,-0.0034800924249165023,-0.010335722753643542,-0.9814191768378422,0.4067317173432256,0.5122954582650161,-0.0694637922693824,1.8426887917428458,9.545467278848577,-0.006670196921063682,0.004131220684024963,0.003867896934267626,0.7850786316609238,0.353660934389874,0.7410625079019263,0.22888352833786313,1.870014509205474,9.740159385886127,-0.0036936576710927707,0.006113949262353349,0.00810557748875097,0.2956201187465472,-0.017189971812865534,-0.6343090362546873,-0.9631799335252728,1.658499067533272,9.611408227065507,-0.01003668275959345,0.0034013311012106424,-0.0017104440719347665,0.30337850978397307,0.013401259357006975,-0.7096809404358426
0.42481776512068464,-0.0061455963494917165,9.747043839084514,-0.004047636196420796,0.001382191010228356,0.011138482582141434,-0.4816628395912188,0.1116271520911947,-0.5095294199424927,0.0793925605843727,2.237192440233393,9.553419286068596,-0.00838659842730205,-0.002275129895788475,-0.010292076990406957,-0.9806691994473767,0.4148400395866181,0.518822298718949,-0.06893832168416812,1.8723083949100818,9.535951373538019,-0.0038294197480705236,0.0017508295772899456,0.0022861317075737768,0.7915477395728681,0.34561211279166576,0.7465491106489672,0.21472538954188952,1.8866078531661195,9.718850780018128,-0.003924490391590069,0.0018851821005470516,0.006005165494313561,0.30047083276125414,-0.024345828916708518,-0.6302525097039414,-0.9642428797686119,1.6547307225926926,9.640864585338257,-0.0054941574590725425,0.005224754396577743,-0.0024127049778949502,0.30882115149496914,0.004892634889763497,-0.7093898255424564
0.4297427392210086,0.013708914218274443,9.751491209006794,-0.002074585891970468,0.0013700445703973556,0.012235219542450469,-0.480290097305823,0.11970849315620131,-0.5101668116657871,0.08362786949012,2.2310131044648207,9.541374029743714,-0.010534003285349926,-0.002961398976702643,-0.009125634053862863,-0.9821590485432633,0.4204471084918206,0.518548229450703,-0.06478993507288563,1.8349288962561274,9.540194822595371,-0.00784905603656028,0.005463457935368162,0.0025214671767443838,0.7940540653004065,0.3574110755111965,0.7383057134675497,0.20088364478971554,1.8662072948386965,9.746949105913904,-0.0033355381319424846,0.005143621454537434,0.006859234702412496,0.30465873554455114,-0.014572417443010901,-0.6365647644075675,-0.9716977172714932,1.6700560601820982,9.625908603438814,-0.010629149480240059,0.0026146585716101166,-0.0026765851155190696,0.3132999485176276,0.018183241733946948,-0.7138786302768115
0.42199418619768053,-0.0025842433005621446,9.768177077821782,-0.0032980532754134616,0.0019259543449396718,0.012614346017679336,-0.4775791043615259,0.11131512993501363,-0.5195740599931774,0.08904658177732026,2.2356641290519987,9.586915099773282,-0.011023559615535364,-0.004616036774836191,-0.011516840100309537,-0.9790040293728799,0.41235380541642763,0.5117475965857157,-0.06247953650321046,1.8593127968599656,9.553988158043746,-0.003914683464360552,0.00349998810149601,0.003277896072673511,0.7848324961179871,0.34710224115180427,0.7363790453683513,0.215779457278999,1.8809056242874045,9.727862111108502,-0.0035775986654604974,0.003289451018526303,0.005398518202767453,0.29793853168140555,-0.025475307693305055,-0.6395176235690926,-0.9630616460325252,1.6283007413204658,9.633421842375446,-0.006078650946328175,0.003340160243368015,-0.0023627325750764303,0.30607161625298257,0.006644270061963355,-0.7134810244103418
0.41726162611876816,-0.014817324660807443,9.7615036414856,-0.0036604066807113603,0.0009012155005573984,0.010992390620486459,-0.4771831617981962,0.10266557037944705,-0.5113880041064117,0.09746797899596746,2.21696567698529,9.557332431702353,-0.009658006123440348,-0.0021847802866472327,-0.008717996491090507,-0.9769594779562246,0.4009303581723941,0.517676685602372,-0.08021458076950463,1.8517830643746553,9.54212864036501,-0.006430286271831964,0.003537692559941131,0.003633911365681136,0.7806657759433205,0.3575276236882511,0.7421163680849827,0.2127224239474616,1.883845280537771,9.719430662161878,-0.004189970388134758,0.004782199540719091,0.005825863172037255,0.2927142951797046,-0.016198268747475906,-0.6325675356292269,-0.9636677763967474,1.6555762314051847,9.635537627955314,-0.009590413206486924,0.0026674385243884192,-0.0037506303800094332,0.2982212311714705,0.015816278980442806,-0.7105569219033653
0.43389925274137425,-0.0042826400265706666,9.773920688720104,-0.002762491139506183,0.0017075993363457886,0.010795429227717684,-0.4770251607869696,0.11048328240868305,-0.5115310261620196,0.08494434182825919,2.237690294830695,9.576834748904508,-0.009466416948119578,-0.003316705252549049,-0.009898166165106949,-0.9770000211614156,0.41216636150213615,0.518326124146453,-0.05156760493004811,1.850673786191842,9.556099230050728,-0.004557210139768916,0.0035363682065137083,0.0029862130952004063,0.796100667942357,0.3505616589125533,0.7421396215108121,0.21664490547395776,1.875252226607883,9.736866429189236,-0.0018198123690580498,0.0037893877764055895,0.006430124510571411,0.3063414897865922,-0.020964833342245612,-0.6327202906942869,-0.9712394181163174,1.6508985002778716,9.629070238205884,-0.005712249796876029,0.005040201777447067,-0.0008816066587255316,0.31460031360825874,0.013257794156150655,-0.7105520297914139
0.4284024506995604,0.01045516666948279,9.751554372034004,-0.00115277973547556,0.0006706770505705567,0.010272217636679766,-0.487311655437881,0.11282520275458877,-0.5124033580313245,0.09790462234146893,2.2292501807334157,9.568394092529331,-0.009261311281788793,-0.0016749402985942543,-0.010324862194623065,-0.9897125393109695,0.4133223057767783,0.5167050809233447,-0.04959516761079971,1.8670350220710694,9.543512560970868,-0.004956807991593225,0.0029782354725487532,0.0024615042158261363,0.7906190042373066,0.3503520435844357,0.7319435871131186,0.22487291111660868,1.8833769487390568,9.71654024404702,-0.0033273084832774304,0.0027710674376887805,0.006217580036709699,0.3001543379283556,-0.022804638124086334,-0.6402490302466846,-0.9789237557263315,1.653713573403428,9.662139812073613,-0.007487394910512323,0.004793187450878482,-0.003694349403450519,0.3089434523863127,0.008432934028041189,-0.7171510466772706
0.42173939595160037,0.0035968364726728375,9.765975421452726,-0.004647466058360897,0.0009068552100228485,0.010438519716149309,-0.47660296367650157,0.11754843945338872,-0.5099775959146131,0.09353636132942356,2.214091373132179,9.571478301802284,-0.010342767507361966,-0.0034069274664710668,-0.0101188551984334,-0.9780079024006708,0.41924035444645513,0.5180375687249438,-0.08204359076910124,1.8478036988856665,9.542884872291353,-0.008046072020054452,0.002124832516783597,0.0027903463626790036,0.7847720413232718,0.35199998171916536,0.7342171918690084,0.21144074878118868,1.875587558842192,9.750227643932279,-0.003938670869344202,0.004264806534316444,0.006644923626937419,0.295309300504478,-0.017869083563567367,-0.6411478186207562,-0.9667632342493245,1.6791886155946762,9.638055142120272,-0.009007198129175789,0.0024420369022895316,-0.0038862485290609384,0.3042649192641024,0.012797983100396494,-0.7175145909253492
0.43435067832521307,-0.021706900160347584,9.755095701635573,-0.005332871491908798,0.001054005210983715,0.011464498404466091,-0.4731327144407837,0.10983113637163826,-0.5144979424042534,0.09346973013641326,2.24256568890596,9.539573918427907,-0.009468415647202256,-0.0033207279661238067,-0.009900121408690841,-0.975063887912166,0.4094613440014894,0.5146691694895908,-0.07345914205470025,1.8670532516576948,9.550927204686047,-0.0037580108449210463,0.0046536263370036525,0.004036638131539879,0.7849465609375742,0.34435415682455,0.7449035185337283,0.22176360075420984,1.8795607259768539,9.738589260235944,-0.0030872187367645353,0.004629263692140228,0.007677343234479114,0.2963113872587428,-0.026021298651358882,-0.6294969838738674,-0.9647132817628853,1.6456017652395012,9.619982028248488,-0.008163024847222967,0.004329468469835021,-0.0012268150277547345,0.30476304672571625,0.00014961840024327322,-0.7047748774103637
0.4243194318803582,0.005551559046218402,9.742642757668522,-0.0016027483100245227,0.0002655333381336072,0.010366179619370539,-0.4738250799326097,0.10903387850486934,-0.5101088771370691,0.08978463551176663,2.232909261204687,9.571426951245169,-0.01034376275181872,-0.003409938787838667,-0.01011982547266903,-0.9738042869806556,0.41048468406171207,0.5202673634496534,-0.06671978333748742,1.847414783152634,9.542295194963133,-0.005825880076549975,0.0027894573022134816,0.001146587673397,0.7864949766973606,0.3551617407012431,0.737639538262342,0.20909191835003582,1.8670478397425307,9.714704463918316,-0.004486903534759752,0.003158006591386098,0.005398386892259798,0.2975214683259747,-0.018394861620835652,-0.6389726404754013,-0.9720482104392325,1.659038237798324,9.634288036024557,-0.00807089293127496,0.0029076168609356527,-0.003645404433241748,0.30481199656526947,0.011760807236043946,-0.7133865014576957
0.4266157326941332,-0.0028120882563088256,9.753843182096709,-0.003149764062473508,0.0021847321957318465,0.010929469958954234,-0.4811255215552524,0.11034885209587898,-0.5046664529006344,0.10293548170047091,2.2326344236058877,9.568049882869294,-0.010338488643224751,-0.002025092452031432,-0.009742062570864456,-0.9801215168212466,0.41073360067996517,0.5244647541460625,-0.07362987791523352,1.8470420636922738,9.535152973310842,-0.005600342002691919,0.003015608018493148,0.0021698395635817154,0.7802490873108882,0.35188871440587016,0.7447651220729324,0.21087155909178745,1.8622192347335949,9.723524985813192,-0.0027281267380220775,0.0036569340658805464,0.006429977195845362,0.29074668549455207,-0.018874836401693795,-0.6313492812554247,-0.9405953130611573,1.6437158098389504,9.636854323022158,-0.006884892039233413,0.0044769240512308895,-0.001710197254006325,0.3014376194879477,0.01071148267763063,-0.7104310572759935
0.41708692354029375,-0.00180726525800054,9.75708537685517,-0.001091066082502912,0.0015499693115013887,0.010310264251560949,-0.4792543632322565,0.1155442008752962,-0.5082754727939698,0.09448000106450075,2.23258118700819,9.564984340000665,-0.009480309014270126,-0.005406028139800354,-0.010468676360726573,-0.9799560743364136,0.4158055584851308,0.516856646706835,-0.0649630040911617,1.8663642572404602,9.54319192651409,-0.005548867297999371,0.0029087840545274917,0.003690627186985943,0.7881216382488054,0.35182786876662403,0.7278314854423064,0.22626466414103985,1.88970285653643,9.710035596703918,-0.0027077630273672003,0.004732246413104709,0.006234739711750669,0.3008268038156035,-0.022021778834934055,-0.6480625443705519,-0.9807741334709736,1.6526305828188064,9.62799497675997,-0.007039128889120142,0.004061294981329802,-0.005733528892137858,0.30836384858740207,0.007336672242300333,-0.7254635586642342
0.41218260097436676,0.010433162496559206,9.767013757264618,-0.003275198700439468,0.00041829691991330717,0.01084028718067149,-0.4765178170357131,0.11093186403838301,-0.5081104430480528,0.08134227069388156,2.2309427042425694,9.545727157004816,-0.010142637024105101,-0.0017711825451727282,-0.010545469007537214,-0.976497643673215,0.4136521044745453,0.5209974947084091,-0.07413129197729819,1.8525076551130972,9.562035644929544,-0.006832928160961577,0.0029825517142786566,0.003107257636371934,0.787833564854442,0.3407605759022686,0.7384969880734086,0.21033273692464338,1.8859456321356356,9.735061805565298,-0.0036364599432583667,0.003522480497535792,0.0064298152559430005,0.30062118540368954,-0.028205093465186366,-0.6368747681727551,-0.9526241758656283,1.6595767058837538,9.638540573385285,-0.008285679380997517,0.004831060729270798,-0.0020277158147556343,0.3068215719961567,0.004453422744673228,-0.7135240641083274
0.42104656362763987,0.0077725504063850814,9.763800727792766,-0.004198551586333391,0.0013091452548007062,0.010332526713187348,-0.4807606466753442,0.11440631923737411,-0.5158483207105173,0.09501487503339981,2.2362444886923245,9.57110558984105,-0.010011127784688007,-0.004195247793543921,-0.009799540062136215,-0.9792610457090383,0.41552570506492287,0.5117261437811631,-0.07211179819197669,1.8686788093961344,9.549506078177046,-0.004368781619147653,0.003050663991716763,0.0012314472679901302,0.7933741098643194,0.34643874454660506,0.7355470538639735,0.2314752364176902,1.8822619077422797,9.705980389114579,-0.002675206871177157,0.0034319749327016524,0.005396790922179032,0.3043298755229977,-0.023356706040215492,-0.636870898246346,-0.9798604961026789,1.642906193565714,9.670393617651085,-0.005618066039357963,0.003616319937787174,-0.003297251898926695,0.3141526479184257,0.006918219679355662,-0.7113778190401426
0.4181360579380643,0.014330910801432506,9.752631150604723,-0.004048719212962443,0.0013774290817501226,0.011119426058000375,-0.4860038026742366,0.1076548015238044,-0.5080848551354902,0.08183005500595161,2.2344550973079014,9.551887880291856,-0.01087856433958846,-0.0022051818037955753,-0.009451614524600714,-0.9857559643130624,0.4082401236847995,0.5206187416738323,-0.06701093736777977,1.8580046354601365,9.530830525825476,-0.007650525541225777,0.0026869495799777283,0.0033131287173470254,0.7892448743505149,0.3478511752101849,0.738533084622709,0.21740132422456787,1.880307484380094,9.709376511300485,-0.00542877238732677,0.0043278483612606625,0.00623421181293448,0.3011300513266215,-0.026996970931933234,-0.6358941599853914,-0.9708150195444523,1.672674039934015,9.633569840136714,-0.009823762745418949,0.002569780050038587,-0.004339412865370432,0.3089926604587332,0.00474504707583397,-0.7154993828515033
0.42604692816223594,0.0019101171982043308,9.751662733048954,-0.005783897665492034,0.0006489551402178908,0.0115504683463962,-0.48194114968441737,0.11192688140837337,-0.5139189861885411,0.09125035326130304,2.226976376770998,9.579771060471154,-0.008604322941264411,-0.004630424171508987,-0.010063031338236815,-0.9821556518412922,0.4123625730535551,0.5147016404149671,-0.08367733311350539,1.8627132889971973,9.55851281373155,-0.004092761328451571,0.0031689832943150066,0.003775490377246873,0.7850384675029004,0.3515013932357857,0.7359197744999105,0.21249213042353451,1.88116487053455,9.722629035671567,-0.0029823695034099204,0.004180354709167276,0.005610986691364847,0.2965265339552408,-0.019847002558614435,-0.6394638301482969,-0.9720055806501394,1.6413560447998947,9.631901484649166,-0.006883852275127281,0.004474901351342111,-0.001708240834888769,0.3037675089433234,0.01135577035572311,-0.7192401793385822
0.42939475258721416,0.0027117116857704737,9.76061206262703,-0.0013046122304759245,0.0005945294053409568,0.009473228632007016,-0.481378386181027,0.10796834496376193,-0.5095792763530872,0.09136766345667116,2.236068388733535,9.561562061849838,-0.009669587023384526,-0.002898268666418369,-0.008910654775854078,-0.9801590196178428,0.4089814226637689,0.5186176397517817,-0.07380856571993957,1.864478031065256,9.550314245468439,-0.007476480611095331,0.003020931488305479,0.0028146004360974637,0.7815481480069106,0.3384858346760453,0.7427000227397526,0.21811161393895745,1.8746355232782952,9.71838403020312,-0.0024370989208639207,0.00529118243116199,0.006857578751285806,0.28938076345542935,-0.03178163486877916,-0.6341191130757852,-0.973308263301337,1.6486456853796336,9.642460182254862,-0.007491275536434451,0.005890032687845026,-0.00470352801345286,0.29908860903224277,-0.0012680993315240321,-0.7105878143011204
0.42297993750063434,0.007965605654323887,9.74050171545021,-0.003148796702012624,0.002181861080933513,0.01092042446761581,-0.4734011657445278,0.1146597487408881,-0.5105264820324197,0.09138795754741663,2.233617595101813,9.562135023213797,-0.011021962840988839,-0.00186741669368115,-0.010766091074481128,-0.9719046862689583,0.41803870449593156,0.5172670258993909,-0.06930808883724135,1.8271146978277937,9.554482927420166,-0.003958033746131003,0.0013129930801154131,0.004303535643637359,0.7928390258885216,0.3527827353012469,0.7355991541889582,0.21726522385608046,1.8554976547814512,9.74320142674718,-0.0020770172173154426,0.004316836198756689,0.005611189331334233,0.3058458531447978,-0.018739947106180675,-0.635873769972145,-0.9615547503154848,1.663413928586542,9.637199470509001,-0.006883844522664588,0.0044739015025630265,-0.0017082564014646731,0.31354816655874834,0.013588445030128645,-0.7166392774934337
0.4217216319624306,-0.0025981226092103293,9.742757031469473,-0.004948699479497439,0.0005711410790408241,0.011307402589872435,-0.47922808950516643,0.11166646759433142,-0.5105235725010475,0.10437654667945807,2.2249328941500006,9.553735958817294,-0.010350731302540848,-0.0034249961141548076,-0.010123661645897966,-0.9792039507335624,0.4138654052752022,0.5183303310719681,-0.06589017538104325,1.8743804003997375,9.532249565011691,-0.00560237511310764,0.0030186001284289673,0.002168883666009032,0.7877805318282947,0.3536704219484429,0.7424979404053181,0.21923285792609454,1.900534945499789,9.708245204555437,-0.003890692494980873,0.0040479083924931615,0.00560983944115007,0.29779893422650855,-0.01867181124808643,-0.6348268132264668,-0.9788380883396854,1.6382921658105807,9.648889607624088,-0.0062015884235542265,0.0017307802907620745,-0.003250306540920063,0.3094251734072075,0.013037341689639888,-0.714644191886135
0.41479578407363693,0.014111696805436363,9.773798728187778,-0.0054852757831800256,0.0011762567922549488,0.008201831169996909,-0.4846330673761937,0.10903827937560047,-0.5193089141506722,0.08705787779369423,2.2354923555013086,9.552127524486798,-0.00966893757926636,-0.002208853490325466,-0.00872173602825308,-0.9875583857902872,0.41059405617810635,0.5096284496105887,-0.07369415768206064,1.8469478250095221,9.548019116834922,-0.008361950957923556,0.0036538243229482944,0.0027559580900864077,0.7941677145396465,0.348590555630197,0.742634601301545,0.21359521169847198,1.8573894334165106,9.734985529330652,-0.006361430509029636,0.003123126901991879,0.006428358751099814,0.30144777656499105,-0.02164849513258296,-0.633171178109457,-0.9562842617655614,1.6736847003159119,9.625548911701447,-0.008890780046569978,0.0009263946153575316,-0.004187174247645981,0.3126834808885827,0.00860398770333331,-0.7106006900883225
0.4191861239318905,0.00012729373381153986,9.763884271487616,-0.002676441148136951,0.0008859104179870566,0.011518154431672695,-0.48307139433219615,0.10840042710809514,-0.5066320961039977,0.08728269908861533,2.2331222562735302,9.552680335517653,-0.01035437058511387,-0.004122445289770289,-0.010315498563762172,-0.9825956608815392,0.41020050501786415,0.5198482248020674,-0.05457436232430346,1.869314707529533,9.547650370562366,-0.003434862165897119,0.002312931853328344,0.002809924935500531,0.7932478874196494,0.35551036634367433,0.7302430482205563,0.225044544813225,1.8865444767107304,9.734602349556145,-0.0009203928713095953,0.003933932217974667,0.006429437865538743,0.3042870504339268,-0.018890810062146254,-0.6466041367169072,-0.9704192427597813,1.6260844578754696,9.62924037061415,-0.005367315076185727,0.0047160247719893415,-0.0016009635295447145,0.3110061147676188,0.015871484776830532,-0.7234103018772469
0.431099648171115,0.0021260539306980075,9.7373235255102,-0.0013051268748043214,0.0003962760778044817,0.011924915266400151,-0.47925014702731694,0.11051043692484311,-0.5154220616106525,0.0832760105502108,2.2262750401253246,9.560774751060233,-0.009474738245715856,-0.002647377459519177,-0.009716031430681922,-0.9802189699005479,0.41088391343463726,0.5117676733408886,-0.058045588145176505,1.8467124057147035,9.547418979179938,-0.004736302763468169,0.0032073557855806325,0.0034838330897828938,0.7870952459566566,0.3519328991892255,0.7456671112646022,0.20396044479077122,1.8782642529201847,9.736682060887473,-0.0036190386836715722,0.00460482780440482,0.006233655099367386,0.29854463924161667,-0.019921235905925795,-0.6319122931879655,-0.9779122041073681,1.6599861174574915,9.635046281638987,-0.007616260425976441,0.004283667343319831,-0.005593030771905371,0.3048395706600009,0.011242665272688001,-0.7114414766313477
0.41628808044165166,0.006277682472482643,9.752718274967291,-0.005334986834887753,0.0010502714581012156,0.011442462424490294,-0.48335519967661833,0.10559575962537295,-0.5164327820411063,0.08337278159896305,2.223910392894176,9.561324494487975,-0.010495136750476792,-0.003089249739419672,-0.011440115761489783,-0.9853560024451891,0.4079116459163052,0.5088994696461058,-0.07055633480208005,1.8558474066089476,9.559180340017397,-0.004494377442855793,0.002611842779643409,0.0032498108707390365,0.787565372180466,0.35073440526193844,0.743211990363314,0.20276105328242863,1.864791354278292,9.731244435376738,-0.0032589656027300186,0.003630488965850446,0.004986265743927084,0.2965571480187759,-0.021103020002719516,-0.6345900665143874,-0.9560904033055619,1.6733069043170639,9.649333316888056,-0.007457040060314353,0.0035953982895524424,-0.0005566423253313201,0.3033609424339708,0.011490095558506556,-0.7123958213399552
0.4213943570899604,0.0014316229918070467,9.740573794068517,-0.005356384895035044,0.002746495007603989,0.010741698703158954,-0.46875133767582416,0.10870694062631722,-0.5182066336248425,0.08801836700884237,2.2512181418189985,9.569451165015218,-0.008745445995869787,-0.0029118394881971097,-0.011001692602881663,-0.9704437084735664,0.4067654018324957,0.5107477423544036,-0.07469279218273572,1.8731323810408336,9.539256048731959,-0.005970899760399835,0.0031742917553382673,0.004420273170659104,0.7873321444623381,0.3507254662147436,0.7441905796157237,0.19784307937353066,1.884222634191951,9.719814775777765,-0.005106168700648458,0.004664841781194527,0.005822895272709265,0.29631313503640777,-0.02380821054591635,-0.6316777763864238,-0.9736260822809842,1.6315921035616265,9.611017113268634,-0.008769683535412812,0.0036306050456283564,-0.004306834532619908,0.30441714712115137,0.008736704617277938,-0.7075673504656992
0.4080529641194466,-0.011633735047884508,9.769387508770043,-0.0019059349490197777,-7.714927017391738e-05,0.011230985084141845,-0.4760472624044291,0.11312430043323006,-0.5073531089120682,0.08328800497627228,2.2391299579987423,9.548718132603906,-0.009475077062235167,-0.0019589589184496096,-0.009526097764590272,-0.97651334022588,0.413391894971951,0.5188014107771819,-0.06575994437930682,1.847929187516773,9.553938383672612,-0.007130394407097944,0.0036908729040531743,0.0018185804368661966,0.7886787571751055,0.3500852856405169,0.7329401033131755,0.20538994743588607,1.8606071539990234,9.718683019749793,-0.004800996487222279,0.003917480642588722,0.005608724199372081,0.2997161532116294,-0.021120075015075082,-0.6363265434989968,-0.9676917227069157,1.6798085216026757,9.640752566581748,-0.006770429450508696,0.002960219619968973,-0.0020081150009985116,0.3054895797338865,0.009660599255654803,-0.7192873930419154
0.4260090303623997,-0.015777195051024706,9.76295119039064,-0.003749144704793938,0.0015112192625217477,0.012676187215527341,-0.4765187799006828,0.10877983527154435,-0.5115569346351001,0.09666903845969735,2.219448181341127,9.558924273133764,-0.009677207896959517,-0.003605755819751898,-0.009105387541853983,-0.9784557939501705,0.40947272442692323,0.5181130469431691,-0.0724100020618413,1.8518337971070844,9.559944594854896,-0.003037253122500507,0.002871042295743032,0.003335655648581775,0.7813461655490922,0.35343746731775333,0.7345104227230153,0.22139389791261033,1.881842257653703,9.735596124252325,-0.0027929498541035677,0.0038940193873793494,0.007461355649154958,0.2914348059281338,-0.01835220209641077,-0.6369667127549472,-0.9625190528697825,1.6224241675884608,9.643693305116072,-0.006882784824378951,0.004470863482436299,-0.0017053157428219517,0.3006441272833451,0.013200174392195906,-0.7138015410203674
0.4124593289213178,0.00984807456884837,9.7415972883171,-0.002677966173907021,0.0010793125581901066,0.009053417673627065,-0.47963279745923887,0.1048069990257808,-0.5091451152369378,0.08795752146969554,2.238984680172856,9.54226136816102,-0.010550894505837665,-0.0030045326945747864,-0.009134187944963458,-0.9796576016000239,0.40752565936713464,0.5196016271478285,-0.06273905163830915,1.8496230383071053,9.53855010239927,-0.007463159673400023,0.002205259490354763,0.0015554035712752846,0.782356087798447,0.35390887967389223,0.737920028776614,0.20917504339187531,1.882090276781635,9.717282134989649,-0.004006445059100699,0.004508934209311039,0.007674379472277366,0.2939019039488355,-0.015689236672441664,-0.6369682961041981,-0.9632587279673078,1.660856939834038,9.627074704354586,-0.008064806067611547,0.0029026033747274883,-0.0036415554013136424,0.3015834413971152,0.01349722682238171,-0.7167389572063024
0.42384099195182584,-0.0003974042236926656,9.749563258752115,-0.0036635365777427206,0.0008916154490690486,0.010959284084032246,-0.4804252302143027,0.11137094854536507,-0.5075884746126923,0.08811105389593141,2.245147452209325,9.54783104154647,-0.00801550902016508,-0.002483879068449565,-0.012097457126229892,-0.9799282078682253,0.4126460812975112,0.518832858325276,-0.07940846459230946,1.8543207354773001,9.56622334295881,-0.00409678683849424,0.0031709604501405243,0.003774549035790232,0.7858292269039826,0.34466592197269247,0.7365943419027889,0.21703579457373182,1.8713459890409325,9.721725199787956,-0.0035996364234143242,0.005685156544504174,0.006037462934354983,0.29715375002396194,-0.02837559540521999,-0.6424614909129542,-0.9643847995690027,1.6591200382478537,9.627261585674592,-0.005832728454749354,0.005534656262014844,-0.0016726424706126142,0.30654975346401653,0.004245287970408119,-0.7159654464219616
0.4172247305733182,-0.007340986685116291,9.763964854843266,-0.0028930230957790967,-6.949678530285866e-05,0.01067614057438929,-0.4858230787067007,0.1111228153710772,-0.511704253953344,0.08850197071614924,2.2316655318902603,9.56701462516763,-0.010357695135003446,-0.0034430607128035223,-0.010128475720377417,-0.9872777517138638,0.4121014230462568,0.5152305095567115,-0.07744312513014782,1.8707645719976516,9.553684357780956,-0.00503073598741639,0.003912692369813867,0.0021961008274015976,0.7877725756088865,0.352218948237046,0.7407783073736232,0.21432367674060457,1.8870162452050563,9.718908267128135,-0.0033178276760570937,0.0038625111220991506,0.006018555420003204,0.29832306647752194,-0.018215487205965164,-0.6311657224392794,-0.9657771581544171,1.6353222893999277,9.665057689724359,-0.007252154193186837,0.003872736255641791,-0.004199553720632725,0.3055517565308596,0.0115151065717928,-0.7129112221956858
0.43441766107104474,0.015241592624832628,9.741898456346679,-0.001862615967058296,0.0024993728859002465,0.010570259691061812,-0.48342978309423057,0.1121931958067319,-0.5168350980198012,0.07998465726008261,2.2316071846227366,9.563968590846176,-0.009288165117174818,-0.003788374001961489,-0.010903096449053327,-0.9824220978271686,0.4160162464974815,0.5136996494460668,-0.07503872450113093,1.8424915412374545,9.54775545035647,-0.007831676896774314,0.0023599511719428314,0.0038067857111449156,0.78872184115345,0.3493284331876047,0.7363524142801496,0.2038651732287507,1.8519195459290283,9.728303553032276,-0.005438646749683026,0.004343962950120961,0.00623141592418117,0.3001987401431861,-0.022596759644161885,-0.6353645609837142,-0.9664123701113175,1.6757145034798056,9.619252472592516,-0.007941116198984986,0.0023980040380827132,-0.0028397135678721605,0.30801846796929216,0.0066673281005335885,-0.713992482836374
0.41352717069338746,0.0012332030771530778,9.72052969564182,-0.005100618354282354,0.0004990712419156748,0.010502466819726245,-0.4813985674414797,0.1096802857784746,-0.5098007901532159,0.10604157225947217,2.2254775339861417,9.55152916719442,-0.01015855536508384,-0.0018002831955191067,-0.010550133615763256,-0.9809302413449205,0.40992019491255083,0.5139773116693505,-0.08649921491417398,1.8780892673152267,9.536775981444704,-0.0042544778087412315,0.0020183219383207735,0.0030148253893420565,0.7917329604163253,0.35172550241082734,0.7453704900130219,0.22846631570181478,1.881893432999084,9.724822824957355,-0.0024450040872734725,0.005301256556060405,0.006857721410209267,0.3026903165475369,-0.020939605146846327,-0.6314675407126213,-0.9643323836693193,1.6404232183874985,9.630242258028758,-0.007567328087689161,0.0051020122237010745,-0.0002509300350207183,0.31095896975688,0.011752612156871492,-0.7097988132853069
0.4353254390244471,-0.004139002588873425,9.755335212590275,-0.004284760713496479,0.0021173979614855978,0.009566622314107199,-0.47559108514943216,0.11079421829286504,-0.5154447399918428,0.09737145560419594,2.233876898326091,9.553524170419655,-0.008608007872306084,-0.003266657804753092,-0.009691045158132443,-0.9765536907327111,0.4118819153154944,0.5127095172067323,-0.05469771345962518,1.8500923130440234,9.544585469953722,-0.007082948803647317,0.0035850334333530015,0.003337419441222851,0.786096700911,0.34343894228879146,0.7378025651896297,0.2142030059462508,1.8801692607333769,9.728157278707972,-0.0039545062744548755,0.004285984288426839,0.006641216515417586,0.2945293966625702,-0.02791123684887508,-0.6358440018449087,-0.9653986976969251,1.6584225275169568,9.622093143030382,-0.009928011529952055,0.004074410987234037,-0.004031804455606152,0.3019836950707301,0.0016988392779852673,-0.7115543659640743
0.40512427977387755,0.007639763978317837,9.75384269020272,-0.0027635997184656137,0.0016940608014934474,0.010759256321741765,-0.4736417185910212,0.11225791453577821,-0.5137304826221836,0.10220252897033928,2.2334211067688035,9.570181766050093,-0.00841217267352477,-0.0030087480395735037,-0.010494480985030455,-0.974575649047503,0.41166925137405114,0.5158702364507636,-0.07927745717650264,1.8651667048350282,9.554762889270222,-0.003721155877568033,0.0007194642911315648,0.004066583217964122,0.7928507735806428,0.36273528775353897,0.7434851944295416,0.20200792257537808,1.8621369017172515,9.734438508753993,-0.0005652730875733812,0.002963632473583698,0.005183121154090982,0.3047002808640079,-0.01263940877180283,-0.6338656561356625,-0.9697991581729802,1.6606461009580822,9.609543716798456,-0.005603623327954535,0.004619280438821777,-0.002185695044127204,0.3111066940795991,0.01961168407413058,-0.7126085663213986
0.4220353512874286,-0.00591267617476865,9.749640233402161,-0.0022932295756160465,0.0003980622640696905,0.011359000200169183,-0.4791270947350985,0.10550055613597788,-0.5057213194939514,0.09295343846798099,2.2196514656451147,9.533273562067727,-0.011235363948058508,-0.0028498682575921054,-0.010159186722815763,-0.9806215835886282,0.4077783088800993,0.5213161824689674,-0.06325694669922113,1.8620345496684456,9.540766390384439,-0.006092284374790783,0.00421459540606475,0.0026350308650674214,0.7811349809728911,0.3468556658784059,0.7329996835371271,0.2218166676160505,1.8877935661208405,9.707990701102029,-0.0040113873471114975,0.004515987877905868,0.007673474183056918,0.2906459604270663,-0.02371055310283209,-0.6377325791058396,-0.9612487787933286,1.637549502321285,9.637577656173342,-0.006652659867657509,0.0035544802795924014,-0.002217396136744152,0.30189636640862333,0.006885495486676985,-0.7153797987601922
0.41263050095704423,0.01897916475935907,9.769529455563251,-0.004049841995338753,0.0013697982298815233,0.011090331222384842,-0.4801513134998783,0.11179873780561606,-0.5027013167492331,0.09353874636442414,2.2421697153822286,9.549067848263796,-0.010074849761262682,-0.0041396432783166745,-0.007504337533471749,-0.9820954444994711,0.41266601372615586,0.5227563957702961,-0.06417107880018101,1.8566117121153458,9.527833838842895,-0.005122590692714326,0.0018335583364261583,0.0016989274327759536,0.7859756327268843,0.3554216194289039,0.7349619180713443,0.21636677844131336,1.875951242927829,9.715622625326978,-0.005112081857193014,0.004675911913754689,0.005821027989982951,0.29605447522673956,-0.018379345821510483,-0.6392048914318422,-0.961977886834106,1.674040234506007,9.650241558340042,-0.007603256703999116,0.003181786027529885,-0.00457703989147004,0.30134135843571663,0.013251326217027945,-0.7167398128272258
0.426121023022461,0.0032191541733443407,9.756376825342219,-0.004716392227709043,1.708938660415868e-05,0.010354383144701147,-0.4711710747919739,0.10983641963654107,-0.5132908831781466,0.0936573939887552,2.22317494692698,9.539461562817655,-0.009434914025322165,-0.002761209911894263,-0.012028623743273209,-0.9730941205162664,0.40899567944174897,0.5166107500117049,-0.06261911364379903,1.8498613887647735,9.551388636503162,-0.007951061687620407,0.0034002698314583866,0.002021521484656749,0.789033921138542,0.3495280272329351,0.7426979835453907,0.2185098012362704,1.8835316427591093,9.730112129966482,-0.0034010523383952683,0.0030202656717844023,0.007245124723794393,0.30141636260773036,-0.024082097809185563,-0.6341659651096343,-0.9629413275244831,1.6357485825291072,9.608831837682736,-0.008636010672275322,0.002022147288250704,-0.0024919961903997877,0.31023300749027655,0.009080081006293948,-0.7110515606806985
0.42057669920151464,0.005597834061262547,9.768544232640378,-0.0030448770770427915,-0.00014168420133778338,0.009880203802189031,-0.4772603753794697,0.10950697131284662,-0.511787113529185,0.08127083386425138,2.2322583775971285,9.577835792562922,-0.010167829137402919,-0.003198196917152696,-0.01093477009871242,-0.980658422652306,0.40994821065926706,0.5176382452546919,-0.05698867649855477,1.847373428284989,9.559077167715591,-0.004324347007650859,0.00294779456103548,0.0027513411608433244,0.7943280321190963,0.3522915251854685,0.7375323437987652,0.20353627542679403,1.8564346457002026,9.722193378788264,-0.004535265250593665,0.004484470258150687,0.006230665262274926,0.3063049616111765,-0.01921083016308892,-0.6388103997688365,-0.9475421413441788,1.646179266096481,9.616494112756214,-0.007477155636841541,0.00478405161731381,-0.0036806128165464344,0.31329617124565784,0.010694708494655411,-0.7191224595700135
0.4248360089819312,-0.00784270637541716,9.75861482425093,-0.0005743849275566416,0.002816814986434504,0.010227079998083213,-0.4818876927131577,0.10536772369430794,-0.5164463439855773,0.08993653839050414,2.2389185901471453,9.563328002660521,-0.010364667177635213,-0.0034591253822917954,-0.010133304489969496,-0.9799495148876713,0.40649726595340885,0.5127750500685668,-0.07603133097460642,1.8536146692695006,9.550214605530817,-0.0034398875877122144,0.002314901504759326,0.0028089945544921315,0.7897602584359382,0.3536672935281279,0.7449183217331206,0.2279500153697563,1.8682040363941645,9.743323252940522,8.166920318972078e-05,0.005999021416734425,0.005009974868481083,0.29833320646232486,-0.018716088605210623,-0.6294604012320629,-0.9752285387234906,1.6496097905787164,9.639771969378584,-0.005369711309023076,0.007919634166044277,-0.002509546001525739,0.3070358128103487,0.012468585673724726,-0.7107161232089684
0.42190690491403504,-0.0005756463897029773,9.747460641559067,-0.002144422463201569,0.00046344016606678193,0.01213786807935366,-0.4897444853115903,0.11398120711669037,-0.5094403840657977,0.08074499938797282,2.2250533381691824,9.526441068126019,-0.010364007257788127,-0.0027666881766824965,-0.00994140795327907,-0.9892080165237997,0.4138302755638734,0.5191386364399962,-0.06771875958526256,1.8649126408901375,9.53193272802449,-0.006134652942304469,0.0020256298467198185,0.0036576450075906726,0.7882930943183666,0.34855725662776693,0.7412339463004238,0.21364096656512574,1.8854154169448565,9.721936512940092,-0.003901566775808488,0.00406403233582844,0.005607052244026998,0.2968497381727969,-0.020901032213943307,-0.6292197494906955,-0.9862283683232992,1.6766120745409927,9.651690041814838,-0.007135783731402737,0.002360124457964774,-0.004502432351692194,0.3076156846617344,0.006313727099123792,-0.7071557213267882
0.39812883022356116,0.005001249959830811,9.766073021447754,-0.007075384747644261,0.00032312187290936756,0.011844556425972671,-0.4808367474860414,0.10763719078538483,-0.5025067206315509,0.08141694091865062,2.236349527952895,9.560878544687895,-0.009633739062558334,-0.0030271536765964302,-0.011228106086638406,-0.9828045167725388,0.4075380318061497,0.5230436359827604,-0.07538056875346429,1.8373645890525565,9.54763786719051,-0.008546131744460991,0.0033308031830147156,0.003249677424350789,0.7895355654709563,0.34782279032787894,0.742680037476426,0.2119423727453386,1.8589350864599787,9.710920656983925,-0.006408800928999116,0.004449588608132414,0.007259628493995977,0.29850192926740277,-0.023328965098921704,-0.6331582015334334,-0.973954152014293,1.6528895549166105,9.634158099376233,-0.009436284964629022,0.0020540520071708683,-0.000828431299597985,0.3088008649386978,0.006368753930470119,-0.710099878380841
0.4423039393673531,-0.014723096440720479,9.75219927169489,-0.006622887421086219,0.0009225934938421087,0.009294841550706399,-0.4766171127179177,0.11565950160791412,-0.5148847179449441,0.10337524843564343,2.2340587564794183,9.561037639142496,-0.010170815483948131,-0.0032052235735031435,-0.010936695672612486,-0.9775517027531055,0.4172487732176768,0.5126774974482964,-0.06382420837931785,1.8778695571939032,9.556333318689504,-0.005851373813786641,0.0036210747863754536,0.002401034336032689,0.790479216082695,0.34785144582449135,0.7397405954570151,0.2255844162224239,1.883852087341428,9.719301800273666,-0.002937324957507749,0.003970484133137933,0.004575979768585305,0.2999407683576172,-0.024305159758837097,-0.6351309531798459,-0.968427602514064,1.6354806650339697,9.620288746338849,-0.007238731311710032,0.004876704136327223,-0.003088969045425624,0.31069066911218446,0.00767305884662795,-0.7144975726484725
0.43280287125079786,0.01020242128668522,9.772110630053005,0.00049582192534825,0.001986336594331071,0.011512656885027244,-0.4760904038044012,0.11296326800555095,-0.5137036086858532,0.08553642231523384,2.247399897064942,9.53584530896994,-0.011242324901786413,-0.002864918205316335,-0.01016202295212524,-0.9770335519687205,0.41262372306085343,0.5141727712732228,-0.08604324889001615,1.8620829765996894,9.54706828631361,-0.005385895395025254,0.0032496975972863638,0.003190271198509148,0.7807162937143763,0.3536066140855835,0.744040423606686,0.21350569375532227,1.859610553468114,9.755892072546931,-0.0033013686623971335,0.004948867499082586,0.005822433205410451,0.29414237908238056,-0.020118695304132066,-0.6326088391494514,-0.9631151445618138,1.6564853643600257,9.618853726573281,-0.008056303576163,0.005005439192268244,-0.0035421057552264385,0.30141922453257375,0.011943638616240627,-0.7111449083588988
0.4184956258152298,0.0030403761127258955,9.736330239851492,-0.0013091703804106358,0.000380626827183965,0.011894736614716753,-0.4745078572277025,0.1086958238866345,-0.5035156364133888,0.09483747769800657,2.2313478584980517,9.558621367641571,-0.00929648004412676,-0.0031150242148349984,-0.010717991273095183,-0.9769477847744457,0.411236235408711,0.5246809467096882,-0.06795694169597363,1.85399094890105,9.55628193454909,-0.0023318566305894997,0.0019051370372488777,0.003890899577691302,0.7924399336390004,0.35004698155141434,0.7419321785688772,0.21095656683242076,1.8946648342402042,9.72829845869368,0.0026980305807512723,0.004475842161012269,0.006436244862886742,0.30388151282602127,-0.01994259101547633,-0.6358657238884308,-0.9713762327650187,1.639014528134224,9.660234085093599,-0.003862519889014868,0.007157713016921587,-0.0035058874018364947,0.31214903071612266,0.008900732281278065,-0.7142522965387246
0.42280553092563566,0.013532804877336935,9.743067990407786,-0.0035142978491819895,0.001152456141152099,0.00927042768538516,-0.4745939913122413,0.11220263784042138,-0.5103059572315097,0.08624629835423486,2.239629985557781,9.560676639606458,-0.010172810077946228,-0.0032102462516581222,-0.010938643568640065,-0.9735911674679857,0.41437712328659987,0.5182839124283589,-0.05798061266113075,1.8559445205167882,9.54808055643741,-0.0077305490355774505,0.0036283901991690346,0.003043842993833064,0.7919315725546034,0.3473851356908785,0.7382560721201167,0.21386193253642463,1.8796250098553742,9.709754008321683,-0.0069326686188159485,0.004420078240047875,0.005815834262901569,0.3028578973595491,-0.024321736378923563,-0.6366213251474278,-0.9820552834167775,1.6771267379390955,9.653409502471442,-0.008641326964414978,0.0010121664822933965,-0.003597771714019167,0.3111664513850994,0.004308557136667826,-0.7177300490169021
0.4224245708971013,0.0122502766358413,9.74308598391843,-0.006106723899794731,0.00200785677735559,0.01168856455572296,-0.4764703922834899,0.10797358498450488,-0.5059521926148864,0.09043923729927263,2.225149630571182,9.543520668387513,-0.009978967207603261,-0.0029523372059566746,-0.01174106419758885,-0.9764582063614241,0.40903408027076077,0.5237164220983369,-0.08608302200524987,1.844933527114553,9.544653618540178,-0.006379596437269184,0.002622127567555864,0.003890707559949205,0.7885468404462154,0.34976657475305006,0.7429491079763202,0.20445412105663857,1.869502753273635,9.730422619084242,-0.003680647397600233,0.0024714353146533005,0.006619437228346771,0.30023795456207003,-0.023615206662051046,-0.6297570676131337,-0.9663397885195275,1.6513338272667,9.619416415583366,-0.007920755413897276,0.002296167336010063,-0.000721126367745251,0.30781558496652245,0.010480152650892461,-0.7080708732211286
0.4201520899649792,-0.007824568137985072,9.74753360032724,-0.002446105176412986,0.0003239426499769741,0.010557044881284321,-0.47382951889997676,0.10784494490232086,-0.5125656512789672,0.0688397530039172,2.2477229503584564,9.559742109937394,-0.009833891790126231,-0.0026036682275000127,-0.010235654596614468,-0.9723948282672211,0.40994579203471443,0.5126922072454314,-0.06511438717188084,1.8578475368107907,9.554479552938,-0.0064474547975168035,0.0035516079162984443,0.0036282013233644808,0.7870226932350985,0.3512525011633583,0.7385823375470449,0.2178850899301164,1.8817940282560646,9.733171866331395,-0.0057780731596904136,0.004033185858725466,0.006635070865502656,0.29802623641149384,-0.02112033250782014,-0.6341148312341854,-0.9736151264742134,1.6465112132987196,9.612959176764726,-0.008982659001494767,0.003434063001166534,-0.002773983699823076,0.30728627759899163,0.008595329605040452,-0.7127324901934358
