# sampling frequency: 40
# units are seconds/meters/radians/a.u.
seg1_acc_x,seg1_acc_y,seg1_acc_z,seg1_gyr_x,seg1_gyr_y,seg1_gyr_z,seg1_mag_x,seg1_mag_y,seg1_mag_z,seg2_acc_x,seg2_acc_y,seg2_acc_z,seg2_gyr_x,seg2_gyr_y,seg2_gyr_z,seg2_mag_x,seg2_mag_y,seg2_mag_z,seg3_acc_x,seg3_acc_y,seg3_acc_z,seg3_gyr_x,seg3_gyr_y,seg3_gyr_z,seg3_mag_x,seg3_mag_y,seg3_mag_z,seg4_acc_x,seg4_acc_y,seg4_acc_z,seg4_gyr_x,seg4_gyr_y,seg4_gyr_z,seg4_mag_x,seg4_mag_y,seg4_mag_z,seg5_acc_x,seg5_acc_y,seg5_acc_z,seg5_gyr_x,seg5_gyr_y,seg5_gyr_z,seg5_mag_x,seg5_mag_y,seg5_mag_z
0.06432,-1.099186,9.825775,-0.001008,0.003965,-0.000966,-0.1604,0.448486,-0.551514,-0.268661,3.040403,9.296492,-0.023181,0.014302,0.006744,-0.868164,0.219971,-0.039307,-0.353468,3.81858,9.057217,-0.003104,0.008449,0.00044,0.300537,0.494141,0.741455,-0.132579,3.677263,9.129415,0.009356,0.006454,0.008074,0.456055,-0.23877,-0.355469,-0.922565,2.929244,9.242454,0.01544,0.000191,-0.006349,0.358887,-0.134521,-0.626221
0.053296,-1.08369,9.789862,0.005477,0.003084,0.000646,-0.160645,0.438965,-0.549805,-0.236742,3.052531,9.291352,0.005332,-0.000509,0.002225,-0.871338,0.215576,-0.033936,-0.39044,3.826809,9.050138,0.005345,0.009172,-0.000233,0.302979,0.501465,0.72998,-0.13411,3.736284,9.131455,0.001915,0.003844,0.010254,0.456055,-0.244141,-0.349854,-0.891501,3.011833,9.292968,0.014974,-0.000274,-0.002282,0.362793,-0.127686,-0.636719
0.054214,-1.066106,9.788588,0.000903,0.000787,-0.001254,-0.154053,0.439209,-0.54248,-0.247569,3.119268,9.300724,-0.007939,0.012302,0.005537,-0.864502,0.208252,-0.0271,-0.362326,3.863433,9.05406,0.00711,-0.001893,0.000275,0.302979,0.500732,0.733643,-0.137368,3.704559,9.105753,-0.014723,0.002057,0.009358,0.455566,-0.238525,-0.3479,-0.935591,3.006746,9.305599,-0.003483,0.012595,-0.007466,0.362305,-0.13208,-0.632324
0.069127,-1.073181,9.789304,-0.00245,0.003641,-0.00048,-0.15625,0.444092,-0.541992,-0.262314,3.054599,9.306253,-0.024697,0.002091,0.005095,-0.863037,0.216064,-0.030029,-0.374796,3.856441,9.049771,-0.013587,0.011533,0.000839,0.302002,0.503174,0.738037,-0.129429,3.6843,9.122076,-0.013753,0.002298,0.011157,0.446045,-0.245117,-0.349854,-0.947671,2.988559,9.281391,0.004335,-0.010467,0.000861,0.362305,-0.12793,-0.628662
0.056638,-1.073183,9.782172,-0.000852,0.00184,-0.001442,-0.169678,0.442871,-0.546631,-0.240591,3.057284,9.300894,-0.000262,0.007068,0.005022,-0.876465,0.212891,-0.033691,-0.380668,3.830392,9.031411,-0.007079,0.003681,0.002869,0.294922,0.494629,0.736572,-0.121586,3.664139,9.13834,-0.013735,0.003025,0.009928,0.449951,-0.241211,-0.35376,-0.893869,3.000025,9.287353,-0.008254,-0.007365,-0.00357,0.354248,-0.134521,-0.631836
0.054713,-1.087656,9.811071,0.001442,0.000324,-0.000486,-0.166992,0.443359,-0.554199,-0.273212,3.106623,9.30929,-0.003972,0.007699,0.005511,-0.875488,0.210693,-0.041504,-0.357414,3.834195,9.069563,-0.006896,0.003927,0.003682,0.296631,0.499023,0.733643,-0.115681,3.660816,9.126372,0.007434,0.003715,0.008798,0.447754,-0.237549,-0.346436,-0.899228,2.952419,9.25415,-0.011748,-0.000725,-0.00099,0.356201,-0.126709,-0.634277
0.07132,-1.078235,9.796752,0.003721,0.002702,-0.000355,-0.161133,0.437012,-0.54541,-0.226808,3.079474,9.289365,-0.019786,0.000976,0.004044,-0.873535,0.208496,-0.031982,-0.386163,3.82441,9.048021,0.004017,0.00571,0.000949,0.294434,0.50293,0.73877,-0.127835,3.714884,9.139797,0.010383,0.005891,0.011733,0.446289,-0.247314,-0.356445,-0.90199,2.951334,9.275714,0.014133,0.005088,-0.004701,0.353271,-0.127441,-0.628662
0.050271,-1.083116,9.776304,0.002889,0.004954,0.001467,-0.159424,0.447266,-0.546387,-0.261622,3.061526,9.309924,-0.00837,0.013726,0.005084,-0.867432,0.219727,-0.036133,-0.360995,3.855208,9.044279,0.002754,0.006624,-0.001833,0.295654,0.494385,0.728516,-0.135857,3.719243,9.142881,-0.01339,0.002349,0.009184,0.455078,-0.23999,-0.351074,-0.92394,3.010615,9.293478,0.015898,0.003213,-0.008714,0.354004,-0.135254,-0.637451
0.063092,-1.067058,9.781998,-0.005721,-0.001539,-0.002379,-0.162354,0.435547,-0.550781,-0.258403,3.088591,9.291032,-0.008388,-0.001253,0.00214,-0.874268,0.20459,-0.034424,-0.372275,3.827906,9.064869,-0.00708,0.003681,0.002867,0.300049,0.499756,0.733887,-0.115713,3.693825,9.134662,-0.013806,-0.003962,0.009417,0.45459,-0.241699,-0.351074,-0.907018,3.006158,9.316554,-0.010097,-0.004292,0.001972,0.361816,-0.128418,-0.629395
0.067548,-1.114605,9.771903,-0.002226,0.001684,-0.002014,-0.162598,0.44165,-0.544922,-0.236332,3.080035,9.291811,-0.008168,0.011681,0.005836,-0.871338,0.214111,-0.032715,-0.366723,3.849355,9.06083,-0.003989,0.002543,0.000856,0.299561,0.497803,0.737793,-0.099042,3.681347,9.130017,-0.013908,0.006898,0.010244,0.45459,-0.241699,-0.354492,-0.92942,2.971288,9.278053,-0.008597,-0.003078,-0.004436,0.35791,-0.132324,-0.629883
0.047016,-1.060184,9.781262,0.01005,0.003945,0.001735,-0.159668,0.442871,-0.552734,-0.289312,3.086778,9.2987,-0.009313,0.004577,0.004181,-0.867432,0.213867,-0.038086,-0.374043,3.824805,9.066105,-0.012597,0.009827,0.002516,0.302002,0.496094,0.729248,-0.12249,3.660022,9.131538,0.004837,0.003066,0.009775,0.453613,-0.241455,-0.349121,-0.890212,2.958725,9.272698,-0.002075,-0.006606,0.001278,0.360352,-0.130127,-0.63623
0.061874,-1.065092,9.795859,-0.00313,-0.000538,-0.001573,-0.161865,0.444824,-0.550049,-0.209808,3.059352,9.321081,-0.019017,0.002976,0.005689,-0.869629,0.216797,-0.034668,-0.382136,3.821428,9.046148,0.001263,-0.000915,0.002783,0.302002,0.499023,0.736572,-0.130193,3.713074,9.123644,0.009268,-0.001283,0.008801,0.451172,-0.24585,-0.349854,-0.902155,2.944461,9.257467,0.004227,0.007928,-0.006808,0.358887,-0.130371,-0.632812
0.083956,-1.085251,9.783861,0.000662,0.005202,-0.001359,-0.157715,0.441162,-0.548584,-0.271814,3.046948,9.278832,-0.003694,0.013038,0.007003,-0.866455,0.210693,-0.035889,-0.339859,3.855693,9.059436,0.007748,0.007993,-0.002113,0.297119,0.49585,0.732666,-0.133121,3.726054,9.127226,-0.009735,0.008356,0.009742,0.451904,-0.239014,-0.352783,-0.926467,3.001435,9.297226,0.017046,0.003275,-0.005603,0.356445,-0.135254,-0.634033
0.023628,-1.079614,9.789698,0.001443,0.000324,-0.000486,-0.152588,0.445557,-0.549072,-0.248827,3.102304,9.323113,0.001493,-0.000731,0.001526,-0.864258,0.215332,-0.035156,-0.39543,3.875002,9.062511,-0.006664,0.009394,0.000301,0.299805,0.503418,0.736084,-0.132439,3.688888,9.120613,-0.015404,0.001559,0.010063,0.453369,-0.24585,-0.346191,-0.914818,3.013319,9.302971,-0.006372,-0.005337,0.000933,0.359619,-0.126465,-0.632812
0.074873,-1.090305,9.784168,-0.004346,5.2e-05,-0.000995,-0.159424,0.446045,-0.555908,-0.237574,3.083904,9.323742,-0.028597,0.011445,0.00689,-0.869873,0.216064,-0.043457,-0.361046,3.845514,9.035071,-0.010514,-0.003829,0.005052,0.301758,0.49292,0.73999,-0.106199,3.680929,9.13504,-0.009705,0.000157,0.007842,0.451416,-0.237061,-0.348389,-0.922774,2.957008,9.273364,-0.01259,0.002586,-0.00477,0.359619,-0.132812,-0.629395
0.058809,-1.083581,9.783411,0.003027,0.005288,-0.000646,-0.165771,0.434082,-0.55249,-0.269427,3.032249,9.280844,-0.003819,0.006523,0.003892,-0.877686,0.20459,-0.039551,-0.368547,3.847496,9.047258,-0.008178,0.012151,-0.000672,0.29834,0.504639,0.736084,-0.111101,3.695418,9.129563,0.004586,0.0044,0.009916,0.453613,-0.249268,-0.344971,-0.912838,2.95834,9.283379,0.00837,-0.007623,-0.000508,0.357666,-0.126465,-0.62793
0.052719,-1.054443,9.781049,0.00099,-0.001505,-0.000672,-0.161377,0.4375,-0.546875,-0.23038,3.114022,9.298781,0.005839,0.005443,0.003428,-0.873535,0.211914,-0.034912,-0.380907,3.83371,9.071124,0.005237,0.003851,0.000359,0.302246,0.491455,0.738525,-0.142657,3.703324,9.128475,-0.003658,0.004751,0.009867,0.451172,-0.244385,-0.355957,-0.894481,3.00004,9.287289,-0.000843,-0.00026,-0.006162,0.36084,-0.135742,-0.626953
0.069852,-1.082214,9.804347,0.00014,0.003205,-0.000488,-0.156006,0.442139,-0.545166,-0.253785,3.094231,9.312051,-0.023563,0.011171,0.007031,-0.866455,0.210693,-0.03125,-0.373238,3.862055,9.074322,-0.000966,0.003493,0.001467,0.299561,0.496338,0.728516,-0.132276,3.69581,9.135122,-0.003468,0.00161,0.008321,0.448242,-0.239014,-0.350098,-0.911145,2.964416,9.270328,0.003685,0.006109,-0.002915,0.357422,-0.131348,-0.63916
0.051955,-1.054027,9.781098,0.002121,0.001631,-0.001019,-0.166504,0.445068,-0.553711,-0.223686,3.040501,9.304941,-0.010307,0.001971,0.002818,-0.876465,0.216797,-0.040771,-0.374539,3.841756,9.039397,-0.005671,0.007687,0.00198,0.296143,0.500488,0.73584,-0.126141,3.715738,9.118131,-0.003939,0.002768,0.011683,0.448486,-0.235107,-0.34082,-0.931022,2.991986,9.32235,0.007447,-0.001064,-0.001398,0.356445,-0.128174,-0.633789
0.065408,-1.076619,9.796971,-0.002451,0.002204,-0.001294,-0.160156,0.44751,-0.549072,-0.244544,3.086114,9.306869,0.000163,0.011223,0.004898,-0.868896,0.219482,-0.034424,-0.370962,3.851388,9.055561,-0.000545,0.002742,0.00024,0.29541,0.503174,0.743408,-0.139459,3.697302,9.139385,-0.017232,0.002093,0.00973,0.452881,-0.240967,-0.341309,-0.932302,3.022338,9.28859,-0.00019,-0.002708,-0.006986,0.353271,-0.124512,-0.62207
0.072326,-1.090902,9.770484,0.000992,0.001366,0.000954,-0.151367,0.444824,-0.545898,-0.257072,3.088024,9.300413,-0.015297,0.002357,0.005193,-0.862793,0.215332,-0.033447,-0.365409,3.859386,9.048166,-0.011174,0.006523,0.003196,0.302246,0.501709,0.743408,-0.118827,3.661574,9.117988,-0.004083,-0.001562,0.010095,0.44751,-0.23877,-0.349365,-0.910824,2.972743,9.288127,-0.009595,-0.006898,0.002505,0.358398,-0.125977,-0.621094
0.06322,-1.092171,9.812117,0.001443,0.000324,-0.000485,-0.163086,0.441162,-0.547607,-0.232611,3.042604,9.29327,-0.012783,0.006825,0.004525,-0.872803,0.2146,-0.035645,-0.372173,3.835291,9.053244,-0.001391,0.000766,1.4e-05,0.294678,0.502441,0.732666,-0.132686,3.692133,9.128181,0.002593,0.008791,0.009904,0.44873,-0.243408,-0.348877,-0.9027,2.949354,9.266066,-0.00238,0.001081,-0.004693,0.354492,-0.128174,-0.633545
0.060759,-1.070214,9.789684,0.006156,0.00439,0.000115,-0.162109,0.446533,-0.547852,-0.269839,3.074246,9.301478,-0.004347,0.007198,0.00477,-0.870361,0.217041,-0.034912,-0.371536,3.853314,9.064776,-0.003148,0.010983,-0.000254,0.297363,0.498535,0.739014,-0.141221,3.69724,9.130963,0.000778,0.002991,0.008448,0.439453,-0.237549,-0.344727,-0.939232,2.974475,9.27682,0.014472,-0.001235,-0.005198,0.355469,-0.130371,-0.631592
0.053437,-1.059385,9.774878,-0.005181,-0.000566,-0.0008,-0.157227,0.434082,-0.543701,-0.24297,3.081771,9.303128,-0.01308,0.002457,0.003179,-0.868408,0.206543,-0.032227,-0.384583,3.847016,9.060131,0.002662,0.003936,0.001667,0.287354,0.502441,0.739258,-0.135415,3.704799,9.131909,-0.007686,-0.001298,0.011283,0.452881,-0.244141,-0.34375,-0.916298,3.00111,9.297575,-0.001382,0.001496,0.000113,0.346191,-0.128418,-0.625244
0.065886,-1.100338,9.778312,0.001357,0.002614,-0.001067,-0.164795,0.447021,-0.546387,-0.2661,3.074783,9.28257,-0.010109,0.012237,0.007573,-0.873291,0.218994,-0.034668,-0.355807,3.855535,9.057938,-0.001949,0.004353,2.1e-05,0.299072,0.495117,0.740479,-0.124256,3.684471,9.126427,-0.015635,0.008101,0.009313,0.455078,-0.245117,-0.351807,-0.930357,2.984857,9.304265,-0.002226,0.000213,-0.006729,0.362305,-0.134521,-0.627441
0.049355,-1.054934,9.753733,0.00433,0.002406,-0.000643,-0.15625,0.446045,-0.544434,-0.26317,3.08762,9.31166,-0.008841,0.001149,0.001818,-0.865234,0.217529,-0.034424,-0.386876,3.845458,9.060695,-0.012692,0.009279,0.002219,0.303955,0.496094,0.729736,-0.132263,3.687052,9.13024,-0.003168,-0.000531,0.01004,0.441406,-0.248535,-0.345215,-0.916019,2.996365,9.288907,-0.001571,-0.007677,0.002833,0.36377,-0.134521,-0.636963
0.061238,-1.090831,9.812279,-0.003895,-0.00099,-0.002436,-0.151855,0.446777,-0.542725,-0.217051,3.060561,9.291722,-0.014013,0.00926,0.005381,-0.863037,0.218262,-0.031982,-0.355832,3.838164,9.03188,0.000715,-0.001651,0.000341,0.289795,0.493652,0.741211,-0.110986,3.696272,9.138105,-0.002667,0.001249,0.010103,0.450195,-0.239258,-0.354492,-0.90045,2.966912,9.280044,-0.00288,0.002149,-0.006245,0.348633,-0.13501,-0.630127
0.069424,-1.086725,9.798242,0.006156,0.00439,0.000116,-0.159912,0.441406,-0.550049,-0.276227,3.074839,9.298767,-0.005023,0.007991,0.004606,-0.870117,0.212891,-0.038086,-0.365564,3.843001,9.067082,-0.002799,0.012318,0.001143,0.294189,0.503418,0.72998,-0.14985,3.69734,9.127359,-0.002381,0.007694,0.008631,0.444824,-0.240967,-0.34082,-0.91578,2.992653,9.279903,0.008753,-0.001869,-0.000325,0.355469,-0.127686,-0.63916
0.060032,-1.054095,9.760977,0.001217,0.000845,0.000235,-0.164795,0.44165,-0.544922,-0.238714,3.090709,9.31474,-0.008934,0.000402,0.003148,-0.872559,0.212158,-0.033447,-0.395309,3.846694,9.048809,0.000423,0.002726,0.001455,0.290771,0.501221,0.743896,-0.137529,3.711009,9.138272,-0.005612,0.001291,0.011819,0.44458,-0.23877,-0.352783,-0.908585,2.982754,9.284084,-0.001576,0.003385,-0.00381,0.352051,-0.12793,-0.624023
0.06854,-1.087303,9.784548,-0.00405,0.002569,-0.001148,-0.158936,0.44165,-0.543945,-0.255162,3.0634,9.300488,-0.018308,0.013477,0.007187,-0.866699,0.212646,-0.029053,-0.354843,3.860972,9.051467,-0.004006,0.003388,0.000621,0.293213,0.503906,0.733398,-0.119837,3.689046,9.120143,-0.008877,-0.00133,0.007607,0.454346,-0.241699,-0.355469,-0.939969,2.987102,9.303352,0.002801,-0.000614,-0.006013,0.353271,-0.123291,-0.634521
0.056131,-1.086122,9.791169,0.001217,0.000845,0.000235,-0.158936,0.443359,-0.552734,-0.26221,3.06934,9.287635,-0.001969,0.000537,0.001722,-0.866943,0.214844,-0.042969,-0.388081,3.846017,9.046127,-0.008279,0.009462,0.002819,0.302734,0.499023,0.731445,-0.124328,3.679254,9.120112,-0.00443,0.003576,0.011182,0.448975,-0.244141,-0.346924,-0.918264,2.988969,9.29211,0.002383,-0.005676,0.001631,0.360596,-0.12915,-0.636719
0.06058,-1.07417,9.797271,0.002887,0.002082,-0.000157,-0.14917,0.447021,-0.54541,-0.23167,3.105912,9.29719,-0.004812,0.011616,0.00729,-0.858154,0.217041,-0.033936,-0.386276,3.836934,9.051003,0.00046,0.000189,0.002151,0.297363,0.498291,0.738037,-0.135255,3.695404,9.127305,-0.009562,0.004491,0.009437,0.453125,-0.236084,-0.354004,-0.927534,2.982678,9.273533,-0.007257,0.001549,-0.007104,0.355957,-0.128662,-0.630127
0.068531,-1.067542,9.810788,0.001443,0.000323,-0.000485,-0.155273,0.446045,-0.553955,-0.271319,3.071505,9.316754,-0.025336,0.00394,0.005035,-0.866211,0.218018,-0.041504,-0.366485,3.843127,9.052723,-0.010699,0.008007,0.001791,0.299316,0.505127,0.729736,-0.129016,3.692085,9.115346,0.003247,-0.000368,0.009759,0.453125,-0.247559,-0.348877,-0.902881,2.954898,9.274493,0.001154,-0.004026,0.000389,0.359863,-0.123535,-0.637695
0.068438,-1.069731,9.783274,-0.00078,0.003441,-0.001687,-0.159912,0.447021,-0.554443,-0.225478,3.056173,9.290636,-0.002049,0.005459,0.004992,-0.869873,0.217529,-0.041504,-0.388115,3.834957,9.051762,0.003181,0.002885,0.000966,0.301514,0.495605,0.735596,-0.130824,3.725245,9.153866,-0.000358,0.006226,0.012076,0.459229,-0.240967,-0.349365,-0.922283,2.967108,9.290615,0.007633,0.004536,-0.006501,0.359375,-0.134033,-0.632812
0.047354,-1.074034,9.776506,0.002958,0.003684,-0.000401,-0.156494,0.435791,-0.550537,-0.270353,3.121124,9.299565,0.00018,0.011226,0.00492,-0.868408,0.206299,-0.037598,-0.372039,3.877658,9.055116,0.000262,0.007253,-0.000226,0.307617,0.499268,0.735596,-0.149837,3.691842,9.121177,-0.015116,0.001697,0.007467,0.450195,-0.239746,-0.342041,-0.936074,3.013575,9.313571,0.00403,-0.001753,-0.004431,0.36499,-0.129883,-0.632324
0.074001,-1.079032,9.811902,-0.002974,-0.001227,-0.001238,-0.15625,0.440674,-0.546143,-0.23512,3.084632,9.292873,-0.025049,-0.001966,0.005177,-0.864258,0.210205,-0.033203,-0.402214,3.841424,9.050744,-0.00978,0.004909,0.003408,0.300049,0.504395,0.741943,-0.122011,3.685812,9.104594,-0.005117,-0.001394,0.011543,0.451172,-0.241699,-0.347412,-0.910829,2.978322,9.296557,-0.010091,-0.004302,0.001976,0.358887,-0.125244,-0.625244
0.073787,-1.081435,9.784366,0.001881,0.006043,-0.001124,-0.160889,0.443604,-0.550781,-0.250818,3.044552,9.285105,-0.00711,0.014331,0.007233,-0.869629,0.215088,-0.037354,-0.358662,3.833091,9.054995,-0.002687,0.001231,0.000548,0.299072,0.500977,0.735596,-0.115718,3.689188,9.145867,-0.006553,0.006246,0.009136,0.452393,-0.245117,-0.356201,-0.93014,2.966052,9.259224,0.002604,0.004341,-0.007896,0.356934,-0.127686,-0.629395
0.027,-1.061148,9.768408,0.004572,-0.000573,0.000278,-0.159912,0.438965,-0.542236,-0.262218,3.11054,9.308795,0.003928,0.002007,0.002052,-0.869873,0.208984,-0.02832,-0.381136,3.851478,9.060949,-0.006504,0.010481,0.000884,0.295898,0.49707,0.730225,-0.130169,3.699485,9.121252,0.000396,0.000332,0.010873,0.447754,-0.239014,-0.347656,-0.918254,2.985206,9.283099,0.005803,-0.009069,0.001942,0.354004,-0.131104,-0.638672
0.079878,-1.090435,9.813025,-0.006398,2.4e-05,-0.000224,-0.158691,0.438721,-0.538818,-0.206049,3.103386,9.310659,-0.023368,0.005446,0.006129,-0.867188,0.212158,-0.028809,-0.372766,3.838577,9.054397,0.000968,-1.6e-05,0.001215,0.295654,0.502686,0.739502,-0.12543,3.694775,9.140042,-0.005407,0.005207,0.010173,0.45459,-0.246582,-0.353271,-0.898843,2.981538,9.284678,-0.004843,0.004889,-0.006837,0.352051,-0.125,-0.628418
0.059036,-1.0961,9.792466,0.00675,0.006551,-0.00181,-0.156982,0.446533,-0.54541,-0.289937,3.059888,9.300973,-0.006942,0.012189,0.005456,-0.868652,0.217041,-0.032227,-0.367941,3.860844,9.050066,-0.004727,0.011503,-0.001051,0.302002,0.493408,0.732666,-0.145461,3.696539,9.114868,-0.002975,0.005248,0.00918,0.453125,-0.237793,-0.349121,-0.940438,2.980156,9.285095,0.005714,0.003703,-0.002834,0.361328,-0.134521,-0.633301
0.042371,-1.050382,9.767896,0.001599,-0.000365,-0.000147,-0.15918,0.444336,-0.544189,-0.236368,3.102619,9.290747,0.000604,-0.002511,0.001347,-0.870117,0.216309,-0.031982,-0.407849,3.837359,9.052216,-0.000681,0.002588,0.003038,0.298584,0.508545,0.734375,-0.141801,3.71286,9.159784,-0.009099,-0.00338,0.010046,0.446777,-0.241211,-0.351074,-0.919343,2.994062,9.300587,0.005684,-0.004803,-0.001128,0.358398,-0.123047,-0.631348
0.066456,-1.089648,9.805969,-0.007093,0.001174,-0.00133,-0.157227,0.438965,-0.54248,-0.242562,3.082993,9.304537,-0.024615,0.015492,0.00923,-0.866943,0.210938,-0.028564,-0.344291,3.863785,9.064362,-0.005641,0.001673,-1e-05,0.290283,0.500244,0.733887,-0.104498,3.679959,9.114563,-0.013571,0.003646,0.009962,0.445801,-0.234863,-0.34668,-0.909214,2.996171,9.310373,-0.003111,-0.002939,-0.007443,0.351807,-0.128662,-0.631104
0.054089,-1.090706,9.785064,0.004558,0.004754,0.000265,-0.161377,0.452637,-0.546387,-0.258728,3.043307,9.296567,-0.004325,0.000569,0.002688,-0.871338,0.221191,-0.034912,-0.402897,3.830903,9.041839,-0.009535,0.013006,0.002951,0.293701,0.505371,0.741699,-0.133881,3.684875,9.123176,0.004822,0.006753,0.011371,0.456787,-0.239502,-0.345947,-0.912661,2.962399,9.282101,-0.00579,-0.003015,0.004022,0.354004,-0.123291,-0.626709
0.05015,-1.085657,9.763982,0.002278,0.000942,-0.00068,-0.160156,0.4375,-0.54126,-0.224178,3.108152,9.314467,0.002304,0.010567,0.004254,-0.871094,0.209473,-0.027832,-0.376736,3.853363,9.067139,0.006827,-0.000992,-0.001279,0.304688,0.504639,0.735107,-0.131463,3.706081,9.127493,-0.005898,-0.000304,0.008535,0.452148,-0.245605,-0.356445,-0.930072,2.966899,9.258959,0.002024,0.004055,-0.009622,0.365479,-0.128418,-0.628174
0.077892,-1.072323,9.811825,0.000836,0.002053,0.000617,-0.153564,0.442383,-0.542969,-0.275167,3.091792,9.292693,-0.026125,0.005953,0.006484,-0.864746,0.214355,-0.032471,-0.368714,3.847932,9.032148,-0.010513,0.007404,0.002832,0.299072,0.496582,0.730957,-0.117519,3.709081,9.12543,0.000761,0.000377,0.008901,0.445312,-0.239258,-0.349609,-0.9112,2.983554,9.305062,0.012095,-0.005077,0.000833,0.36084,-0.13501,-0.636719
0.053605,-1.071587,9.797595,-0.001162,0.003214,-0.002118,-0.159912,0.448242,-0.552002,-0.228459,3.051353,9.279484,-0.006373,0.004975,0.005012,-0.870117,0.215576,-0.041016,-0.381434,3.840583,9.027926,0.000467,0.005805,0.001055,0.293213,0.502441,0.737793,-0.141821,3.721645,9.134966,-0.015247,0.010373,0.012015,0.451416,-0.237305,-0.343262,-0.926336,3.002667,9.286614,0.001642,0.003923,-0.006063,0.353027,-0.130615,-0.629395
0.056552,-1.078956,9.77752,0.003271,0.003742,0.001087,-0.157715,0.433838,-0.542969,-0.284819,3.106574,9.315354,0.005576,0.012396,0.005998,-0.870361,0.207764,-0.031494,-0.385252,3.854212,9.055422,-0.006761,0.008846,1e-05,0.299316,0.503418,0.739746,-0.140396,3.673597,9.115298,-0.009904,-0.003017,0.008265,0.450684,-0.239746,-0.344238,-0.911226,2.987559,9.313993,-0.012198,-0.006317,-0.000319,0.359131,-0.125732,-0.626221
0.060875,-1.067616,9.783555,-0.004206,0.000385,-0.003113,-0.162842,0.436768,-0.542236,-0.239275,3.091088,9.302931,-0.028445,-0.003636,0.002371,-0.874023,0.208252,-0.029297,-0.400029,3.854814,9.046796,-0.00574,-0.001017,0.003478,0.298096,0.500488,0.739502,-0.113314,3.691472,9.123688,0.008472,-0.002516,0.010119,0.44751,-0.242676,-0.348877,-0.914418,2.945902,9.267837,-0.000228,2.3e-05,0.002203,0.360352,-0.128662,-0.625488
0.077876,-1.096747,9.793109,0.003341,0.003909,3.1e-05,-0.161865,0.440186,-0.549561,-0.243133,3.048293,9.274607,-0.007126,0.016278,0.007552,-0.870117,0.21167,-0.036621,-0.35233,3.851475,9.034908,0.000686,0.006503,-0.001449,0.293457,0.500244,0.738525,-0.140586,3.718868,9.136116,-0.007101,0.013459,0.009147,0.455322,-0.238281,-0.34375,-0.937556,2.983575,9.26279,0.017642,0.000851,-0.013074,0.349854,-0.131592,-0.62915
0.047625,-1.066284,9.776548,0.005253,0.003603,0.001372,-0.153809,0.439697,-0.541992,-0.276799,3.096295,9.310888,0.00259,0.002622,0.001574,-0.867432,0.209229,-0.030273,-0.392608,3.847533,9.072196,-0.005459,0.011007,0.002392,0.300537,0.504883,0.739258,-0.161141,3.696166,9.116382,-0.011399,0.000572,0.008763,0.450439,-0.243896,-0.354248,-0.904547,3.016335,9.302244,-0.000986,-0.006369,0.005241,0.361084,-0.127686,-0.625488
0.065911,-1.076462,9.812242,-0.007164,-0.001863,-0.0019,-0.154541,0.441162,-0.544434,-0.214343,3.082166,9.298804,-0.021366,0.006,0.007071,-0.864746,0.2146,-0.034668,-0.38048,3.846027,9.021474,-0.000736,-0.003121,0.000523,0.299805,0.500244,0.732178,-0.113384,3.688229,9.124998,-0.000598,-0.002506,0.009516,0.456299,-0.243164,-0.355713,-0.918971,2.940937,9.301753,-0.019359,0.009172,-0.006234,0.358154,-0.130859,-0.63501
0.069183,-1.084279,9.792118,0.005621,0.006285,0.000164,-0.158447,0.44458,-0.543457,-0.27689,3.068241,9.283936,-0.008461,0.010263,0.004968,-0.868652,0.217529,-0.031982,-0.365246,3.8619,9.042329,-0.00495,0.010803,0.001456,0.303711,0.500244,0.731934,-0.120914,3.715346,9.123396,-0.008572,0.007323,0.010809,0.453857,-0.242188,-0.349609,-0.940538,2.982236,9.284417,0.024372,-0.004041,-0.003097,0.364502,-0.129883,-0.637939
0.042769,-1.061013,9.769128,-0.002817,-0.00048,-8.9e-05,-0.165283,0.44043,-0.543213,-0.240554,3.094565,9.321503,-0.007423,-0.002342,0.001835,-0.876709,0.209961,-0.025391,-0.405743,3.850691,9.048297,-0.01026,0.005564,0.001019,0.300781,0.498291,0.733887,-0.144577,3.693455,9.125072,-0.007562,0.002689,0.009014,0.445801,-0.23999,-0.347168,-0.894457,3.015105,9.302875,-0.002213,-0.013405,-0.00178,0.361572,-0.131836,-0.631104
0.059558,-1.088479,9.806144,-0.003072,0.003518,-0.00346,-0.165039,0.435547,-0.552979,-0.256853,3.068013,9.30685,-0.014439,0.014697,0.008064,-0.873535,0.206055,-0.038086,-0.358005,3.847119,9.036541,0.003134,-0.000199,0.001374,0.294189,0.503662,0.737793,-0.118975,3.686327,9.139073,-0.007537,0.00342,0.007785,0.448486,-0.240479,-0.348877,-0.89864,2.972466,9.256951,-0.017979,0.013805,-0.002266,0.353516,-0.128418,-0.62915
0.040149,-1.076492,9.784288,0.010434,0.002735,0.001364,-0.157715,0.439453,-0.550537,-0.276661,3.101558,9.301766,-0.00061,-0.001049,0.002054,-0.867432,0.212402,-0.037842,-0.393427,3.847555,9.057901,-0.006112,0.011421,-0.000805,0.294922,0.503174,0.736328,-0.136104,3.710797,9.117678,0.010548,0.001919,0.011453,0.452148,-0.239502,-0.3479,-0.94071,2.943099,9.321916,0.010941,-0.003602,-0.001258,0.353271,-0.128418,-0.630127
0.068365,-1.066101,9.790911,-0.003511,0.00067,-0.001195,-0.156006,0.44165,-0.542725,-0.216364,3.109902,9.318459,-0.017671,0.009887,0.003344,-0.866211,0.216553,-0.031982,-0.38063,3.852401,9.038901,0.002106,-0.005409,0.004341,0.299072,0.500732,0.73877,-0.126835,3.725474,9.149947,-0.013157,0.002908,0.009846,0.44751,-0.24292,-0.348633,-0.926545,3.007964,9.295108,0.01703,-0.000275,-0.007992,0.361816,-0.128418,-0.628662
0.054695,-1.083424,9.785065,-0.003892,0.003313,-1e-06,-0.162354,0.444336,-0.546143,-0.288117,3.051619,9.29425,-0.015913,0.009864,0.007109,-0.873047,0.21582,-0.03418,-0.380909,3.857445,9.071124,-0.011329,0.012346,-0.002046,0.29248,0.497314,0.736084,-0.123753,3.678679,9.099577,-0.015218,0.001057,0.008075,0.451904,-0.239258,-0.351074,-0.932011,3.02853,9.286602,-0.006636,-0.003792,-0.002477,0.352295,-0.130859,-0.629883
0.054283,-1.083891,9.785016,7.1e-05,0.000167,-0.001057,-0.15918,0.439697,-0.547119,-0.222647,3.091316,9.277579,0.010156,-0.000754,0.001357,-0.868164,0.209717,-0.030762,-0.41933,3.845534,9.053142,-0.00179,0.002448,0.004619,0.297852,0.503906,0.737793,-0.127857,3.68823,9.134772,-0.001276,0.005171,0.01215,0.461914,-0.239258,-0.348389,-0.893592,2.961113,9.282888,-0.017379,-0.001569,0.003045,0.358643,-0.128174,-0.630615
0.056901,-1.086102,9.820058,0.006923,0.003405,0.00017,-0.158691,0.44043,-0.549561,-0.266467,3.130408,9.313313,-0.017568,0.013727,0.007518,-0.868652,0.211914,-0.037109,-0.364833,3.870855,9.068774,-0.004263,0.001753,-0.000257,0.307373,0.500977,0.735596,-0.137204,3.707424,9.110647,-0.000631,0.00275,0.008013,0.451416,-0.245361,-0.35083,-0.936129,2.942312,9.269418,0.009387,0.001648,-0.011196,0.366455,-0.127686,-0.62915
0.056071,-1.049558,9.768716,0.001359,0.002612,-0.001066,-0.156982,0.439453,-0.548584,-0.251483,3.051327,9.290848,-0.02737,-0.002913,0.003417,-0.866211,0.212891,-0.036621,-0.397995,3.836513,9.028018,-0.008033,0.010243,0.003925,0.297119,0.494385,0.731689,-0.110984,3.725387,9.119003,0.000729,-0.000367,0.010136,0.44873,-0.240723,-0.347412,-0.897639,2.998923,9.288377,0.017351,-0.003359,0.001043,0.359375,-0.137695,-0.632324
0.049258,-1.076944,9.777781,-0.003596,0.001524,-0.00259,-0.162842,0.447754,-0.540039,-0.235456,3.05025,9.291975,0.010423,0.013159,0.005295,-0.87207,0.216797,-0.026611,-0.383586,3.866436,9.052034,0.008535,0.002112,-0.000578,0.295654,0.503906,0.736084,-0.14017,3.705935,9.13299,-0.018846,0.006599,0.007759,0.449951,-0.244385,-0.352539,-0.932234,3.020947,9.268576,-0.009879,0.00417,-0.008571,0.354004,-0.12915,-0.628906
0.064044,-1.082555,9.792344,0.004573,0.002297,0.001906,-0.162598,0.443359,-0.539307,-0.297742,3.139622,9.287854,-0.006959,0.001915,0.004238,-0.871826,0.216309,-0.027832,-0.391068,3.856851,9.059951,-0.01095,0.008149,0.004055,0.294434,0.49707,0.729492,-0.132019,3.698955,9.130934,-0.000922,-0.001103,0.009034,0.454102,-0.242676,-0.353516,-0.915918,2.956361,9.284779,-0.010237,-0.002423,0.004695,0.356689,-0.135254,-0.635498
0.073375,-1.060555,9.790702,-0.002675,0.001288,-0.001391,-0.158691,0.44873,-0.55127,-0.205155,3.071323,9.309219,-0.029479,0.005374,0.006355,-0.868408,0.217773,-0.037842,-0.384689,3.837613,9.04594,-0.005452,0.001071,0.00103,0.298584,0.500732,0.728516,-0.12594,3.706883,9.131768,-0.002294,0.001612,0.012018,0.444824,-0.236572,-0.337402,-0.946467,2.957087,9.295072,0.012653,0.000147,-0.00817,0.358643,-0.12915,-0.634766
0.051204,-1.080529,9.799039,0.00487,0.001942,0.00013,-0.161377,0.44458,-0.546143,-0.289298,3.040879,9.279,-0.003248,0.01349,0.005311,-0.871582,0.218018,-0.033447,-0.374394,3.842663,9.051069,-0.004875,0.008721,-0.001167,0.292725,0.503906,0.746582,-0.130111,3.709893,9.113718,-0.008949,0.005076,0.008126,0.450928,-0.231445,-0.348633,-0.893767,3.01712,9.280801,0.004957,-0.007794,-0.003197,0.351562,-0.127441,-0.62085
0.044073,-1.069425,9.784242,-0.001529,0.000531,-0.000911,-0.156738,0.443115,-0.548096,-0.244117,3.113382,9.311886,0.001662,-0.002808,0.002264,-0.866943,0.214844,-0.034668,-0.402912,3.83904,9.061096,0.00166,0.002646,0.004015,0.298828,0.511719,0.73584,-0.127857,3.706428,9.123542,-0.003021,0.001907,0.010864,0.450928,-0.239502,-0.352539,-0.922809,2.971658,9.289109,-0.016047,0.007149,0.003092,0.357178,-0.119385,-0.629395
0.064993,-1.10634,9.773699,-0.000622,0.00275,-0.001351,-0.161865,0.439941,-0.546387,-0.232779,3.083576,9.318375,-0.020614,0.016513,0.008627,-0.873535,0.215332,-0.035156,-0.367585,3.870143,9.054754,-0.001694,0.002515,-0.001787,0.293457,0.504639,0.73291,-0.14374,3.714743,9.129956,-0.00778,0.004764,0.007933,0.451904,-0.244873,-0.350098,-0.937627,2.947452,9.277841,0.009384,0.001139,-0.011536,0.355957,-0.125,-0.634277
0.047831,-1.058827,9.776563,0.005098,0.00429,0.001036,-0.158203,0.445312,-0.549561,-0.283369,3.053745,9.303077,-0.015485,0.000759,0.002768,-0.86792,0.218994,-0.03418,-0.398416,3.846571,9.053931,-0.014374,0.011875,0.004029,0.298828,0.496338,0.736328,-0.137693,3.7111,9.118132,-0.00144,0.000844,0.01055,0.445068,-0.246094,-0.342285,-0.923055,3.030542,9.296304,0.013028,-0.009067,0.003426,0.359131,-0.129395,-0.629883
0.061415,-1.081478,9.792479,-0.006102,-0.001766,-0.002818,-0.160645,0.439209,-0.544678,-0.218105,3.091573,9.300758,0.000436,0.007238,0.005399,-0.87085,0.210205,-0.032227,-0.390275,3.840483,9.019263,0.004123,-0.004533,0.000135,0.289795,0.495117,0.740479,-0.127481,3.713866,9.137889,-0.009483,0.000704,0.008498,0.448242,-0.24707,-0.349609,-0.919457,2.994521,9.290205,-0.014108,0.007293,-0.008403,0.351562,-0.13501,-0.625
0.063287,-1.105032,9.78749,0.003951,0.005046,0.000556,-0.163086,0.450684,-0.547119,-0.294216,3.106462,9.306644,-0.008842,0.010746,0.004377,-0.875,0.22168,-0.034668,-0.372278,3.867968,9.079786,-0.005468,0.011003,0.002396,0.296143,0.498047,0.732422,-0.133327,3.683592,9.103018,-0.011895,0.005127,0.009846,0.447266,-0.236328,-0.344727,-0.941175,2.976728,9.265681,0.003195,-0.003876,0.002174,0.356934,-0.134033,-0.632812
0.057012,-1.076924,9.771341,0.001062,0.001531,-0.000102,-0.159668,0.444092,-0.540283,-0.230819,3.079588,9.28754,-0.019469,-0.003913,0.001716,-0.869873,0.219727,-0.024902,-0.396454,3.834252,9.035867,-0.011432,0.00319,0.002761,0.291992,0.504395,0.738281,-0.138117,3.698309,9.09758,0.007727,0.001469,0.010555,0.45166,-0.242188,-0.357178,-0.903889,2.968106,9.290606,-0.002989,-0.005675,-0.003349,0.355225,-0.125244,-0.62915
0.051019,-1.085006,9.806577,-0.001528,0.0034,0.000714,-0.155518,0.443359,-0.552979,-0.248899,3.062516,9.308052,-0.008017,0.017439,0.007862,-0.863281,0.217773,-0.040771,-0.364613,3.853194,9.074009,0.005954,0.002195,0.000726,0.297119,0.498047,0.727783,-0.142054,3.709642,9.132056,-0.008219,0.002918,0.008492,0.448975,-0.24585,-0.342285,-0.933515,2.97049,9.278962,0.009677,0.010134,-0.008469,0.35791,-0.13208,-0.641602
0.055493,-1.074238,9.798914,0.005253,0.000733,-0.00025,-0.157959,0.444336,-0.54834,-0.268964,3.09702,9.302761,0.000701,-0.000711,0.002689,-0.867676,0.216309,-0.033936,-0.385213,3.858302,9.052207,-0.006308,0.012023,-0.001846,0.291992,0.494385,0.741699,-0.132824,3.715972,9.111825,-0.004673,0.001173,0.009764,0.455322,-0.244141,-0.355957,-0.916139,3.020468,9.300522,0.003401,-0.010872,0.0027,0.353271,-0.137207,-0.627441
0.075644,-1.070545,9.792023,-0.003213,0.001749,-0.00216,-0.162598,0.442871,-0.548828,-0.213777,3.114486,9.292308,-0.018112,0.009725,0.006592,-0.873047,0.214844,-0.036133,-0.386249,3.870992,9.055931,0.000198,-0.004443,0.005285,0.302246,0.499268,0.729492,-0.145203,3.706232,9.155162,-0.017048,0.00534,0.009329,0.452148,-0.239014,-0.34668,-0.916169,2.965936,9.302124,-0.012224,0.006773,-0.005603,0.362061,-0.130371,-0.635986
0.049983,-1.085854,9.792854,-0.000155,0.002122,0.000475,-0.161377,0.438721,-0.538574,-0.308649,3.049484,9.301184,-0.015208,0.00805,0.004599,-0.872314,0.207764,-0.028076,-0.377471,3.856786,9.04996,-0.017468,0.012532,-0.000669,0.299072,0.50415,0.737305,-0.134073,3.679763,9.096177,0.002403,-0.000782,0.009222,0.446533,-0.239746,-0.347412,-0.931289,2.978918,9.275419,0.006116,-0.008751,-0.000768,0.358398,-0.127441,-0.628906
0.070042,-1.082682,9.785907,-0.002066,0.000992,-0.00168,-0.155029,0.440186,-0.550049,-0.220311,3.080535,9.299277,0.00111,-0.001174,0.003293,-0.865234,0.209717,-0.038086,-0.403514,3.824488,9.029626,0.004969,6.3e-05,0.00329,0.292969,0.50293,0.738525,-0.1256,3.717128,9.153956,0.004466,0.001061,0.010998,0.444336,-0.245605,-0.339111,-0.901738,2.981916,9.295547,0.002414,0.00028,-0.001775,0.355469,-0.124756,-0.627441
0.06457,-1.092576,9.793672,0.00548,0.003081,0.000656,-0.166016,0.439941,-0.542725,-0.258911,3.124187,9.328571,-0.008679,0.018244,0.007703,-0.874756,0.209961,-0.029297,-0.354627,3.887221,9.070954,0.003282,0.005574,-0.002506,0.29126,0.495605,0.746338,-0.134579,3.701201,9.122201,-0.014514,0.007905,0.008527,0.457764,-0.24292,-0.347412,-0.950564,2.991648,9.291376,0.003617,0.004582,-0.01058,0.349609,-0.135498,-0.620117
0.043201,-1.057032,9.776778,0.004191,0.000636,0.000664,-0.15625,0.445068,-0.550537,-0.257236,3.073552,9.313376,-0.023373,-0.004826,0.002309,-0.865723,0.218018,-0.038818,-0.401585,3.848085,9.048996,-0.011748,0.011029,0.00657,0.30127,0.499268,0.739258,-0.142414,3.704111,9.125924,-0.002126,-0.001532,0.010461,0.45166,-0.239014,-0.349854,-0.909954,2.993782,9.290624,0.00237,-0.009068,0.006741,0.361572,-0.130371,-0.62915
0.065351,-1.075812,9.77866,-0.004812,0.002113,-0.002015,-0.156494,0.444092,-0.548096,-0.222581,3.061999,9.280436,-0.004674,0.01434,0.00633,-0.866699,0.217041,-0.036621,-0.372248,3.85522,9.047634,0.000408,-0.005519,-0.00037,0.298096,0.503174,0.734619,-0.126384,3.680744,9.13837,-0.009245,0.001228,0.00915,0.445068,-0.247803,-0.346924,-0.932809,2.983216,9.305607,-0.005059,0.005234,-0.01178,0.361328,-0.126953,-0.632568
0.044567,-1.080783,9.771775,0.001672,0.00267,0.000423,-0.162598,0.439209,-0.547363,-0.284182,3.112744,9.309344,-0.000682,0.002818,0.002669,-0.872314,0.210205,-0.034912,-0.375835,3.862469,9.043492,-0.009252,0.014243,0.000743,0.291504,0.496338,0.737061,-0.135185,3.699348,9.114572,0.001262,0.002125,0.008983,0.454102,-0.243896,-0.345459,-0.911522,2.984654,9.294458,0.006319,-0.009104,0.004176,0.351807,-0.134277,-0.62793
0.059555,-1.086684,9.786318,-0.003128,-0.000539,-0.001579,-0.163574,0.446045,-0.537598,-0.193556,3.095454,9.3051,-0.018418,0.005367,0.005214,-0.874512,0.216064,-0.023193,-0.400195,3.849442,9.034267,0.003729,0.00014,0.000736,0.30127,0.496826,0.739502,-0.138959,3.699156,9.136356,-0.007324,0.006937,0.011262,0.448242,-0.246826,-0.345215,-0.91055,2.981157,9.285457,-0.003999,0.001057,-0.003395,0.359863,-0.133301,-0.625244
0.055419,-1.079598,9.792723,0.007987,0.004934,7.2e-05,-0.15918,0.446289,-0.55127,-0.306726,3.067131,9.294356,-0.01083,0.014212,0.006572,-0.869385,0.220215,-0.037109,-0.361573,3.864929,9.060912,-0.003767,0.005018,0.001495,0.294189,0.497803,0.739746,-0.137982,3.710378,9.119054,-0.004646,4.2e-05,0.007744,0.448975,-0.242676,-0.346924,-0.930488,2.980572,9.274968,0.00075,0.003327,-0.005078,0.355957,-0.133789,-0.629883
0.058044,-1.047161,9.762566,0.001218,-0.000591,-0.000576,-0.155273,0.439209,-0.536621,-0.24638,3.088671,9.291239,-0.004355,-0.005094,0.000706,-0.86499,0.21167,-0.024902,-0.387244,3.833022,9.040401,-0.005483,0.005383,0.003486,0.29541,0.500244,0.737549,-0.124514,3.723804,9.13013,-0.003397,-2.1e-05,0.012055,0.456543,-0.240723,-0.346191,-0.920947,2.987308,9.293431,0.008452,-0.004714,0.000684,0.355225,-0.130859,-0.627686
0.07692,-1.096736,9.808429,-0.00702,0.002773,-0.001583,-0.158447,0.437988,-0.551514,-0.246582,3.074704,9.28446,-0.016892,0.016862,0.008321,-0.868408,0.209961,-0.038574,-0.368063,3.866406,9.049025,-0.000204,0.001449,-0.001275,0.302246,0.50415,0.737549,-0.142118,3.699207,9.11955,-0.014923,0.006798,0.007859,0.447998,-0.244873,-0.354492,-0.907005,3.003668,9.286678,-0.002818,-0.001615,-0.009471,0.365234,-0.127197,-0.628906
0.048876,-1.089819,9.800455,0.004334,0.003837,0.000176,-0.154053,0.44165,-0.548096,-0.294043,3.072908,9.304554,-0.004047,0.00025,0.00224,-0.867676,0.212646,-0.035889,-0.4086,3.855873,9.054544,-0.00916,0.01394,0.001265,0.294434,0.499512,0.732422,-0.133899,3.692643,9.117309,-0.000992,-0.000724,0.012292,0.449707,-0.243164,-0.347168,-0.920145,2.982769,9.284748,-0.008192,-0.002792,0.006142,0.354736,-0.134277,-0.634766
0.073894,-1.075505,9.785896,0.000227,-0.000521,-0.000719,-0.151367,0.439209,-0.543213,-0.216599,3.09532,9.302048,-0.010441,0.007107,0.005048,-0.864258,0.21167,-0.031494,-0.381919,3.858523,9.044922,0.003555,-0.006565,0.001238,0.29541,0.499512,0.737549,-0.126248,3.709415,9.140335,-0.000561,0.000801,0.007857,0.449219,-0.240234,-0.344482,-0.916793,2.946261,9.27878,0.002733,0.003986,-0.009594,0.356689,-0.131592,-0.630371
0.048927,-1.070836,9.812957,0.003642,0.006419,-0.000118,-0.163574,0.437744,-0.548584,-0.290583,3.072547,9.299672,-0.018751,0.010558,0.006429,-0.87207,0.206787,-0.036133,-0.366417,3.874438,9.065854,-0.008098,0.010999,8.4e-05,0.296143,0.503174,0.741455,-0.139175,3.728513,9.138063,-0.007392,0.007008,0.010641,0.455566,-0.245605,-0.344727,-0.92844,2.998494,9.288794,0.015314,-0.003491,-0.000745,0.355957,-0.128418,-0.626221
0.048597,-1.071882,9.799209,-0.002818,-0.001913,-0.000904,-0.159668,0.443359,-0.543945,-0.217829,3.065663,9.302552,-0.002454,-0.000717,0.002285,-0.869873,0.212158,-0.031738,-0.416239,3.843083,9.039483,-0.004664,0.006426,0.00034,0.301514,0.496582,0.744629,-0.149517,3.710666,9.13719,-0.00512,0.001183,0.01112,0.458252,-0.236816,-0.347656,-0.906953,3.004225,9.286503,-0.010132,-0.000746,-0.002276,0.359619,-0.134033,-0.623047
0.062057,-1.094629,9.815136,0.00098,0.005252,0.000129,-0.162354,0.448242,-0.540283,-0.254484,3.099422,9.296769,-0.004792,0.015527,0.007982,-0.873779,0.220947,-0.029297,-0.367014,3.885541,9.046014,0.005161,-0.003163,0.001417,0.305664,0.506348,0.736816,-0.132412,3.688346,9.11907,-0.011723,0.002004,0.00829,0.448975,-0.24707,-0.350098,-0.944525,2.957583,9.263396,-0.004208,0.00703,-0.0046,0.364014,-0.123779,-0.631104
0.055903,-1.066553,9.798968,0.003809,0.00041,0.000235,-0.159668,0.443848,-0.548096,-0.261134,3.091878,9.304167,-0.020366,-0.003699,0.001799,-0.867432,0.213623,-0.039795,-0.391947,3.845972,9.053946,-0.017013,0.011869,0.001707,0.295898,0.49585,0.73584,-0.127446,3.706461,9.133151,0.003053,0.002698,0.011346,0.44458,-0.237305,-0.344482,-0.902085,2.979815,9.285969,0.009615,-0.010779,-0.000285,0.356689,-0.13501,-0.630859
0.066433,-1.086334,9.779937,-0.00634,0.002643,-0.002929,-0.158203,0.432617,-0.544678,-0.213416,3.039891,9.283294,-0.011536,0.011364,0.007276,-0.867432,0.205566,-0.031494,-0.395161,3.839237,9.046586,0.002468,-0.001933,0.00196,0.292725,0.50415,0.73999,-0.148536,3.707301,9.138572,-0.007976,0.005304,0.009946,0.458984,-0.240967,-0.343262,-0.926569,3.000234,9.26692,0.000392,0.006592,-0.006628,0.35083,-0.125,-0.626953
0.041872,-1.084726,9.779384,0.003952,0.00361,-0.000254,-0.158203,0.443359,-0.544434,-0.307986,3.077091,9.303597,0.002408,0.006688,0.003703,-0.868896,0.215576,-0.029541,-0.376019,3.859811,9.051513,-0.00318,0.011821,-0.000462,0.305908,0.501465,0.739258,-0.13168,3.685538,9.120216,-0.003925,-0.00026,0.008902,0.454346,-0.245361,-0.35083,-0.94071,2.991486,9.291646,-0.003943,-0.003541,0.000186,0.367188,-0.129639,-0.626709
0.058134,-1.073176,9.792629,-0.000155,-0.000747,-0.00115,-0.169434,0.445801,-0.546631,-0.213821,3.113193,9.295428,-0.011615,-0.000963,0.003157,-0.878662,0.214844,-0.033691,-0.404726,3.856093,9.061478,-0.000848,0.000646,0.002686,0.300293,0.497314,0.734619,-0.128544,3.706077,9.124929,-0.002543,0.002932,0.012178,0.44873,-0.241455,-0.35376,-0.915936,2.963997,9.292554,-0.001236,0.003179,-0.000223,0.360596,-0.133301,-0.631104
0.061406,-1.079695,9.786295,-8.3e-05,0.003721,0.00023,-0.156982,0.452393,-0.545166,-0.269429,3.053783,9.31229,-0.021672,0.015166,0.008894,-0.869385,0.222656,-0.031738,-0.357142,3.865625,9.053531,-0.008357,0.003749,0.00029,0.296631,0.503418,0.732178,-0.141614,3.701333,9.127706,-0.009356,0.003973,0.007467,0.450928,-0.250244,-0.341553,-0.931565,2.98649,9.283178,0.012643,-0.002395,-0.009872,0.355469,-0.128174,-0.635254
0.04525,-1.071758,9.799239,-0.000537,0.000461,-0.000769,-0.153564,0.439209,-0.546143,-0.253651,3.065304,9.293706,0.000304,-0.001224,0.001928,-0.865234,0.209717,-0.035645,-0.415638,3.832968,9.030497,-0.006686,0.01116,0.003457,0.294922,0.489502,0.743408,-0.138201,3.71038,9.119714,-0.002788,0.000549,0.010732,0.450195,-0.240967,-0.349121,-0.905683,3.010004,9.273491,-0.005998,-0.006577,0.003852,0.359619,-0.137695,-0.622314
0.055807,-1.091175,9.78025,0.00098,0.002384,-0.001496,-0.155518,0.440918,-0.540527,-0.229258,3.121845,9.298129,-0.00422,0.012923,0.006802,-0.865723,0.212402,-0.030273,-0.380283,3.870179,9.056115,0.008084,-0.003689,-0.001627,0.296387,0.502441,0.737305,-0.135388,3.70682,9.129559,-0.009591,0.001911,0.009903,0.444336,-0.242188,-0.342041,-0.935009,2.963903,9.281991,-0.009595,0.007531,-0.00924,0.357422,-0.130859,-0.628906
0.04016,-1.084603,9.765772,0.006018,0.001185,0.000615,-0.162842,0.439941,-0.540283,-0.290674,3.08502,9.281164,-0.021647,0.003603,0.003443,-0.872314,0.213135,-0.026855,-0.374734,3.879081,9.048469,-0.012002,0.012389,0.001682,0.29126,0.5,0.740967,-0.144486,3.702153,9.110616,0.002086,0.002471,0.009544,0.452393,-0.243896,-0.357666,-0.94279,2.978653,9.286401,0.013412,-0.008921,-0.000135,0.350098,-0.130127,-0.625244
0.071673,-1.078943,9.793576,-0.003665,0.001356,-0.001537,-0.159668,0.446533,-0.544434,-0.216159,3.040687,9.289291,-0.009577,0.004259,0.005944,-0.870361,0.219727,-0.030029,-0.393179,3.835409,9.045087,-0.000754,0.000344,0.003208,0.298828,0.501709,0.72583,-0.13958,3.72081,9.124488,-0.005844,0.003344,0.010765,0.453613,-0.249023,-0.347412,-0.917265,3.003476,9.276259,0.004616,0.002449,-0.007476,0.358154,-0.131836,-0.640869
0.035352,-1.076778,9.785888,0.002807,0.004366,-0.000735,-0.156738,0.443359,-0.540283,-0.305054,3.083195,9.302913,0.005582,0.0143,0.006416,-0.868408,0.216064,-0.02832,-0.378432,3.864912,9.069426,-0.001496,0.00753,-0.001825,0.300293,0.491699,0.737793,-0.128189,3.690141,9.105662,-0.012034,0.003425,0.007812,0.456787,-0.24292,-0.3479,-0.939129,2.997984,9.278433,-0.006413,0.001283,-0.001279,0.359375,-0.136963,-0.630127
0.067289,-1.073536,9.78616,-0.001445,-0.001757,-0.00033,-0.1604,0.446045,-0.548584,-0.24038,3.120274,9.314879,-0.017861,-0.003847,0.001866,-0.871582,0.216553,-0.036133,-0.403153,3.859214,9.03184,-0.004882,0.004876,0.003072,0.30249,0.496094,0.736084,-0.133125,3.715123,9.113506,0.002462,-0.000879,0.009856,0.455322,-0.245361,-0.349365,-0.925494,2.962546,9.282613,-0.007232,-0.004421,0.002949,0.364502,-0.133301,-0.630615
0.050227,-1.083895,9.786679,-0.001993,0.004025,-0.001113,-0.165771,0.439697,-0.540283,-0.23671,3.047049,9.270615,-0.018818,0.017375,0.007534,-0.876221,0.212158,-0.030762,-0.375648,3.854288,9.050694,-0.002264,0.000484,-0.000686,0.29834,0.496338,0.735596,-0.130674,3.711701,9.123287,-0.01351,0.005157,0.007528,0.447754,-0.242188,-0.352539,-0.931268,2.982676,9.274213,0.014038,0.002578,-0.013056,0.361572,-0.133301,-0.629639
0.042866,-1.07323,9.771819,0.001827,0.000549,-5.1e-05,-0.161865,0.442871,-0.545166,-0.290573,3.065465,9.28464,-0.00076,-0.000927,0.001003,-0.873535,0.21582,-0.035156,-0.407371,3.8576,9.056613,-0.012557,0.015127,0.001929,0.292725,0.5,0.731934,-0.148305,3.687857,9.112369,0.000883,0.000186,0.010174,0.444824,-0.254395,-0.345703,-0.917281,3.007457,9.285197,-0.001113,-0.009589,0.004562,0.354492,-0.131592,-0.635742
0.073081,-1.084863,9.800957,-0.003521,0.001687,-0.003651,-0.162354,0.438477,-0.541748,-0.215383,3.097827,9.33099,-0.003615,0.009429,0.007984,-0.870117,0.209961,-0.030273,-0.389763,3.846222,9.046626,0.010636,-0.005079,0.000629,0.289795,0.491943,0.738281,-0.144561,3.72803,9.152269,-0.005738,0.005867,0.010963,0.456055,-0.239746,-0.348877,-0.925369,2.959139,9.2735,-0.013172,0.010247,-0.008534,0.350098,-0.141602,-0.624023
0.048571,-1.083263,9.786758,0.010508,0.005767,0.001945,-0.154053,0.445557,-0.544922,-0.299257,3.08251,9.27967,-0.018573,0.009428,0.00479,-0.864258,0.219482,-0.033203,-0.372957,3.875133,9.047057,-0.010465,0.011783,-0.001125,0.302979,0.501709,0.735596,-0.145403,3.707471,9.11748,-0.004239,0.00115,0.008424,0.450928,-0.241211,-0.347412,-0.953108,2.977224,9.276373,0.014662,-0.005123,-0.002642,0.364746,-0.128906,-0.631836
0.03908,-1.04845,9.776935,-0.003654,-0.002531,-0.00071,-0.159424,0.444824,-0.542969,-0.221031,3.064557,9.310511,-0.015363,-0.004009,0.001943,-0.871338,0.216309,-0.030518,-0.410458,3.836209,9.02202,-0.00649,0.001473,0.002889,0.299316,0.502686,0.737549,-0.129863,3.718545,9.13791,-0.004304,-0.000322,0.010883,0.457031,-0.242676,-0.343262,-0.906158,3.01119,9.27306,0.004153,-0.002431,0.001019,0.359131,-0.128906,-0.627686
0.070348,-1.101183,9.802402,-0.006255,0.003222,-0.000724,-0.168213,0.441895,-0.552734,-0.255765,3.061892,9.296076,-0.002076,0.019872,0.008449,-0.877197,0.213135,-0.037842,-0.363575,3.878611,9.052893,-0.000672,0.004732,-0.000733,0.302734,0.496582,0.741211,-0.132458,3.69508,9.13436,-0.015535,0.007787,0.006114,0.455566,-0.241211,-0.355713,-0.939188,2.998742,9.278182,-0.005445,0.003051,-0.00958,0.36377,-0.130615,-0.625977
0.044075,-1.078353,9.779284,0.005791,0.001706,0.001336,-0.162842,0.443115,-0.541504,-0.288843,3.123043,9.312753,-0.000704,-0.004802,0.00037,-0.871582,0.214111,-0.029785,-0.422243,3.852616,9.061269,-0.008197,0.013069,0.002716,0.303955,0.505371,0.729248,-0.153066,3.68466,9.126979,0.006173,-0.000195,0.01195,0.450684,-0.243164,-0.343994,-0.906645,2.963475,9.292888,-0.007901,-0.004863,0.00922,0.364258,-0.128662,-0.639648
0.059032,-1.08305,9.793981,0.002508,0.000419,-0.001395,-0.161377,0.441895,-0.550537,-0.209024,3.096295,9.308129,-0.02473,0.012313,0.008018,-0.869873,0.213379,-0.037109,-0.379394,3.852463,9.037149,0.003464,-0.006263,0.000714,0.300293,0.501953,0.743164,-0.139225,3.722575,9.132832,-0.003997,0.001669,0.009077,0.451172,-0.243408,-0.346191,-0.947569,2.957906,9.28449,0.006531,0.00924,-0.014554,0.359375,-0.130127,-0.624756
0.063207,-1.071141,9.800082,0.001135,0.004564,0.000467,-0.165527,0.440918,-0.551514,-0.296817,3.026199,9.274495,-0.011714,0.00681,0.00441,-0.874756,0.211426,-0.038574,-0.385169,3.874053,9.06029,-0.011167,0.014359,0.001919,0.295166,0.498779,0.73877,-0.131708,3.720254,9.090413,-0.009383,0.005103,0.009501,0.450195,-0.243896,-0.342773,-0.936195,3.025244,9.288274,0.02121,-0.009642,0.00239,0.356934,-0.129883,-0.62793
0.050918,-1.07224,9.779138,-0.003737,0.001189,-0.000481,-0.1521,0.438721,-0.553467,-0.205941,3.096232,9.303222,0.007046,0.002921,0.002657,-0.861816,0.212646,-0.039307,-0.420739,3.841091,9.042853,0.001712,0.002254,0.000936,0.296631,0.498535,0.744629,-0.154663,3.694123,9.132153,-0.01162,0.001135,0.010778,0.452881,-0.244141,-0.348877,-0.915911,3.017936,9.280899,-0.020414,-0.000131,-0.002174,0.357422,-0.131836,-0.627197
0.064352,-1.094116,9.808812,-0.000465,0.000626,-0.001826,-0.157715,0.444824,-0.543457,-0.27634,3.116002,9.302393,-0.016268,0.01529,0.00731,-0.867432,0.216797,-0.030518,-0.378238,3.873812,9.057511,-0.004187,0.002297,2.8e-05,0.295898,0.498779,0.734863,-0.132512,3.714305,9.122906,-0.00438,0.001294,0.007173,0.444336,-0.23877,-0.349121,-0.939623,2.939483,9.271058,-0.008379,0.001972,-0.003229,0.356201,-0.130127,-0.633545
0.053305,-1.076487,9.800329,0.00418,0.004522,-0.000159,-0.158691,0.44043,-0.545654,-0.241583,3.052061,9.322088,-0.022698,-0.002625,0.002873,-0.868408,0.214355,-0.029785,-0.402061,3.846328,9.045152,-0.011473,0.010494,0.001203,0.291504,0.50293,0.73584,-0.150221,3.726452,9.11946,0.006556,0.003577,0.011572,0.447021,-0.240234,-0.348633,-0.912187,2.983898,9.284416,0.020852,-0.006887,0.000498,0.349854,-0.129639,-0.633057
0.053147,-1.078454,9.772848,-0.001455,0.000695,-0.00197,-0.161377,0.436523,-0.542236,-0.236265,3.068505,9.282753,0.001926,0.014978,0.00692,-0.871582,0.210449,-0.029297,-0.391684,3.851724,9.050216,0.004434,-0.000667,0.000853,0.294434,0.503174,0.735352,-0.145812,3.721268,9.138319,-0.013575,0.003693,0.00999,0.449951,-0.252441,-0.351562,-0.92775,3.018469,9.301815,-0.002966,0.00673,-0.009826,0.354736,-0.126221,-0.630615
0.04057,-1.074631,9.806975,0.001445,0.000322,-0.000482,-0.161621,0.445068,-0.538086,-0.285916,3.103547,9.324781,-0.00231,-0.000843,0.003322,-0.870605,0.215576,-0.029053,-0.384097,3.879583,9.053926,-0.003923,0.008698,5.8e-05,0.295898,0.491455,0.734131,-0.128535,3.698475,9.120341,-0.007064,-0.00266,0.0098,0.451416,-0.241699,-0.345703,-0.945636,2.96861,9.280186,-0.007377,-0.004068,0.004646,0.357666,-0.138428,-0.632324
0.074874,-1.094945,9.802293,-0.002291,0.001512,-0.000963,-0.166992,0.442627,-0.546631,-0.206066,3.08925,9.314038,-0.021884,0.004962,0.004025,-0.877197,0.215576,-0.032715,-0.398446,3.854084,9.037938,-0.003904,0.00139,0.001594,0.29541,0.502197,0.737793,-0.136675,3.713357,9.136622,0.00011,0.007992,0.011594,0.455811,-0.242432,-0.348877,-0.926033,2.96814,9.290985,0.002054,-0.00054,-0.006043,0.354248,-0.130615,-0.630615
0.033073,-1.065827,9.764638,0.006617,0.006208,0.000316,-0.164551,0.443604,-0.549561,-0.28417,3.052376,9.282412,-0.007607,0.014258,0.00702,-0.873291,0.217041,-0.037598,-0.393325,3.875771,9.034079,-0.005225,0.009161,0.00059,0.300781,0.498779,0.735596,-0.156491,3.715328,9.11155,-0.012068,0.002699,0.009047,0.45874,-0.243408,-0.343018,-0.945436,3.015259,9.260666,0.011099,0.000995,-0.007046,0.359131,-0.131836,-0.629639
0.048941,-1.053172,9.791652,-0.003272,-0.002304,-0.00028,-0.161133,0.439453,-0.544434,-0.242691,3.09531,9.30811,-0.004755,-0.005586,-8.9e-05,-0.870605,0.211914,-0.031982,-0.409686,3.837203,9.038598,-0.007401,0.003727,0.001502,0.302246,0.500244,0.740479,-0.119165,3.68983,9.118935,-0.003267,-0.006891,0.008893,0.449219,-0.251953,-0.348389,-0.908434,3.01067,9.294501,-0.009783,-0.008439,0.003706,0.362793,-0.128418,-0.621826
0.083796,-1.112333,9.810821,-0.006183,0.003387,-0.001783,-0.156738,0.44165,-0.547607,-0.237442,3.085043,9.308658,-0.017534,0.015054,0.009199,-0.864014,0.213623,-0.037109,-0.362645,3.87403,9.037602,0.003566,-0.000948,0.000157,0.294678,0.489502,0.740723,-0.134855,3.698576,9.125253,-0.005132,0.012831,0.010192,0.45752,-0.23291,-0.347412,-0.929597,2.942699,9.280486,-0.004723,0.006047,-0.007512,0.353027,-0.13916,-0.628662
0.041801,-1.083327,9.77315,0.00959,0.006001,0.000748,-0.154297,0.440186,-0.54834,-0.288363,3.07014,9.285856,-0.001063,0.002317,0.00192,-0.863037,0.214111,-0.034912,-0.398572,3.860752,9.055287,-0.009245,0.018161,0.000126,0.304688,0.507324,0.739502,-0.17166,3.722199,9.118643,0.00325,0.00213,0.00936,0.446777,-0.245361,-0.351074,-0.933778,2.986867,9.304338,0.0124,-0.005244,-0.002223,0.364746,-0.119385,-0.627197
0.042676,-1.063008,9.79942,0.00031,-0.005674,-0.001761,-0.159912,0.438965,-0.540527,-0.217979,3.098407,9.311702,-0.011031,0.006022,0.004574,-0.869385,0.20752,-0.025635,-0.415977,3.857515,9.038006,0.006952,-0.005985,0.003731,0.290771,0.499512,0.734863,-0.132032,3.7297,9.143125,-0.009701,-0.008857,0.008368,0.447754,-0.240234,-0.3479,-0.941205,3.006144,9.317544,-0.002547,0.001936,-0.002656,0.354492,-0.134766,-0.633545
0.072016,-1.092449,9.816224,-0.000929,0.005553,-0.001215,-0.159912,0.442383,-0.540527,-0.279262,3.061247,9.294509,-0.020078,0.009558,0.00711,-0.87207,0.217041,-0.027344,-0.358824,3.87473,9.058562,-0.009907,0.008199,-0.001147,0.295166,0.505859,0.732666,-0.125445,3.690146,9.123757,-0.01424,0.010321,0.010012,0.454102,-0.246582,-0.344727,-0.933722,2.983484,9.295211,-0.002691,-0.002817,-0.004357,0.356445,-0.125732,-0.631592
0.040895,-1.082574,9.773237,-0.002209,0.002093,0.001243,-0.154297,0.442627,-0.543701,-0.256935,3.065298,9.275761,0.000142,-0.000131,0.001043,-0.862549,0.210693,-0.034424,-0.413326,3.851811,9.051524,-0.009648,0.010751,0.003118,0.299072,0.498779,0.737793,-0.161135,3.697309,9.144857,-0.001853,0.005274,0.012297,0.456787,-0.243408,-0.35083,-0.917185,3.000168,9.267108,-0.000736,-0.006904,0.002702,0.359863,-0.13501,-0.625977
0.055805,-1.088775,9.787779,-0.001837,0.000469,-0.002401,-0.161377,0.442871,-0.544922,-0.238629,3.103326,9.307063,-0.007594,0.014266,0.007029,-0.870605,0.213379,-0.032471,-0.386904,3.867985,9.045493,0.005504,-0.003606,-0.000328,0.303467,0.499268,0.734619,-0.147145,3.70041,9.142764,-0.000551,-0.003751,0.008123,0.453857,-0.238525,-0.345459,-0.93246,2.974966,9.277634,-0.003265,0.003356,-0.009152,0.36499,-0.129883,-0.631104
0.048049,-1.074024,9.81426,0.006854,0.001802,0.000425,-0.159668,0.438721,-0.549561,-0.260853,3.072161,9.298337,-0.01709,0.000116,0.003832,-0.871826,0.210693,-0.037598,-0.394307,3.858735,9.053158,-0.004642,0.012117,0.002876,0.300781,0.503662,0.741455,-0.123003,3.724622,9.101879,0.004154,0.004269,0.011345,0.453369,-0.244141,-0.341797,-0.92545,2.972779,9.299774,0.011592,-0.000909,0.001312,0.358154,-0.129883,-0.622803
0.064875,-1.067678,9.758786,0.001436,0.00564,-0.000496,-0.168945,0.445068,-0.54126,-0.226798,3.060302,9.279183,-0.007182,0.011786,0.004789,-0.880615,0.218262,-0.029297,-0.397747,3.853388,9.045185,0.00217,-0.000183,0.000167,0.29834,0.499023,0.741699,-0.170974,3.724708,9.165115,-0.017545,0.007344,0.01088,0.453125,-0.250244,-0.345703,-0.935442,3.029961,9.29705,0.005557,0.003894,-0.008633,0.360107,-0.130615,-0.624512
0.031744,-1.069733,9.772245,-0.002436,-0.000253,0.000337,-0.160889,0.437256,-0.536865,-0.287395,3.073825,9.313055,-0.006752,0.009381,0.00507,-0.870605,0.209229,-0.025635,-0.38756,3.871936,9.053886,-0.010846,0.008298,0.001243,0.296631,0.497559,0.73877,-0.144047,3.662994,9.105782,-0.017848,-0.007739,0.007704,0.451416,-0.244385,-0.348633,-0.938976,3.004197,9.286667,-0.009555,-0.009488,0.000826,0.356934,-0.134277,-0.628418
0.069505,-1.094324,9.802402,-0.008609,-0.002185,-0.001432,-0.157227,0.44873,-0.547607,-0.20975,3.082859,9.317598,-0.013171,6.1e-05,0.00308,-0.868408,0.223145,-0.036133,-0.408636,3.849027,9.049734,-0.009701,0.002054,0.004583,0.299316,0.497803,0.737305,-0.111221,3.683492,9.155654,0.00876,0.004917,0.010739,0.446289,-0.241455,-0.343262,-0.903125,2.958054,9.253037,-0.01138,-0.002,0.001934,0.359375,-0.134277,-0.628418
0.064192,-1.105928,9.796338,0.007454,0.006825,0.000124,-0.15625,0.44458,-0.546631,-0.278198,3.078843,9.301654,-0.004859,0.015691,0.007007,-0.866211,0.215088,-0.0354,-0.380051,3.869939,9.051903,0.002598,0.005536,-0.002364,0.291748,0.501221,0.740723,-0.169969,3.714305,9.113572,0.002261,0.01283,0.007852,0.456055,-0.243164,-0.346924,-0.934868,2.962411,9.272269,0.014165,0.008366,-0.010679,0.351562,-0.128418,-0.625
0.039377,-1.064464,9.772007,0.007164,-0.002438,-0.000523,-0.155273,0.441162,-0.537598,-0.269258,3.096515,9.311036,-0.014321,-0.003378,0.000466,-0.866455,0.212646,-0.025146,-0.431943,3.867652,9.055467,-0.002751,0.006379,0.002781,0.303955,0.500977,0.736084,-0.143781,3.73133,9.122368,-0.006068,-0.008101,0.009832,0.453613,-0.244873,-0.348145,-0.920031,3.001008,9.288054,0.008891,-0.006098,0.002743,0.36377,-0.131104,-0.628662
0.061256,-1.079444,9.815268,-0.005191,0.001883,-0.002453,-0.155762,0.442383,-0.54126,-0.216685,3.048341,9.297367,-0.016822,0.013309,0.009209,-0.863281,0.215332,-0.030518,-0.375036,3.879164,9.044157,0.001516,-0.002759,0.00097,0.303467,0.496338,0.733887,-0.119714,3.700894,9.132548,-0.022401,0.004319,0.010039,0.452148,-0.244385,-0.344238,-0.94909,3.006749,9.285599,-0.005236,0.007109,-0.009065,0.362793,-0.133301,-0.631348
0.049417,-1.082106,9.780506,-0.000691,0.00258,-0.000295,-0.157715,0.443359,-0.540527,-0.316229,3.068914,9.316371,0.001379,0.006013,0.002657,-0.867432,0.212891,-0.029541,-0.39456,3.875126,9.05136,-0.017952,0.014119,0.000306,0.297607,0.497803,0.743164,-0.148201,3.683047,9.115718,-0.00143,0.007926,0.009899,0.454102,-0.241455,-0.347168,-0.943028,2.989767,9.303248,-0.005621,-0.012403,0.003708,0.361328,-0.131836,-0.625
0.047557,-1.098166,9.795607,-0.002672,-0.000149,-0.002208,-0.152344,0.4375,-0.550049,-0.215645,3.098202,9.294978,-0.00797,0.002272,0.003299,-0.863525,0.210938,-0.035156,-0.413341,3.844587,9.051407,0.003171,-0.002742,0.002072,0.299561,0.500732,0.736816,-0.163943,3.703643,9.134657,0.001946,-0.005358,0.010841,0.452148,-0.243164,-0.354248,-0.915217,2.955468,9.264712,-0.004442,0.003469,-0.004774,0.360352,-0.131836,-0.630371
0.067759,-1.094373,9.788779,0.0054,0.002497,-0.001544,-0.160645,0.440186,-0.544922,-0.295952,3.070297,9.311964,-0.020509,0.014909,0.007313,-0.868896,0.213623,-0.03125,-0.361353,3.865401,9.059314,-0.002096,0.007188,-0.001175,0.299072,0.50293,0.732178,-0.118416,3.726006,9.088775,-0.000934,0.004122,0.00757,0.453613,-0.242188,-0.346191,-0.94302,2.981574,9.285441,0.010364,0.00158,-0.006738,0.358887,-0.128662,-0.635498
0.042254,-1.051091,9.791907,0.005254,0.0036,0.001382,-0.163086,0.442139,-0.545166,-0.243589,3.048519,9.272155,-0.005164,-0.003098,0.002139,-0.873779,0.213623,-0.030762,-0.427741,3.85878,9.021908,-0.003307,0.009115,0.003032,0.296143,0.502686,0.739746,-0.160704,3.723734,9.139652,-0.010424,0.00826,0.013801,0.453857,-0.246826,-0.350586,-0.947189,3.027207,9.308809,0.009404,0.000321,0.001903,0.357422,-0.134033,-0.628418
0.047618,-1.08127,9.780608,-0.008464,0.001012,-0.001923,-0.156494,0.441162,-0.543945,-0.236889,3.101394,9.304375,-0.006262,0.014607,0.007693,-0.865967,0.213623,-0.029541,-0.380868,3.887881,9.049448,-0.002428,-0.0006,-0.001279,0.29834,0.499268,0.734375,-0.159325,3.699197,9.114818,-0.016086,-0.002938,0.005927,0.451416,-0.237305,-0.344727,-0.939328,3.001002,9.277437,-0.01275,-0.003762,-0.007475,0.361084,-0.133789,-0.630615
0.057357,-1.098587,9.802777,-0.002218,0.003109,-0.001209,-0.159424,0.455566,-0.549561,-0.265826,3.077457,9.309443,-0.014742,0.001057,0.003027,-0.868408,0.226074,-0.037598,-0.392434,3.853605,9.038126,-0.010243,0.00956,0.003985,0.297852,0.503662,0.743164,-0.127006,3.689339,9.11645,0.005508,-1e-05,0.011434,0.453613,-0.237549,-0.340088,-0.915496,2.963424,9.282569,-0.003872,-0.005077,0.005809,0.358154,-0.128174,-0.625488
0.046402,-1.082034,9.780529,0.006618,0.00334,-0.001306,-0.158691,0.442139,-0.545166,-0.210308,3.094502,9.299912,-0.004089,0.007133,0.005888,-0.869385,0.214111,-0.032227,-0.405499,3.873189,9.040742,0.001807,0.000183,-0.001692,0.300781,0.510254,0.741455,-0.151498,3.714969,9.13829,-0.003547,0.009895,0.009093,0.451172,-0.24292,-0.356445,-0.930912,2.988689,9.282536,0.006724,0.004293,-0.012671,0.362305,-0.125,-0.626221
0.050715,-1.069292,9.786724,0.003809,0.000411,0.000239,-0.154297,0.442871,-0.548096,-0.296475,3.075477,9.316735,-0.014565,0.008483,0.003882,-0.866455,0.215332,-0.034912,-0.390138,3.875619,9.058302,-0.006498,0.007085,0.001806,0.293701,0.501709,0.727539,-0.14557,3.710864,9.126657,-0.009834,-0.003126,0.009514,0.446777,-0.23877,-0.351807,-0.93134,2.993758,9.291084,0.005394,-0.00407,0.002261,0.356445,-0.131348,-0.63916
0.057183,-1.080282,9.801568,-0.006409,0.002472,-0.00188,-0.154053,0.439941,-0.54248,-0.222301,3.056786,9.29898,-0.014194,0.000461,0.00467,-0.867676,0.212402,-0.028076,-0.409341,3.853012,9.029822,-0.004559,0.004428,0.001319,0.291748,0.505615,0.733398,-0.132207,3.700175,9.142769,-0.001909,0.000804,0.011932,0.453613,-0.241699,-0.350342,-0.933006,2.984827,9.294851,-0.006194,0.00125,-0.003479,0.351562,-0.124268,-0.631592
0.055743,-1.099898,9.775381,0.002282,0.002373,0.000138,-0.15332,0.436768,-0.545654,-0.280974,3.08651,9.285154,0.007679,0.016501,0.006323,-0.864502,0.208252,-0.032227,-0.379148,3.892889,9.043392,0.002445,0.005371,0.000435,0.299072,0.502197,0.73584,-0.144543,3.70837,9.127687,-0.008872,0.009555,0.008547,0.453125,-0.244141,-0.342041,-0.964312,2.977186,9.287317,0.003578,0.001703,-0.005135,0.359375,-0.12915,-0.631592
0.036243,-1.085027,9.794657,0.000764,-0.000981,5.1e-05,-0.168213,0.434082,-0.543701,-0.262219,3.111401,9.322921,-0.0199,-0.004041,0.002307,-0.878418,0.205078,-0.033691,-0.391105,3.864833,9.063726,-0.011709,0.00717,0.000769,0.301514,0.498779,0.74292,-0.150553,3.713919,9.10039,-0.002283,-0.004095,0.010273,0.459961,-0.237549,-0.352051,-0.921409,2.992169,9.291821,0.002917,-0.009285,0.00149,0.361816,-0.13501,-0.623779
0.063131,-1.09227,9.802675,-0.001,0.003952,-0.000971,-0.162598,0.445557,-0.545654,-0.230232,3.047568,9.279861,-0.017976,0.012808,0.007085,-0.872559,0.216553,-0.03418,-0.380382,3.863826,9.037242,-0.000235,-0.000709,0.0025,0.30249,0.506836,0.731445,-0.12716,3.719382,9.118142,-0.010707,0.006699,0.010496,0.450684,-0.249512,-0.355469,-0.921392,2.98089,9.264787,-0.001671,0.007459,-0.007733,0.365723,-0.125,-0.63623
0.043686,-1.080697,9.78069,0.005409,0.002913,0.001721,-0.158203,0.436279,-0.549805,-0.318871,3.077343,9.299564,0.008691,0.00558,0.001899,-0.868896,0.209473,-0.037354,-0.402729,3.868872,9.039555,-0.009043,0.014095,-0.001522,0.294678,0.494385,0.730469,-0.153759,3.711653,9.122973,8.9e-05,0.00239,0.009209,0.454102,-0.247314,-0.346924,-0.950551,2.99753,9.289482,0.001752,-0.006286,0.000419,0.358643,-0.141357,-0.635498
0.05984,-1.068352,9.807684,-0.004726,-0.00161,-0.002253,-0.15625,0.443115,-0.538818,-0.202907,3.10407,9.320558,-0.016944,0.001964,0.005177,-0.865479,0.213867,-0.026367,-0.414811,3.848696,9.031413,0.002936,-0.003452,0.004573,0.298096,0.496338,0.737061,-0.132082,3.720454,9.131024,-0.00352,-0.0037,0.009842,0.453125,-0.238525,-0.349121,-0.925394,2.966755,9.281278,-0.003206,0.002844,-0.002853,0.36084,-0.134766,-0.628174
0.06074,-1.110257,9.790305,-0.000618,0.004178,-0.00054,-0.160156,0.448486,-0.543945,-0.280306,3.054681,9.294591,-0.017586,0.014286,0.008014,-0.870605,0.221924,-0.031494,-0.358684,3.886783,9.027362,-0.005056,0.007633,-0.001747,0.296631,0.50415,0.734863,-0.141173,3.715275,9.112334,-0.010492,0.008031,0.009296,0.457764,-0.240723,-0.35083,-0.950627,2.998012,9.289318,0.010217,-0.003169,-0.008439,0.35791,-0.126953,-0.630371
0.043811,-1.063858,9.779312,0.005563,0.002227,0.00206,-0.157959,0.440186,-0.544922,-0.266717,3.075358,9.325137,0.001467,-0.00175,0.001365,-0.871094,0.213623,-0.032227,-0.430891,3.854926,9.054562,-0.008173,0.009677,0.003631,0.302246,0.502441,0.731689,-0.150743,3.705708,9.133749,-0.005227,0.00391,0.009466,0.446045,-0.241455,-0.350342,-0.917412,3.010934,9.284058,-0.004304,-0.00368,0.003749,0.36499,-0.127686,-0.632568
0.058779,-1.0695,9.793933,-0.005108,-0.000403,-0.001872,-0.164795,0.436523,-0.541016,-0.227848,3.105864,9.294925,-0.013764,0.011513,0.008266,-0.873535,0.211914,-0.027832,-0.380979,3.869762,9.054921,0.001286,-0.005233,0.000313,0.291504,0.503174,0.733154,-0.146205,3.704486,9.112613,-0.002833,-0.003197,0.009143,0.449707,-0.243896,-0.349365,-0.946653,2.965164,9.29248,-0.007652,0.005799,-0.007966,0.351318,-0.130371,-0.631348
0.056985,-1.08634,9.795318,0.004792,0.004224,-0.000443,-0.159424,0.442383,-0.548096,-0.295491,3.063585,9.297264,-0.015018,0.004329,0.003948,-0.870117,0.210938,-0.036133,-0.391074,3.862214,9.026504,-0.007028,0.013745,0.001443,0.295166,0.500732,0.739014,-0.132655,3.71795,9.123724,-0.002337,0.004222,0.01101,0.449951,-0.24292,-0.3479,-0.931623,2.994666,9.290762,0.017282,-0.005167,0.000519,0.357422,-0.131836,-0.629883
0.049386,-1.073991,9.794258,-0.000536,0.00046,-0.00077,-0.157227,0.440674,-0.552979,-0.235541,3.083295,9.309055,-0.003545,0.005493,0.004851,-0.86792,0.213623,-0.038818,-0.427621,3.875393,9.051225,-0.000556,0.002736,0.000252,0.295654,0.499268,0.735596,-0.167248,3.714649,9.131714,-0.012603,0.005477,0.008735,0.451416,-0.246338,-0.345947,-0.934703,3.020786,9.269403,-0.002473,-0.002334,-0.006218,0.358398,-0.135742,-0.629639
0.044342,-1.085831,9.788164,-0.002518,0.002031,-0.000246,-0.157227,0.444824,-0.551025,-0.288388,3.09057,9.315147,-0.014932,0.010022,0.005972,-0.86792,0.21582,-0.037109,-0.379358,3.858335,9.036502,-0.00765,0.003015,0.003993,0.297852,0.497559,0.738525,-0.142642,3.687668,9.110385,-0.001481,-0.001073,0.009779,0.452393,-0.244141,-0.351807,-0.933037,2.978125,9.276562,-0.012396,0.001654,-0.00015,0.356201,-0.132812,-0.628174
0.060801,-1.075665,9.787659,0.004264,0.000802,-0.000385,-0.1604,0.445312,-0.546875,-0.230615,3.072809,9.28275,-0.008326,-0.000149,0.002202,-0.87207,0.214844,-0.034912,-0.401182,3.863479,9.038781,-0.000963,0.007403,0.000867,0.300293,0.501953,0.734619,-0.131416,3.714836,9.12501,0.002343,0.000258,0.011278,0.460205,-0.244629,-0.353516,-0.944639,2.967044,9.270574,0.010429,-0.001475,-0.002139,0.362061,-0.130615,-0.634521
0.040281,-1.079174,9.780872,0.0048,0.001775,0.001197,-0.161133,0.442139,-0.540039,-0.26936,3.101867,9.332503,-0.007283,0.014936,0.006792,-0.872803,0.212158,-0.027588,-0.403233,3.889898,9.045947,-0.001368,0.00469,-0.000607,0.302246,0.500244,0.734863,-0.152482,3.71482,9.130827,-0.017132,0.006319,0.006887,0.460449,-0.240234,-0.347412,-0.936811,3.019416,9.29114,0.007151,-0.002542,-0.00686,0.366943,-0.130371,-0.632812
0.068788,-1.069721,9.787502,-0.005945,-0.00102,-0.00168,-0.161133,0.443115,-0.542725,-0.255959,3.062704,9.289799,-0.018356,-0.000145,0.003149,-0.87207,0.212158,-0.029297,-0.403442,3.861755,9.039417,-0.011752,0.005008,0.004536,0.306396,0.505127,0.736572,-0.138109,3.69473,9.10331,0.000687,-0.000453,0.010166,0.449951,-0.230469,-0.342773,-0.921128,2.986043,9.273376,-0.013635,-0.002143,0.00236,0.366211,-0.127686,-0.62915
0.058544,-1.091854,9.78912,0.003038,0.005274,-0.000638,-0.156738,0.441895,-0.534424,-0.245515,3.070013,9.277806,-8.2e-05,0.012756,0.007187,-0.866943,0.215332,-0.021973,-0.388159,3.85834,9.025154,0.006707,0.004461,0.000488,0.29541,0.512695,0.744141,-0.142547,3.715837,9.151216,-0.007206,0.005735,0.009916,0.444824,-0.241211,-0.348633,-0.935446,2.957586,9.253326,0.003573,0.008165,-0.008208,0.355713,-0.11792,-0.624268
0.02848,-1.06153,9.772364,0.004954,0.001089,0.001535,-0.161133,0.447266,-0.546875,-0.306951,3.120472,9.307018,-0.007848,0.004032,0.002138,-0.870605,0.217773,-0.035645,-0.411082,3.883208,9.062563,-0.009864,0.010432,-0.001313,0.290527,0.505615,0.73584,-0.166589,3.6994,9.112194,-0.003368,-0.000441,0.008819,0.44873,-0.242188,-0.344971,-0.933393,2.998026,9.321231,0.008758,-0.012886,-0.000316,0.354004,-0.127686,-0.631836
0.070797,-1.074936,9.794967,-0.009072,-0.000127,-0.002452,-0.161133,0.439453,-0.539551,-0.203101,3.061162,9.301882,-0.02851,0.001043,0.005741,-0.871826,0.210938,-0.031006,-0.399624,3.855534,9.028985,-0.002353,-0.002993,0.006622,0.294678,0.500977,0.740967,-0.130466,3.719433,9.140587,-0.003517,0.002683,0.010405,0.450439,-0.249756,-0.344727,-0.903853,2.977831,9.287497,-0.006054,0.005487,-0.002118,0.356934,-0.131592,-0.626709
0.052596,-1.104136,9.769353,0.007992,0.004929,8.6e-05,-0.160156,0.441895,-0.54834,-0.300489,3.059597,9.291537,0.008191,0.018724,0.005982,-0.868896,0.214355,-0.034912,-0.387403,3.879768,9.045554,-0.000459,0.012748,-0.004744,0.291992,0.49292,0.737793,-0.158446,3.691958,9.110255,-0.012616,0.008156,0.00769,0.45459,-0.241943,-0.339844,-0.962259,2.988376,9.282862,0.005689,0.00066,-0.004881,0.355713,-0.141113,-0.628662
0.039493,-1.062118,9.765887,0.004808,-0.002108,0.002025,-0.157959,0.445557,-0.542236,-0.261188,3.138898,9.326928,-0.006835,-0.00682,0.000212,-0.867188,0.218018,-0.029785,-0.430429,3.864395,9.042514,-0.007412,0.00464,0.004875,0.296387,0.501709,0.743652,-0.139947,3.713015,9.122406,0.003098,-0.003853,0.011452,0.455322,-0.243652,-0.347656,-0.913539,2.986828,9.304843,-0.007578,-0.008654,0.003799,0.36084,-0.130371,-0.624023
0.064577,-1.083126,9.816546,-0.008698,0.002548,-0.00366,-0.156982,0.439941,-0.536133,-0.222981,3.05463,9.289525,-0.034355,0.015077,0.009015,-0.868652,0.212891,-0.024658,-0.36593,3.877213,9.052296,0.001636,-0.004754,0.001945,0.302246,0.501221,0.732422,-0.129421,3.716562,9.141769,-0.003409,0.003348,0.009806,0.448975,-0.241211,-0.352051,-0.952155,2.974586,9.25688,0.004737,0.009584,-0.011568,0.363525,-0.130615,-0.633057
0.044369,-1.091296,9.768347,0.008073,0.004078,0.001481,-0.157471,0.444824,-0.550537,-0.30926,3.048607,9.286388,0.010261,0.004572,0.001966,-0.868408,0.21582,-0.039551,-0.410994,3.857011,9.041102,-0.007668,0.021552,0.000336,0.293457,0.500977,0.734375,-0.162843,3.726207,9.131962,-0.010187,0.006619,0.009783,0.45166,-0.240479,-0.347656,-0.944781,3.030608,9.286442,0.011525,-0.009729,0.003531,0.352783,-0.131592,-0.631104
0.058312,-1.056722,9.786527,-0.006708,-0.001472,-0.002544,-0.156006,0.444336,-0.554199,-0.229871,3.134663,9.316901,-0.002206,0.002906,0.005013,-0.865234,0.214355,-0.042725,-0.417512,3.872832,9.03237,0.000901,-0.007874,0.002447,0.295654,0.500977,0.73877,-0.151531,3.695683,9.112887,-0.006409,-0.002157,0.009105,0.457275,-0.241699,-0.356201,-0.922976,2.98503,9.295023,-0.021509,0.00265,-0.00408,0.359131,-0.132324,-0.628662
0.081278,-1.11496,9.798672,0.001592,0.003518,-0.000969,-0.160645,0.445312,-0.546631,-0.27829,3.058226,9.296707,-0.0329,0.013267,0.007849,-0.871826,0.21875,-0.035645,-0.362,3.884581,9.045363,-0.006308,0.00563,0.003075,0.302246,0.503174,0.728271,-0.130848,3.715232,9.133987,0.004061,0.005107,0.00889,0.452637,-0.247559,-0.351807,-0.947273,2.950359,9.256295,0.008309,0.006034,-0.005467,0.364502,-0.130859,-0.636475
0.028921,-1.066901,9.766179,0.008227,0.003392,0.001819,-0.168701,0.438965,-0.546387,-0.255066,3.037729,9.276641,0.006136,-0.001879,-0.000534,-0.877441,0.209717,-0.03418,-0.423143,3.853553,9.045164,-0.002972,0.014285,0.000223,0.298096,0.496582,0.730713,-0.166484,3.739283,9.127433,-0.00589,0.002586,0.01203,0.453125,-0.244385,-0.3479,-0.956983,3.027429,9.298293,0.017359,-0.00738,-0.001687,0.360352,-0.139893,-0.636475
0.048277,-1.059514,9.800667,-0.004573,-0.000862,-0.001105,-0.150391,0.44873,-0.545654,-0.245774,3.129492,9.339599,-0.006077,0.013464,0.006087,-0.861572,0.219727,-0.035156,-0.397143,3.8831,9.042874,-0.000684,-0.006501,0.001409,0.298828,0.499756,0.735596,-0.140526,3.696347,9.133424,-0.01597,-0.003051,0.007178,0.442383,-0.241943,-0.35083,-0.927933,3.01062,9.273647,-0.01757,0.00211,-0.006988,0.359375,-0.132324,-0.629639
0.0647,-1.108749,9.784117,-0.004654,0.002854,-0.000875,-0.155518,0.436035,-0.546143,-0.275956,3.056101,9.292546,-0.026804,0.000854,0.004451,-0.865234,0.208984,-0.031738,-0.378279,3.857064,9.030011,-0.013223,0.01,0.003403,0.288574,0.50293,0.732666,-0.136009,3.694632,9.112501,0.00333,0.003857,0.01082,0.461914,-0.24707,-0.342285,-0.937699,2.956871,9.274836,0.000293,-0.002063,0.003077,0.350586,-0.129883,-0.631348
0.041268,-1.089786,9.782158,0.007002,0.004997,-5.8e-05,-0.158447,0.453857,-0.545898,-0.231573,3.06459,9.282274,0.007361,0.010157,0.004633,-0.869873,0.223877,-0.032471,-0.419493,3.873316,9.042196,0.004255,0.005552,-0.001242,0.302979,0.498291,0.743652,-0.176453,3.729899,9.140453,-0.003811,0.008627,0.009695,0.453125,-0.243164,-0.341309,-0.939416,2.999071,9.267825,0.011887,-0.001275,-0.009228,0.365723,-0.129395,-0.620361
0.039311,-1.067647,9.759692,0.002519,-0.003463,-0.000564,-0.161133,0.446777,-0.547607,-0.293908,3.12657,9.319253,-0.013977,0.006899,0.002837,-0.868408,0.219238,-0.033203,-0.404204,3.876242,9.059583,-0.00401,0.00169,0.001063,0.297607,0.503174,0.741699,-0.14225,3.711194,9.098224,-0.005783,-0.008781,0.009067,0.453369,-0.234131,-0.35083,-0.931726,2.99713,9.289958,-0.001528,-0.002754,-0.001246,0.359375,-0.12915,-0.628174
0.073441,-1.086065,9.782574,-0.007017,0.002765,-0.001597,-0.166992,0.447021,-0.546143,-0.222672,3.055086,9.291128,-0.026518,0.000592,0.006531,-0.875244,0.218018,-0.035156,-0.39769,3.865476,9.016889,-0.005512,0.00452,0.003706,0.296387,0.506592,0.733154,-0.120201,3.714833,9.146649,-0.00385,0.007885,0.010925,0.456055,-0.246582,-0.34375,-0.931693,2.985502,9.263038,-0.000439,0.001909,-0.001722,0.361816,-0.125,-0.63501
0.036885,-1.083839,9.774786,0.007002,0.004997,-5.7e-05,-0.154053,0.441895,-0.547363,-0.280934,3.071488,9.283604,0.009923,0.016619,0.006939,-0.868164,0.216309,-0.036133,-0.385797,3.881511,9.062029,-0.002499,0.010092,-0.003708,0.301514,0.496582,0.738281,-0.18453,3.711729,9.10965,-0.012634,0.009279,0.009735,0.446533,-0.241943,-0.343018,-0.958726,3.011329,9.283921,0.004233,-0.003293,-0.007654,0.361084,-0.133057,-0.626465
0.05427,-1.055214,9.786713,-0.001218,-0.000843,-0.000239,-0.160889,0.438721,-0.543213,-0.279991,3.120279,9.322307,-0.013222,-0.005562,0.001003,-0.872559,0.209229,-0.030029,-0.423435,3.856752,9.0398,-0.009034,0.002086,0.004446,0.291992,0.502686,0.739014,-0.131519,3.710951,9.119126,0.004973,-0.012007,0.009809,0.454834,-0.238037,-0.342773,-0.923548,2.9745,9.267691,-0.010129,-0.004172,0.002843,0.351318,-0.129883,-0.62915
0.073757,-1.107328,9.805147,-0.006942,0.001497,-0.003466,-0.162109,0.439697,-0.551514,-0.225964,3.060741,9.287328,-0.026224,0.014698,0.009624,-0.870361,0.210205,-0.039551,-0.377752,3.875038,9.027703,0.004277,-0.001755,0.000276,0.30127,0.505371,0.741699,-0.115499,3.722474,9.139367,-0.00596,0.009865,0.01012,0.454102,-0.24585,-0.338623,-0.95657,2.961993,9.272837,0.009398,0.0061,-0.008999,0.361572,-0.126953,-0.627197
0.026712,-1.087481,9.788829,0.010737,0.006675,0.002054,-0.15625,0.433105,-0.543945,-0.302178,3.062835,9.298701,0.008279,0.006993,0.001503,-0.866455,0.205566,-0.031006,-0.423363,3.873906,9.051888,-0.010596,0.01946,0.000444,0.301025,0.497314,0.743164,-0.176056,3.715027,9.120788,-0.008536,0.010001,0.009858,0.453857,-0.239014,-0.34668,-0.929658,3.010685,9.294958,0.006572,-0.009614,0.001635,0.363281,-0.134277,-0.623291
0.05656,-1.061613,9.780417,-0.005636,-0.003824,-0.001818,-0.153564,0.443115,-0.541748,-0.233092,3.14014,9.31512,-0.01117,0.000611,0.004019,-0.862793,0.213623,-0.026855,-0.419624,3.863884,9.032963,0.001261,-0.008243,0.004304,0.297852,0.503418,0.737793,-0.138103,3.70165,9.110464,-0.007599,-0.010892,0.009778,0.455811,-0.251221,-0.35376,-0.934989,2.975231,9.288585,-0.018451,0.005593,-0.003283,0.360596,-0.130615,-0.625488
0.072505,-1.107392,9.80515,-0.003817,0.00347,-0.001069,-0.168213,0.451904,-0.548584,-0.275405,3.043326,9.300333,-0.026612,0.015184,0.009022,-0.877441,0.222412,-0.036133,-0.371139,3.879375,9.057367,-0.008153,0.00622,0.000924,0.302979,0.49585,0.731201,-0.116089,3.709775,9.118789,-0.000174,0.007496,0.010369,0.446045,-0.240479,-0.350342,-0.946977,2.963453,9.282781,0.011305,-0.003933,-0.005165,0.363281,-0.13623,-0.63501
0.038959,-1.073177,9.767131,0.009593,0.005997,0.000759,-0.160645,0.436035,-0.541992,-0.260195,3.066828,9.289912,0.008727,-0.000285,0.00094,-0.868896,0.206787,-0.028076,-0.423576,3.856687,9.025731,-0.004363,0.014203,0.000462,0.292236,0.505859,0.734619,-0.185251,3.730514,9.128611,0.001204,0.011472,0.011819,0.456055,-0.248047,-0.347412,-0.92143,2.996062,9.290564,0.007075,-0.003196,0.000793,0.35376,-0.128174,-0.634033
0.045283,-1.083858,9.768395,-0.000233,0.000103,-0.002545,-0.156006,0.439697,-0.546875,-0.259126,3.129543,9.308843,-0.008397,0.014513,0.007217,-0.866455,0.210205,-0.036865,-0.425358,3.883385,9.032836,0.004663,-0.004728,-0.000795,0.303467,0.497559,0.73584,-0.151223,3.717307,9.139833,-0.018128,-0.011968,0.006033,0.459473,-0.241943,-0.337402,-0.952884,2.991881,9.292126,-0.012041,0.008232,-0.00678,0.364258,-0.137451,-0.628662
0.044725,-1.081757,9.795889,-0.0016,0.000364,0.000142,-0.159912,0.446777,-0.547852,-0.285462,3.057062,9.296729,-0.030547,-0.000191,0.003513,-0.869385,0.21875,-0.034912,-0.384428,3.89681,9.036722,-0.013887,0.00742,0.004195,0.304199,0.502441,0.74707,-0.103972,3.687841,9.113623,-0.001568,0.001955,0.012005,0.449219,-0.246338,-0.340332,-0.937042,2.970063,9.301327,0.006725,-0.013363,0.005049,0.365234,-0.130371,-0.619873
0.075429,-1.098331,9.770068,-0.00298,0.005519,-0.000451,-0.161621,0.442383,-0.541016,-0.212835,3.048291,9.300913,0.000342,0.010276,0.004968,-0.871338,0.216797,-0.029297,-0.412002,3.85161,9.036253,-0.003357,0.004266,0.000267,0.294678,0.497803,0.744629,-0.1816,3.724114,9.139571,0.001279,0.018597,0.011168,0.45166,-0.239258,-0.350586,-0.912929,2.973593,9.268278,0.000504,0.002146,-0.011041,0.357178,-0.135742,-0.620605
0.034657,-1.08713,9.796109,0.004339,0.002399,-0.000627,-0.165527,0.441895,-0.53833,-0.313946,3.120466,9.30859,0.005676,0.011342,0.006097,-0.872314,0.2146,-0.027588,-0.405196,3.88503,9.072092,0.002899,0.009396,-0.001613,0.294678,0.50415,0.738281,-0.177538,3.712128,9.105385,-0.010345,-0.009779,0.0064,0.447021,-0.247803,-0.349365,-0.95781,3.011188,9.284061,-0.001314,0.000798,-0.001073,0.358398,-0.12793,-0.62915
0.068681,-1.067824,9.781385,0.000155,-0.003551,-0.001286,-0.160645,0.443359,-0.546143,-0.233382,3.094442,9.290676,-0.029459,-0.005355,0.003597,-0.871826,0.215332,-0.03125,-0.414838,3.872271,9.011571,-0.004976,-0.002988,0.004285,0.293945,0.498047,0.735107,-0.098187,3.704691,9.128356,0.001846,-0.003477,0.011025,0.448975,-0.24707,-0.349121,-0.917229,2.962581,9.293961,-0.004879,-0.003464,0.002367,0.356689,-0.134277,-0.632324
0.069953,-1.088487,9.804022,0.00235,0.007849,-0.000933,-0.160645,0.445068,-0.542969,-0.265095,3.030436,9.265189,-0.013109,0.020418,0.007598,-0.869385,0.218506,-0.030029,-0.368593,3.874604,9.056433,-0.006211,0.003564,0.000436,0.294922,0.494629,0.737793,-0.172609,3.71577,9.138002,-0.015248,0.021531,0.011232,0.44751,-0.240479,-0.343506,-0.96187,2.9862,9.27338,0.014203,0.005146,-0.013574,0.35376,-0.136475,-0.628418
0.036643,-1.055121,9.76589,-0.003428,-0.000184,0.000189,-0.167236,0.44165,-0.547607,-0.293802,3.093619,9.303966,0.006652,-0.001538,0.001281,-0.876953,0.215088,-0.034668,-0.443733,3.844758,9.047082,-0.012032,0.016299,0.001063,0.290039,0.502441,0.743408,-0.177945,3.694855,9.124914,-0.003653,-0.010023,0.008639,0.444336,-0.245605,-0.346191,-0.914994,3.023079,9.279316,-0.00464,-0.015385,0.006992,0.355225,-0.127441,-0.624756
0.047463,-1.110008,9.8121,-0.005716,-0.001541,-0.002402,-0.156006,0.441895,-0.544678,-0.216512,3.127398,9.310801,-0.013776,0.006923,0.008933,-0.866699,0.212402,-0.032227,-0.394216,3.873706,9.050945,0.012673,-0.011964,0.001303,0.29126,0.499512,0.737793,-0.099262,3.702933,9.120764,-0.00053,-0.003863,0.008752,0.445557,-0.239502,-0.353271,-0.927795,2.935797,9.252244,-0.019338,0.011448,-0.005365,0.352539,-0.134033,-0.62793
0.06041,-1.094983,9.790488,0.013021,0.007613,0.001385,-0.161865,0.437012,-0.547607,-0.299986,3.074338,9.290034,-0.01708,0.011906,0.00578,-0.870117,0.209961,-0.034912,-0.369721,3.898644,9.040538,-0.012432,0.01359,-0.000416,0.291504,0.506592,0.732666,-0.156406,3.718186,9.10627,-0.001936,0.018971,0.010386,0.452393,-0.244385,-0.350586,-0.965675,2.963771,9.272123,0.026902,-0.002457,-0.005581,0.352783,-0.125,-0.635986
0.021336,-1.031459,9.749984,-0.001526,0.000528,-0.000916,-0.160156,0.439453,-0.545898,-0.233025,3.061158,9.300438,-0.009711,-0.003145,0.002507,-0.872803,0.211914,-0.033936,-0.441784,3.847143,9.032073,-0.006227,0.005322,0.003595,0.295654,0.501953,0.733398,-0.179853,3.716298,9.142786,-0.012646,-0.005123,0.012307,0.450928,-0.240967,-0.352295,-0.921137,3.051681,9.288565,0.004963,-0.004706,-0.001158,0.356445,-0.130371,-0.633057
0.074788,-1.100719,9.80513,-0.010442,-0.001719,-0.003848,-0.159912,0.448242,-0.547852,-0.270213,3.079818,9.328636,-0.005263,0.016424,0.007994,-0.869141,0.219727,-0.033936,-0.378613,3.886663,9.049207,0.00176,-0.002047,-0.001531,0.29834,0.501953,0.735107,-0.110779,3.67407,9.098462,-0.008881,-0.006991,0.00644,0.452393,-0.246826,-0.346191,-0.942,2.979197,9.265869,-0.0245,0.002049,-0.004019,0.361084,-0.130371,-0.633545
0.055929,-1.09006,9.783001,0.007538,0.004537,0.000716,-0.156006,0.44043,-0.543213,-0.259963,3.113646,9.304458,-0.000221,-0.003487,0.002295,-0.865234,0.213867,-0.032227,-0.40236,3.873882,9.039557,-0.006585,0.012218,0.004061,0.298828,0.500977,0.736328,-0.137438,3.712451,9.124408,0.007009,0.016577,0.014696,0.449707,-0.243896,-0.344727,-0.936253,2.958165,9.27457,0.010503,-0.001968,0.004155,0.361084,-0.132324,-0.629883
0.044491,-1.070329,9.788332,0.004037,0.001322,0.000337,-0.159912,0.442871,-0.543457,-0.237967,3.103851,9.305849,-0.02267,0.013141,0.005428,-0.870117,0.215332,-0.030762,-0.413009,3.884826,9.046821,-0.005028,-0.000518,-8e-06,0.295654,0.502197,0.742676,-0.194521,3.723144,9.150004,-0.01147,0.00147,0.006936,0.456055,-0.23877,-0.348877,-0.916995,3.014356,9.282988,0.011513,-0.002603,-0.013836,0.35498,-0.130371,-0.624268
0.051227,-1.082105,9.789479,-0.003661,0.001351,-0.001545,-0.16333,0.435791,-0.549316,-0.304357,3.02542,9.297982,-0.017282,0.004481,0.004875,-0.873535,0.207275,-0.0354,-0.406323,3.86627,9.032502,-0.006615,0.008293,0.004669,0.298828,0.507324,0.736572,-0.122744,3.702473,9.110187,-0.005924,-0.012125,0.010704,0.449463,-0.241455,-0.349365,-0.91702,3.014848,9.282826,-0.006338,-0.000267,0.004347,0.359131,-0.124756,-0.628662
0.063121,-1.084296,9.782842,-0.001907,0.000302,-0.001348,-0.162354,0.449707,-0.550537,-0.210689,3.084953,9.293942,0.012609,0.002581,0.00325,-0.870605,0.219238,-0.035156,-0.398239,3.880579,9.032961,0.005469,-0.000222,-0.001221,0.295898,0.501709,0.737061,-0.143554,3.714028,9.128787,-0.002703,0.014009,0.0107,0.456055,-0.238525,-0.348633,-0.936384,2.967237,9.292084,-0.005985,0.002235,-0.005,0.357666,-0.130859,-0.62915
0.050072,-1.081268,9.803206,0.004793,0.005654,0.000374,-0.156494,0.443115,-0.547607,-0.289102,3.135182,9.322251,-0.017476,0.015316,0.005688,-0.865479,0.2146,-0.033691,-0.38103,3.895788,9.030345,-0.008269,0.008279,0.00356,0.299072,0.504883,0.73877,-0.191661,3.731591,9.134138,-0.010331,0.00493,0.007737,0.452637,-0.249756,-0.346436,-0.942123,2.991007,9.29272,0.011888,-0.00568,-0.0048,0.362305,-0.126465,-0.629883
0.042637,-1.070069,9.788368,-0.000381,-0.000226,-0.000432,-0.164307,0.43457,-0.544434,-0.251207,3.037823,9.290548,-0.030351,-0.004155,0.003849,-0.874023,0.209717,-0.029541,-0.431616,3.843628,9.051978,-0.012655,0.004657,0.000205,0.296631,0.497314,0.735596,-0.127182,3.701564,9.123874,0.000366,-0.014591,0.010219,0.455811,-0.240479,-0.346436,-0.92608,3.013166,9.273006,-0.000871,-0.002132,-3e-05,0.359863,-0.135254,-0.631592
0.060405,-1.099181,9.798085,-0.000761,-0.001885,-0.001676,-0.161621,0.44165,-0.543945,-0.241327,3.056572,9.286559,0.012281,0.015551,0.005896,-0.871338,0.213623,-0.032471,-0.379464,3.871369,9.032363,0.008653,-0.003814,0.00108,0.29834,0.503906,0.736084,-0.119029,3.716901,9.147555,-0.010133,0.013015,0.010388,0.454102,-0.238281,-0.34375,-0.953726,2.976924,9.277481,-0.003955,0.007319,-0.007312,0.362061,-0.128418,-0.628662
0.037799,-1.081132,9.782358,0.005254,0.00503,0.002201,-0.155518,0.43457,-0.552734,-0.297712,3.124377,9.317069,-0.009215,0.001048,0.00246,-0.866943,0.206055,-0.040283,-0.40368,3.877859,9.058072,-0.01113,0.013128,-0.000942,0.297607,0.506836,0.742432,-0.189074,3.706905,9.109317,-0.00041,0.006967,0.00973,0.452881,-0.241943,-0.343262,-0.942199,2.991562,9.292533,0.004392,-0.009921,0.00121,0.359863,-0.123779,-0.625
0.049208,-1.082776,9.775786,-0.006326,0.000186,-0.001305,-0.158691,0.437256,-0.551025,-0.221356,3.056521,9.29629,-0.030515,0.005777,0.007021,-0.866943,0.209229,-0.039307,-0.434156,3.849279,9.024439,-0.000231,-0.00156,0.002723,0.297852,0.503174,0.741211,-0.138891,3.729598,9.135782,-0.006361,-0.01055,0.008971,0.442871,-0.24707,-0.345215,-0.930466,2.995246,9.280467,-0.000454,0.006323,-0.006153,0.360352,-0.131836,-0.624023
0.055493,-1.092503,9.804421,0.004419,0.001548,0.00077,-0.157227,0.441406,-0.540283,-0.306515,3.039371,9.284843,0.004639,0.011649,0.005203,-0.867188,0.213379,-0.026367,-0.380799,3.895459,9.016477,-0.002982,0.007755,-0.002089,0.289307,0.498779,0.736572,-0.132229,3.690962,9.11576,-0.010419,0.00612,0.009153,0.454102,-0.240967,-0.347168,-0.961619,2.995975,9.290702,0.005983,-0.005483,-0.00452,0.351562,-0.132568,-0.626953
0.041112,-1.069101,9.788481,0.003121,0.002987,-5.2e-05,-0.165039,0.439209,-0.541016,-0.233592,3.118041,9.336844,-0.003864,-0.002761,0.002748,-0.872803,0.208252,-0.030029,-0.434762,3.879339,9.040337,-0.008235,0.005741,0.004236,0.299072,0.505127,0.736328,-0.174418,3.716882,9.121904,-0.000723,0.009494,0.011302,0.459717,-0.244629,-0.349121,-0.912819,2.979413,9.276638,-0.007792,-0.002692,0.002595,0.361816,-0.125977,-0.63208
0.05981,-1.08277,9.783032,-0.00587,0.000576,-0.00193,-0.154297,0.439941,-0.537109,-0.270623,3.089472,9.285462,-0.027044,0.016928,0.010083,-0.866211,0.211914,-0.025146,-0.386776,3.867827,9.057745,-0.000892,0.001414,-0.001153,0.304199,0.499023,0.737305,-0.158418,3.706117,9.116287,-0.007037,-0.003846,0.008394,0.45752,-0.242432,-0.35083,-0.961316,2.987066,9.273159,-0.000895,0.005676,-0.009571,0.366943,-0.133057,-0.631836
0.062533,-1.08808,9.790489,0.006014,0.005063,-0.000198,-0.155029,0.448486,-0.546875,-0.287849,3.04937,9.289454,-0.001023,-0.001563,0.001259,-0.865723,0.221436,-0.032959,-0.431746,3.861026,9.04992,-0.005187,0.01054,0.000672,0.303223,0.503662,0.733154,-0.138079,3.705747,9.10231,-0.000968,0.000665,0.009878,0.449707,-0.235596,-0.345215,-0.930388,2.995772,9.280305,0.012998,-0.010354,0.003246,0.363281,-0.131348,-0.632568
0.058561,-1.082052,9.783119,-0.000306,-6.2e-05,-0.001489,-0.161133,0.445312,-0.543701,-0.228565,3.106715,9.297552,-0.001701,0.008066,0.005159,-0.872559,0.217773,-0.030762,-0.405367,3.877304,9.044194,0.002212,-0.002721,0.000852,0.297119,0.510254,0.740723,-0.152433,3.722897,9.13109,-0.008963,0.010012,0.011242,0.446533,-0.247314,-0.343262,-0.941645,2.989005,9.283191,-0.00979,0.006822,-0.008217,0.358398,-0.123047,-0.625488
0.053368,-1.093396,9.777079,0.001366,0.004036,-0.00025,-0.155029,0.436279,-0.539551,-0.290922,3.082594,9.286544,-0.022854,0.009696,0.00772,-0.866699,0.210205,-0.026855,-0.399486,3.885762,9.036943,-0.010659,0.01076,0.001891,0.290527,0.497803,0.742188,-0.159857,3.715206,9.121767,-0.008741,-0.002608,0.007462,0.449951,-0.241455,-0.351074,-0.946176,2.970513,9.29082,0.00365,-0.003906,-0.002232,0.354248,-0.137695,-0.624268
0.047294,-1.065409,9.76084,0.002972,0.001226,0.001249,-0.162109,0.445557,-0.548828,-0.235651,3.059473,9.309633,-0.006218,-0.000803,0.001502,-0.871582,0.218506,-0.034912,-0.427721,3.854244,9.03976,-0.003606,0.00355,0.002765,0.296387,0.500732,0.733887,-0.148771,3.706483,9.128626,-0.00377,-0.000527,0.010815,0.454102,-0.243164,-0.340088,-0.941421,2.988785,9.283284,0.001905,-0.005105,-0.000256,0.359131,-0.128418,-0.63501
0.051686,-1.090544,9.80466,-0.003052,0.002488,-0.00102,-0.16333,0.439453,-0.539795,-0.266537,3.08418,9.317797,-0.007433,0.01534,0.007313,-0.872559,0.211426,-0.028076,-0.38481,3.873064,9.051704,-0.001923,0.000963,0.000938,0.300293,0.502686,0.745117,-0.134149,3.717418,9.14908,-0.000627,0.01098,0.008852,0.456299,-0.246582,-0.348145,-0.924155,2.972057,9.279705,-0.00643,0.002606,-0.007738,0.361328,-0.131592,-0.622803
0.059923,-1.087783,9.776912,0.003958,0.003603,-0.000244,-0.159668,0.446289,-0.545898,-0.266563,3.097188,9.285043,-0.009066,-5.3e-05,0.003328,-0.871338,0.219238,-0.033936,-0.417939,3.859211,9.045123,-0.002935,0.010896,0.001146,0.30127,0.499756,0.736816,-0.165674,3.731108,9.107885,0.000148,-0.000412,0.010911,0.448486,-0.241943,-0.343018,-0.953402,2.970148,9.259253,0.010863,0.000215,0.001951,0.361084,-0.134033,-0.630371
0.040289,-1.073323,9.782442,0.005257,0.000732,-0.000234,-0.147949,0.44043,-0.544189,-0.24562,3.111929,9.28823,-0.007292,0.011253,0.005148,-0.860596,0.212402,-0.031738,-0.398956,3.887405,9.022238,0.002801,-0.001531,-1e-05,0.291016,0.506348,0.741455,-0.13717,3.720018,9.13145,-0.018958,-0.002924,0.008894,0.453369,-0.243164,-0.343018,-0.942292,3.005157,9.318811,0.00152,1.7e-05,-0.007936,0.353271,-0.129395,-0.623291
0.044765,-1.061624,9.788523,-0.00343,0.001248,0.000999,-0.158447,0.438721,-0.552246,-0.28123,3.068818,9.318722,-0.021274,0.003788,0.004381,-0.873047,0.209717,-0.038818,-0.388043,3.884182,9.056146,-0.017577,0.008668,0.00349,0.297852,0.501221,0.741455,-0.149079,3.692783,9.108462,-0.006028,0.005405,0.009756,0.453369,-0.240723,-0.348633,-0.930116,3.000291,9.289098,-0.005885,-0.007289,0.002679,0.35791,-0.133301,-0.622314
0.057104,-1.103318,9.792085,-0.006787,0.002241,-0.002322,-0.157471,0.439209,-0.538574,-0.229071,3.046146,9.292937,-0.003896,0.005996,0.004282,-0.868164,0.209717,-0.026123,-0.420762,3.855485,9.046581,-0.000924,0.004013,0.001784,0.294434,0.506348,0.736328,-0.152236,3.716551,9.12542,0.006313,0.005581,0.009943,0.449463,-0.23877,-0.349121,-0.923411,2.96472,9.261699,-0.002556,-0.000629,-0.00435,0.359131,-0.126709,-0.628418
0.041181,-1.097478,9.777447,0.00815,0.00424,0.000434,-0.158447,0.44458,-0.544922,-0.278194,3.108392,9.295777,0.005173,0.012971,0.007209,-0.87085,0.2146,-0.033936,-0.401811,3.876731,9.051661,0.007274,0.007335,-0.000791,0.293945,0.505371,0.73584,-0.156157,3.731537,9.120214,-0.010359,-0.002269,0.009015,0.44873,-0.238281,-0.341553,-0.941196,2.977635,9.256232,0.008735,0.002095,-0.00511,0.355713,-0.128174,-0.628906
0.044911,-1.045589,9.773416,0.003965,-0.001707,-0.000228,-0.159912,0.437988,-0.542725,-0.245869,3.105188,9.312405,-0.031891,-0.00412,0.001064,-0.871826,0.209961,-0.032471,-0.414631,3.883434,9.050495,-0.01195,0.003914,0.003918,0.295166,0.506592,0.741699,-0.133789,3.717236,9.102729,-0.00527,0.003152,0.010729,0.451172,-0.238037,-0.345703,-0.929521,3.001067,9.288907,0.001763,-0.00577,0.000761,0.35791,-0.125244,-0.626709
0.051907,-1.095451,9.798551,-0.006257,0.005659,-0.002381,-0.154541,0.443848,-0.539795,-0.236846,2.997733,9.291886,-0.01689,0.016697,0.007696,-0.865479,0.215332,-0.026367,-0.389163,3.866549,9.03014,-0.004529,0.001039,0.002215,0.298584,0.50415,0.739258,-0.165354,3.720328,9.142203,-0.009378,0.01159,0.009525,0.447754,-0.237061,-0.34668,-0.941133,2.99035,9.282809,0.000198,0.005413,-0.005957,0.35791,-0.126953,-0.62793
0.023908,-1.089885,9.776632,0.002587,0.003445,-0.000822,-0.156982,0.446045,-0.549316,-0.315837,3.099379,9.296415,0.023216,0.004559,0.003038,-0.867188,0.218506,-0.036377,-0.430389,3.869751,9.038431,-0.001982,0.016421,-0.002291,0.292236,0.505615,0.736328,-0.152885,3.703032,9.105185,-0.00356,-0.00751,0.008842,0.449219,-0.242188,-0.3396,-0.941077,2.997492,9.300959,-0.00348,-0.008021,0.000223,0.354492,-0.126953,-0.631104
0.064793,-1.06116,9.816714,-7.4e-05,-0.001596,0.000245,-0.160156,0.446777,-0.55249,-0.219079,3.159128,9.341584,-0.023074,0.002226,0.004259,-0.869873,0.219727,-0.042969,-0.410552,3.876824,9.040285,0.000746,-0.008896,0.005448,0.294678,0.503174,0.741943,-0.123454,3.727261,9.136879,-0.00413,0.000969,0.009718,0.456787,-0.239258,-0.345947,-0.934755,2.969613,9.291489,-0.003947,0.0029,-0.00288,0.357666,-0.131592,-0.626221
0.053949,-1.102001,9.792251,0.000757,0.00433,3.6e-05,-0.161133,0.441406,-0.546387,-0.285036,3.008495,9.265134,-0.037105,0.014238,0.006915,-0.869873,0.214355,-0.0354,-0.369054,3.876593,9.040886,-0.01249,0.01051,-3.8e-05,0.303223,0.505127,0.737549,-0.169937,3.713897,9.102515,-0.001866,0.015165,0.009435,0.450684,-0.248291,-0.344238,-0.941092,2.990208,9.28286,0.015442,-0.001916,-0.008585,0.367676,-0.131592,-0.630615
0.030185,-1.046406,9.752461,0.002052,0.005336,-0.00078,-0.159668,0.446777,-0.543213,-0.283181,3.045777,9.283054,0.025154,0.002035,0.000988,-0.87207,0.219482,-0.028809,-0.442287,3.852424,9.039028,-0.000777,0.011556,0.001103,0.295166,0.49707,0.738281,-0.177633,3.713438,9.145869,-0.006343,-0.006845,0.010592,0.452393,-0.243896,-0.349121,-0.937104,3.01705,9.292921,-0.001157,-0.001931,0.003021,0.35791,-0.137695,-0.628418
0.051779,-1.099787,9.819762,-0.005866,-0.001869,-0.000294,-0.165039,0.446045,-0.545654,-0.251949,3.168117,9.343301,-0.005064,0.009443,0.005357,-0.875732,0.217529,-0.034424,-0.400268,3.899052,9.057801,0.006008,-0.006878,-0.00087,0.296631,0.504639,0.735352,-0.119461,3.700396,9.121175,-0.00806,-0.004778,0.007805,0.45166,-0.244629,-0.347656,-0.965884,2.963118,9.283616,-0.014739,0.003013,-0.005337,0.356445,-0.128418,-0.632812
0.080765,-1.092659,9.798955,0.004569,0.003308,-0.000529,-0.155273,0.443359,-0.554199,-0.268378,3.04306,9.285017,-0.043538,0.003094,0.006953,-0.86499,0.214355,-0.037354,-0.386155,3.876805,9.032171,-0.01588,0.010911,0.004442,0.29541,0.500488,0.736816,-0.135705,3.720091,9.14066,-0.000366,0.014439,0.012385,0.450195,-0.251221,-0.347168,-0.933025,2.976044,9.278305,0.019405,-0.007696,-0.000256,0.356934,-0.134033,-0.630371
0.030237,-1.067208,9.775097,0.001823,0.005856,-6.2e-05,-0.158203,0.448242,-0.541992,-0.26255,3.019889,9.278042,0.007765,0.007629,0.002456,-0.868408,0.221436,-0.030518,-0.438373,3.859078,9.032474,-0.004202,0.007912,-0.001037,0.294189,0.494629,0.734375,-0.201531,3.716094,9.134105,-0.013449,0.000649,0.008438,0.451416,-0.242432,-0.358398,-0.934456,3.022845,9.280027,-1.3e-05,-0.000186,-0.007484,0.354004,-0.138672,-0.631104
0.055631,-1.091433,9.784599,-0.003809,-0.001842,-0.001058,-0.1521,0.446045,-0.549316,-0.287242,3.135993,9.328325,0.00299,0.00603,0.005478,-0.863037,0.218506,-0.036621,-0.402825,3.882038,9.055624,0.001154,-0.001483,0.002492,0.295898,0.503662,0.726562,-0.129989,3.695636,9.094105,0.000793,-0.010089,0.00862,0.451904,-0.244629,-0.346436,-0.944053,2.964836,9.272425,-0.020841,0.000344,0.002599,0.357666,-0.129883,-0.641113
0.055203,-1.090469,9.798335,0.002131,0.003055,-0.000197,-0.162598,0.437744,-0.547607,-0.23331,3.090743,9.286776,-0.028245,0.003021,0.00449,-0.873047,0.211182,-0.039551,-0.394111,3.89102,9.024148,0.000266,0.005547,0.000289,0.296875,0.498535,0.736084,-0.134605,3.732798,9.114843,0.002796,0.01412,0.012554,0.450928,-0.237061,-0.353271,-0.965601,2.962866,9.283726,0.017622,0.003001,-0.005111,0.358154,-0.133545,-0.62793
0.040691,-1.068014,9.768637,0.007312,0.005054,0.00144,-0.15918,0.444092,-0.537354,-0.273372,3.044605,9.296005,-0.006483,0.012257,0.006709,-0.870117,0.217285,-0.022949,-0.411664,3.879545,9.035205,-0.008917,0.009559,0.000133,0.29541,0.50708,0.733154,-0.189399,3.729639,9.136966,-0.01727,0.004995,0.008749,0.458984,-0.238281,-0.345459,-0.933165,3.036311,9.284967,0.015602,-0.007706,-0.006525,0.358643,-0.123535,-0.633545
0.046721,-1.077418,9.797321,-0.006706,-0.001472,-0.002554,-0.152588,0.445557,-0.55835,-0.270855,3.082148,9.313918,-0.002963,-0.000996,0.002966,-0.865234,0.216064,-0.047852,-0.435722,3.878998,9.029549,-0.006,0.000417,0.002144,0.301025,0.505615,0.739014,-0.134712,3.694499,9.10788,-0.005583,-0.012884,0.010556,0.452637,-0.241211,-0.347412,-0.930065,2.994286,9.292103,-0.025639,-0.001773,0.005142,0.362793,-0.125732,-0.627441
0.076341,-1.109039,9.800425,-0.002669,0.001281,-0.001402,-0.161621,0.440186,-0.541748,-0.231248,3.087729,9.296415,-0.009847,0.010716,0.006375,-0.871582,0.212402,-0.026855,-0.380504,3.877547,9.039206,0.00338,0.000505,-0.001093,0.298828,0.505859,0.734619,-0.126539,3.710553,9.131288,0.003289,0.012178,0.011014,0.455566,-0.242676,-0.349365,-0.94959,2.933643,9.27489,-0.000393,0.006144,-0.007001,0.36084,-0.12915,-0.62915
0.046607,-1.079925,9.769791,0.010666,0.005075,0.002312,-0.152588,0.435791,-0.535889,-0.284295,3.107567,9.296371,-0.011405,0.005828,0.002767,-0.863525,0.205322,-0.024414,-0.41003,3.886843,9.052455,-0.009938,0.013875,0.001398,0.30249,0.502197,0.735596,-0.186503,3.739713,9.120519,-0.003594,0.009194,0.009778,0.444336,-0.246094,-0.343994,-0.949933,3.001217,9.299642,0.024722,-0.008171,-0.002263,0.363281,-0.129639,-0.628662
0.035252,-1.060597,9.775044,-0.002363,-8.9e-05,-0.000725,-0.154785,0.447998,-0.547607,-0.227571,3.062012,9.303568,-0.014362,0.002887,0.005386,-0.866943,0.223145,-0.035645,-0.431086,3.859523,9.015514,-0.001088,-0.002686,0.002241,0.290527,0.500977,0.739502,-0.140235,3.716288,9.147275,-0.013029,-0.013849,0.010235,0.448975,-0.241211,-0.350586,-0.924665,3.022025,9.280499,-0.010508,0.002462,-0.003811,0.352051,-0.13208,-0.62915
0.077861,-1.112055,9.821782,-0.004651,0.001418,-0.001695,-0.156982,0.437744,-0.55127,-0.261893,3.06022,9.288502,-0.003499,0.012338,0.006104,-0.866699,0.208252,-0.038818,-0.374298,3.889623,9.040623,-0.002214,0.002722,-0.000851,0.294922,0.507324,0.733887,-0.128722,3.700672,9.101301,-0.006414,0.008835,0.008859,0.456055,-0.233398,-0.350098,-0.972873,2.982763,9.296741,-0.006561,7.5e-05,-0.000592,0.355225,-0.128174,-0.631836
0.053179,-1.073586,9.783336,0.004874,0.004801,0.001773,-0.164551,0.444824,-0.547363,-0.255512,3.112933,9.321803,-0.00233,0.002024,0.001286,-0.875977,0.214355,-0.033691,-0.41941,3.882283,9.032896,-0.009207,0.011377,0.001957,0.299072,0.511963,0.736816,-0.18821,3.725097,9.130611,0.004627,0.009751,0.011891,0.44873,-0.250488,-0.343262,-0.93186,2.984705,9.296078,0.007013,-0.007604,-0.001415,0.361816,-0.124512,-0.629395
0.040933,-1.07397,9.762412,-0.001221,0.001602,-0.00188,-0.162109,0.440674,-0.545898,-0.249916,3.07861,9.320151,-0.021487,0.011055,0.008548,-0.873291,0.2146,-0.030518,-0.418067,3.873182,9.03764,0.002175,-0.000185,0.000179,0.294189,0.49585,0.740234,-0.168014,3.724626,9.116679,-0.012909,-0.0105,0.008595,0.451172,-0.242188,-0.346436,-0.947381,3.003457,9.277664,0.006308,0.005711,-0.008105,0.354004,-0.13916,-0.624023
0.050889,-1.089838,9.784803,0.002058,2.7e-05,-0.000764,-0.165283,0.446777,-0.536621,-0.293286,3.057122,9.282498,-0.008918,0.001776,0.004704,-0.875977,0.220703,-0.025391,-0.407622,3.878684,9.042847,-0.007427,0.008488,0.00065,0.296631,0.500977,0.73999,-0.117673,3.700664,9.122046,-0.006166,0.002883,0.009552,0.450684,-0.240723,-0.349121,-0.937968,3.005694,9.287337,-0.00435,-0.006068,0.002909,0.359131,-0.130127,-0.626709
0.055674,-1.079455,9.777114,-0.00145,0.002123,-0.001162,-0.150146,0.436523,-0.54541,-0.233875,3.088379,9.303091,-0.000252,0.006235,0.004014,-0.863281,0.208496,-0.029541,-0.406029,3.869274,9.047735,-0.002359,0.000853,0.00239,0.293701,0.503174,0.736328,-0.180573,3.718126,9.12019,-0.005993,0.013715,0.01056,0.447754,-0.234375,-0.352539,-0.924058,2.963223,9.273412,-0.005336,0.002849,-0.003783,0.357422,-0.128906,-0.630127
0.045395,-1.102263,9.765016,0.002663,0.005039,-0.001065,-0.163574,0.447998,-0.543945,-0.286934,3.096372,9.308589,-0.015405,0.011017,0.005844,-0.875732,0.218994,-0.030518,-0.409675,3.876552,9.043669,-0.00693,0.009983,-0.00073,0.292725,0.511475,0.732422,-0.165108,3.717863,9.127724,-0.00197,-0.007853,0.007283,0.456055,-0.246094,-0.343506,-0.947364,2.995478,9.259793,0.011223,-0.003733,-0.004323,0.356934,-0.123047,-0.632324
0.054341,-1.078745,9.777199,0.001906,-0.00072,-0.001914,-0.16626,0.444336,-0.541992,-0.240607,3.068643,9.289168,-0.01228,-0.000734,0.00419,-0.875732,0.214844,-0.028076,-0.425204,3.891376,9.038108,0.000485,0.002399,0.002008,0.300293,0.500244,0.744385,-0.123578,3.726568,9.121663,-0.001313,0.001317,0.010649,0.450439,-0.23877,-0.346191,-0.939347,3.001281,9.299912,-0.000871,-0.0006,0.000989,0.363281,-0.133301,-0.624023
0.04895,-1.088398,9.784973,0.003426,0.00406,-0.001012,-0.156738,0.443115,-0.540039,-0.25867,3.078901,9.282951,-0.00349,0.01429,0.006462,-0.865723,0.214111,-0.029053,-0.383992,3.892526,9.038191,0.000249,0.000777,0.001116,0.292969,0.505371,0.737305,-0.158479,3.723686,9.129558,-0.015386,0.010814,0.009689,0.453857,-0.238037,-0.345459,-0.959275,3.000788,9.289391,0.000404,0.004876,-0.0085,0.356689,-0.130127,-0.626221
0.030408,-1.05824,9.788945,-0.003203,0.002158,0.00109,-0.152344,0.439697,-0.54248,-0.278538,3.086526,9.304203,-0.012807,0.000868,0.002721,-0.861816,0.209717,-0.031982,-0.412608,3.874056,9.044605,-0.016971,0.012931,0.002241,0.300293,0.504639,0.739014,-0.176735,3.69941,9.118622,-0.007946,-0.004934,0.00906,0.458252,-0.245361,-0.353027,-0.939549,3.005316,9.308813,0.00332,-0.011512,0.003726,0.361572,-0.125488,-0.625488
0.074551,-1.095824,9.80673,-0.00869,0.002539,-0.003678,-0.164795,0.447998,-0.544922,-0.227773,3.061017,9.306073,-0.01461,0.008113,0.006696,-0.875,0.218506,-0.032227,-0.410944,3.85847,9.017837,0.001677,-0.00168,0.00156,0.303223,0.499756,0.731934,-0.127982,3.713463,9.122833,0.002606,0.001415,0.010746,0.448975,-0.249512,-0.339355,-0.898275,2.987584,9.263398,-0.008839,0.002305,-0.005956,0.363525,-0.132324,-0.63623
0.045923,-1.107602,9.772489,0.010286,0.003417,0.001072,-0.154785,0.433838,-0.543213,-0.29772,3.094169,9.298819,0.003373,0.009381,0.004265,-0.86377,0.206299,-0.028809,-0.401242,3.883645,9.05827,0.000265,0.011161,-0.000751,0.292236,0.496338,0.744141,-0.159204,3.723097,9.121556,-0.001345,0.009706,0.010813,0.45166,-0.235107,-0.339844,-0.950996,2.97833,9.267091,0.007853,0.004057,-0.00243,0.354248,-0.138428,-0.621582
0.05755,-1.049313,9.781997,0.003811,0.00041,0.000248,-0.15918,0.444336,-0.538574,-0.23677,3.102001,9.303883,-0.019657,-0.001032,0.003698,-0.868896,0.216797,-0.02832,-0.431994,3.869289,9.027726,-0.005061,0.001232,0.003142,0.295654,0.509033,0.744141,-0.153773,3.740248,9.136252,-0.012022,-0.00377,0.009752,0.453125,-0.234863,-0.343506,-0.939638,2.99845,9.290572,0.006495,-0.005005,-0.00195,0.361816,-0.12207,-0.620117
0.061342,-1.094103,9.799669,-0.008233,0.001917,-0.001851,-0.165771,0.444336,-0.545898,-0.264205,3.028241,9.304366,-0.022498,0.015313,0.008321,-0.875244,0.219971,-0.031982,-0.389009,3.887248,9.040248,-0.007433,0.002872,0.001696,0.295654,0.510498,0.740479,-0.139945,3.696212,9.11323,-0.008676,0.002957,0.009922,0.461426,-0.234375,-0.346924,-0.935543,3.008633,9.265117,-0.004533,-0.000463,-0.006635,0.359375,-0.122803,-0.627441
0.038953,-1.079372,9.756259,0.00495,0.004964,0.000718,-0.162842,0.44751,-0.54541,-0.261686,3.079779,9.302869,0.014891,0.003382,0.002545,-0.872559,0.219482,-0.034424,-0.431881,3.871894,9.036767,-0.001519,0.014048,0.000558,0.304688,0.51123,0.739014,-0.172912,3.707599,9.102988,0.003813,0.005609,0.010334,0.447998,-0.24292,-0.353271,-0.950906,2.979382,9.266762,-0.000943,0.0006,0.002514,0.366211,-0.121338,-0.625732
0.046366,-1.071408,9.78361,0.000231,-0.001952,-0.00153,-0.161377,0.438965,-0.544189,-0.253378,3.148581,9.302805,-0.011762,0.008338,0.005046,-0.870361,0.212891,-0.032471,-0.40335,3.893841,9.03905,0.004599,-0.005208,0.002522,0.291016,0.501465,0.734131,-0.144486,3.731687,9.134732,-0.010177,-0.002769,0.007,0.450439,-0.246582,-0.351318,-0.953016,2.977809,9.28857,-0.001476,-0.000568,-0.007878,0.355225,-0.131836,-0.634766
0.060001,-1.095032,9.78595,-0.000157,0.005991,-0.000355,-0.159912,0.441406,-0.544434,-0.285335,3.059084,9.288037,-0.03931,0.007648,0.006609,-0.869629,0.212891,-0.031006,-0.371459,3.892495,9.042869,-0.016243,0.010434,0.002795,0.293945,0.499023,0.732178,-0.14291,3.708469,9.109224,-0.007629,0.001957,0.010324,0.453125,-0.23877,-0.343262,-0.948974,3.003795,9.298907,0.00854,-0.004842,-0.000172,0.352783,-0.134521,-0.634033
0.045279,-1.072822,9.769833,-0.001907,0.001732,-0.000538,-0.156494,0.443115,-0.546631,-0.251789,3.045296,9.283238,0.009064,0.004013,0.002453,-0.86377,0.216553,-0.031494,-0.425285,3.856663,9.031154,-0.002451,0.006771,0.000824,0.298096,0.506592,0.740234,-0.159053,3.727989,9.128842,-0.002738,0.008696,0.012215,0.452393,-0.246338,-0.34375,-0.946645,3.0055,9.277077,-0.004161,0.000364,-0.002371,0.359863,-0.126465,-0.624756
0.058995,-1.096428,9.772176,0.002133,0.001622,-0.001007,-0.155518,0.437988,-0.547363,-0.274844,3.15203,9.31212,0.00843,0.010733,0.005879,-0.866211,0.211426,-0.035156,-0.413339,3.895035,9.051296,0.008509,0.000717,-0.000543,0.294434,0.496094,0.741211,-0.155932,3.703436,9.112125,-0.005576,-0.004848,0.007436,0.455566,-0.241943,-0.345459,-0.944841,2.967352,9.293059,-0.004748,7.2e-05,-0.004093,0.358643,-0.136719,-0.624512
0.064803,-1.06629,9.790666,0.003431,-0.002259,0.001456,-0.161865,0.440918,-0.541992,-0.263717,3.108031,9.323906,-0.037237,-0.001822,0.004354,-0.870605,0.213867,-0.031006,-0.397447,3.878677,9.033396,-0.010791,0.00629,0.002185,0.296143,0.502441,0.737549,-0.142377,3.742164,9.109931,-0.001499,0.00072,0.010624,0.456543,-0.245605,-0.347412,-0.931326,2.987668,9.295179,0.010137,-0.003283,-0.000455,0.362305,-0.130859,-0.629395
0.042869,-1.087259,9.785128,0.00053,0.005859,-0.001697,-0.160889,0.44165,-0.546143,-0.247423,3.008079,9.269051,-0.012261,0.014872,0.006993,-0.875244,0.211182,-0.032227,-0.407491,3.875544,9.037327,-0.007436,0.002872,0.001693,0.301025,0.503418,0.734863,-0.16565,3.729354,9.133353,-0.01624,0.012414,0.009333,0.459961,-0.236328,-0.351318,-0.943195,3.024399,9.269186,0.006091,0.002159,-0.008276,0.362305,-0.131592,-0.632568
0.031848,-1.070577,9.776445,-0.004268,-0.0008,0.000375,-0.149414,0.441895,-0.546875,-0.288628,3.098799,9.316961,0.015533,0.004492,0.003062,-0.862305,0.211426,-0.032471,-0.427214,3.872074,9.044,-0.003972,0.009533,-0.00014,0.304932,0.507812,0.735107,-0.170198,3.69818,9.10687,-0.001341,-0.008107,0.007808,0.450684,-0.249756,-0.343018,-0.936824,2.996266,9.259822,-0.015559,-0.007964,0.003508,0.366211,-0.122314,-0.629639
0.068243,-1.112354,9.794575,-0.001218,0.000169,-0.002692,-0.16748,0.437988,-0.544189,-0.227542,3.133122,9.310207,-0.019373,0.003575,0.006648,-0.881592,0.209229,-0.029297,-0.41216,3.896316,9.036831,0.007536,-0.003967,0.002664,0.295166,0.496582,0.739502,-0.125691,3.7386,9.118822,-0.000174,0.002072,0.012507,0.456543,-0.239014,-0.351807,-0.925184,2.952095,9.267736,0.001711,0.00817,-0.004716,0.356934,-0.135254,-0.626953
0.058747,-1.077302,9.784665,0.010287,0.003416,0.001074,-0.160156,0.447754,-0.542969,-0.29999,3.049915,9.307046,-0.025705,0.012647,0.006318,-0.869873,0.215576,-0.029053,-0.3877,3.899431,9.051623,-0.013911,0.011273,-4.3e-05,0.301758,0.505371,0.734619,-0.181557,3.718072,9.104813,-0.004574,0.014715,0.009189,0.453125,-0.23877,-0.349609,-0.956949,3.015685,9.293974,0.020394,-0.005572,-0.009072,0.364746,-0.128418,-0.631104
0.035851,-1.058695,9.768924,-0.000992,0.002511,-0.001787,-0.154541,0.441895,-0.544434,-0.255553,3.057833,9.297694,0.003495,-0.000562,0.001036,-0.86499,0.211914,-0.031982,-0.450366,3.857098,9.010981,-0.004005,0.005664,0.004068,0.296631,0.505371,0.737305,-0.176316,3.730084,9.159673,-0.012052,-0.006444,0.010787,0.451172,-0.244385,-0.347656,-0.923813,3.021657,9.270469,-0.010839,-0.001068,0.004862,0.360352,-0.128662,-0.627197
0.047985,-1.097821,9.800073,-0.007543,-0.002089,-0.002367,-0.160645,0.441895,-0.539062,-0.248206,3.12544,9.311487,0.00094,0.014527,0.00759,-0.870605,0.213623,-0.024658,-0.3897,3.897486,9.052375,0.004475,-0.002422,-0.002281,0.295654,0.502197,0.737793,-0.111758,3.692351,9.096647,-0.007262,-0.004429,0.008362,0.446045,-0.244873,-0.343262,-0.963843,2.967364,9.282472,-0.011685,0.000846,-0.00793,0.357666,-0.133301,-0.628174
0.068597,-1.095916,9.779516,0.004265,0.003663,0.001249,-0.15918,0.439453,-0.544678,-0.281663,3.09926,9.29428,-0.025465,-0.000401,0.001049,-0.870117,0.212891,-0.033203,-0.387682,3.882598,9.025328,-0.013814,0.010177,0.004313,0.289551,0.500732,0.743164,-0.164683,3.72524,9.126834,0.007454,0.014671,0.012002,0.451904,-0.248291,-0.344238,-0.923001,2.961939,9.263715,0.014093,-0.008218,0.001067,0.35083,-0.133301,-0.623779
0.021731,-1.075935,9.763014,0.001218,0.003285,-0.001399,-0.155762,0.442383,-0.559082,-0.248297,3.05971,9.30115,-0.009791,0.012708,0.006753,-0.866455,0.212402,-0.046143,-0.423975,3.881655,9.046388,1e-06,0.005615,-0.001041,0.294678,0.501465,0.742188,-0.182974,3.737052,9.123856,-0.01416,0.000175,0.009145,0.453125,-0.237061,-0.35498,-0.952251,3.030349,9.277353,0.005848,0.006598,-0.010509,0.357666,-0.132812,-0.627441
0.036228,-1.080236,9.791491,0.000229,-0.000521,-0.000718,-0.149902,0.448486,-0.540039,-0.297131,3.096131,9.316035,0.003378,0.005478,0.003584,-0.865479,0.220459,-0.028564,-0.41328,3.87395,9.047909,-0.004241,0.004042,0.003175,0.296143,0.50708,0.728516,-0.122994,3.720412,9.10878,-0.006951,-0.011563,0.007621,0.450684,-0.246826,-0.353516,-0.950435,2.988754,9.284235,-0.011986,-0.005045,0.006529,0.36084,-0.125,-0.63623
0.075096,-1.08798,9.806875,-0.002287,0.001505,-0.000971,-0.158936,0.439209,-0.543213,-0.212369,3.09808,9.308176,-0.017431,0.001069,0.004578,-0.870361,0.211914,-0.031494,-0.388232,3.884748,9.034555,-0.003203,-0.001117,0.002128,0.294922,0.499023,0.730957,-0.139497,3.70635,9.119409,0.000792,0.017095,0.014487,0.456055,-0.236328,-0.349854,-0.934501,2.958929,9.275598,0.002162,0.001153,-0.006383,0.358643,-0.130371,-0.63501
0.033988,-1.097925,9.779175,0.006702,0.007789,9.2e-05,-0.16748,0.443359,-0.552734,-0.285004,3.067042,9.281359,-0.012111,0.016647,0.00587,-0.879395,0.213867,-0.039795,-0.399068,3.882768,9.037947,-0.004681,0.015953,-0.001289,0.297607,0.506836,0.735596,-0.203106,3.735286,9.130501,-0.008637,0.004542,0.006846,0.452637,-0.237793,-0.353516,-0.942905,3.024972,9.269029,0.016672,-0.002,-0.006333,0.360352,-0.127686,-0.628662
0.023975,-1.062085,9.782967,-0.000761,-0.002895,0.000775,-0.158203,0.452637,-0.546143,-0.282592,3.091011,9.305585,-0.00452,-0.00485,0.002027,-0.86499,0.225098,-0.03418,-0.449232,3.884676,9.049233,-0.003821,-0.000617,0.002538,0.296143,0.510254,0.730957,-0.131398,3.709163,9.130719,-0.007979,-0.016003,0.009917,0.454834,-0.241699,-0.347168,-0.936478,3.013338,9.29524,-0.015348,-0.003905,0.004019,0.358398,-0.123291,-0.635742
0.088973,-1.094422,9.807875,-0.006477,0.001879,-0.004106,-0.16333,0.437744,-0.548096,-0.214856,3.091895,9.296891,-0.014815,0.01337,0.008029,-0.873047,0.209717,-0.034912,-0.363698,3.899019,9.029876,-0.000566,-0.002883,0.001303,0.297852,0.503906,0.73877,-0.126815,3.718401,9.122928,-0.002901,0.01539,0.010326,0.457275,-0.23999,-0.349365,-0.93833,2.941299,9.283036,-0.002381,0.004776,-0.010306,0.361572,-0.131104,-0.626709
0.037036,-1.086188,9.785271,0.009826,0.008331,0.001685,-0.161133,0.447998,-0.549072,-0.300506,3.063343,9.289979,-0.007855,0.008244,0.004337,-0.870361,0.220947,-0.0354,-0.426841,3.862972,9.020733,-0.010667,0.020289,0.000252,0.299805,0.506592,0.735107,-0.211214,3.728606,9.112563,-0.002546,0.009272,0.012264,0.456299,-0.243652,-0.348877,-0.965571,3.010909,9.274976,0.022322,-0.007923,-0.000152,0.363037,-0.128906,-0.629639
0.022583,-1.062665,9.769279,-0.001065,-0.002957,-0.000714,-0.158936,0.449951,-0.544922,-0.241342,3.093783,9.311235,-0.005278,0.002019,0.004422,-0.87207,0.221924,-0.030029,-0.437694,3.86125,9.024,0.005035,-0.005099,0.001069,0.300049,0.504395,0.738281,-0.140368,3.724104,9.13896,-0.009625,-0.017778,0.00674,0.454834,-0.243652,-0.345459,-0.924629,3.009733,9.265078,-0.016482,0.000252,-0.004367,0.363037,-0.12915,-0.630127
0.082581,-1.104828,9.801949,-0.002287,0.001505,-0.000972,-0.155273,0.445557,-0.549316,-0.282005,3.098027,9.310345,-0.018172,0.010875,0.007503,-0.86499,0.215088,-0.034424,-0.362984,3.920531,9.050445,-0.003795,0.003306,0.001944,0.30127,0.501953,0.737549,-0.111325,3.70721,9.109156,-0.004666,0.00943,0.010644,0.450195,-0.239746,-0.356689,-0.953525,2.966869,9.2829,-0.001249,0.001638,-0.001242,0.362305,-0.133057,-0.628418
0.049132,-1.069813,9.777472,0.005712,0.005415,0.001585,-0.153564,0.440674,-0.546143,-0.248462,3.072172,9.31112,-0.007097,0.000404,0.001762,-0.864746,0.213135,-0.035156,-0.445607,3.85804,9.003916,-0.012022,0.012057,0.002186,0.294678,0.506592,0.729248,-0.198211,3.736301,9.155915,-0.000709,0.015147,0.012584,0.458008,-0.241943,-0.347168,-0.928441,2.999317,9.290643,0.016841,-0.006255,-0.003256,0.358887,-0.124756,-0.637451
0.028173,-1.073135,9.784236,-0.00442,-0.001547,-0.000777,-0.15918,0.448242,-0.540039,-0.283433,3.095166,9.29797,-0.004602,0.013868,0.006889,-0.869873,0.218262,-0.026611,-0.413203,3.880789,9.051352,0.003737,0.00013,0.000777,0.301025,0.501221,0.738281,-0.174124,3.724516,9.107541,-0.012065,-0.014262,0.004841,0.456055,-0.247314,-0.350098,-0.954921,3.017787,9.2935,-0.009922,0.000184,-0.003778,0.364746,-0.132324,-0.630127
0.057523,-1.102841,9.801253,0.000915,0.000779,-0.001248,-0.155029,0.442383,-0.544189,-0.272553,3.077394,9.297835,-0.014583,-0.002555,0.004741,-0.865234,0.212402,-0.032715,-0.423006,3.887756,9.026064,-0.001748,0.005963,0.000938,0.301025,0.499756,0.734375,-0.12386,3.727028,9.098949,0.001284,-0.000802,0.010733,0.453369,-0.242188,-0.338867,-0.92019,2.980269,9.277465,-0.004065,-0.000653,0.003589,0.36377,-0.133789,-0.629883
0.048221,-1.069439,9.777517,0.004343,0.003825,0.000194,-0.161133,0.443359,-0.54248,-0.239247,3.075625,9.300875,-0.0081,0.009566,0.004964,-0.870605,0.214355,-0.031006,-0.41226,3.892836,9.031524,-0.007157,0.001108,0.003473,0.297607,0.501953,0.743896,-0.182652,3.725136,9.142149,-0.009598,0.020585,0.011156,0.447266,-0.245605,-0.34375,-0.949399,2.993682,9.292975,0.010597,0.002443,-0.009128,0.361328,-0.128662,-0.620605
0.038667,-1.072988,9.791533,-0.002211,0.003099,-0.001217,-0.162354,0.447021,-0.551758,-0.30776,3.072882,9.28353,-0.013396,0.009546,0.003972,-0.874023,0.219727,-0.035889,-0.405855,3.865769,9.045694,-0.011192,0.009202,-0.00035,0.28833,0.498047,0.73877,-0.197906,3.712163,9.122531,-0.007951,-0.010638,0.007843,0.450684,-0.242188,-0.352539,-0.924343,3.017828,9.28294,-0.000341,-0.008819,-0.0022,0.353516,-0.134033,-0.627197
0.052393,-1.096136,9.807573,-0.003502,-0.002199,-0.002837,-0.157715,0.441162,-0.541504,-0.237103,3.074681,9.309856,-0.002954,0.001935,0.003488,-0.871338,0.212158,-0.030518,-0.420933,3.867817,9.036222,0.009085,0.002805,0.002003,0.293701,0.50415,0.731934,-0.122917,3.723622,9.100356,0.003057,-0.003238,0.010242,0.44751,-0.244385,-0.34082,-0.939091,2.980144,9.266935,-0.012256,0.005333,0.000883,0.357666,-0.131104,-0.634033
0.057031,-1.085015,9.799971,0.010134,0.00553,0.001552,-0.169189,0.442871,-0.540771,-0.272006,3.110683,9.29091,-0.005499,0.013089,0.00683,-0.878418,0.215332,-0.028809,-0.383572,3.918096,9.042697,-3.8e-05,0.002537,-0.000668,0.289551,0.501221,0.743652,-0.135566,3.738745,9.138293,-0.008851,0.018323,0.012126,0.450928,-0.239502,-0.356689,-0.964911,2.960734,9.285582,0.011844,0.00183,-0.007209,0.351807,-0.132812,-0.622803
0.027688,-1.057012,9.755505,-0.001221,0.000589,0.00057,-0.158936,0.442383,-0.547607,-0.273276,3.06882,9.309241,-0.029938,-0.000312,0.003929,-0.872559,0.216797,-0.037354,-0.42288,3.866545,9.036676,-0.020452,0.011035,0.003235,0.293701,0.50415,0.728271,-0.177547,3.709521,9.109484,-0.007732,-0.004422,0.009718,0.45459,-0.248535,-0.343262,-0.94328,3.025751,9.290252,0.008647,-0.011979,0.001721,0.356689,-0.128906,-0.636963
0.06688,-1.104465,9.781121,-0.007391,0.003541,-0.0045,-0.157715,0.447754,-0.546387,-0.243724,3.027645,9.294567,-0.00137,0.009739,0.00767,-0.868652,0.219238,-0.0354,-0.419252,3.869385,9.021681,0.005837,-0.000596,0.000664,0.298584,0.497559,0.73877,-0.134126,3.724819,9.126477,-0.005768,-0.00249,0.010278,0.451904,-0.246094,-0.349854,-0.944646,3.004611,9.267341,-0.016,0.007176,-0.004876,0.361328,-0.135986,-0.626709
0.039946,-1.079199,9.785287,0.008459,0.002868,0.001124,-0.160156,0.438477,-0.551758,-0.292698,3.140492,9.28849,0.013969,0.006435,0.003239,-0.871338,0.212891,-0.040283,-0.400874,3.909512,9.062566,0.002282,0.009892,-0.001146,0.29541,0.499023,0.736328,-0.158933,3.720547,9.100155,-0.00193,0.011777,0.011147,0.459961,-0.241455,-0.342529,-0.962486,2.969481,9.281936,0.003717,-0.002032,-0.001725,0.360107,-0.133057,-0.63208
0.052342,-1.060519,9.804994,-7.7e-05,-0.000163,0.001056,-0.153076,0.447021,-0.548096,-0.231956,3.109056,9.311364,-0.040384,0.001469,0.003335,-0.865967,0.218018,-0.033691,-0.407558,3.866698,9.031276,-0.014117,0.000706,0.004593,0.305176,0.503418,0.740479,-0.173106,3.738608,9.128668,0.000116,-0.000473,0.010935,0.456055,-0.248291,-0.34375,-0.919813,2.9853,9.286104,0.006495,-0.004486,-0.001613,0.367676,-0.128906,-0.626465
0.0374,-1.094246,9.800519,-0.003584,0.004372,-0.000986,-0.162842,0.441406,-0.54126,-0.268459,2.992172,9.285884,-0.014516,0.014039,0.00778,-0.875732,0.212891,-0.029785,-0.401342,3.866615,9.052689,-0.000773,0.005034,-0.001222,0.299805,0.497559,0.741455,-0.156075,3.716184,9.110182,-0.015552,-0.001907,0.008492,0.456787,-0.246826,-0.341797,-0.974046,3.01849,9.282676,0.007675,0.004746,-0.007886,0.36084,-0.13623,-0.625488
0.056,-1.070659,9.757434,0.006403,-2.1e-05,0.000262,-0.157715,0.447998,-0.541992,-0.280105,3.119197,9.311462,0.028906,-0.000252,2.9e-05,-0.870605,0.216064,-0.030518,-0.433121,3.879142,9.02929,-0.002702,0.010813,0.00251,0.297607,0.501709,0.742188,-0.149591,3.706892,9.138669,-0.00092,0.004308,0.011559,0.450439,-0.245605,-0.344238,-0.929504,2.991807,9.29403,-0.012184,-0.007584,0.007043,0.362061,-0.135254,-0.625
0.053333,-1.082488,9.813895,-0.004344,4.7e-05,-0.001023,-0.164062,0.445068,-0.540283,-0.225248,3.136041,9.316899,-0.031952,0.010186,0.00638,-0.872803,0.215576,-0.026855,-0.398988,3.883642,9.040983,-0.000671,-0.007346,0.001592,0.295898,0.500732,0.73877,-0.16917,3.72645,9.086389,-0.003254,0.005815,0.0101,0.448975,-0.243164,-0.353271,-0.944385,2.953694,9.278146,-0.003987,0.005259,-0.008667,0.356689,-0.131592,-0.628906
0.044955,-1.090795,9.772881,0.006172,0.008244,-0.000677,-0.158936,0.440918,-0.547607,-0.304962,3.012609,9.260264,-0.026793,0.00743,0.005796,-0.870605,0.213379,-0.034668,-0.406101,3.867161,9.01721,-0.013643,0.015124,0.0007,0.294678,0.501953,0.732666,-0.1608,3.715553,9.123757,-0.00544,-0.003164,0.009517,0.454102,-0.235352,-0.35376,-0.952916,3.015751,9.262617,0.021282,-0.005276,-0.002923,0.356201,-0.134033,-0.63208
0.029424,-1.064274,9.79808,-0.001828,-0.001978,-0.000768,-0.158203,0.447754,-0.541504,-0.236292,3.074213,9.299239,0.020778,0.001468,0.001039,-0.868408,0.220215,-0.030029,-0.433487,3.880975,9.038657,0.003222,-0.000523,0.001934,0.301025,0.508789,0.732178,-0.142525,3.711774,9.140917,-0.00963,0.001957,0.009977,0.449463,-0.240234,-0.3479,-0.940723,3.031721,9.277284,-0.01041,-0.00266,-0.000555,0.364746,-0.125244,-0.634033
0.061036,-1.117531,9.810223,-0.00381,0.00203,-0.001892,-0.15918,0.443359,-0.540527,-0.275179,3.14218,9.331554,-0.019029,0.012086,0.007799,-0.869629,0.21582,-0.029053,-0.383264,3.896347,9.039667,-0.003427,0.002031,0.000414,0.292969,0.504395,0.737549,-0.167502,3.72301,9.08783,0.002016,0.006146,0.010034,0.455566,-0.235107,-0.348633,-0.935004,2.956009,9.28779,-0.013814,0.005447,-0.005807,0.356445,-0.128174,-0.630859
0.044644,-1.073486,9.771534,0.009221,0.00576,0.000351,-0.161621,0.440186,-0.550781,-0.249527,3.061773,9.299018,-0.019851,0.000384,0.004265,-0.868408,0.214111,-0.038574,-0.421577,3.898753,9.024066,-0.006299,0.012609,0.002107,0.300049,0.509521,0.73291,-0.158108,3.735994,9.120734,-0.007093,-5.9e-05,0.009415,0.444824,-0.247803,-0.345459,-0.970293,2.989191,9.294946,0.024194,-0.002462,-0.000781,0.36499,-0.125977,-0.632812
0.052206,-1.066495,9.78516,-0.002516,-0.001846,0.000573,-0.1604,0.44458,-0.542725,-0.257283,3.07841,9.308267,-0.000466,0.011411,0.002871,-0.871826,0.216064,-0.026367,-0.413159,3.885306,9.017788,-0.004858,-0.001126,0.001006,0.290039,0.502441,0.73999,-0.145271,3.713156,9.123916,-0.012676,-0.000812,0.008192,0.450928,-0.23584,-0.341309,-0.929448,3.042874,9.283192,-0.006549,-0.008627,-0.006344,0.352051,-0.134277,-0.627686
0.054325,-1.090885,9.780168,-0.006404,0.003892,-0.001092,-0.16333,0.44458,-0.547852,-0.280484,3.073051,9.299979,-0.013636,0.003175,0.008219,-0.876953,0.216064,-0.037842,-0.41563,3.871357,9.038329,-0.005334,0.006116,0.004592,0.296143,0.510254,0.742188,-0.152441,3.706665,9.11412,0.003309,0.00564,0.011097,0.451416,-0.237549,-0.345459,-0.9403,2.968438,9.261439,-0.013856,0.006322,0.002862,0.361084,-0.123779,-0.624023
0.037164,-1.102464,9.766811,0.002974,0.002236,-0.001196,-0.153076,0.439941,-0.547607,-0.252067,3.106939,9.278161,0.001836,0.005511,0.003389,-0.864746,0.213379,-0.036133,-0.415018,3.897446,9.021928,0.004872,0.005895,-0.001817,0.294922,0.507568,0.73999,-0.170498,3.740452,9.137318,-0.00341,0.003295,0.009876,0.44873,-0.243652,-0.348633,-0.971761,2.96463,9.262902,0.014029,-0.000912,-0.008821,0.358643,-0.127441,-0.630615
0.035056,-1.058919,9.797907,0.005866,0.000858,0.002755,-0.158447,0.442871,-0.546631,-0.286562,3.113121,9.346994,-0.017998,0.009763,0.005842,-0.869385,0.211182,-0.036621,-0.416722,3.902538,9.053941,-0.007848,0.005834,0.002767,0.293213,0.502441,0.736816,-0.171334,3.720137,9.102345,-0.012096,-0.000978,0.008093,0.453125,-0.244873,-0.342773,-0.933184,3.028708,9.299757,0.005491,-0.008306,-0.0013,0.356934,-0.131104,-0.631592
0.062676,-1.068328,9.77863,-0.005029,0.001188,-0.002135,-0.15918,0.451416,-0.545898,-0.247102,3.032486,9.280515,-0.02216,0.000489,0.005192,-0.872803,0.224609,-0.031982,-0.422838,3.859219,9.02285,-0.008893,0.000558,0.002051,0.296143,0.501709,0.740234,-0.151536,3.714231,9.128576,0.00064,0.003207,0.011235,0.451904,-0.252197,-0.345703,-0.948335,2.987639,9.274589,-0.013958,0.007844,-0.002758,0.360352,-0.132324,-0.625977
0.028953,-1.090065,9.765691,0.000152,0.003187,-0.00049,-0.162354,0.441162,-0.546875,-0.255775,3.074733,9.291636,0.017484,0.014606,0.005932,-0.873047,0.213623,-0.031494,-0.392381,3.898667,9.037542,0.005903,0.006402,-0.000287,0.294189,0.496338,0.736816,-0.17268,3.714932,9.134218,-0.014436,0.005405,0.009714,0.455078,-0.243896,-0.349121,-0.970128,2.977633,9.268023,0.008371,-0.003637,-0.005286,0.357422,-0.137695,-0.628418
0.052118,-1.090511,9.780222,0.001523,-0.000526,0.000919,-0.154053,0.441406,-0.545166,-0.277935,3.142776,9.325265,-0.018046,-3e-05,0.001504,-0.864258,0.215088,-0.031738,-0.437685,3.884054,9.057476,-0.013031,0.009009,0.001321,0.301025,0.502686,0.737061,-0.162542,3.710917,9.101047,0.002307,-0.000996,0.009283,0.456787,-0.238525,-0.347656,-0.895821,2.996428,9.271004,-0.005265,-0.012121,0.001026,0.364258,-0.130371,-0.631348
0.039162,-1.087477,9.800521,0.001297,0.004875,-0.001643,-0.151855,0.439209,-0.553223,-0.2336,3.039471,9.277926,-0.029195,0.009705,0.008569,-0.86377,0.211426,-0.039062,-0.400731,3.881804,9.01387,0.002048,-0.003754,0.003866,0.302979,0.508057,0.73584,-0.168042,3.723794,9.126632,-0.004841,0.00422,0.01147,0.457031,-0.236084,-0.353516,-0.946435,2.98786,9.253191,0.001062,0.017401,-0.00749,0.364258,-0.123047,-0.626953
0.028505,-1.070832,9.778179,0.004422,0.000116,-3.2e-05,-0.161621,0.443115,-0.546143,-0.298415,3.063224,9.284006,0.01229,0.00855,0.002367,-0.871582,0.2146,-0.033203,-0.418398,3.897473,9.03195,-0.005606,0.013445,-0.001836,0.300537,0.508545,0.734375,-0.173592,3.729733,9.099564,-0.009447,0.002547,0.010014,0.454102,-0.22998,-0.355713,-0.974261,3.025726,9.300766,0.009664,-0.013773,-0.002318,0.364258,-0.125488,-0.632812
