# sampling frequency: 40
# units are seconds/meters/radians/a.u.
seg1_acc_x,seg1_acc_y,seg1_acc_z,seg1_gyr_x,seg1_gyr_y,seg1_gyr_z,seg1_mag_x,seg1_mag_y,seg1_mag_z,seg2_acc_x,seg2_acc_y,seg2_acc_z,seg2_gyr_x,seg2_gyr_y,seg2_gyr_z,seg2_mag_x,seg2_mag_y,seg2_mag_z,seg3_acc_x,seg3_acc_y,seg3_acc_z,seg3_gyr_x,seg3_gyr_y,seg3_gyr_z,seg3_mag_x,seg3_mag_y,seg3_mag_z,seg4_acc_x,seg4_acc_y,seg4_acc_z,seg4_gyr_x,seg4_gyr_y,seg4_gyr_z,seg4_mag_x,seg4_mag_y,seg4_mag_z,seg5_acc_x,seg5_acc_y,seg5_acc_z,seg5_gyr_x,seg5_gyr_y,seg5_gyr_z,seg5_mag_x,seg5_mag_y,seg5_mag_z
1.900849,-7.265354,6.409219,0.0151,5.1e-05,-0.007327,-0.416504,0.600342,0.121094,-0.040302,8.951172,4.70291,-0.013016,0.001137,0.003533,-0.262207,0.576904,0.247559,-2.422404,-6.61655,7.032098,-0.069146,0.025501,0.02047,0.47583,0.137695,-0.003906,3.700604,-6.937233,6.194546,0.010425,0.022539,0.007347,0.033936,0.244141,-0.463623,0.399574,-6.377682,7.384683,-0.072245,-0.008424,-0.00486,-0.260498,0.528809,-0.348877
1.963136,-7.131252,6.458551,0.039895,-0.00478,-0.01083,-0.414307,0.612549,0.118164,0.017355,8.537599,4.494023,-0.083509,0.019424,0.011189,-0.25708,0.588623,0.242432,-2.447345,-6.517868,7.084425,0.087103,-0.010792,-0.017353,0.478027,0.147949,-0.006104,3.635838,-6.593453,6.205514,0.080127,-0.028211,-0.026249,0.037354,0.251221,-0.467773,0.564719,-6.472164,7.46808,0.023896,-0.035278,-0.012106,-0.257324,0.537354,-0.353027
1.980185,-7.040611,6.44804,0.008686,0.001601,-0.003814,-0.416504,0.609863,0.121582,-0.0489,8.54175,4.475293,0.068064,0.006675,-0.001829,-0.258789,0.587402,0.242676,-2.310275,-6.152263,7.113459,0.02548,0.006235,-0.001541,0.473389,0.145752,-0.00293,3.919039,-6.482177,6.126757,-0.044699,-0.014349,0.023422,0.034912,0.253418,-0.4646,0.615744,-6.357838,7.567768,0.048548,-0.001722,-0.007588,-0.259277,0.538086,-0.350342
1.962839,-7.074147,6.472667,-0.005329,0.002856,0.007148,-0.422607,0.610596,0.118652,-0.010887,8.872646,4.545878,0.012288,-0.00179,0.004712,-0.264404,0.58667,0.242188,-2.444382,-6.405382,7.099989,-0.078483,0.014817,0.021086,0.469727,0.14502,-0.003906,3.691776,-6.84967,6.142593,-0.043925,0.057497,0.031344,0.03125,0.253906,-0.469727,0.545846,-6.282014,7.492162,0.005348,0.026266,0.003292,-0.264893,0.539062,-0.352783
1.894252,-7.131756,6.442279,-0.028933,0.005506,0.004981,-0.413086,0.616455,0.116455,-0.064917,8.673673,4.57313,-0.092533,0.007518,0.010291,-0.257812,0.595215,0.240479,-2.424559,-6.541126,7.068298,0.000554,-0.004067,-0.014158,0.479004,0.150879,-0.005615,3.661075,-6.730363,6.304888,0.046971,-0.007451,-0.013246,0.039551,0.26123,-0.471924,0.419605,-6.270855,7.425284,-0.030645,0.009624,0.000381,-0.257568,0.542969,-0.352539
1.934064,-7.218855,6.432585,-0.017454,-0.005036,-0.000517,-0.41626,0.611816,0.114502,-0.013797,8.492719,4.554669,-0.001858,-0.010866,0.007625,-0.261963,0.589355,0.241699,-2.413143,-6.382944,7.076738,0.024084,0.003136,0.001465,0.472412,0.145264,-0.006836,3.720051,-6.592429,6.291478,-0.026658,-0.005101,0.020218,0.03125,0.256348,-0.475342,0.496288,-6.356072,7.421711,-0.040622,-0.018875,-0.001408,-0.262207,0.540771,-0.356934
1.971923,-7.21446,6.417204,0.005636,0.002893,-0.003904,-0.416992,0.608887,0.119141,0.061999,8.778665,4.600472,0.047078,0.02109,-0.0016,-0.260254,0.585693,0.244141,-2.349154,-6.295519,7.1124,-0.01631,-0.003405,-0.014384,0.477295,0.143555,-0.003906,3.717103,-6.732801,6.122844,-0.03533,-0.039298,0.010474,0.035889,0.251221,-0.470459,0.551918,-6.414553,7.483042,-0.024691,-0.013212,-0.005702,-0.26123,0.536377,-0.351318
1.96645,-7.109284,6.429424,0.01809,0.000479,6.3e-05,-0.41748,0.608643,0.117188,-0.101051,8.726431,4.57281,-0.074276,0.007811,0.012618,-0.260742,0.585205,0.245361,-2.380094,-6.487262,7.019109,-0.05843,0.010512,0.020216,0.473633,0.142578,-0.006104,3.821514,-6.734311,6.010678,0.000217,0.005812,0.009701,0.035156,0.250977,-0.467285,0.5776,-6.455069,7.500884,-0.010607,0.001963,-0.00559,-0.260986,0.535645,-0.352783
1.92496,-7.134773,6.440257,-0.008162,0.003298,0.000512,-0.415527,0.597656,0.116699,0.044011,8.491033,4.500683,-0.005055,-0.011875,0.000392,-0.259033,0.575439,0.242188,-2.403061,-6.530881,7.073017,0.04103,0.002582,-0.008857,0.476074,0.135254,-0.005859,3.687739,-6.688367,6.166095,0.023285,0.03884,0.005904,0.037109,0.241943,-0.472412,0.494245,-6.370681,7.425459,0.048387,0.019738,0.003232,-0.258545,0.526611,-0.351807
1.94043,-7.211316,6.419638,-0.001462,0.001998,-0.001315,-0.408447,0.603271,0.119873,-0.009476,8.752066,4.638837,0.055422,0.021672,0.00495,-0.253174,0.580322,0.243408,-2.395203,-6.252546,7.127879,0.04127,0.00767,0.001308,0.481934,0.138672,-0.003174,3.744139,-6.634361,6.312254,-0.00163,0.005056,0.009338,0.043457,0.24585,-0.466309,0.468638,-6.241764,7.472822,0.025215,-0.010162,-0.014675,-0.252686,0.529541,-0.350586
1.916939,-7.178197,6.464783,0.020251,0.000981,-0.002991,-0.421875,0.616211,0.11792,-0.0365,8.767465,4.587757,-0.045035,-0.002319,0.003577,-0.267334,0.592529,0.243896,-2.444643,-6.372563,7.086387,-0.062611,0.005301,0.009136,0.467285,0.149902,-0.005615,3.664432,-6.759402,6.267472,-0.030401,0.010653,0.019061,0.029785,0.260498,-0.467529,0.552716,-6.314187,7.463484,-0.055272,-0.01081,0.006521,-0.265381,0.543701,-0.353027
1.977634,-7.050953,6.450086,0.015775,-0.001572,-0.002841,-0.416748,0.606689,0.121094,0.000941,8.565739,4.482529,-0.026538,0.013989,0.005561,-0.257568,0.586182,0.249023,-2.393386,-6.512907,7.073299,-0.000947,-0.004345,-0.006881,0.476807,0.143555,-0.002441,3.689118,-6.730789,6.175932,0.017328,-0.045184,-0.005422,0.035889,0.253418,-0.465088,0.509014,-6.436315,7.464085,0.00163,0.013669,-0.007933,-0.259766,0.537109,-0.347168
1.958204,-7.068702,6.459763,-0.026411,0.002636,0.0049,-0.415283,0.605957,0.112549,-0.050183,8.666455,4.530113,0.014705,0.000716,0.004995,-0.257324,0.584961,0.241455,-2.391638,-6.354667,7.091979,0.024736,0.010894,-0.006835,0.478271,0.143311,-0.006104,3.863906,-6.589351,6.090298,-0.010564,0.003846,0.011138,0.037842,0.249756,-0.474609,0.520507,-6.321884,7.509429,0.020674,-0.02136,-0.007811,-0.255859,0.5354,-0.353027
1.967129,-7.217671,6.442183,-0.028986,0.002526,0.005335,-0.415527,0.619629,0.126221,0.023297,8.74633,4.603979,-0.022139,-0.007794,0.004469,-0.259766,0.596924,0.250244,-2.418781,-6.332572,7.095106,-0.0328,0.000197,0.003519,0.475586,0.153809,0.000732,3.672629,-6.727755,6.165547,-0.031976,0.034752,0.024851,0.036133,0.262451,-0.462891,0.599396,-6.308547,7.465078,-0.039964,0.002936,0.008142,-0.259033,0.546143,-0.342285
1.891218,-7.235184,6.406482,0.006162,0.005154,0.001475,-0.416748,0.602295,0.118896,-0.017829,8.630956,4.612549,-0.047091,0.011509,0.009673,-0.259766,0.578369,0.243652,-2.372134,-6.489732,7.060639,-0.028943,0.005987,0.004045,0.4729,0.137695,-0.003418,3.705291,-6.733484,6.226134,0.007728,-0.008021,0.002907,0.0354,0.244873,-0.468994,0.476268,-6.411248,7.383128,-0.038173,0.030532,-0.003031,-0.260742,0.530029,-0.352539
1.942204,-7.193894,6.45538,0.01164,-0.001594,-0.006566,-0.415283,0.612793,0.121094,-0.031682,8.595326,4.581832,0.023741,0.003581,0.000985,-0.259277,0.589355,0.245117,-2.441184,-6.482213,7.06429,0.016909,0.007656,-0.001519,0.475342,0.147705,-0.001953,3.707853,-6.723372,6.24434,-0.008995,0.002146,0.012826,0.035889,0.253906,-0.468506,0.437191,-6.429564,7.404566,0.026966,-0.02032,-0.003212,-0.260254,0.540771,-0.348389
1.944285,-7.169805,6.421329,0.02054,0.000534,-0.006509,-0.417725,0.615723,0.123047,0.037587,8.764399,4.559477,0.015753,0.013982,0.005317,-0.264893,0.593018,0.24707,-2.371449,-6.331435,7.089556,0.028549,-0.004582,-0.005567,0.473633,0.150879,-0.00293,3.734733,-6.683624,6.133253,0.013169,-0.022547,-0.001141,0.034668,0.260498,-0.466309,0.578686,-6.32684,7.496771,0.038535,-0.024816,-0.019204,-0.263916,0.544678,-0.349365
1.967303,-7.059401,6.455579,0.016204,-0.001207,-0.000309,-0.417236,0.613037,0.116455,-0.065481,8.652691,4.516252,-0.044514,0.008104,0.006271,-0.264893,0.587891,0.24292,-2.395489,-6.346351,7.069157,-0.031813,0.012865,0.008619,0.47168,0.149658,-0.00415,3.78138,-6.647698,6.138427,-0.014707,0.017225,0.015045,0.032227,0.254395,-0.46875,0.58301,-6.314204,7.510543,-0.022835,0.016359,0.003893,-0.263916,0.539551,-0.349609
1.949458,-7.110588,6.451511,-0.023322,0.00358,0.004721,-0.41626,0.602783,0.11377,0.018816,8.606379,4.493319,0.003929,-0.007752,0.00266,-0.262207,0.580078,0.240967,-2.422867,-6.487923,7.090893,-0.013741,0.000768,0.002257,0.473877,0.139404,-0.010498,3.69496,-6.739216,6.205697,-0.003695,0.011738,0.011296,0.0354,0.24707,-0.475586,0.475713,-6.399611,7.476596,-0.021444,0.008325,-0.000534,-0.258789,0.531738,-0.357178
1.916573,-7.212755,6.450354,-0.014077,0.004923,0.004373,-0.419922,0.60376,0.116211,-0.031096,8.735372,4.585247,6.4e-05,0.012668,0.004876,-0.265625,0.581787,0.237793,-2.390765,-6.382013,7.081041,0.018786,0.006581,-0.008084,0.470459,0.141113,-0.008789,3.744063,-6.681445,6.279603,-0.002515,0.006809,0.008178,0.032227,0.246826,-0.473145,0.507879,-6.358718,7.409365,0.003756,-0.007613,-0.004581,-0.263672,0.535645,-0.353271
1.93277,-7.180077,6.425133,0.002022,-0.002948,-0.000428,-0.416748,0.607178,0.114258,-0.018937,8.676664,4.585501,-0.037835,-0.006649,0.007137,-0.260498,0.58374,0.242188,-2.438156,-6.378793,7.103257,-0.024965,0.001498,0.002111,0.474609,0.144043,-0.008789,3.650778,-6.719105,6.222404,-0.022151,-0.00797,0.015372,0.036377,0.250244,-0.468994,0.507998,-6.345756,7.443187,-0.006337,0.00056,-0.001947,-0.261719,0.535645,-0.354004
1.957562,-7.185041,6.407423,0.000512,0.004152,-0.003211,-0.413574,0.608154,0.114014,0.026004,8.603516,4.538461,-0.011729,0.016998,0.006398,-0.259277,0.587646,0.236572,-2.34237,-6.460455,7.055815,-0.020647,-0.002367,-0.003828,0.47583,0.142578,-0.011475,3.79565,-6.694006,6.119434,-0.000605,-0.032709,0.001477,0.037354,0.252686,-0.473389,0.527604,-6.375562,7.468182,-0.026943,-0.007477,-0.008501,-0.258789,0.536621,-0.354492
1.953006,-7.135875,6.441164,0.008859,-0.000112,0.000326,-0.427246,0.612549,0.126465,-0.077194,8.682572,4.563974,0.012254,-0.000202,0.002407,-0.268799,0.589111,0.253418,-2.402428,-6.452064,7.039469,0.008733,0.012203,0.00441,0.466309,0.149414,0.000977,3.764705,-6.690837,6.085514,-0.007406,0.028856,0.015689,0.02832,0.256836,-0.461182,0.538151,-6.4304,7.440532,-0.009543,-0.004054,0.001498,-0.268799,0.539062,-0.342041
1.948229,-7.175882,6.441435,-0.008676,0.002472,0.00025,-0.419189,0.612305,0.116211,0.056219,8.693501,4.588213,-0.015004,0.000329,0.004042,-0.265869,0.589844,0.242188,-2.400644,-6.375921,7.088402,0.015008,-0.00128,-0.00227,0.469238,0.147217,-0.005859,3.670688,-6.711256,6.202369,0.006935,0.01052,0.006881,0.03418,0.255371,-0.470215,0.51858,-6.398924,7.44902,0.023047,0.010829,-0.004881,-0.263428,0.540283,-0.35083
1.931993,-7.18819,6.429096,0.011963,0.001578,6.2e-05,-0.411865,0.608154,0.125977,-0.054333,8.632824,4.564633,-0.017383,0.014634,0.007317,-0.255615,0.589111,0.251953,-2.403041,-6.385642,7.086958,-0.016857,0.01167,0.004704,0.477539,0.148926,0.000977,3.734731,-6.690268,6.275766,-0.004765,0.009814,0.011482,0.038086,0.253174,-0.463135,0.486768,-6.31964,7.422015,0.015694,-0.001111,-0.004391,-0.256592,0.536621,-0.344238
1.940957,-7.108502,6.463073,0.010663,0.000429,-0.002235,-0.414062,0.609863,0.128174,0.004758,8.683485,4.533648,0.012801,0.001051,0.002338,-0.258789,0.588867,0.252686,-2.439938,-6.443895,7.100299,-0.006965,-0.000409,-0.000163,0.477295,0.145752,0.005615,3.678222,-6.730501,6.240989,-0.005644,-0.008817,0.008953,0.039307,0.254639,-0.462891,0.514587,-6.325818,7.453843,-0.009748,-0.008749,-0.005259,-0.259277,0.53833,-0.338867
1.975321,-7.104755,6.440407,-0.003949,-0.000984,0.00032,-0.414307,0.61084,0.110107,-0.02133,8.714596,4.539091,-0.020867,0.014667,0.009122,-0.260498,0.589355,0.234619,-2.374705,-6.392679,7.092008,0.00437,0.002519,-0.003785,0.473877,0.147705,-0.012451,3.777187,-6.691762,6.129944,-0.007665,-0.018876,0.006983,0.034912,0.255371,-0.476807,0.524187,-6.36662,7.461069,-0.017224,-0.002617,-0.003098,-0.259766,0.539307,-0.357422
1.967769,-7.13182,6.45751,-0.016492,0.001658,0.003825,-0.40918,0.611328,0.117432,-0.021646,8.628405,4.527585,-0.027423,-0.009443,0.005029,-0.252441,0.585449,0.243896,-2.396618,-6.399772,7.081634,-0.014629,0.007339,0.001948,0.482666,0.14624,-0.004639,3.751012,-6.688406,6.113744,-0.012678,0.012399,0.013675,0.043701,0.254883,-0.470459,0.542987,-6.38711,7.484815,-0.019726,-0.001895,0.000497,-0.253174,0.537354,-0.350586
1.939503,-7.200608,6.426734,-0.013232,0.004218,0.004315,-0.418457,0.613525,0.123291,0.007398,8.664219,4.580496,-0.001505,0.012526,0.005067,-0.261719,0.593994,0.24585,-2.392944,-6.44255,7.073906,-0.020319,0.000893,-0.000315,0.471924,0.149414,-0.003174,3.742369,-6.698954,6.205827,-0.006604,0.009057,0.011123,0.032959,0.258545,-0.464844,0.552663,-6.415774,7.419766,-0.012139,0.0075,-0.002233,-0.26123,0.543457,-0.345459
1.93512,-7.212952,6.419403,0.005079,0.000518,0.001312,-0.414307,0.604004,0.11792,-0.043043,8.699584,4.623487,-0.008799,-0.002739,0.003401,-0.259033,0.582275,0.242432,-2.407448,-6.471825,7.069831,0.001018,0.007095,0.003854,0.475586,0.139648,-0.008545,3.68683,-6.738113,6.22084,-0.011856,0.00937,0.013639,0.035156,0.246338,-0.470215,0.498475,-6.37953,7.389958,0.009259,0.006418,-0.003106,-0.259033,0.533936,-0.351318
1.9328,-7.196881,6.439578,0.011095,0.000102,-0.004909,-0.413818,0.607666,0.117676,0.045759,8.650486,4.571555,-0.012046,0.013345,0.004907,-0.256104,0.584717,0.245117,-2.406402,-6.382717,7.080329,0.013039,0.002862,-0.004402,0.477539,0.14502,-0.002441,3.718359,-6.716383,6.16003,0.009397,-0.019083,0.000473,0.038086,0.251709,-0.467529,0.50171,-6.353393,7.438238,0.011265,-0.015418,-0.011324,-0.255615,0.536377,-0.351318
1.951448,-7.12495,6.441034,0.017162,3.7e-05,-0.00281,-0.409912,0.60498,0.116211,-0.050122,8.661478,4.524188,0.001128,0.010014,0.004952,-0.254639,0.581055,0.243652,-2.395803,-6.374292,7.080509,-0.012774,0.001479,0.003945,0.480957,0.142822,-0.005371,3.775778,-6.64973,6.140761,-0.004485,0.004881,0.01095,0.043457,0.248779,-0.471924,0.575358,-6.372596,7.442145,-0.010751,-0.00811,-0.002529,-0.253174,0.535889,-0.351318
1.965122,-7.084871,6.439127,-0.003726,0.003616,0.000627,-0.414551,0.609863,0.116699,0.022145,8.693813,4.526629,-0.003846,-0.002292,0.004439,-0.257324,0.590576,0.244141,-2.402911,-6.424819,7.083613,-0.004244,0.006618,0.002898,0.476807,0.149414,-0.005859,3.713161,-6.718987,6.150092,-0.00684,0.010247,0.009893,0.038818,0.255615,-0.472412,0.520847,-6.392061,7.452321,-0.000216,0.012066,-0.001962,-0.258057,0.539307,-0.3479
1.940254,-7.152868,6.450616,-0.015633,0.001697,0.003678,-0.4104,0.604736,0.117188,-0.028468,8.68637,4.563278,-0.025711,0.009633,0.008552,-0.253662,0.58667,0.240723,-2.41047,-6.393704,7.07716,0.002889,0.005076,-0.00116,0.480469,0.140137,-0.006348,3.764498,-6.691529,6.214877,-0.004671,0.004209,0.009138,0.043457,0.251221,-0.46875,0.515718,-6.355726,7.421548,0.000713,-0.002073,-0.002285,-0.25415,0.533691,-0.352295
1.926091,-7.183939,6.449922,-0.002765,0.001538,0.001594,-0.422852,0.611572,0.125732,0.002566,8.64724,4.57815,-0.009818,-0.008315,0.003836,-0.268311,0.587891,0.252441,-2.42148,-6.4043,7.085343,-0.015437,0.001783,0.001471,0.469238,0.147217,0.008301,3.678793,-6.714653,6.236787,-0.01003,0.008244,0.012815,0.028809,0.254883,-0.459717,0.506125,-6.358229,7.401747,-0.00815,-0.000887,-0.002562,-0.267334,0.538086,-0.339355
1.948325,-7.165359,6.448025,-0.00176,0.001009,-0.002914,-0.416016,0.606201,0.112061,0.007963,8.693336,4.595528,-0.006735,0.01602,0.005472,-0.260986,0.586426,0.240479,-2.395115,-6.429614,7.079027,-0.010883,0.00136,-0.004175,0.473877,0.144287,-0.010986,3.72812,-6.701969,6.16044,-0.006287,-0.023743,0.005665,0.0354,0.25,-0.474609,0.492491,-6.36624,7.438286,-0.013117,-0.002891,-0.006437,-0.260742,0.534668,-0.355713
1.945511,-7.167304,6.439052,0.001933,-8.4e-05,-0.001627,-0.418945,0.607422,0.116211,-0.035209,8.660434,4.565921,-0.018598,0.00091,0.004565,-0.263184,0.585693,0.242432,-2.396097,-6.430271,7.067614,-0.007804,0.006074,0.001154,0.471924,0.145508,-0.008789,3.77689,-6.698644,6.114744,-0.012711,0.004382,0.013867,0.033447,0.252686,-0.47168,0.548698,-6.409148,7.430117,-0.020458,-0.011129,0.000472,-0.263672,0.5354,-0.352295
1.95824,-7.154267,6.410885,0.002043,0.00256,0.00113,-0.417236,0.616699,0.115479,0.03225,8.644716,4.554663,-0.001016,0.003552,0.003234,-0.260986,0.595947,0.239014,-2.404111,-6.421706,7.088344,0.00616,0.001324,0.000231,0.474609,0.152344,-0.006592,3.701366,-6.709676,6.144073,0.004526,0.011589,0.007795,0.033691,0.261963,-0.476562,0.549254,-6.429803,7.430893,0.007186,0.007436,-0.003398,-0.258545,0.546631,-0.353516
1.932496,-7.1677,6.433894,0.001887,0.001692,0.000375,-0.416748,0.606201,0.116211,-0.035825,8.682451,4.565396,-0.007557,0.009571,0.00418,-0.262451,0.581055,0.240723,-2.403048,-6.38911,7.062331,-0.002437,0.007319,0.003804,0.475586,0.141357,-0.008789,3.743911,-6.672042,6.222228,-0.000878,0.011867,0.009097,0.033203,0.25,-0.473145,0.502218,-6.367457,7.442305,0.019709,0.005608,-0.00448,-0.26001,0.536621,-0.35376
1.953717,-7.176546,6.440032,0.00637,0.000233,-0.001508,-0.415527,0.607666,0.119141,0.009436,8.669564,4.577218,-0.005006,0.000894,0.003107,-0.260254,0.585693,0.241211,-2.415822,-6.421831,7.097616,-0.007435,0.004712,0.001862,0.473389,0.144531,-0.01123,3.679679,-6.711715,6.239876,-0.011359,0.000128,0.012552,0.033936,0.252197,-0.471191,0.505318,-6.334523,7.4551,0.00633,-0.008055,-0.002414,-0.261475,0.533691,-0.352783
1.952205,-7.132512,6.452798,0.003834,0.002355,-0.001341,-0.413818,0.60376,0.111572,-0.011843,8.665483,4.540025,-0.013759,0.015187,0.005811,-0.259521,0.582031,0.236084,-2.403646,-6.392532,7.079993,0.002012,-0.000344,-0.004058,0.474121,0.140381,-0.013916,3.760143,-6.712813,6.197659,0.003448,-0.014463,0.004819,0.037109,0.248047,-0.476074,0.537666,-6.377122,7.431673,-0.019635,-0.003234,-0.006802,-0.26001,0.533691,-0.357178
1.96133,-7.133641,6.44978,-0.004666,-0.000901,0.001308,-0.410645,0.610107,0.115967,-0.035964,8.652,4.525583,-0.012747,-0.004392,0.0044,-0.257324,0.589844,0.241943,-2.39367,-6.395785,7.088041,-0.011719,0.005898,0.001057,0.480469,0.144775,-0.009033,3.731114,-6.690261,6.141578,-0.013733,0.009237,0.01327,0.040527,0.253418,-0.473145,0.532781,-6.408737,7.439576,-0.015471,0.000395,0.00015,-0.256592,0.538086,-0.352295
1.949891,-7.179541,6.430198,-0.015607,0.003191,0.003498,-0.416992,0.612793,0.116699,0.022548,8.685202,4.577133,-0.011711,0.006153,0.008089,-0.260254,0.587891,0.244385,-2.406275,-6.403633,7.066713,-0.006057,0.00139,-0.002453,0.474609,0.143311,-0.006592,3.747898,-6.689004,6.175685,-0.003586,-0.003753,0.008561,0.0354,0.254395,-0.470215,0.522125,-6.399062,7.453089,-0.001783,-0.00312,-0.005189,-0.261719,0.539551,-0.351807
1.923982,-7.192392,6.41916,0.000298,0.000989,0.001598,-0.414551,0.611572,0.115479,-0.054128,8.658524,4.575885,-0.018541,0.004451,0.006685,-0.256836,0.589844,0.241699,-2.401381,-6.44727,7.079518,-0.013308,0.007683,0.001981,0.478271,0.145508,-0.006836,3.728599,-6.713363,6.18036,-0.014753,0.019707,0.015636,0.038818,0.255371,-0.473389,0.51766,-6.392881,7.424222,-0.008729,0.0056,0.000717,-0.255859,0.540039,-0.353027
1.942971,-7.177294,6.441451,0.005369,7.1e-05,-0.002206,-0.412109,0.60498,0.121094,0.048828,8.66348,4.582837,-0.001089,-8e-05,0.003267,-0.254883,0.58374,0.248291,-2.411732,-6.446613,7.079474,0.006861,-0.00036,-0.001516,0.477783,0.143066,-0.001465,3.661952,-6.733227,6.19768,0.005927,-0.008784,0.003138,0.040283,0.250244,-0.466309,0.493665,-6.404199,7.408262,0.008421,0.000462,-0.006316,-0.255371,0.5354,-0.346924
1.95306,-7.167351,6.437715,0.011739,0.000304,-0.003714,-0.413086,0.60498,0.108154,-0.025021,8.657866,4.548981,-0.008974,0.019233,0.005288,-0.259277,0.584717,0.234619,-2.384245,-6.380034,7.07587,-0.000104,0.005703,-0.001166,0.477783,0.141602,-0.013916,3.785634,-6.657922,6.161191,-0.000652,-0.007948,0.005194,0.038818,0.249268,-0.478027,0.538278,-6.37986,7.448746,0.000454,-0.01453,-0.008787,-0.257812,0.534912,-0.360352
1.961491,-7.114346,6.445698,0.004652,0.000155,-0.001218,-0.415527,0.608154,0.123047,-0.001025,8.672812,4.538595,-0.003334,-0.006102,0.002396,-0.260986,0.583252,0.245605,-2.430648,-6.424464,7.072087,-0.014194,0.005839,0.005066,0.472656,0.143066,-0.004395,3.710277,-6.719526,6.162342,-0.014775,0.013569,0.01701,0.035645,0.253418,-0.468994,0.561631,-6.389778,7.45245,-0.006482,0.00169,0.001492,-0.260986,0.536133,-0.347168
1.954633,-7.128314,6.429675,-0.009021,0.00326,0.000652,-0.422119,0.620361,0.123291,0.02028,8.678517,4.550554,-0.012909,0.010878,0.006619,-0.263428,0.594482,0.249756,-2.37989,-6.413008,7.07953,0.006884,0.001541,-0.004616,0.470215,0.15625,0.002686,3.755931,-6.703288,6.199582,0.010413,-0.002319,0.003039,0.03125,0.266357,-0.463867,0.529253,-6.402015,7.430573,0.002251,0.007466,-0.005418,-0.265381,0.55127,-0.343994
1.930926,-7.167353,6.434751,-0.004341,0.001581,0.002726,-0.416992,0.604492,0.117676,-0.06332,8.648485,4.555451,-0.016812,-0.001442,0.004958,-0.263672,0.58252,0.243164,-2.427932,-6.397611,7.083396,-0.010038,0.010401,0.003894,0.472412,0.139893,-0.003906,3.723635,-6.698834,6.2068,-0.017207,0.015908,0.018501,0.031982,0.248779,-0.469971,0.499631,-6.36408,7.417802,-0.003696,-0.001391,-0.000501,-0.260254,0.535889,-0.351807
1.94261,-7.176627,6.442302,-0.004923,0.000349,-0.000559,-0.421631,0.61377,0.117432,0.045733,8.676657,4.58188,-0.004162,0.003278,0.003579,-0.266846,0.589844,0.240967,-2.401622,-6.423185,7.087315,-0.008129,-0.003651,-0.002912,0.468018,0.146729,-0.00708,3.686848,-6.725955,6.215249,-0.005626,-0.016295,0.00539,0.028076,0.252441,-0.47168,0.521839,-6.384098,7.422193,-0.006292,-0.001037,-0.004606,-0.266602,0.54126,-0.349609
1.937397,-7.152214,6.417482,0.005538,0.001686,-0.001541,-0.416504,0.609131,0.11792,-0.039302,8.670716,4.582396,-0.017675,0.011906,0.009135,-0.26123,0.58667,0.242432,-2.3849,-6.434549,7.064094,-0.008116,0.008295,0.000505,0.475586,0.143555,-0.006348,3.780572,-6.687635,6.126262,-0.009178,0.001476,0.011009,0.0354,0.255615,-0.469971,0.527631,-6.39317,7.448486,-0.015184,-0.003744,-0.00475,-0.258789,0.540527,-0.348145
1.958732,-7.154296,6.453094,-0.003293,-3.5e-05,0.001422,-0.41748,0.606934,0.11499,0.046878,8.657882,4.532236,-0.006122,-0.004147,0.002251,-0.260986,0.583008,0.243164,-2.40334,-6.424438,7.075098,-0.001612,0.001831,0.000115,0.473633,0.144531,-0.008545,3.711022,-6.737526,6.155684,-0.003991,0.005506,0.010259,0.034668,0.252197,-0.470459,0.531945,-6.416361,7.427318,-0.003509,-0.00235,-9.4e-05,-0.259521,0.538818,-0.350586
1.935697,-7.180845,6.424382,-0.000635,0.004561,0.000453,-0.422119,0.605713,0.115479,-0.015137,8.673516,4.582879,-0.004278,0.017011,0.005961,-0.267822,0.584229,0.241455,-2.371156,-6.399216,7.075858,0.001209,0.005098,0.000442,0.468262,0.142578,-0.01001,3.768134,-6.680441,6.177735,0.003241,0.002845,0.007543,0.02832,0.249756,-0.470215,0.534467,-6.414554,7.441306,0.008644,0.005334,-0.006113,-0.266846,0.538086,-0.352539
1.939198,-7.159199,6.429571,0.008345,-0.000939,7e-05,-0.415283,0.613281,0.124756,-0.024838,8.674652,4.575458,-0.013451,-0.0061,0.002041,-0.260498,0.591553,0.246826,-2.444762,-6.419081,7.066862,-0.009763,0.007273,0.005268,0.477539,0.150146,-0.002197,3.692984,-6.730131,6.229374,-0.012863,0.016722,0.014233,0.038086,0.259033,-0.46582,0.500194,-6.377564,7.402858,0.007556,0.001736,-0.000515,-0.258057,0.542725,-0.34668
1.951889,-7.147986,6.434118,0.000399,0.002198,-0.000762,-0.414062,0.605957,0.121338,0.025256,8.661201,4.532379,-0.008085,0.013387,0.006247,-0.26123,0.58667,0.247803,-2.38548,-6.418429,7.072732,0.002764,-0.002115,-0.004184,0.475586,0.143066,-0.002197,3.701932,-6.721183,6.195034,0.004853,-0.019957,0.003509,0.034912,0.251709,-0.46582,0.503749,-6.365508,7.416298,0.003053,-0.007302,-0.008815,-0.259277,0.537842,-0.344727
1.943117,-7.13007,6.464923,0.000358,-4.1e-05,-0.000494,-0.410645,0.60376,0.120117,-0.046175,8.658731,4.548813,-0.009021,0.004842,0.00481,-0.256348,0.580322,0.245605,-2.41135,-6.385393,7.067587,-0.008174,0.007436,0.00043,0.479736,0.141602,-0.001465,3.755994,-6.666543,6.156541,-0.010074,0.005737,0.011031,0.039062,0.246826,-0.467285,0.539672,-6.382967,7.452852,-0.019469,-0.004383,0.000166,-0.257812,0.533691,-0.343506
1.973626,-7.138966,6.434493,-0.006343,0.00126,0.001328,-0.417236,0.614502,0.115967,0.032388,8.682442,4.555641,-0.010342,-0.001864,0.004694,-0.265869,0.593506,0.23999,-2.424956,-6.415933,7.07306,-0.012654,-0.002327,0.001976,0.471924,0.150879,-0.008545,3.708118,-6.704848,6.158828,-0.010276,0.002051,0.012368,0.033936,0.26001,-0.474609,0.54652,-6.419397,7.409902,-0.015002,0.004644,-0.001964,-0.262207,0.546387,-0.350586
1.936882,-7.198104,6.437969,-0.008994,0.004755,0.000472,-0.412109,0.608398,0.118652,-0.019907,8.667636,4.571852,-0.022407,0.009081,0.006515,-0.257324,0.583252,0.243408,-2.377607,-6.422127,7.058677,-0.001335,0.007124,-0.00189,0.478271,0.142578,-0.008301,3.751983,-6.709835,6.176851,-0.000954,0.003204,0.008688,0.039307,0.25415,-0.46875,0.511176,-6.410592,7.407254,0.006009,0.001634,-0.003507,-0.255859,0.536377,-0.35083
1.918633,-7.177508,6.438905,0.003205,-0.000428,0.000849,-0.415527,0.610107,0.111328,-0.013335,8.658969,4.576334,0.001105,-0.001762,0.003326,-0.256348,0.588135,0.23584,-2.435865,-6.417581,7.081228,-0.004617,0.007977,0.002179,0.475342,0.14624,-0.013184,3.696488,-6.708065,6.210022,-0.009606,0.010108,0.012112,0.0354,0.257324,-0.474121,0.514039,-6.388825,7.419826,0.004661,-0.001279,-0.004099,-0.256836,0.54248,-0.356201
1.959209,-7.169215,6.434785,0.008331,0.001641,-0.003311,-0.42041,0.607666,0.122314,-0.00526,8.703777,4.579352,-0.006423,0.012987,0.007369,-0.26416,0.584717,0.247314,-2.388475,-6.423006,7.067565,-0.000736,-0.003745,-0.001951,0.470215,0.141602,-0.002197,3.744506,-6.703807,6.166093,0.002773,-0.015146,0.004281,0.032471,0.251465,-0.464355,0.517733,-6.377919,7.432277,-0.006429,-0.005461,-0.005608,-0.264648,0.539062,-0.344971
1.957588,-7.134228,6.450268,0.006857,-0.000433,-0.001067,-0.422607,0.609863,0.118164,-0.027675,8.647021,4.542512,-0.018764,0.002913,0.00529,-0.267334,0.5896,0.246094,-2.395314,-6.405285,7.088931,-0.005631,0.011881,0.003289,0.469238,0.148438,-0.008057,3.74424,-6.696048,6.13415,-0.010659,0.010067,0.013482,0.026367,0.254639,-0.469482,0.535224,-6.406986,7.445348,-0.004682,-0.004372,-0.002274,-0.265381,0.541748,-0.348145
1.969699,-7.140417,6.426412,-0.005971,0.001966,0.000744,-0.415283,0.612305,0.116455,0.013444,8.662984,4.535807,0.001878,0.003688,0.00351,-0.259521,0.591064,0.243164,-2.430388,-6.429007,7.067473,-0.002659,0.000308,-0.002477,0.476562,0.146973,-0.005371,3.711935,-6.720799,6.162872,0.000322,-0.002317,0.006174,0.037109,0.256104,-0.468506,0.538372,-6.415734,7.459497,0.000899,0.000764,-0.003945,-0.25708,0.544189,-0.350586
1.931209,-7.165351,6.444543,-0.002279,0.000872,0.002032,-0.413818,0.606934,0.12085,-0.025614,8.686925,4.554581,-0.015855,0.005586,0.006546,-0.259766,0.583252,0.247803,-2.38739,-6.408065,7.086245,-0.006863,0.00683,0.002033,0.477783,0.143555,-0.002686,3.755255,-6.685737,6.199262,-0.009044,0.012005,0.01262,0.037354,0.250244,-0.466309,0.521052,-6.392237,7.396897,-0.001214,0.005299,-0.001655,-0.258301,0.537354,-0.345215
1.937262,-7.159633,6.429672,-0.004639,0.000592,0.001127,-0.418213,0.608643,0.112549,0.00286,8.660441,4.574108,-0.017945,0.000236,0.00378,-0.261963,0.587158,0.234131,-2.430169,-6.422687,7.075651,-0.00845,0.004093,-0.001485,0.473633,0.144531,-0.011719,3.676428,-6.728168,6.199582,-0.010519,-0.002265,0.013103,0.034668,0.253662,-0.476318,0.49847,-6.370096,7.426519,-0.002135,-0.001116,-0.004085,-0.261475,0.538086,-0.354004
1.945683,-7.180008,6.430951,0.000244,0.001331,-0.001516,-0.415527,0.615967,0.12207,-0.010765,8.65598,4.5602,-0.006228,0.01212,0.005644,-0.26123,0.593506,0.249268,-2.371516,-6.420553,7.061691,-0.005722,-0.000875,-0.001016,0.476074,0.151855,-0.000977,3.776528,-6.69743,6.170373,-0.000874,-0.012886,0.005926,0.035156,0.259033,-0.467285,0.530913,-6.403009,7.401936,-0.012885,-0.009249,-0.006642,-0.258545,0.543945,-0.344482
1.958939,-7.150038,6.43071,0.005951,0.001304,0.001081,-0.422363,0.60791,0.115479,-0.018153,8.675452,4.564402,-0.006367,-0.001741,0.003836,-0.266113,0.584473,0.243164,-2.410485,-6.405806,7.054634,-0.004388,0.011413,0.002463,0.471924,0.141846,-0.005371,3.71982,-6.716941,6.144223,-0.00976,0.012564,0.012086,0.029053,0.251465,-0.468506,0.542452,-6.432515,7.421911,-0.010945,0.002175,-0.000579,-0.263184,0.53833,-0.349609
1.948913,-7.158257,6.436342,-0.002894,0.002164,0.00066,-0.418701,0.611572,0.11792,0.017619,8.664086,4.567794,-0.014074,0.007387,0.005639,-0.26123,0.587402,0.241699,-2.401861,-6.419269,7.071651,-0.000218,-0.002484,-0.001837,0.471436,0.14624,-0.008789,3.742338,-6.704702,6.167124,0.001651,-0.004087,0.00604,0.031982,0.253906,-0.471924,0.517433,-6.421348,7.438957,0.008281,0.001615,-0.002869,-0.262695,0.540039,-0.349121
1.944174,-7.188965,6.434191,0.001184,0.002522,0.001275,-0.418457,0.609863,0.124756,-0.035679,8.653651,4.553959,-0.010302,0.005841,0.005527,-0.264404,0.584717,0.249756,-2.39039,-6.401628,7.07244,-0.004446,0.010554,0.00239,0.471191,0.145508,0.000244,3.732772,-6.706751,6.179079,-0.007962,0.016412,0.013629,0.035645,0.253174,-0.461426,0.526973,-6.393508,7.407992,0.006648,-0.00273,-0.003011,-0.262695,0.540283,-0.341553
1.939375,-7.147449,6.437498,0.00401,-4.8e-05,-0.002409,-0.415771,0.605225,0.108398,0.00419,8.693635,4.543174,0.000303,0.003551,0.003683,-0.259521,0.582764,0.234375,-2.43187,-6.418897,7.091407,-0.003304,0.00285,-0.000657,0.475586,0.13916,-0.015625,3.668299,-6.725944,6.205593,-0.002501,-0.005578,0.006598,0.034668,0.248535,-0.47876,0.522128,-6.382554,7.41537,-0.001849,0.000314,-0.004539,-0.260498,0.532715,-0.356689
1.948751,-7.147979,6.435078,0.001745,0.001572,-0.000467,-0.418213,0.610596,0.125,-0.018008,8.683884,4.577579,-0.020797,0.010232,0.007499,-0.260498,0.5896,0.249512,-2.373917,-6.414969,7.068346,-0.003384,0.002037,-0.00154,0.472168,0.146973,0.002441,3.764809,-6.685702,6.167224,-0.00537,-0.005731,0.008199,0.033203,0.25293,-0.461182,0.515374,-6.413126,7.411663,-0.008117,-0.004431,-0.005162,-0.261963,0.541016,-0.340576
1.954449,-7.153496,6.455278,-0.00378,0.000631,0.000982,-0.416748,0.614258,0.118408,0.004487,8.649035,4.540018,-0.010943,-0.001576,0.00461,-0.260254,0.588379,0.243164,-2.412405,-6.413383,7.089186,-0.008096,0.008249,0.001301,0.474365,0.14917,-0.006592,3.723251,-6.712951,6.157464,-0.009507,0.007636,0.011539,0.035889,0.256104,-0.468994,0.527069,-6.412956,7.429322,-0.010153,-0.005185,-0.001536,-0.259766,0.54126,-0.34668
1.94418,-7.170099,6.429686,-0.006675,0.002795,0.001642,-0.417236,0.603027,0.113525,0.007522,8.696858,4.571098,-0.003994,0.008906,0.005854,-0.259033,0.583984,0.238037,-2.386754,-6.424473,7.055819,-0.00496,-0.001697,-0.002698,0.475098,0.138916,-0.008057,3.750402,-6.70094,6.158677,-0.001308,-0.00177,0.008218,0.037598,0.249512,-0.474609,0.521538,-6.423363,7.43693,-0.005366,0.007312,-0.002246,-0.260498,0.536865,-0.349854
1.934281,-7.179072,6.434434,0.000473,-0.001413,0.000528,-0.417969,0.613037,0.120605,-0.005274,8.657818,4.569031,-0.020867,7e-06,0.005668,-0.261719,0.590576,0.24585,-2.388759,-6.435132,7.053584,-0.006635,0.010264,0.002313,0.470947,0.150146,-0.000977,3.718801,-6.71557,6.196644,-0.00956,0.011984,0.013309,0.032471,0.256836,-0.467285,0.498397,-6.418656,7.384013,0.003835,0.000258,-0.002944,-0.26123,0.543945,-0.345459
1.937768,-7.167357,6.441327,0.00113,0.002863,-0.001839,-0.415039,0.613281,0.123779,0.020557,8.648432,4.563466,-0.003157,0.008755,0.005338,-0.26123,0.5896,0.248779,-2.405707,-6.416269,7.075466,-0.000784,0.000869,0.000867,0.474854,0.147949,0.000732,3.71211,-6.718302,6.177072,0.000271,-0.009711,0.006941,0.031494,0.25708,-0.465332,0.517884,-6.386186,7.406819,0.00574,-0.007201,-0.005512,-0.26123,0.541748,-0.344238
1.937809,-7.166745,6.441996,0.005512,0.000193,-0.00136,-0.415283,0.599854,0.122559,-0.034663,8.682455,4.570021,-0.004145,0.008343,0.005588,-0.258057,0.578369,0.248291,-2.395603,-6.407285,7.06555,-0.005018,0.003916,-0.002241,0.475586,0.137695,-0.00293,3.776789,-6.691257,6.168201,-0.004576,0.002972,0.009155,0.036133,0.244385,-0.464355,0.543667,-6.42415,7.426612,-0.014053,-0.003777,-0.004446,-0.258057,0.533203,-0.345459
1.957514,-7.132541,6.45983,0.001258,0.002238,-0.000906,-0.412354,0.606445,0.117676,0.017057,8.676301,4.54732,-0.014435,-0.001427,0.004265,-0.256836,0.582031,0.242188,-2.406882,-6.417673,7.073793,-0.00477,0.005352,0.002768,0.479248,0.140869,-0.005859,3.69355,-6.713738,6.159136,-0.006125,0.003542,0.011807,0.03833,0.250244,-0.468262,0.528347,-6.43644,7.414941,-0.002264,0.001964,-0.000704,-0.256348,0.5354,-0.3479
1.940774,-7.162486,6.418782,-0.009035,0.002515,0.000737,-0.41748,0.612549,0.114258,0.010328,8.660376,4.564839,-0.012207,0.008655,0.006022,-0.260254,0.590576,0.238281,-2.378036,-6.411074,7.062377,-0.001541,0.003643,-0.001367,0.47583,0.148438,-0.010742,3.753967,-6.696882,6.172038,-0.000705,-0.001735,0.00814,0.03833,0.259033,-0.476318,0.51281,-6.407947,7.401284,0.006348,-0.002306,-0.004555,-0.258545,0.541992,-0.354736
1.936815,-7.176864,6.443783,0.001846,-0.000547,0.000644,-0.416748,0.606445,0.12085,-0.015945,8.680095,4.579971,-0.005587,-0.000461,0.005325,-0.260498,0.586182,0.247559,-2.416832,-6.409591,7.083013,-0.011507,0.00838,0.002853,0.476074,0.142334,-0.001953,3.696169,-6.715537,6.18655,-0.011527,0.01433,0.013515,0.035645,0.251221,-0.467529,0.513257,-6.39787,7.400648,-0.002825,0.001044,0.000134,-0.259521,0.539307,-0.345215
1.940542,-7.155774,6.448288,-0.001447,0.002746,-0.001406,-0.421631,0.611572,0.117676,0.020567,8.679643,4.574935,-0.014271,0.008373,0.005242,-0.267334,0.587402,0.24292,-2.398637,-6.412126,7.070662,-0.002333,-0.000958,-0.003392,0.469238,0.146973,-0.005371,3.715692,-6.714508,6.190083,-0.000933,-0.013521,0.005315,0.029785,0.255371,-0.471191,0.497707,-6.399984,7.388481,-0.008674,0.000379,-0.006456,-0.266357,0.541504,-0.349365
1.958942,-7.157908,6.442366,0.000859,3.9e-05,-0.000144,-0.418213,0.615479,0.117188,-0.030946,8.656443,4.556299,-0.013362,0.005153,0.005005,-0.263916,0.593994,0.242676,-2.38292,-6.433547,7.056551,-0.007211,0.008145,0.002121,0.475586,0.15332,-0.006348,3.754377,-6.692042,6.157188,-0.009793,0.005178,0.012859,0.03418,0.261475,-0.470947,0.527843,-6.426619,7.433672,-0.009725,-0.008692,-0.003384,-0.259033,0.54834,-0.350098
1.949107,-7.173289,6.417995,0.003219,0.000319,0.00076,-0.416016,0.610107,0.115479,0.030744,8.679065,4.559594,0.001176,0.001861,0.003312,-0.262695,0.589111,0.239014,-2.430487,-6.419614,7.069703,-0.00031,0.002223,-0.00064,0.473877,0.145996,-0.010986,3.718236,-6.707413,6.176367,0.002078,0.00213,0.00771,0.033447,0.256104,-0.47168,0.540253,-6.428744,7.417145,0.001958,0.00225,-0.002899,-0.261719,0.541504,-0.352539
1.943887,-7.141284,6.423595,0.002232,0.000905,-2.8e-05,-0.421631,0.60376,0.12207,-0.024488,8.681839,4.550053,-0.019587,0.008263,0.00567,-0.263916,0.583496,0.247314,-2.37141,-6.40603,7.047717,-0.006701,0.003935,-0.000655,0.469971,0.140869,-0.003418,3.740597,-6.696133,6.159137,-0.008928,0.0058,0.01027,0.03125,0.251465,-0.465332,0.510694,-6.409229,7.407231,0.008076,0.004431,-0.005271,-0.264404,0.538574,-0.346924
1.943201,-7.153308,6.457885,-0.006742,0.00239,-0.001384,-0.410889,0.605469,0.118164,0.012373,8.646488,4.557259,-0.005204,-0.002298,0.003994,-0.25708,0.584473,0.242676,-2.410995,-6.427044,7.095499,-0.003859,0.007154,0.000492,0.480469,0.142334,-0.005371,3.711732,-6.750236,6.188104,-0.005632,0.00293,0.010523,0.039551,0.251465,-0.46875,0.505949,-6.378379,7.413197,0.001606,-0.007039,-0.004115,-0.25708,0.538818,-0.346924
1.939184,-7.172301,6.421086,0.004747,0.002054,0.001631,-0.419922,0.606689,0.119385,-0.021223,8.69767,4.566348,-0.007107,0.013813,0.006059,-0.263428,0.582275,0.247803,-2.399754,-6.408549,7.086504,-0.003591,-0.001445,-0.001021,0.472656,0.13916,-0.001221,3.753577,-6.696666,6.1837,0.000395,-0.004801,0.005591,0.033203,0.249512,-0.467285,0.534548,-6.399808,7.408904,-0.019679,-0.001609,-0.002254,-0.264893,0.536133,-0.346924
1.943166,-7.133881,6.454014,0.003577,0.000278,0.000267,-0.422119,0.604004,0.123047,-0.00311,8.643055,4.558335,-0.019537,-0.004039,0.005236,-0.265381,0.582031,0.247559,-2.39943,-6.398733,7.076878,-0.007385,0.005567,0.001903,0.47168,0.139893,-0.001465,3.69907,-6.715457,6.166882,-0.012364,0.006244,0.012547,0.033691,0.250977,-0.4646,0.529943,-6.462367,7.385763,0.001356,0.004857,0.000531,-0.263428,0.537354,-0.34375
1.966545,-7.168182,6.442392,-0.011036,0.002195,-0.000663,-0.421143,0.608643,0.118164,0.034176,8.653251,4.54552,-0.005546,0.011414,0.004895,-0.263428,0.584961,0.245117,-2.411117,-6.408047,7.075408,-0.002448,0.003795,-0.003007,0.47168,0.143799,-0.001953,3.755307,-6.70015,6.160163,-0.000576,-0.009802,0.005191,0.032227,0.251465,-0.465576,0.518325,-6.38862,7.431135,0.008713,-0.007436,-0.009169,-0.262451,0.540527,-0.3479
1.93872,-7.163262,6.418536,0.004964,0.001891,0.000294,-0.405029,0.615723,0.110107,-0.028348,8.672513,4.567438,-0.008668,0.002912,0.005654,-0.250244,0.591553,0.235596,-2.396787,-6.439396,7.059898,-0.010933,0.004027,0.002501,0.485352,0.148926,-0.012451,3.746105,-6.702366,6.171704,-0.008766,0.018811,0.013087,0.046875,0.259033,-0.477539,0.55027,-6.41077,7.40643,-0.013294,-0.000115,0.00157,-0.249756,0.546631,-0.354492
1.951436,-7.145123,6.452765,-0.000615,0.001292,-0.001372,-0.417725,0.605713,0.115967,0.03335,8.663886,4.554526,-0.013382,0.002631,0.004009,-0.260498,0.585205,0.240479,-2.396369,-6.430619,7.059902,0.000669,0.003885,-0.000479,0.475098,0.144043,-0.007568,3.668174,-6.71336,6.191083,-0.001838,-0.004285,0.007712,0.033691,0.251465,-0.473145,0.480484,-6.444893,7.370976,-0.000763,0.007624,-0.003689,-0.260498,0.537598,-0.348633
1.929071,-7.171478,6.424049,-0.002474,0.001092,-0.001927,-0.414795,0.610352,0.112549,-0.024133,8.648583,4.533082,-0.009087,0.012991,0.006568,-0.26001,0.587646,0.23877,-2.392793,-6.403309,7.072149,-0.005298,0.005091,0.000285,0.475342,0.144531,-0.006836,3.771073,-6.701899,6.163049,-0.003981,-0.008728,0.008067,0.036133,0.255615,-0.474365,0.514829,-6.408752,7.439519,0.002964,-0.013475,-0.00592,-0.258057,0.539795,-0.350098
1.966915,-7.149177,6.437934,0.005795,0.000437,0.000329,-0.424316,0.609131,0.121338,0.007022,8.68274,4.571328,-0.001369,-0.00275,0.002866,-0.268555,0.587158,0.250244,-2.406537,-6.433315,7.077934,-0.008464,0.003142,4.4e-05,0.468018,0.145996,-0.000244,3.718597,-6.72034,6.155631,-0.00973,0.012567,0.012096,0.027588,0.253906,-0.466797,0.555428,-6.42068,7.419422,-0.008144,-0.002765,-0.000584,-0.26709,0.540039,-0.343994
1.94216,-7.141571,6.423798,-0.00374,0.002872,0.000714,-0.419922,0.615479,0.118408,0.003559,8.676086,4.566847,-0.023898,0.01364,0.007865,-0.266602,0.5896,0.244629,-2.388148,-6.435543,7.065925,-0.001562,0.003692,-0.002179,0.469482,0.146484,-0.004883,3.72813,-6.700478,6.17118,-0.000782,-0.004246,0.006343,0.030518,0.255127,-0.470459,0.501641,-6.433855,7.393776,-0.001711,0.012412,-0.005725,-0.264648,0.543701,-0.350586
1.940339,-7.189706,6.43452,-0.004977,-0.002638,-0.000205,-0.411377,0.612305,0.117188,-0.035631,8.637786,4.552834,-0.008292,-0.005629,0.004602,-0.254883,0.588623,0.241943,-2.406182,-6.414379,7.068496,-0.004962,0.008288,0.004626,0.480713,0.143799,-0.007568,3.724,-6.721781,6.192203,-0.010551,0.008843,0.013503,0.040283,0.253662,-0.472656,0.495952,-6.413354,7.400198,0.00496,-0.007424,-0.000436,-0.252441,0.539795,-0.349121
1.938138,-7.172996,6.420625,0.001976,0.002156,-0.001893,-0.419678,0.607422,0.122803,0.032354,8.683683,4.57533,0.000744,0.009405,0.00323,-0.263916,0.585938,0.25,-2.395057,-6.408806,7.087503,-0.001373,0.000754,-0.004045,0.470947,0.141846,-0.000488,3.728007,-6.712753,6.179745,0.004622,-0.005797,0.004453,0.031738,0.253418,-0.46167,0.530722,-6.394481,7.38612,-0.000523,-0.006215,-0.008276,-0.263184,0.536377,-0.341309
1.944832,-7.158676,6.43711,0.006127,-0.001098,1.3e-05,-0.416016,0.610596,0.116943,-0.050433,8.676349,4.562225,-0.02547,0.00692,0.006166,-0.260986,0.585693,0.242432,-2.398632,-6.416423,7.055812,-0.014505,0.009005,0.00281,0.474609,0.14502,-0.007568,3.721421,-6.695546,6.169123,-0.014628,0.007379,0.014663,0.035156,0.253174,-0.472656,0.530557,-6.441517,7.424182,-0.017903,0.005297,0.000891,-0.259277,0.54248,-0.347656
1.951309,-7.151928,6.423265,-0.001332,0.001374,-0.000384,-0.408447,0.605957,0.113281,0.024337,8.643686,4.52024,-0.003284,-0.002469,0.002352,-0.251465,0.579102,0.240723,-2.402584,-6.448662,7.070589,0.001857,0.00256,-0.00137,0.481934,0.140869,-0.009766,3.705728,-6.738759,6.173533,-0.0004,-0.0079,0.007593,0.04248,0.249268,-0.469971,0.504319,-6.45495,7.393961,0.009097,-0.001844,-0.003963,-0.253174,0.533936,-0.348877
1.934954,-7.166862,6.442724,-0.000804,0.002948,-0.000213,-0.415283,0.604736,0.115723,-0.032951,8.675526,4.569201,-0.00322,0.014356,0.006102,-0.262939,0.581055,0.239746,-2.396556,-6.388406,7.05767,0.001244,0.006004,-0.000289,0.474365,0.137939,-0.006836,3.786649,-6.669926,6.16928,0.0023,0.005807,0.006384,0.033447,0.246094,-0.4729,0.529711,-6.402851,7.407806,0.009774,-0.005947,-0.008126,-0.260254,0.531738,-0.350342
1.950057,-7.171082,6.427825,0.0005,8e-05,0.00035,-0.411621,0.602051,0.116943,-0.0003,8.669641,4.557381,-0.020073,-0.006813,0.005422,-0.256348,0.57959,0.23999,-2.419885,-6.430558,7.091747,-0.018383,0.003266,0.001418,0.479736,0.139893,-0.005615,3.664572,-6.735935,6.192348,-0.017848,0.01649,0.017987,0.040283,0.24707,-0.472168,0.51884,-6.4016,7.423493,-0.011913,0.004827,0.004034,-0.254883,0.534424,-0.349854
1.965321,-7.168207,6.442738,-0.003023,0.00279,-0.000274,-0.417725,0.606445,0.113281,0.014078,8.640373,4.559517,-0.007448,0.01423,0.005412,-0.264648,0.583984,0.238525,-2.392369,-6.433314,7.068969,0.002736,0.003459,-0.002902,0.4729,0.139893,-0.012207,3.74649,-6.718087,6.168755,0.004181,-0.021883,0.002948,0.033447,0.251709,-0.475098,0.50321,-6.433942,7.413141,-0.010716,-0.002153,-0.009355,-0.262939,0.537842,-0.352783
1.927802,-7.171019,6.424942,0.005951,0.001305,0.001084,-0.41748,0.614014,0.120605,-0.050059,8.652736,4.560782,-0.007336,0.003027,0.003942,-0.262207,0.589111,0.243652,-2.417165,-6.3912,7.074928,-0.002018,0.008759,0.000667,0.473389,0.148926,-0.003418,3.758381,-6.688317,6.153178,-0.007792,0.014564,0.01367,0.033936,0.258545,-0.468262,0.518546,-6.444676,7.410871,0.000696,-0.005953,-0.002169,-0.258789,0.545898,-0.345459
1.962423,-7.150913,6.429706,-0.003719,-0.0004,-0.001111,-0.4104,0.603516,0.121582,0.029333,8.686936,4.559978,-0.012284,0.000973,0.005181,-0.25415,0.58252,0.248535,-2.403626,-6.433259,7.068026,-0.011379,-0.00189,0.000359,0.480225,0.141357,-0.00293,3.670573,-6.720788,6.16546,-0.009217,0.002099,0.010991,0.040771,0.249512,-0.467529,0.516695,-6.415855,7.395372,0.008762,0.004047,-0.002976,-0.25415,0.5354,-0.344727
1.933022,-7.186135,6.447353,-0.002481,0.005111,-0.000192,-0.41626,0.614502,0.108643,-0.032112,8.651451,4.568613,-0.011236,0.009085,0.005808,-0.262207,0.587158,0.235352,-2.392442,-6.415027,7.05881,0.000495,0.007778,-0.000162,0.47583,0.147949,-0.014648,3.771704,-6.718981,6.168943,0.002687,-0.004068,0.004664,0.034912,0.252197,-0.476807,0.500173,-6.413032,7.419749,-0.001674,-0.002588,-0.004073,-0.259521,0.542969,-0.356445
1.93925,-7.17962,6.433327,0.004267,-0.001298,-0.000542,-0.425049,0.609131,0.124512,-0.010181,8.667982,4.572239,-0.002923,0.002177,0.005047,-0.268799,0.586426,0.250488,-2.441142,-6.423669,7.098918,-0.005796,0.003783,0.000972,0.464355,0.14624,0.00293,3.714195,-6.717021,6.192692,-0.010092,0.013823,0.014592,0.025391,0.25293,-0.461182,0.528579,-6.434549,7.415319,-0.017805,-0.003617,-0.002307,-0.268799,0.541992,-0.339355
1.949057,-7.161191,6.426388,0.0018,0.00456,-0.000823,-0.427246,0.602051,0.115479,0.019075,8.668217,4.544273,-0.014844,0.007145,0.005329,-0.27002,0.579346,0.239502,-2.36517,-6.418511,7.045853,-0.00012,-0.000714,-0.002505,0.4646,0.140137,-0.008057,3.710969,-6.709049,6.191849,8.2e-05,-0.009757,0.00571,0.024658,0.246338,-0.47168,0.522155,-6.4491,7.374593,0.006013,0.003594,-0.003571,-0.270508,0.53833,-0.348633
1.933468,-7.156647,6.441787,0.002077,3.7e-05,-0.000782,-0.418213,0.61377,0.124023,-0.023175,8.662719,4.560197,-0.009675,0.006687,0.004635,-0.262451,0.59082,0.249512,-2.420241,-6.396103,7.080005,-0.006396,0.014652,0.001034,0.47168,0.147705,0.0,3.74875,-6.696676,6.14996,-0.009292,0.002085,0.010385,0.03418,0.255859,-0.464111,0.504778,-6.412931,7.432149,0.011337,-0.003892,-0.005192,-0.261475,0.542725,-0.340332
1.964419,-7.148258,6.439717,-0.002008,0.003697,0.000335,-0.410156,0.608643,0.118408,0.01506,8.684327,4.538405,-0.007923,-0.000868,0.005141,-0.252441,0.58667,0.241943,-2.406102,-6.427307,7.064496,-0.005986,-0.005215,-0.00059,0.481934,0.141113,-0.00708,3.733915,-6.709358,6.173317,-0.000753,0.002594,0.009912,0.044189,0.25415,-0.468018,0.542307,-6.405728,7.397493,-0.007146,-0.003409,-0.003335,-0.253906,0.541016,-0.344727
1.944161,-7.184418,6.454567,-0.002204,0.000588,-0.000151,-0.415527,0.612305,0.116699,-0.010316,8.680245,4.557011,-0.012013,0.010347,0.005328,-0.258057,0.590332,0.241211,-2.364,-6.403618,7.064752,0.002394,0.010242,9.2e-05,0.476074,0.147217,-0.007812,3.71154,-6.683258,6.187206,-0.003664,0.007948,0.008953,0.036133,0.255371,-0.470947,0.51207,-6.424279,7.424206,-0.007939,0.00589,-0.002431,-0.258545,0.543701,-0.348389
1.916822,-7.160622,6.426063,-0.00443,0.004449,0.001522,-0.416748,0.614258,0.123779,-0.027109,8.697426,4.581959,-0.009321,0.00221,0.00444,-0.259521,0.589844,0.249512,-2.473553,-6.413505,7.086958,-0.021171,0.007377,0.000847,0.474854,0.148682,0.000977,3.711517,-6.745423,6.16754,-0.021232,-0.003474,0.015687,0.032471,0.255859,-0.464111,0.494095,-6.448267,7.399294,-0.015938,-0.001816,-0.004417,-0.260498,0.546143,-0.339844
1.958831,-7.189401,6.438956,0.002008,-0.003698,-0.000336,-0.419189,0.616211,0.118164,0.009698,8.666029,4.560158,-0.01632,-0.001767,0.007179,-0.262451,0.594238,0.243652,-2.34643,-6.475784,7.032102,-0.000133,-0.008139,-0.001489,0.473145,0.153076,-0.005859,3.713363,-6.756844,6.175818,0.006388,0.001124,0.007187,0.033691,0.261475,-0.469971,0.529022,-6.462234,7.352473,0.015082,-0.004245,-0.000756,-0.261963,0.546631,-0.349365
1.956593,-7.162875,6.423252,-0.00085,0.008056,-0.001681,-0.421875,0.60791,0.121338,0.024034,8.667548,4.579252,-0.006408,0.013223,0.003172,-0.265869,0.586182,0.24585,-2.408704,-6.362753,7.079081,0.013609,0.017987,-0.003852,0.470215,0.144531,-0.003662,3.735167,-6.644973,6.195652,0.005365,-0.004587,0.001251,0.030273,0.251709,-0.468506,0.503064,-6.374056,7.435597,0.010132,-0.000268,-0.011436,-0.264893,0.537842,-0.348145
1.9625,-7.158611,6.44153,0.002291,-0.003455,0.001352,-0.416992,0.606201,0.122803,-0.024082,8.639214,4.575157,-0.015099,-0.001339,0.008483,-0.26123,0.58374,0.244873,-2.42772,-6.419667,7.06165,-0.032323,-0.006984,0.006685,0.475342,0.144043,-0.00415,3.745989,-6.716175,6.133529,-0.027198,0.004896,0.021228,0.034424,0.251465,-0.466797,0.559885,-6.428792,7.39367,-0.03575,-0.006288,0.005424,-0.26123,0.537109,-0.345215
1.943677,-7.156293,6.447767,0.000737,0.005431,0.000569,-0.417236,0.600342,0.114258,0.0277,8.667933,4.540823,-0.000307,0.005471,0.001346,-0.262695,0.577393,0.23877,-2.345856,-6.471902,7.059467,0.012289,0.011173,-0.004442,0.475342,0.135254,-0.01123,3.711759,-6.771528,6.143062,0.009373,0.003068,0.002462,0.034424,0.243408,-0.474365,0.503451,-6.483319,7.357081,0.014083,0.015545,-0.004434,-0.260498,0.533691,-0.35083
1.943113,-7.1638,6.417625,-0.003577,-0.000278,-0.000269,-0.417236,0.609619,0.112549,-0.044301,8.685211,4.582744,-0.018013,0.009314,0.008839,-0.262451,0.587402,0.239014,-2.463782,-6.388095,7.07571,-0.002211,0.00623,-0.000363,0.47168,0.14624,-0.011963,3.754905,-6.666237,6.208398,0.000119,0.006943,0.009112,0.030762,0.254395,-0.477051,0.499138,-6.37798,7.407227,0.016836,-0.010476,-0.008403,-0.263916,0.540527,-0.354248
1.914262,-7.18226,6.462952,-0.002036,0.002204,0.000514,-0.416992,0.609131,0.117188,0.017305,8.645726,4.552868,-0.008329,-0.003971,0.002302,-0.260742,0.585938,0.243164,-2.372945,-6.4389,7.053915,-0.013624,-0.003038,0.000187,0.474854,0.144287,-0.006348,3.685041,-6.726469,6.196842,-0.019946,0.003991,0.014776,0.036865,0.253418,-0.469482,0.553327,-6.418797,7.387767,-0.018394,-0.004814,0.003186,-0.260254,0.539551,-0.348877
1.958965,-7.141422,6.428575,0.011794,-3.6e-05,-0.000586,-0.419434,0.60376,0.119141,-0.010552,8.689528,4.564207,-0.002703,0.017146,0.005959,-0.26416,0.57959,0.248047,-2.410147,-6.427723,7.075803,0.003387,0.01286,-0.00129,0.47168,0.13501,-0.00293,3.742049,-6.712231,6.149551,0.007542,-0.018001,0.002432,0.032227,0.245117,-0.466553,0.510292,-6.440738,7.381499,9.8e-05,0.010243,-0.009633,-0.263916,0.531738,-0.343994
1.924498,-7.144504,6.451897,-0.010867,0.00381,-4e-06,-0.414307,0.610107,0.116455,-0.028447,8.66476,4.580629,-0.025531,-0.002272,0.005429,-0.259033,0.585693,0.23999,-2.411265,-6.427372,7.06516,-0.011498,-0.002603,-0.002165,0.476562,0.145996,-0.008545,3.759508,-6.672145,6.122209,-0.010751,0.015016,0.014665,0.039062,0.255371,-0.472168,0.504723,-6.427699,7.423007,-0.007051,-0.014439,0.00011,-0.25708,0.541016,-0.350098
1.975356,-7.192013,6.433092,-0.003132,-0.003186,0.000438,-0.406006,0.617432,0.116455,0.010839,8.63166,4.54547,-0.001235,0.004399,0.005028,-0.251709,0.592529,0.240967,-2.384572,-6.440859,7.050997,-0.00457,0.00883,0.002229,0.484375,0.149902,-0.007568,3.662953,-6.754057,6.159341,-0.00581,0.007236,0.01109,0.044922,0.260498,-0.472168,0.569727,-6.450735,7.385635,0.002313,0.002192,-0.004081,-0.249268,0.547852,-0.346436
1.91084,-7.172413,6.419827,0.009009,0.008105,-0.000642,-0.419189,0.608887,0.121826,-0.03005,8.699249,4.586242,-0.00498,0.008611,0.004015,-0.263428,0.586914,0.246826,-2.438978,-6.40696,7.077187,0.006308,0.004954,-0.002673,0.471924,0.144287,-0.001221,3.762195,-6.672812,6.190652,0.00951,-0.010497,0.002057,0.033203,0.254639,-0.466309,0.495202,-6.419439,7.403186,0.005375,0.01185,-0.004188,-0.261475,0.541748,-0.342773
1.949095,-7.139839,6.432302,0.003889,-0.006771,-0.001603,-0.416016,0.60083,0.11499,-0.024294,8.663881,4.544752,-0.022603,0.002911,0.007725,-0.258301,0.577637,0.243652,-2.41183,-6.421424,7.072883,-0.020665,0.000203,0.004321,0.477539,0.136475,-0.008545,3.701042,-6.721922,6.176378,-0.028389,0.018344,0.018068,0.034912,0.245117,-0.469482,0.496685,-6.421943,7.368714,0.001815,-0.011788,-0.001662,-0.260498,0.530273,-0.34668
1.994769,-7.167005,6.453556,-0.013199,0.005024,-0.001089,-0.416016,0.607178,0.118408,0.062175,8.666889,4.549094,0.006782,0.000533,0.002435,-0.260254,0.582764,0.24292,-2.366633,-6.446886,7.056555,0.005616,0.002124,-0.005368,0.476318,0.14209,-0.003662,3.723838,-6.760557,6.170378,0.012842,-0.029441,9.6e-05,0.035889,0.252686,-0.46875,0.56183,-6.381974,7.480745,-0.003898,-0.0174,-0.009667,-0.258301,0.539551,-0.346924
1.934406,-7.197064,6.406157,0.003197,0.003592,0.002587,-0.410645,0.60498,0.113037,-0.054325,8.70801,4.572105,-0.025432,0.021389,0.00684,-0.254883,0.57959,0.237793,-2.418498,-6.381208,7.056535,-0.009546,0.012653,0.001586,0.480713,0.141357,-0.01123,3.832932,-6.61972,6.146284,-0.004424,0.022083,0.009439,0.04126,0.247559,-0.4729,0.58384,-6.498579,7.44026,-0.056762,0.010125,0.004585,-0.25293,0.536865,-0.350586
1.923756,-7.115832,6.445776,0.015346,0.000186,0.00498,-0.414551,0.621826,0.118896,-0.036553,8.622411,4.54706,-0.010533,-0.01723,0.002883,-0.256348,0.599365,0.244141,-2.448012,-6.46103,7.075889,-0.012584,-0.002531,0.005133,0.477783,0.157227,-0.004883,3.568642,-6.772171,6.177857,-0.025594,0.01491,0.023935,0.038818,0.264404,-0.469971,0.459694,-6.525313,7.27257,0.046198,0.029905,0.004461,-0.258301,0.551758,-0.347168
1.942873,-7.180692,6.432053,-0.023149,0.003077,-0.004978,-0.418457,0.610596,0.113525,0.045542,8.670517,4.587018,0.000874,0.020618,0.006339,-0.26416,0.589111,0.240479,-2.36008,-6.381123,7.062091,0.020852,0.004338,-0.008007,0.470459,0.147461,-0.009521,3.815735,-6.703918,6.181623,0.023408,-0.031451,-0.009836,0.031982,0.257812,-0.47583,0.441339,-6.265392,7.43774,0.065825,-0.032642,-0.023775,-0.26416,0.541992,-0.350098
1.944655,-7.224588,6.419347,0.011694,0.002084,-0.001695,-0.412598,0.608887,0.114014,-0.10234,8.66681,4.579818,-0.011015,0.002523,0.005487,-0.258789,0.582031,0.236572,-2.444254,-6.422617,7.079812,-0.02942,0.009976,0.009752,0.478516,0.139404,-0.010254,3.703334,-6.678131,6.198789,-0.021952,0.040421,0.025529,0.03833,0.251709,-0.47583,0.637482,-6.344113,7.445043,-0.092523,-0.019129,0.008078,-0.255371,0.539795,-0.352539
1.954864,-7.106165,6.445093,0.021153,-6.5e-05,0.000107,-0.415283,0.614258,0.11084,0.085211,8.683197,4.532275,-0.005682,0.000205,0.001896,-0.258057,0.593018,0.236816,-2.382496,-6.469988,7.059697,0.010095,-0.008471,-0.006925,0.475586,0.150879,-0.010742,3.645263,-6.737277,6.153768,0.002992,-0.033748,-0.001682,0.037598,0.259033,-0.475342,0.498756,-6.622522,7.314045,-0.03176,0.046124,0.005446,-0.255615,0.548096,-0.352783
1.948014,-7.119778,6.429453,-0.020357,0.001136,0.001841,-0.420898,0.602539,0.123779,-0.086389,8.662828,4.538276,-0.023396,0.017369,0.011058,-0.263672,0.583496,0.247314,-2.380777,-6.382451,7.080685,0.002139,0.018789,0.002424,0.470215,0.136963,-0.000244,3.855884,-6.674411,6.126022,-0.008984,0.003389,0.013405,0.031738,0.245117,-0.464844,0.431428,-6.442683,7.412425,0.086077,-0.026407,-0.017792,-0.263916,0.533936,-0.341064
1.958979,-7.238365,6.406814,-0.013371,8e-05,0.001714,-0.415283,0.614258,0.117676,0.04925,8.65759,4.561418,0.00047,-0.017343,0.000552,-0.26123,0.592041,0.241943,-2.44658,-6.425118,7.076738,-0.023738,-0.005443,0.000491,0.476318,0.148682,-0.007568,3.650258,-6.749209,6.18037,-0.008552,0.028067,0.013572,0.034424,0.257568,-0.470703,0.635297,-6.282253,7.462366,-0.000748,-0.022828,0.000394,-0.261963,0.546143,-0.345947
1.917372,-7.173856,6.417255,0.017082,0.00434,0.001134,-0.416504,0.602539,0.121338,-0.016692,8.702344,4.593523,-0.013784,0.026931,0.009963,-0.262695,0.581299,0.24707,-2.352996,-6.444023,7.028896,0.002067,0.006047,-0.001884,0.473389,0.139893,-0.004639,3.710576,-6.693871,6.172031,0.003922,-0.018831,0.002887,0.035645,0.247803,-0.466553,0.515333,-6.446441,7.350916,-0.070346,0.046759,0.002284,-0.26123,0.536377,-0.342285
1.933774,-7.141437,6.426476,-0.005978,-0.0028,-0.000909,-0.416748,0.611816,0.104736,-0.042356,8.616893,4.552726,-0.024423,-0.010395,0.002523,-0.261475,0.588135,0.233154,-2.466596,-6.427006,7.095031,-0.001716,0.013003,0.001837,0.471924,0.146484,-0.017822,3.754749,-6.730222,6.170163,-0.022172,0.003285,0.016299,0.036377,0.255127,-0.483398,0.402144,-6.550296,7.359286,0.001686,-0.01815,-0.002623,-0.262451,0.542236,-0.35791
1.956964,-7.194514,6.419543,0.000245,0.001332,-0.001516,-0.416016,0.609863,0.11792,0.031291,8.693784,4.537794,0.016637,0.015029,0.007086,-0.262207,0.585449,0.244141,-2.37867,-6.415271,7.06237,-0.000264,-0.009806,-0.002446,0.473145,0.141357,-0.005371,3.738593,-6.734554,6.11266,0.012238,-0.001703,0.003415,0.0354,0.254395,-0.470947,0.598289,-6.422258,7.404266,0.055681,-0.032432,-0.014285,-0.261719,0.540283,-0.34668
1.964579,-7.14202,6.427243,0.011414,0.003279,0.001735,-0.416992,0.615234,0.112061,-0.055616,8.698186,4.569534,-0.019671,0.003286,0.003689,-0.260254,0.591553,0.237549,-2.389216,-6.41365,7.05247,-0.008549,0.014264,0.002555,0.474609,0.150879,-0.011963,3.724071,-6.66606,6.174517,-0.002645,0.014178,0.00997,0.036133,0.258057,-0.473877,0.576793,-6.36725,7.434618,-0.017445,0.028605,0.000899,-0.258301,0.547119,-0.350098
1.94213,-7.143847,6.456984,-0.006358,0.000514,0.001409,-0.412842,0.60791,0.11377,0.034184,8.643832,4.548701,-0.021798,0.000253,0.006189,-0.258057,0.58667,0.239746,-2.433347,-6.452006,7.077867,-0.005893,0.002014,0.001621,0.480469,0.143799,-0.007812,3.694496,-6.740497,6.193289,-0.018842,-0.008279,0.012976,0.039551,0.25415,-0.473389,0.429524,-6.466366,7.372802,-0.03149,0.005625,0.002843,-0.255615,0.539795,-0.348389
1.940657,-7.180449,6.432992,-0.004508,0.003297,-0.001416,-0.412354,0.61084,0.116943,-0.050577,8.669395,4.565741,0.002241,0.012476,0.005019,-0.259766,0.588623,0.240967,-2.378051,-6.399116,7.071766,0.006983,0.002372,-0.003671,0.478271,0.145508,-0.009521,3.780114,-6.732296,6.179725,0.00659,0.0054,0.005866,0.039307,0.255615,-0.474121,0.531537,-6.465653,7.382695,0.020358,-0.021331,-0.010603,-0.255615,0.545166,-0.347168
1.953835,-7.160478,6.434423,0.003754,-0.002126,-0.0008,-0.417236,0.604248,0.121338,0.005169,8.699425,4.567071,-0.009219,-0.002269,0.002682,-0.263428,0.58252,0.246826,-2.439058,-6.413337,7.081664,-0.018909,0.007465,0.004127,0.47168,0.141846,0.000244,3.661274,-6.697941,6.177594,-0.009916,0.00764,0.012837,0.033447,0.248535,-0.464355,0.538138,-6.402251,7.406558,0.006431,0.005664,-0.00095,-0.261475,0.536621,-0.34082
1.972247,-7.162449,6.428715,-0.002008,0.003699,0.000334,-0.414551,0.61499,0.112061,0.004527,8.65589,4.561489,-0.02683,0.01207,0.00782,-0.26123,0.592773,0.238525,-2.368129,-6.460972,7.051006,-0.002935,-0.003975,-0.00286,0.476807,0.150635,-0.01001,3.754646,-6.709261,6.142178,-0.005064,-0.023588,0.007778,0.0354,0.260742,-0.473145,0.502873,-6.45281,7.408656,-0.023842,0.002279,-0.002925,-0.257324,0.545898,-0.349609
1.924978,-7.166628,6.445972,0.002541,0.002644,0.001483,-0.414062,0.610596,0.116455,-0.03324,8.636308,4.558355,0.004145,0.003062,0.002596,-0.258789,0.590088,0.240967,-2.410194,-6.408883,7.079055,0.007627,0.017231,0.000836,0.474365,0.148438,-0.005615,3.752662,-6.711149,6.141328,-0.006601,0.026324,0.01337,0.036865,0.255615,-0.469727,0.518183,-6.477878,7.370961,-0.001845,-0.003486,-0.002494,-0.257324,0.543945,-0.3479
1.933617,-7.184277,6.415546,-0.000169,-0.001616,-0.000665,-0.415039,0.604004,0.121094,0.011455,8.712175,4.572645,-0.005109,0.002332,0.00515,-0.262695,0.583252,0.248047,-2.440505,-6.404303,7.070721,-0.010513,-0.008417,-0.000195,0.473389,0.137451,-0.001465,3.672397,-6.730524,6.19251,0.000985,0.001418,0.008482,0.037354,0.248291,-0.463867,0.518737,-6.437291,7.368855,0.019574,0.001303,-0.005464,-0.262207,0.5354,-0.341553
1.936749,-7.181856,6.424952,0.003864,0.003852,-0.001514,-0.419678,0.606689,0.121826,-0.007827,8.650231,4.550495,-0.023956,0.007137,0.006044,-0.266357,0.583252,0.245361,-2.35004,-6.453819,7.039389,-0.005878,0.008433,0.002964,0.471924,0.13916,-0.000488,3.755104,-6.692438,6.179207,-0.003616,-0.006873,0.007337,0.032471,0.249756,-0.465576,0.516152,-6.404065,7.389481,0.002871,-0.004564,-0.002739,-0.262939,0.538574,-0.34375
1.931454,-7.149599,6.430837,0.00395,0.000985,-0.000313,-0.418945,0.61377,0.122803,-0.016873,8.647115,4.572342,0.002913,0.005047,0.004467,-0.263916,0.591553,0.248291,-2.462847,-6.426664,7.096327,-0.001216,0.008851,-0.00175,0.472168,0.149414,-0.001221,3.725445,-6.717349,6.176039,-0.009814,0.003315,0.011659,0.030762,0.257568,-0.466797,0.525771,-6.444289,7.39689,-0.023891,-0.003644,-0.004673,-0.263672,0.546143,-0.340576
1.952518,-7.158931,6.436544,-0.001077,0.000124,0.001481,-0.418457,0.610107,0.119629,-0.004491,8.701164,4.554858,-0.009943,0.004919,0.007551,-0.264648,0.587158,0.243164,-2.38378,-6.402076,7.045939,-0.004007,-0.007403,-0.002362,0.472412,0.145508,-0.003906,3.713845,-6.720883,6.13743,-0.001287,6.8e-05,0.009404,0.033936,0.254639,-0.46582,0.521668,-6.47819,7.370441,-0.000761,0.005772,-0.001688,-0.261719,0.543457,-0.343506
1.943064,-7.158383,6.438984,-0.004781,0.000471,0.000278,-0.414307,0.604248,0.12207,-0.007412,8.659294,4.562541,-0.025054,0.000572,0.005245,-0.26001,0.58374,0.248047,-2.415137,-6.420829,7.063956,-0.004579,0.015297,0.002753,0.477051,0.141113,-0.001465,3.709893,-6.702055,6.177194,-0.003424,0.004254,0.008993,0.039551,0.250488,-0.466064,0.499203,-6.425292,7.399141,0.017279,-0.004507,-0.00592,-0.258057,0.535156,-0.342773
1.938571,-7.196885,6.406134,-0.003895,0.002005,-4.4e-05,-0.418457,0.614258,0.116455,-0.000766,8.650147,4.567636,-0.00281,0.006795,0.00624,-0.26416,0.593262,0.243896,-2.398217,-6.433874,7.060287,-0.007656,-0.004242,-0.000584,0.471191,0.148682,-0.005615,3.769383,-6.696421,6.180975,-0.004885,-0.001986,0.00927,0.033203,0.258301,-0.468018,0.549645,-6.414861,7.397166,-0.013098,-0.006674,-0.002503,-0.26123,0.545654,-0.344727
1.948667,-7.161717,6.426951,0.010245,0.001502,0.000371,-0.412109,0.610352,0.123047,-0.035148,8.690884,4.584525,-0.000949,0.007173,0.003321,-0.25708,0.58667,0.248047,-2.38987,-6.446913,7.067125,-0.004133,0.009279,0.001455,0.47876,0.146973,0.0,3.690097,-6.717849,6.149873,-0.011254,0.011274,0.01357,0.039551,0.253174,-0.465332,0.51797,-6.47812,7.377715,-0.015458,0.011961,-0.000239,-0.255127,0.540771,-0.340576
1.942709,-7.148386,6.437468,-0.001345,0.000628,-0.000296,-0.415039,0.609619,0.117676,-0.015815,8.658595,4.559163,-0.023058,0.00392,0.005781,-0.260254,0.588623,0.243164,-2.437499,-6.420958,7.061827,-0.002307,0.004464,0.000298,0.474854,0.148438,-0.005859,3.71068,-6.726668,6.153899,0.001956,-0.010276,0.006067,0.034424,0.256592,-0.468994,0.488201,-6.459567,7.367179,0.016502,-0.004559,-0.007423,-0.259766,0.544434,-0.34668
1.960467,-7.170017,6.435582,-0.005895,0.001683,-0.001446,-0.421143,0.607422,0.118652,-0.015001,8.657043,4.562112,-0.00421,0.005694,0.006812,-0.264893,0.588135,0.242676,-2.378565,-6.419038,7.058772,-0.002611,0.00022,-0.000877,0.472656,0.143799,-0.005371,3.75211,-6.702622,6.172136,-0.002237,0.007416,0.010031,0.032227,0.252686,-0.469482,0.537771,-6.405094,7.398425,0.008908,-0.010488,-0.002136,-0.263916,0.54126,-0.347656
1.95762,-7.16257,6.424326,0.005682,0.00181,-0.000688,-0.405518,0.611816,0.123535,0.006007,8.697589,4.562255,-0.002245,0.005644,0.003017,-0.252686,0.588379,0.250732,-2.417153,-6.417065,7.079879,-0.002425,0.009215,0.000686,0.48291,0.147705,-0.000977,3.691819,-6.700865,6.186335,-0.00772,0.006493,0.010116,0.044434,0.256592,-0.462402,0.538796,-6.425527,7.399272,-0.019975,0.006515,-0.004064,-0.251221,0.545654,-0.338135
1.93645,-7.143125,6.417154,-0.000204,0.00091,0.001248,-0.414795,0.599854,0.118164,-0.025681,8.670386,4.561351,-0.022668,0.007023,0.008639,-0.26001,0.577148,0.243652,-2.410551,-6.426502,7.057545,-0.00954,-0.000286,0.000495,0.477539,0.136963,-0.009277,3.718211,-6.719881,6.168374,-0.009115,-0.008965,0.011749,0.034668,0.245605,-0.471436,0.496455,-6.490783,7.360507,-0.010567,0.004098,0.000107,-0.260498,0.532959,-0.346436
1.948063,-7.161372,6.427519,-0.003232,-0.001067,-0.000675,-0.416016,0.614502,0.112305,-0.00822,8.634942,4.578931,-0.006608,-0.000743,0.003419,-0.259766,0.593018,0.238037,-2.389893,-6.421592,7.066022,-0.00225,0.006332,-0.001991,0.474854,0.151367,-0.010742,3.733274,-6.719883,6.153079,-0.000508,0.005016,0.008001,0.036377,0.258301,-0.475586,0.509593,-6.42821,7.388925,0.022736,-0.009495,-0.006475,-0.259766,0.546875,-0.352783
1.944466,-7.173344,6.420374,-0.002022,0.002952,0.000423,-0.427002,0.621826,0.126709,-0.004638,8.698151,4.572941,-0.000301,0.010401,0.005587,-0.273193,0.599121,0.251953,-2.411713,-6.427913,7.055864,-0.000598,0.004401,-0.00047,0.46582,0.155762,0.003906,3.732986,-6.690523,6.172022,0.001935,0.00205,0.006505,0.024414,0.26416,-0.460693,0.54921,-6.40551,7.402927,-0.006153,-0.004063,-0.006101,-0.271729,0.55127,-0.336914
1.943927,-7.173134,6.420771,0.005105,0.002015,0.001143,-0.41626,0.604248,0.114258,-0.0198,8.672197,4.574885,-0.020865,0.00223,0.00582,-0.263916,0.583008,0.239258,-2.391381,-6.422895,7.064334,-0.01058,0.003663,0.000786,0.473145,0.142334,-0.007812,3.711805,-6.714555,6.166662,-0.017593,0.00415,0.013854,0.032959,0.249023,-0.473877,0.523505,-6.479783,7.375863,-0.029048,0.008419,0.001839,-0.260986,0.538086,-0.349609
1.937905,-7.159873,6.431228,0.00295,0.000824,-0.001013,-0.422119,0.610352,0.125488,-0.000887,8.628534,4.558272,-0.008766,0.001949,0.004536,-0.265381,0.588867,0.249756,-2.404465,-6.441632,7.061712,0.002069,0.005039,0.000481,0.472168,0.145752,-0.002441,3.718073,-6.745239,6.144778,0.006659,-0.005082,0.00663,0.032471,0.254639,-0.460938,0.496991,-6.493237,7.345686,0.020402,-0.000211,-0.006626,-0.263916,0.542725,-0.337158
1.947194,-7.151387,6.426147,-0.002494,0.004366,-0.000106,-0.412842,0.610107,0.117676,-0.027559,8.718425,4.550326,0.000329,0.012764,0.004546,-0.260254,0.58374,0.241943,-2.399394,-6.392146,7.057638,0.001225,0.007066,-0.003452,0.476318,0.14209,-0.008789,3.754138,-6.65231,6.172298,-0.00098,0.008034,0.005554,0.036133,0.253906,-0.472168,0.515401,-6.396438,7.400758,0.018935,-0.007559,-0.008254,-0.257568,0.539551,-0.348389
1.915582,-7.169692,6.430075,-0.002547,-0.005975,0.001988,-0.417969,0.607178,0.122314,-0.05362,8.668151,4.588513,-0.024793,-0.006661,0.008294,-0.263672,0.583984,0.247314,-2.457864,-6.468075,7.068184,-0.031907,-7.7e-05,0.006316,0.471924,0.142822,-0.002686,3.643125,-6.786252,6.172712,-0.032779,0.012701,0.024261,0.032471,0.250977,-0.465332,0.529078,-6.441275,7.352001,-0.034898,-0.000127,0.004009,-0.260742,0.537109,-0.342773
2.004476,-7.177702,6.453577,-0.002052,0.00881,-0.001136,-0.424561,0.611572,0.119873,0.098316,8.652807,4.531793,-0.001615,0.008009,0.00198,-0.270264,0.587646,0.244873,-2.305194,-6.426716,7.056998,0.04001,0.000323,-0.011744,0.46582,0.147949,-0.00415,3.758529,-6.704074,6.180609,0.04381,-0.032279,-0.013667,0.024902,0.253174,-0.469727,0.506496,-6.469572,7.384858,0.015526,0.003855,-0.004916,-0.267822,0.540527,-0.345703
1.8626,-7.166548,6.394423,0.004022,-0.002631,0.000979,-0.416504,0.605957,0.117188,-0.131282,8.695979,4.602041,-0.016537,0.021682,0.011459,-0.260742,0.584961,0.239258,-2.483054,-6.346183,7.074618,-0.040008,0.021054,0.00943,0.474365,0.143311,-0.006836,3.783646,-6.623673,6.160245,-0.047159,0.035374,0.027598,0.033936,0.253418,-0.474121,0.531946,-6.45932,7.39966,-0.029442,-0.010514,-0.007636,-0.258789,0.537842,-0.347412
2.004814,-7.143525,6.509886,0.00226,0.002401,-0.000204,-0.415527,0.612549,0.109375,0.068548,8.636135,4.523773,-0.000691,-0.033169,-0.001156,-0.258301,0.588135,0.239014,-2.373257,-6.560506,7.04915,-0.008411,-0.023846,0.001829,0.475342,0.146973,-0.011475,3.552528,-6.890295,6.154848,0.000272,-0.010288,0.012429,0.037354,0.256592,-0.479004,0.539201,-6.485122,7.323912,0.036117,0.013466,0.011028,-0.259277,0.544922,-0.353271
1.895732,-7.189955,6.345636,-0.01288,0.002743,-0.001324,-0.408203,0.612549,0.122314,0.020247,8.718831,4.597972,-0.012861,0.049482,0.009953,-0.254395,0.591309,0.247314,-2.381803,-6.321202,7.071754,0.040754,0.032867,-0.013096,0.481934,0.149658,0.000244,3.927202,-6.589927,6.19108,0.033379,-0.01812,-0.016873,0.040527,0.258301,-0.465088,0.4682,-6.34508,7.43249,0.003215,-0.011612,-0.028151,-0.253418,0.54541,-0.337891
2.006545,-7.175771,6.462768,0.013548,-0.001046,0.00234,-0.407227,0.604492,0.120117,-0.10095,8.602532,4.526182,-0.026016,-0.036759,0.003767,-0.253174,0.581299,0.244141,-2.480057,-6.457494,7.057132,-0.062139,-0.0171,0.01859,0.483398,0.14209,-0.001465,3.603216,-6.74651,6.187119,-0.054245,0.051278,0.046747,0.043457,0.251221,-0.467041,0.615017,-6.510547,7.375477,-0.059843,-0.013773,0.024912,-0.25293,0.538818,-0.340332
1.898718,-7.172293,6.415928,-0.001353,0.003211,-0.003679,-0.411865,0.612793,0.117188,0.154203,8.714419,4.544569,0.027018,0.033835,0.00054,-0.258301,0.587402,0.243408,-2.303262,-6.460638,7.037486,0.040913,0.010682,-0.018983,0.480957,0.14917,-0.006836,3.683674,-6.760262,6.144736,0.033446,-0.056403,-0.023134,0.039062,0.25708,-0.467773,0.453613,-6.52633,7.346143,0.038359,0.035357,-0.019255,-0.256104,0.543701,-0.345947
1.977949,-7.113606,6.418659,0.012816,-0.001709,0.003416,-0.421875,0.608398,0.125977,-0.221884,8.67729,4.594078,-0.049519,-0.003803,0.013087,-0.266113,0.585938,0.251953,-2.490198,-6.378889,7.066528,-0.026225,0.010745,0.014709,0.469971,0.144287,0.001953,3.856328,-6.652173,6.14732,-0.022276,0.035538,0.029414,0.028076,0.251953,-0.461182,0.490552,-6.359389,7.387329,0.031012,-0.034845,-0.004625,-0.26709,0.540283,-0.337891
1.928619,-7.194726,6.45286,-0.026012,-0.000617,-0.002778,-0.412598,0.613037,0.116699,0.213525,8.609223,4.525098,0.009352,-0.014687,-0.002889,-0.258789,0.586914,0.241943,-2.335326,-6.479393,7.05522,0.003919,-0.015136,-0.011718,0.476318,0.148193,-0.007568,3.586324,-6.762616,6.178331,0.003265,0.002677,0.002635,0.036865,0.251465,-0.472656,0.602865,-6.405348,7.40796,-0.029552,-0.005667,0.002322,-0.257812,0.540039,-0.348877
1.974465,-7.2076,6.407911,0.022045,0.006237,0.001442,-0.40918,0.606201,0.121094,-0.160753,8.745599,4.594833,-0.00123,0.045723,0.012301,-0.25293,0.586182,0.24707,-2.422086,-6.379841,7.061297,-0.005216,0.030662,0.007256,0.482422,0.144043,-0.003418,3.817122,-6.649256,6.175245,-0.003525,-0.018564,0.008086,0.044434,0.253174,-0.466797,0.508024,-6.501952,7.391554,-0.040998,0.027047,-0.009673,-0.25293,0.541016,-0.341064
1.885062,-7.103149,6.448021,-0.006878,-0.005084,-0.0005,-0.417969,0.607666,0.118896,0.042144,8.65501,4.536715,-0.031913,-0.045399,-0.003201,-0.26001,0.58374,0.242432,-2.465461,-6.48764,7.076994,-0.019277,-0.015985,-0.001953,0.473145,0.143311,-0.00708,3.682545,-6.775449,6.161076,-0.02329,0.022424,0.020482,0.03418,0.253418,-0.47168,0.462585,-6.538368,7.337392,0.020754,-0.01633,0.012478,-0.259766,0.541504,-0.345459
1.998865,-7.22223,6.39245,-0.007811,0.005846,-0.003385,-0.419189,0.613037,0.120361,0.025957,8.636345,4.574309,-0.003457,0.047299,0.014443,-0.263916,0.587158,0.243408,-2.31761,-6.403748,7.041813,0.019332,0.006994,-0.006939,0.472412,0.14624,-0.001709,3.733337,-6.711499,6.155526,0.023834,-0.018488,-0.004585,0.032227,0.255859,-0.467529,0.552597,-6.35934,7.390427,0.0571,-0.009387,-0.032208,-0.263428,0.541992,-0.343262
1.898362,-7.165019,6.44606,0.011203,-0.000578,0.001343,-0.409912,0.611816,0.118408,-0.108065,8.671516,4.570896,0.004574,-0.021767,-0.002191,-0.254639,0.588379,0.243408,-2.494749,-6.406097,7.08818,-0.019068,0.016707,0.008906,0.480713,0.147217,-0.003662,3.742284,-6.671118,6.171882,-0.019161,0.017675,0.016947,0.039795,0.25415,-0.466309,0.539731,-6.375355,7.42964,-0.055937,0.006193,0.016716,-0.252197,0.543701,-0.341309
1.991764,-7.145987,6.411116,0.003964,0.001733,-0.000401,-0.411865,0.604736,0.117188,0.108633,8.70352,4.549742,-0.020406,0.017243,0.008405,-0.257568,0.583496,0.241211,-2.377788,-6.479316,7.051975,-0.00858,-0.016918,-0.004944,0.479004,0.140381,-0.006348,3.685094,-6.769312,6.156978,-0.010878,-0.009044,0.012569,0.039551,0.248535,-0.471191,0.480641,-6.570814,7.302328,-0.025483,0.009449,-0.00539,-0.253906,0.539551,-0.347412
1.909869,-7.179692,6.425763,-0.00574,0.002552,-0.000693,-0.419678,0.611328,0.125,-0.107479,8.607782,4.541016,-0.019985,0.005616,0.007497,-0.263184,0.583496,0.247559,-2.388886,-6.40902,7.0616,0.015562,0.024754,0.004191,0.469971,0.143555,-0.001953,3.783467,-6.699651,6.179701,0.01397,0.009406,0.002441,0.032959,0.255127,-0.465576,0.497694,-6.461824,7.391167,0.057995,-0.013267,-0.011553,-0.262939,0.541748,-0.339355
1.971045,-7.191882,6.427977,-0.000359,4.1e-05,0.000493,-0.417725,0.603516,0.116943,0.063015,8.692107,4.559875,0.018298,-0.002054,4.6e-05,-0.261963,0.582031,0.242188,-2.484683,-6.391112,7.097043,-0.017498,-0.008771,-0.001303,0.474854,0.136963,-0.006348,3.663141,-6.693606,6.199542,-0.016278,0.007965,0.016099,0.033691,0.247314,-0.469971,0.553152,-6.376477,7.413758,-0.008233,-0.007133,0.000323,-0.258545,0.535889,-0.34668
1.926548,-7.129034,6.429692,0.008569,0.003668,0.000393,-0.421875,0.614258,0.121094,-0.04723,8.695913,4.56666,-0.035796,0.01115,0.008956,-0.266113,0.591553,0.24585,-2.309896,-6.467809,7.028719,-0.007757,0.000459,0.000596,0.468018,0.151367,-0.003418,3.750825,-6.726719,6.135802,-0.004903,-0.018651,0.007016,0.032959,0.257568,-0.466797,0.520145,-6.464581,7.346638,-0.030631,0.01596,-0.003339,-0.263184,0.547119,-0.343018
1.952573,-7.170705,6.42956,-0.015499,0.000381,-0.000629,-0.412354,0.602783,0.114502,0.00977,8.615373,4.542498,-0.01139,-0.001948,0.000606,-0.258057,0.579834,0.239014,-2.479611,-6.411719,7.071982,0.003553,0.02191,-0.000512,0.477783,0.137695,-0.00708,3.731982,-6.720371,6.148872,-0.006876,0.01641,0.011121,0.038574,0.249268,-0.473633,0.464681,-6.493046,7.391307,0.001176,-0.007421,-0.002171,-0.257568,0.536133,-0.349609
1.93278,-7.205312,6.411263,0.003358,0.000442,0.001609,-0.415039,0.614258,0.118164,-0.016984,8.689687,4.571902,0.003787,0.008253,0.008321,-0.259766,0.591309,0.241211,-2.385891,-6.442845,7.053111,-0.015166,-0.019754,-0.001328,0.474854,0.150635,-0.005371,3.695061,-6.735261,6.167985,-0.001806,-0.003062,0.008889,0.035889,0.259766,-0.470459,0.565676,-6.475485,7.351938,0.003073,-0.013024,-0.006771,-0.259277,0.547607,-0.345459
1.946703,-7.148882,6.43674,0.005569,0.003185,-0.001709,-0.415527,0.606689,0.119873,0.025112,8.681959,4.568219,-0.013473,0.001861,0.000733,-0.258789,0.584961,0.244873,-2.376089,-6.432647,7.033629,0.007561,0.02284,0.001331,0.476318,0.142334,-0.000732,3.728286,-6.703152,6.157705,-0.001941,0.003666,0.00574,0.036377,0.253418,-0.467041,0.516266,-6.435413,7.351241,0.01348,0.020236,0.00091,-0.26123,0.540039,-0.345215
1.924205,-7.174666,6.408687,-0.000859,-3.9e-05,0.000143,-0.42041,0.60498,0.120117,-0.035264,8.633583,4.571809,-0.023193,0.013517,0.009673,-0.265381,0.580811,0.244141,-2.462797,-6.428107,7.086531,-0.009768,-0.003722,0.000179,0.47168,0.14209,-0.001953,3.708647,-6.716528,6.161917,-0.008887,0.000308,0.012811,0.032227,0.251709,-0.466553,0.503986,-6.430814,7.402338,-0.012286,-0.01194,-0.010166,-0.263184,0.540771,-0.342041
1.939688,-7.163574,6.454619,0.009605,0.001302,-0.000818,-0.418457,0.611572,0.11499,-0.022245,8.668431,4.529061,0.012811,-0.002691,0.000186,-0.263184,0.5896,0.239502,-2.356409,-6.428942,7.051431,-0.000195,0.003944,-0.000495,0.470703,0.14502,-0.006348,3.707391,-6.727902,6.161602,0.000118,0.006274,0.00853,0.03418,0.254883,-0.470947,0.561612,-6.483655,7.361439,0.002811,-0.001294,0.004533,-0.261719,0.543457,-0.345703
1.947239,-7.128235,6.434051,-0.003077,-0.000199,7.8e-05,-0.418945,0.606201,0.114746,0.017821,8.723103,4.574053,-0.014849,0.010738,0.007604,-0.260498,0.582764,0.23877,-2.441424,-6.401258,7.077987,0.000699,0.010253,0.001687,0.474121,0.144531,-0.009277,3.710062,-6.698359,6.189703,-0.000196,-0.004859,0.006246,0.03418,0.249756,-0.4729,0.509196,-6.432056,7.38127,0.012761,0.005519,-0.012187,-0.261719,0.540039,-0.348145
1.944447,-7.195581,6.449195,-0.008536,0.002597,0.001072,-0.411621,0.608643,0.121338,-0.032875,8.611324,4.551632,-0.028208,-0.000143,0.006856,-0.258057,0.586426,0.246338,-2.367198,-6.431457,7.069567,-0.016333,-0.004585,-0.000117,0.480469,0.144287,-0.001709,3.743264,-6.716747,6.160101,-0.015049,0.004937,0.014753,0.039307,0.255859,-0.465332,0.524178,-6.432626,7.378394,-0.018982,-0.011721,0.002261,-0.256348,0.541992,-0.343994
1.94829,-7.172558,6.42114,0.006141,-0.000351,-6.7e-05,-0.415039,0.610352,0.121094,0.007783,8.665149,4.598191,0.012042,0.003493,0.003944,-0.258789,0.588135,0.246094,-2.410146,-6.458179,7.076423,-0.000378,0.014305,0.000358,0.476318,0.146484,-0.001465,3.67523,-6.755837,6.166545,-0.005821,0.005361,0.0099,0.039795,0.25415,-0.466553,0.520262,-6.476269,7.352753,-0.005712,0.009648,-0.003841,-0.255859,0.54126,-0.343262
1.932984,-7.166032,6.403934,-0.004853,0.004086,-0.001016,-0.414551,0.609375,0.114014,-0.023475,8.708683,4.573672,-0.022655,0.005664,0.00664,-0.258545,0.586914,0.240967,-2.408861,-6.424698,7.040678,-0.00245,-0.003619,-0.002013,0.476562,0.145264,-0.009521,3.746108,-6.69022,6.155562,0.003631,-0.012696,0.004015,0.039062,0.251465,-0.473145,0.489678,-6.464305,7.378269,0.007763,-0.002788,-0.004645,-0.257812,0.541748,-0.347168
1.947297,-7.191814,6.425506,-0.000415,-0.002949,0.000851,-0.420166,0.614502,0.116455,0.004734,8.631719,4.549239,-0.016712,0.001377,0.005377,-0.263672,0.588867,0.241943,-2.38075,-6.44155,7.055902,-0.010628,0.009221,0.002031,0.472412,0.147705,-0.008057,3.716401,-6.724678,6.152746,-0.017245,0.01779,0.017334,0.033447,0.258301,-0.467285,0.540269,-6.453609,7.376345,-0.002328,-0.011741,-0.002222,-0.262695,0.544434,-0.345459
1.947484,-7.182028,6.423594,0.003907,0.006097,-0.00178,-0.422852,0.618652,0.115967,0.006402,8.672713,4.5599,0.01031,0.011072,0.003524,-0.265625,0.59375,0.24292,-2.429932,-6.437485,7.067395,0.001937,0.003373,-0.000469,0.467773,0.15332,-0.006592,3.707278,-6.726817,6.164209,0.008781,-0.011227,0.001505,0.030029,0.261963,-0.471191,0.53814,-6.462306,7.397893,-0.007443,0.006694,-0.005202,-0.26416,0.550537,-0.349609
1.932769,-7.158276,6.43455,0.002994,-0.004287,0.000459,-0.418457,0.610596,0.110596,-0.038589,8.70458,4.576363,-0.02017,0.002552,0.006189,-0.261475,0.585693,0.234131,-2.392582,-6.440532,7.044913,-0.010275,0.001436,0.001396,0.474609,0.14502,-0.012451,3.763447,-6.712077,6.158892,-0.013676,0.01487,0.015077,0.033691,0.252197,-0.47998,0.504393,-6.48942,7.327792,-0.003072,0.003573,0.002403,-0.259033,0.54248,-0.353516
1.957452,-7.16364,6.416589,-0.004353,0.004167,-0.000666,-0.416992,0.607178,0.12085,0.049859,8.643671,4.534267,-0.018375,0.00182,0.004267,-0.259521,0.583252,0.244873,-2.371249,-6.437505,7.073368,0.005028,0.004515,-0.001082,0.474121,0.14209,-0.002686,3.685418,-6.741106,6.168676,0.00655,-0.00637,0.005419,0.035156,0.249023,-0.467773,0.506546,-6.44424,7.374544,0.02343,-0.009677,-0.010801,-0.259766,0.539062,-0.342773
1.925237,-7.191065,6.423277,0.003077,0.000199,-7.8e-05,-0.421631,0.614258,0.113037,-0.038066,8.671364,4.564003,0.004122,0.01775,0.00644,-0.267334,0.587891,0.237061,-2.427836,-6.398092,7.05062,-0.008993,0.008352,0.000382,0.469727,0.148193,-0.010986,3.764632,-6.664848,6.155355,-0.008237,0.000906,0.008408,0.02832,0.258301,-0.4729,0.53996,-6.421597,7.395825,-0.015413,0.000721,-0.000663,-0.264893,0.545654,-0.350586
1.951582,-7.140852,6.424837,0.006795,0.0006,0.001038,-0.41626,0.607422,0.115234,0.000902,8.688755,4.571149,-0.014549,-0.013639,0.003624,-0.258789,0.583496,0.243408,-2.40827,-6.470871,7.038716,-0.013672,-0.004962,0.003189,0.476318,0.140869,-0.007812,3.672027,-6.765605,6.159883,-0.015651,0.009243,0.016624,0.038818,0.249512,-0.471191,0.487414,-6.497857,7.339324,-0.007819,0.008433,0.000593,-0.256348,0.538818,-0.346436
1.946762,-7.181383,6.424534,-0.013239,0.002782,-0.000836,-0.421143,0.610596,0.114014,0.021448,8.632383,4.549271,-0.018508,0.018639,0.006698,-0.266846,0.587646,0.236328,-2.390517,-6.41683,7.064515,0.014841,0.010161,-0.004346,0.468018,0.144531,-0.01123,3.756188,-6.68852,6.165598,0.015872,-0.016462,-0.003016,0.030518,0.255615,-0.474854,0.503134,-6.453736,7.382853,0.016983,-0.011562,-0.011917,-0.266846,0.544434,-0.347168
1.949131,-7.189324,6.43538,0.006935,0.000721,0.001882,-0.408936,0.60791,0.117188,-0.066203,8.659814,4.579515,-0.000596,-0.003056,0.004465,-0.254395,0.584473,0.242432,-2.440016,-6.411367,7.06649,-0.020937,0.003277,0.003617,0.481934,0.145264,-0.006348,3.710453,-6.703876,6.187133,-0.020915,0.024414,0.02018,0.042236,0.251953,-0.469238,0.562211,-6.452614,7.386946,-0.016887,-0.004953,0.002317,-0.250732,0.540771,-0.343994
1.953616,-7.14839,6.436236,0.004515,3.4e-05,-0.002051,-0.416748,0.609863,0.121582,0.068792,8.693824,4.561955,-0.004877,0.004141,0.002304,-0.263184,0.588135,0.246582,-2.370564,-6.480587,7.052941,-0.000934,0.000265,-0.00327,0.473877,0.146484,-0.002441,3.677506,-6.759096,6.16505,0.00021,-0.017182,0.004486,0.034912,0.25415,-0.466064,0.486834,-6.496372,7.360301,0.001843,0.015325,-0.004461,-0.262451,0.542969,-0.341553
1.946909,-7.162263,6.420269,-0.008276,0.004677,-0.000536,-0.416748,0.606934,0.115234,-0.071111,8.665255,4.581614,-0.027894,0.014311,0.009206,-0.260986,0.585449,0.236328,-2.422227,-6.414518,7.053469,0.000697,0.010252,0.00169,0.475586,0.142334,-0.009766,3.800963,-6.688013,6.160886,-0.000923,0.003134,0.008701,0.037354,0.249512,-0.474854,0.499835,-6.453264,7.390494,0.009687,-0.014127,-0.007136,-0.260986,0.540771,-0.348633
1.936714,-7.180622,6.427374,0.002676,-0.002003,0.000684,-0.421631,0.609375,0.115723,0.034222,8.640813,4.530856,0.000549,-0.008683,0.002528,-0.267822,0.583984,0.237793,-2.406118,-6.436953,7.048982,-0.01019,-0.003212,-0.000625,0.468994,0.141357,-0.009277,3.658381,-6.723977,6.15688,-0.008975,0.015092,0.013261,0.029541,0.25,-0.474365,0.556636,-6.463477,7.381562,-0.013501,-0.005059,0.001342,-0.264404,0.540771,-0.3479
1.955898,-7.163104,6.417661,0.005696,0.00256,-0.000775,-0.420654,0.613525,0.115723,0.003557,8.705649,4.581469,-0.002685,0.019671,0.007209,-0.26709,0.590576,0.239746,-2.367476,-6.430217,7.027858,0.004062,0.009271,9.8e-05,0.471436,0.147461,-0.009766,3.72797,-6.698089,6.167787,0.003952,-0.016367,0.00524,0.033447,0.255615,-0.474365,0.502891,-6.477193,7.355845,0.001694,0.014695,-0.007541,-0.263428,0.546387,-0.3479
1.937021,-7.170332,6.425987,-0.004577,-0.000441,-0.000974,-0.410156,0.606445,0.125244,-0.020759,8.658131,4.577371,-0.027831,-0.006005,0.004562,-0.259277,0.584961,0.249756,-2.435674,-6.438554,7.077776,-0.014886,0.003894,0.001427,0.477783,0.142822,0.000732,3.73865,-6.728283,6.164563,-0.017385,0.016537,0.015526,0.041748,0.251953,-0.462891,0.505652,-6.456399,7.367717,-0.001186,-0.013691,-0.001845,-0.256348,0.54126,-0.338135
1.958186,-7.180193,6.431102,5.5e-05,0.002991,-0.000358,-0.422852,0.602539,0.110352,0.035386,8.656607,4.563172,0.004197,0.010597,0.005764,-0.267578,0.580078,0.236328,-2.378249,-6.445672,7.063574,0.00204,-0.001325,-0.001668,0.470459,0.138428,-0.01123,3.680355,-6.745497,6.178764,0.007202,-0.004487,0.006545,0.030518,0.247314,-0.474121,0.535048,-6.46617,7.363783,0.001039,-0.002223,-0.005435,-0.263672,0.533936,-0.349365
1.942834,-7.173506,6.414089,0.003577,0.000279,0.000273,-0.41748,0.611328,0.125977,-0.041762,8.697995,4.564615,-0.011905,0.006921,0.004819,-0.264404,0.588867,0.247559,-2.394821,-6.413017,7.058547,0.000645,0.010409,-0.000743,0.475098,0.144775,0.000488,3.756756,-6.688565,6.187876,-0.001678,0.003081,0.007564,0.03418,0.254395,-0.462158,0.507829,-6.456838,7.367182,-0.006748,0.008243,-0.00296,-0.259521,0.542725,-0.338623
1.951925,-7.167104,6.441421,-0.001191,0.001497,0.000457,-0.413818,0.608154,0.119385,0.019811,8.653522,4.563945,-0.018698,-0.000953,0.005978,-0.25708,0.582275,0.243896,-2.428786,-6.43796,7.045862,-0.011827,-0.002344,0.001014,0.47876,0.141113,-0.002197,3.6934,-6.746668,6.163563,-0.016519,0.001195,0.016208,0.036621,0.252197,-0.468262,0.500525,-6.477237,7.362972,0.00271,-0.009339,-0.001043,-0.256104,0.541504,-0.345947
1.932937,-7.17255,6.417099,-0.002022,0.002953,0.000421,-0.420898,0.615234,0.119385,-0.019606,8.65175,4.536652,-0.002946,0.012948,0.005847,-0.268555,0.590088,0.240479,-2.38779,-6.424349,7.045172,0.003862,0.007815,-0.004103,0.468506,0.148438,-0.00415,3.736038,-6.714239,6.150611,0.00897,-0.001988,0.001985,0.029053,0.259521,-0.470703,0.539743,-6.445322,7.375556,0.006996,-0.002579,-0.010831,-0.266113,0.548584,-0.344238
1.94535,-7.161843,6.42121,0.004922,-0.000348,0.00057,-0.413086,0.605957,0.12085,-0.014642,8.6863,4.563319,-0.006977,-0.001978,0.005009,-0.260254,0.582031,0.245361,-2.436389,-6.421408,7.06648,-0.010016,0.004765,0.003297,0.477295,0.142334,-0.002197,3.707025,-6.708101,6.167281,-0.012861,0.011222,0.015024,0.036865,0.251953,-0.464844,0.507378,-6.454744,7.388687,-0.011846,0.005218,0.003265,-0.258057,0.539307,-0.341797
1.94484,-7.171361,6.423522,-0.005254,0.001885,-0.000256,-0.419922,0.610352,0.116943,0.033602,8.669735,4.563832,-0.022046,0.008068,0.005627,-0.263428,0.586426,0.239014,-2.370213,-6.440421,7.060343,-0.001045,-0.001451,-0.003418,0.472168,0.145752,-0.009033,3.719927,-6.738149,6.173383,-0.00235,-0.010515,0.006567,0.033691,0.254883,-0.474121,0.516631,-6.477787,7.360002,-0.000215,-0.002758,-0.006901,-0.263184,0.543701,-0.347412
1.935283,-7.170529,6.42629,0.00226,0.002403,-0.000203,-0.416016,0.606934,0.121094,-0.047062,8.651247,4.544351,-0.004492,0.007228,0.005197,-0.259277,0.584961,0.244141,-2.418657,-6.424232,7.053736,-0.00649,0.012828,0.002462,0.47583,0.142334,-0.005371,3.749232,-6.716902,6.184184,-0.006852,0.010892,0.013666,0.037842,0.252197,-0.468018,0.528234,-6.465688,7.378669,0.005207,-0.002266,-0.004905,-0.259277,0.539795,-0.342041
1.947503,-7.169243,6.432726,0.000733,0.000665,-0.001076,-0.417725,0.610107,0.114014,0.026993,8.692706,4.542216,-0.004832,-0.000612,0.004807,-0.262207,0.585693,0.236572,-2.423469,-6.452829,7.039326,-0.00521,-0.006023,-0.002319,0.4729,0.144531,-0.01001,3.680804,-6.725487,6.160335,-0.001154,-0.004272,0.008812,0.034912,0.25293,-0.473877,0.518355,-6.457465,7.358898,-0.002001,0.00144,-0.001091,-0.262939,0.543945,-0.347168
1.944307,-7.171195,6.423868,0.000527,0.001576,0.000172,-0.416504,0.613281,0.122559,0.002161,8.664383,4.56388,-0.022322,0.012004,0.007166,-0.262451,0.590332,0.24707,-2.369874,-6.422166,7.050435,-0.000225,0.009449,0.001592,0.476074,0.149658,-0.000977,3.748065,-6.700293,6.161655,-0.00558,0.002299,0.010523,0.0354,0.259521,-0.460938,0.521553,-6.466296,7.372968,-0.002185,-0.00317,-0.005995,-0.257324,0.547119,-0.342041
1.935297,-7.160556,6.424636,0.000247,0.001332,-0.001516,-0.418457,0.608154,0.112305,-0.018975,8.645894,4.563925,-0.003771,-0.001614,0.002522,-0.262939,0.58374,0.23877,-2.450786,-6.447138,7.088916,-0.008857,0.003549,0.000789,0.47168,0.143555,-0.007324,3.711823,-6.745024,6.170754,-0.00861,0.005244,0.012099,0.033691,0.251221,-0.473389,0.528311,-6.477311,7.365232,-0.00539,-0.002345,1e-06,-0.26123,0.54248,-0.346436
