# sampling frequency: 40
# units are seconds/meters/radians/a.u.
seg1_acc_x,seg1_acc_y,seg1_acc_z,seg1_gyr_x,seg1_gyr_y,seg1_gyr_z,seg1_mag_x,seg1_mag_y,seg1_mag_z,seg2_acc_x,seg2_acc_y,seg2_acc_z,seg2_gyr_x,seg2_gyr_y,seg2_gyr_z,seg2_mag_x,seg2_mag_y,seg2_mag_z,seg3_acc_x,seg3_acc_y,seg3_acc_z,seg3_gyr_x,seg3_gyr_y,seg3_gyr_z,seg3_mag_x,seg3_mag_y,seg3_mag_z,seg4_acc_x,seg4_acc_y,seg4_acc_z,seg4_gyr_x,seg4_gyr_y,seg4_gyr_z,seg4_mag_x,seg4_mag_y,seg4_mag_z,seg5_acc_x,seg5_acc_y,seg5_acc_z,seg5_gyr_x,seg5_gyr_y,seg5_gyr_z,seg5_mag_x,seg5_mag_y,seg5_mag_z
2.2680284760826295,-5.976706199001645,7.429046073459474,0.006552514593800148,0.0004795902104928143,0.004175636445864936,-0.6575251860249819,0.23672319048544654,0.2721407946306543,0.2363373027696247,7.85947989726012,5.910809403682768,-0.00043216594783021094,0.0023111719929115996,-0.012676510861144602,0.0161354066907147,0.6615043193830098,0.30069055354225227,-2.246692653207147,-5.658579405893847,7.614982542544471,0.000514228994497107,0.004091845300259274,0.002111856193012342,0.5947281635138756,0.15381950135131728,-0.15882481455189876,2.8911527433673925,-5.621446465506889,7.735756538602951,-0.002159652482781021,-0.0030295115280441166,0.003859922804288393,0.017243279727471778,0.4212535908040848,-0.7061590976705638,0.4227973243552992,-5.77830212552553,7.918957580621716,0.00515517057816248,-0.004077875899245541,-0.013122974375514124,-0.36425394535972466,0.5216080418693745,-0.40162188586787917
2.318250527793985,-5.892180316185401,7.462363188611247,0.010220002153064513,-0.000397841862736448,0.00037145638184197854,-0.6551201311635451,0.24381239753028464,0.26749755625761146,0.24368892537388798,7.861851003206157,5.821623900378268,0.003985056112038199,0.008260772132630982,-0.010988017908460759,0.017446235833631037,0.6687936019520755,0.2993543673327752,-2.198660708142533,-5.6040349436267505,7.645955736088295,0.0027367721944332175,0.0030838161632041326,0.003565475119438941,0.5979359775252319,0.1611187223280719,-0.15965969622079018,2.9638920856409285,-5.528194527595652,7.585833109485244,0.0006356141420454295,-0.005717610103012363,0.0016130695497599578,0.017991178779164476,0.4307704279980253,-0.7069414363648053,0.4786962619711808,-5.787696267642526,7.98524940375475,0.011006802549865337,-0.007334219814251372,-0.015263682103100827,-0.36207622093254255,0.5303892399794499,-0.40434878925283085
2.352144010175697,-5.796760041935795,7.430155608258626,0.007202272402871223,0.0007552204940650667,0.007943594478583591,-0.6555464125814883,0.2455074262900937,0.2711738597891682,0.2332886675778731,7.8395721327568975,5.822001275896221,-0.0003834367846542284,-0.0016441407337641995,-0.010708089487847556,0.019664866077016625,0.6704741186419213,0.29932221926464436,-2.1853133521425505,-5.6095136313683955,7.63963183164252,1.872088238458313e-05,0.002320809867141056,0.00526519905503519,0.5972337384646825,0.1643018472983285,-0.1589426517831381,2.9639558721999553,-5.52881838990941,7.530141098486463,0.003234811214018308,0.009149571185542897,0.006876974954901648,0.0182808305342572,0.4329751741057988,-0.7047577810666804,0.5138075868149529,-5.797321275772744,7.991531533028202,0.006014147288475652,0.0021936696952336698,-0.008182482915395204,-0.3622719445153114,0.5316141695429517,-0.4011729597795109
2.338557103644121,-5.836668857925087,7.467388158268465,-0.005124469262928624,0.0026308730658222076,0.016306227696338327,-0.6606978704225202,0.2470054422470904,0.2690602514279398,0.23266642687458125,7.875644020848107,5.805111891773568,-0.015017209602026424,-0.008591581008309005,-0.010897192002826663,0.013525912434598128,0.6680884529032172,0.2979114562939758,-2.2132478346313413,-5.581976022769597,7.657425667056584,-0.005090703209694309,0.004695777328554998,0.004731866134141681,0.5911062514210904,0.16432624148574607,-0.16056524367706346,2.9370019408887202,-5.526287714765369,7.641477939308288,0.0012164329611915065,0.01668383629457145,0.005150529909326543,0.011161337842931506,0.432500044829233,-0.706826217429905,0.47010087802390943,-5.734901285707017,7.981386976120701,-0.010485421362032144,0.010430871911176108,-0.0031100065969829234,-0.36743505260610315,0.5308910186463344,-0.40353934977769845
2.268930635077221,-5.912916207928807,7.439430415185151,-0.016848668628063713,0.0033622497604970424,0.018103001298396332,-0.6531534465609684,0.25235587372189644,0.265796650252757,0.2066013797082117,7.862766998217528,5.880708926261613,-0.022875429556799172,-0.007496353941910939,-0.009282634225774234,0.019252923254159525,0.6768000450237415,0.29751772694754,-2.259141195743935,-5.641336152901416,7.668463506905156,-0.01070319447006123,0.0017569339016882675,0.0007219365631059064,0.6001446993701192,0.17157382647329705,-0.16343559374646718,2.9112948785512986,-5.57316767725301,7.800348826965963,-0.007259886808377855,0.010664438836642188,0.0063413272923780704,0.019655421294644766,0.43783099994981195,-0.7106611064527717,0.4282183892128897,-5.750200613639095,7.897538580633242,-0.021416339304237524,0.0062237828631926265,-0.006132985869672362,-0.3594006543336556,0.538438130490882,-0.4063489789713077
2.2919765918982886,-5.978884553496525,7.451291035711058,-0.010685786853323645,0.0024219191812628765,0.013923181130932922,-0.6597514727693352,0.24774368405739322,0.2668510888011586,0.24744083971184375,7.8502065535474825,5.897809679733388,-0.01679374237958969,-0.004380655813611481,-0.007730820689334682,0.014086350890138209,0.6741514687696304,0.2956200607931571,-2.2207987598708803,-5.613929526941577,7.652533952617032,-0.010268038936424988,0.0029667546980357523,-0.0008639380543436879,0.5930071370296108,0.1642853824989914,-0.1642543380708845,2.9185705817886123,-5.563965723080609,7.766806735903962,-0.010886018176681994,-0.010205436777523691,0.0057507791156430335,0.013569274371545818,0.43175306530627827,-0.7085755928231386,0.4299022408092646,-5.778342588071773,7.907404482813573,-0.014922153313293678,-0.002094404644292825,-0.007730453523598936,-0.36505791514475827,0.5306358750321796,-0.4079686443294332
2.339734480795342,-5.954359799556537,7.44256504331594,-0.004761400273623483,0.0016418758853426743,0.007860406097109007,-0.6555492657537758,0.2433083164395543,0.27165225369032975,0.25898687151482214,7.863823202652046,5.870295784738899,-0.011156217910814864,0.004916564192651678,-0.009212350648230287,0.01816663781226172,0.6673567611494453,0.30181646450735655,-2.179176901818416,-5.609399617138946,7.664988323674638,-0.012106766286307207,0.001497077747787261,-0.0009633583475609912,0.5945613915399091,0.16311005423568367,-0.15743023245984009,2.970734003742601,-5.527899779674959,7.536658651863902,-0.015392467671663565,-0.015017703317987349,0.006132912198108156,0.016296962422919177,0.4312664165883793,-0.7061809922468917,0.4940372321414107,-5.818433684727564,7.9631538085562354,-0.008756027191450291,-0.004905091441123459,-0.012278398705727082,-0.36322352733768737,0.5303974405346934,-0.3992048033699178
2.326001872203552,-5.877905127407374,7.407427605705485,0.0016983000905749928,0.00028178456355860775,0.01067214431415229,-0.6575579164216979,0.24308938099093863,0.26801888352427244,0.2280072459704689,7.842509541831945,5.8619267937855435,-0.008576915358240775,-0.0027408076373277314,-0.010973343265966827,0.015678903903521235,0.6648645963731049,0.2964901354969713,-2.198680183396633,-5.640333366975149,7.618787518164865,-0.004055735590145335,0.003077140232615805,0.005076960292502357,0.5937528955261505,0.16355846715965608,-0.16303803533131755,2.927338371027756,-5.583217867434549,7.455053817393752,-0.0010600763924437304,0.004624125081768508,0.005333900099396581,0.014777729506492376,0.4319905411299347,-0.7093302069099406,0.5190746229746549,-5.804062948294954,7.975188463833718,-0.0014237811916370654,0.005581201325393115,-0.0081623737285039,-0.3633167624399571,0.5294146680717138,-0.4055500733012694
2.3097994649532207,-5.904422306624946,7.4475867353852685,0.0021887304438532214,0.0006616035272181311,0.01318579238487102,-0.6556747072550859,0.23356622060071522,0.26623946973966045,0.25487945935290646,7.857179875476569,5.864837508420159,-0.0054340130261289876,-0.006560540483009535,-0.010767285219713162,0.019016075899427515,0.6589331856258237,0.29461758012615447,-2.2064408101526674,-5.607432484716792,7.648637997122082,0.004401584062267821,0.0047731649357223545,0.0056298920273110484,0.597606421129963,0.15328653027131592,-0.16227986056075544,2.9415925721838816,-5.533427132948569,7.578877216530375,0.010511904298258955,0.02240942818366871,0.0018238940498941972,0.018393714373239646,0.41806270467235196,-0.7095858434767379,0.4391542459429279,-5.7540412184385,7.928158936744084,-0.00019662959019892896,0.006444320923239588,-0.004670541472094502,-0.36263085589377075,0.5176925027242554,-0.40701255296839195
2.294980917748281,-5.942817888170566,7.444658501018177,0.0010623915248263805,0.003080299292546215,0.00963188011326534,-0.6499415830674422,0.24084070885825298,0.27180152094762333,0.23880029391650395,7.840236531063663,5.863839010060407,-0.006121045899044115,-0.0015689029008827226,-0.011102442019186455,0.0236922265312822,0.6608971233281542,0.299212453461685,-2.1986890134094113,-5.622718033863821,7.6549820497326,-0.002277352734571369,0.003984610449658271,0.006744856639456054,0.6003242649158379,0.15815456795541433,-0.16211257558898734,2.941655139075505,-5.565399527748496,7.78929502779202,0.004950484094620152,0.016733447517862463,0.005054676586672529,0.021890933800369872,0.422949514271181,-0.7060035913606387,0.4520034424406224,-5.7732611335027215,7.935113807000798,-0.0018364976193685862,0.000602139719286978,-0.009037227243602461,-0.35523616731503266,0.5230515561338355,-0.402973958611843
2.3187471391526238,-5.91276210642538,7.464453167720234,0.005048306800629155,0.0008011120417423446,0.0063468139206452915,-0.6633393540532763,0.25262717833981646,0.2703447235110109,0.216492251857457,7.871268004312051,5.8504635849259925,-0.004597385073295419,0.0019461387138502931,-0.010919504503149106,0.011415412587776879,0.674718469229749,0.29854960667318775,-2.238557785398892,-5.612956075513685,7.676760091385168,-0.0034386131404584327,0.0009380147193027144,0.002902731482007601,0.5879672760803946,0.16947456499994865,-0.16031717150286587,2.911496520221325,-5.558137590096969,7.770423023623049,-0.00452099721905574,-0.005325121876984625,0.0034658934115967864,0.010185112093400657,0.4371381032905129,-0.7075588796956885,0.4481820884418403,-5.779842230354236,7.952801494097956,0.003364566899846509,0.0001580269905629127,-0.009559434818372415,-0.3704113078081669,0.5367521144808579,-0.4076543276136922
2.3155904791390247,-5.84233333804621,7.436200813001526,-0.004100325864798294,0.0014275044468845986,0.00839263867067985,-0.6547747396540546,0.24598230316774689,0.273605711726301,0.22574232396383742,7.872981585004265,5.795476662805927,-0.010756400065980994,0.002218930642930679,-0.010912584726930066,0.017938453405572943,0.6681252505909271,0.3040026769524028,-2.213387613113027,-5.603430370456152,7.634489130345032,-0.01000481120796344,0.004401211115373905,-0.0004878836038629583,0.5955387834937128,0.16432010790293008,-0.15794165018638381,2.946925917383211,-5.534419019867865,7.609402960261266,-0.009242040706347624,-0.010429203610153776,0.005772307739558673,0.017615800772514276,0.43201552797911796,-0.7008345404766142,0.4722685005084856,-5.740230508684207,7.952828606678036,-0.007536675500446845,-0.0010698912150336577,-0.011465904595319031,-0.36445310708079115,0.5291796485546005,-0.3996739092732811
2.321442214988297,-5.82639506887086,7.426078425919199,-0.011925474233014202,0.003995918619037559,0.01547885653747535,-0.6554292768181754,0.24236677951974434,0.26358932321289363,0.22435330588753688,7.842422301253009,5.834005482284259,-0.01722383560303199,-0.005676298773023043,-0.009357993126686132,0.01839749654532173,0.6677409965411316,0.29521713034328023,-2.1960743678920394,-5.6161991783143295,7.639042718688188,-0.009566809485939708,0.0005773979371210126,0.002036272546085724,0.5969245196525415,0.1620777092191273,-0.1625832811972457,2.9520155332550146,-5.559336054409876,7.4976649906944735,-0.008413479655649887,0.0012058797803232272,0.0061255145938421416,0.019638928909182795,0.4292879930581791,-0.7101396371336984,0.4814229189640754,-5.797370108503605,7.964545463945196,-0.01757311355130891,0.0009946632371528334,-0.005749508688354138,-0.36360627894327746,0.5294118248555814,-0.4087202442919933
2.3204367770411625,-5.935323523407908,7.446769164057429,-0.014366618689381046,0.0026099442608702476,0.018982670291323025,-0.657594998277371,0.25305287557090317,0.2788067285681632,0.24628244325696502,7.862420728778763,5.868700276457592,-0.019158988594351428,-0.007985865661076515,-0.009869148376873806,0.014919111528441883,0.6796796013023484,0.3065216154721924,-2.204105247647693,-5.603975850597092,7.652878317080279,-0.008549998574553984,0.0033100261354677835,0.0023734500958825853,0.5973712179574387,0.17386746849671508,-0.1534039967588521,2.963492032766649,-5.5178526373912025,7.6076308299783815,-0.0038620559484820395,0.012886568919523108,0.0063730816982975795,0.015990356418439947,0.4410668677823453,-0.6976670581296514,0.4630405633864586,-5.7928965164474056,7.948902828824068,-0.019181527585700256,0.006981045174919096,-0.005025745889393845,-0.3646018166905599,0.54212410610079,-0.3950461147351822
2.2871047460239873,-5.976199450355656,7.426082678289363,-0.004625804215062071,0.0013262820342843555,0.013604683617396201,-0.6597724321487983,0.23845940414082537,0.26827559437686815,0.22468450916837854,7.826120689341728,5.911374477434002,-0.012200588605097823,-0.003239890330967341,-0.010597048614235072,0.015385275959575746,0.6605081027393077,0.29875471644037316,-2.2070712189463455,-5.642634442826543,7.622060901174779,-0.005446147818535986,0.0015972981465746353,0.002025880936680378,0.5925077380682215,0.15673995489642834,-0.16174667541976034,2.9020298094793517,-5.596992083231703,7.713131917184347,-0.0024052878612948986,0.007309505966069923,0.006449694708766889,0.015738114301607237,0.4219815474296955,-0.7085764561859709,0.43742758995361547,-5.790397473712546,7.898167417617124,-0.00890563334668009,0.0037179492995644222,-0.0071099222007254045,-0.3660158121503231,0.5245374202906997,-0.4057501601413329
2.3052295039803816,-5.943314718595995,7.457653627595921,0.006618171971660844,-0.00028889726761796835,0.006055490989365413,-0.6560191589808849,0.2472164606042929,0.27167653419148746,0.23770050785993993,7.866030976491719,5.902841522924183,-0.0031259306701383145,0.0009595502715584693,-0.010566733777371355,0.018207160205405068,0.6705301314734671,0.3017679390267126,-2.2310638885630967,-5.620362679774483,7.652246871512243,-0.0014994339698520115,0.0028408385640391553,0.003976454705277276,0.5960307084489567,0.16723926512224394,-0.15894867747863373,2.9213025200897835,-5.550438529783179,7.666990935909109,-0.0011333728477134154,-0.003107004160714523,0.0034868437208123663,0.015366517363493032,0.4351828870438344,-0.7042252284158178,0.448082351584041,-5.784528851303401,7.924762025653672,0.003743597790806381,-0.0015387554059253287,-0.01041115019493068,-0.36493389370279616,0.5360161989850585,-0.40016235930747734
2.32099447741682,-5.88303805306552,7.434113074797066,0.006881438683925161,-0.00023879715669786406,0.003451458613011515,-0.6572593263920155,0.25016166066577056,0.2695108168991702,0.25315803601527126,7.85783088882818,5.8408917436942485,-0.0023424726635157983,0.004968535167490706,-0.010554177661480278,0.014132067925689225,0.6762120664432033,0.3026693484295305,-2.1933822768203464,-5.591086999999414,7.637569165179975,-0.002206793707214151,0.003321897207866265,0.0038166774129038384,0.592146442674782,0.16849207562884633,-0.15792635109722553,2.976645284369832,-5.516960323107424,7.568688120051075,-0.000895782785594591,-0.0024623183900721523,0.005875504688700783,0.014153953417017239,0.43616450340229007,-0.7039633448529139,0.478115796813194,-5.7853288673883565,7.965335143933283,0.004805980672607632,-0.003064597387401373,-0.011757904389288703,-0.36640796691980815,0.5377274210632156,-0.4011201344116201
2.329949318178132,-5.831553771485794,7.440874236395418,0.0006938729310062483,0.0004971282515198659,0.012122291609145427,-0.6597376581157572,0.24993955842903406,0.267105605793356,0.22882372287509486,7.863673990505787,5.8072890030652315,-0.007385237135593601,3.798995669134175e-05,-0.010616180914728225,0.012609691268734766,0.6725137067266473,0.2990677907496764,-2.2040573049317387,-5.614832710057803,7.622649936290922,-0.0014994258856839775,0.0028398464676038637,0.003977462514440415,0.5894488926349977,0.16825897166870926,-0.1586193931786514,2.9286043422482666,-5.5681940019308005,7.5684969544281016,-0.00011490053293511423,0.007875679497996824,0.004392279967438747,0.01312269395702919,0.43396007622383814,-0.7066228445692304,0.4864618733234823,-5.782134898384825,8.001237696918954,-0.0025955414098130106,0.004016704546684552,-0.007335805025666204,-0.36745145102833443,0.5345511830574017,-0.4052521990342605
2.3125778650088673,-5.869462203860434,7.427741088612598,-0.008599370671322694,0.0031224628674698753,0.013654039794085372,-0.6552095436016111,0.23870490029134192,0.26308081182645954,0.23607850003508982,7.8603927701691925,5.853340307655455,-0.014911876683385896,-0.00809699711864893,-0.009076825074886205,0.016871754620625807,0.663569619721197,0.29259891568337604,-2.2056724089264335,-5.611508320558077,7.661992872626946,-0.006819834925583009,0.0024342942253888764,0.004242060373454928,0.5958976882076912,0.1584066072512213,-0.16449315279635995,2.9673573746111916,-5.504228423082502,7.67651156202948,0.00011387883741212086,0.014091697239927599,0.005568317565351901,0.015732968599290048,0.4246636799401564,-0.7093188763622029,0.45764172378992446,-5.740817647371038,7.965032369416954,-0.014053951881029248,0.004982714239619327,-0.007709463621550419,-0.365087334534791,0.5252635891365849,-0.409182612926838
2.28898099191684,-5.928195958390354,7.432251258797611,-0.010699106935192122,0.0017345077333878807,0.015179498796473536,-0.6586018302016255,0.23944698725101596,0.26460000127075023,0.22127334467640486,7.858608100234771,5.856981426993017,-0.01688638900338861,-0.003972693443352615,-0.010236073233001972,0.014227935463433055,0.6658676127087509,0.2969671541719677,-2.2305686267161593,-5.630375686596886,7.652688550216142,-0.007946043796890442,0.0023918786507301478,0.0015639979213797708,0.5888437387307639,0.15919393850771002,-0.16293419312096324,2.904867157157425,-5.582036243859775,7.749559426457352,-0.005851035422766596,0.0032864546403843157,0.007680981342135061,0.013295688998633447,0.4261360345143753,-0.7092810721825409,0.4309650267214445,-5.766475088522573,7.935437466628262,-0.014715483466830362,0.004086293276522651,-0.006695909766095126,-0.3692026649120392,0.5264962009302072,-0.4069276463966382
2.317633267450319,-5.927110662341038,7.444527067701263,-0.006358140750725662,0.0013320981140130625,0.010656256697762332,-0.6561456582953802,0.2404086139149298,0.26530060081843837,0.24836470667574925,7.86397181782112,5.87644244055024,-0.014216037749564946,-0.0021588986231861904,-0.009547493149395249,0.015950475721640243,0.6672843633400806,0.2952312798368032,-2.202060896010727,-5.604409788060675,7.646772960115929,-0.00826345739732183,0.002303529324341254,1.7985954159655175e-05,0.5934668870407265,0.16061670370465533,-0.16472010070492446,2.9429504177509513,-5.544035134188073,7.692502019082981,-0.00958333760408343,-0.00825268906966052,0.005894989778249515,0.017456844361076793,0.4283214214644132,-0.7091197776438459,0.4474335477384136,-5.796730695257398,7.938181749707921,-0.009282476640170146,0.00028100609366904625,-0.00962810677132407,-0.366504531218273,0.5289317144326358,-0.40648091431803635
2.3191035033162715,-5.895585731274842,7.428397272359407,-0.002766693316588924,0.001689137926833516,0.008210827921475077,-0.6556688871058451,0.2443219375925447,0.26335650822109435,0.23856145030203985,7.847738632384154,5.864595379351766,-0.010042308267021743,0.0006957031206254299,-0.009984336474601547,0.021102466998560766,0.6696294131582703,0.2932271475475711,-2.2050318604543855,-5.621674495200566,7.639856733424425,-0.007946027628554375,0.0023898944578595645,0.001566013539706051,0.5991059582533764,0.16351560324486847,-0.16433470958616864,2.9386699597065253,-5.5501563026077445,7.558097707276744,-0.00783865827200967,-0.005805803726874728,0.005895373828661073,0.017619412936252077,0.4302547489096683,-0.7140139834474254,0.47571635440184956,-5.791821466340069,7.947233629494793,-0.006985794370317783,-0.0018217741592472122,-0.010245879997752047,-0.3624010135015795,0.53184852602266,-0.4102052929906586
2.3117361202414393,-5.893095636504399,7.440362892137042,-0.0005480598800442814,0.0008737590619202714,0.011688473530345956,-0.6625772152319913,0.24650372141270327,0.274213767537496,0.23645016517690648,7.854680902028256,5.851444106093675,-0.007106722219638519,-0.0037502109329393177,-0.010609219493033338,0.010920657598749208,0.6724108129027335,0.3068882615873341,-2.1999019373079434,-5.63343829652234,7.632929532548642,-0.0030759517230866773,0.002802624376483048,0.004253126802904319,0.5875415633759176,0.1661057810013827,-0.15442391000652508,2.9547356466723937,-5.556987258961391,7.515694352190038,0.002193778172747999,0.008872223336425821,0.002950974652103185,0.008635487530999453,0.4349822199631193,-0.6982443185254418,0.4794867159265523,-5.789380359179015,7.937649932410616,-0.004212830804192086,0.002603754158768541,-0.007821141214422981,-0.37173092294450427,0.534325602198472,-0.3971327136198517
2.314824471577901,-5.908644306789533,7.446826861690404,0.00011099629246822017,0.0006553968134879859,0.012220718671171842,-0.6602121303278148,0.24969347798462768,0.26808773436684624,0.24215032915872733,7.851387570958553,5.864532182577471,-0.00912547393887839,-0.0041278075707061775,-0.011609655035791205,0.011119664128787279,0.6710342555356593,0.29689746766411884,-2.206146069762368,-5.603930418016621,7.653383940435048,-0.00015302549880124027,0.004438860062590369,0.004496897323873078,0.59012052270297,0.16724680351900828,-0.16252747233451892,2.96017801980095,-5.54672029423402,7.661603787998749,0.003306572209985344,0.016527867153268257,0.004436710220880871,0.011168605414418924,0.43201294080206776,-0.7063363788349332,0.4626074380011276,-5.790232108683504,7.953849711344226,-0.0036390648211469478,0.004828073715238479,-0.0054695049527095285,-0.36845178717507937,0.535039539608332,-0.4069475425017263
2.3078099276618658,-5.917467931161812,7.446793807387639,0.0005470521849077549,0.0012966886331142347,0.009621712503278198,-0.6528315359136538,0.24548657155634984,0.27308640122885774,0.23429120057196615,7.861077716853401,5.871981355980829,-0.005612881205033159,-0.0022527143057215543,-0.008956245242007554,0.020888090927058962,0.6693308185084961,0.3054408043765104,-2.219555336181034,-5.621585210493773,7.656975043009737,-0.0018782101964056493,0.002187288849798468,0.00399895673215717,0.5958188283920999,0.1645827544776088,-0.15550636095680617,2.9181605446929604,-5.567562787256401,7.781265397594984,0.0016845690042491294,0.006127809019548309,0.0037448248143091417,0.02291907141984184,0.43296116926777145,-0.7048405237509662,0.4319020912471747,-5.7798033032641625,7.9162502629008635,0.00048499443276798116,0.0014935489042704594,-0.008531436459983546,-0.36051945971759913,0.5323454775426298,-0.3982685853815736
2.3016536053889673,-5.879972785671296,7.4341488379642975,0.0005438623199601831,0.00011132431914249698,0.0076322861367283,-0.6549605651424327,0.24669923565813898,0.2772741011129514,0.2177619350334593,7.864481707641523,5.850284341705314,-0.00801916241669666,0.0006028599094378725,-0.01175007230038319,0.018970658455088062,0.671368037265174,0.3093218291706685,-2.218088827857922,-5.606327547332421,7.661990097365665,-0.005184895599821872,0.0030287906651300885,0.0024049870531395027,0.5977775077581648,0.1638434405911266,-0.15479621159349857,2.9545557917942435,-5.54545508691998,7.686209336939854,-0.006012860265768647,-0.00668896154782213,0.006465302687121272,0.019911937900763402,0.4317866458229982,-0.6952587053600702,0.45672464441847893,-5.748289350386326,7.946191553922984,-0.0041032369624831155,0.0005603739191588549,-0.010668827184861458,-0.36074161862471005,0.5311278506922561,-0.39655492051549274
2.321400447109182,-5.859745886812255,7.4220143452009815,-0.006779662456505478,0.0013921687656380706,0.012008989845271411,-0.6556778456770697,0.24554622113871424,0.26238592821791057,0.2285504000406514,7.854078352021843,5.834157400500018,-0.012089065602779444,-0.0017144306452373302,-0.009512511677489075,0.019640707853307064,0.6698921318683627,0.29322743150987957,-2.2031273609430517,-5.616442595030777,7.645300376342976,-0.008439400977082536,0.0025231978300665043,0.0019810110697232397,0.595871552772729,0.16374473851644092,-0.1686862558876664,2.92335427478966,-5.564458086449603,7.591007942393924,-0.0067137181944032925,-0.0032086498138139976,0.005498170639262626,0.01619455016383778,0.4319757152225569,-0.7120418891216663,0.4776267855599169,-5.78228900639606,7.970580458427351,-0.010044511885984249,-1.2101236703920307e-05,-0.008533746512077294,-0.364618261264154,0.5320958690160008,-0.4116388911920401
2.330837608673236,-5.8817340710080135,7.455415223323979,-0.010433571937091008,0.002973958976510249,0.014568924656253155,-0.6487590465149606,0.24304611793964512,0.2686191848425335,0.2341988733347515,7.858006578743317,5.833670847038895,-0.01680218040654014,-0.0059384409768107604,-0.009731277683378137,0.02404917184725882,0.6703694198249968,0.29613656186455317,-2.2014985298410825,-5.602301038753309,7.6495517961402255,-0.009361746984404423,0.0033520179407753705,0.0012464730742036633,0.6021027948585207,0.16280575901421648,-0.15924392521337521,2.962133654571456,-5.527489457947868,7.566699571810112,-0.006830315062688598,0.0047475203197713586,0.006193552531283424,0.02361832465938859,0.430756311794788,-0.7063097093862118,0.47890442336636174,-5.797082092366666,7.974940369217933,-0.01545867476988445,0.0030717131546804375,-0.0050819959321413396,-0.35694597037008113,0.5320867821021968,-0.4044242207307699
2.308190083695785,-5.9405620488761715,7.429050027452541,-0.00820466202078523,0.0016695961663036572,0.014807864490403356,-0.6598726470002436,0.2513754704799625,0.2739497946118402,0.24222859066842875,7.858189022582234,5.889394215276887,-0.01488841308737767,-0.0061120331755134885,-0.010524343504514842,0.013410158887373562,0.6771898197398658,0.3021684943277566,-2.208430052002925,-5.6323002783625205,7.646163155499942,-0.006647856533047954,0.0022086900685643986,0.002284138721058037,0.5943416710889876,0.16653131113621214,-0.1572099595744609,2.9374468625321706,-5.565210343217511,7.639479416576941,-0.004389520705821218,0.009284429328588152,0.0059523771735012655,0.012968729920509584,0.43641975075940853,-0.7019898504774443,0.4540371550411433,-5.7904077646891,7.947786242126567,-0.012050972482541592,0.0054134763550617564,-0.00479536161078731,-0.3661739931338984,0.5347966245268782,-0.4013643882347225
2.3022799559978133,-5.963441542859216,7.456283729141321,-0.0009426132742437085,0.002324577249062948,0.010545638806082754,-0.656849223531243,0.23942627003958727,0.26750405389700904,0.24005982392498104,7.839917616263448,5.888840192762591,-0.0076217585375881304,-0.0016263285109225022,-0.010682110155267217,0.01763316882562518,0.6648470208638485,0.2969727250904236,-2.2141174136256825,-5.625190789797641,7.642074361409034,-0.0037853011379270305,0.0032807112679936303,0.0040954013077191785,0.594453103906538,0.15721008234871703,-0.16251002916064045,2.9346003272077663,-5.556361232902497,7.6989768713904,-0.0010863573681889178,0.003763420122253218,0.004118500048804324,0.016501867750468947,0.4254020254216887,-0.7073821363060216,0.4300172384244452,-5.7949296663741166,7.9276216323391715,-0.004213821825810525,0.0026077563802994353,-0.007821131266084877,-0.3626251269452034,0.5250156977972675,-0.4077535294199467
2.314496487414683,-5.91438458968511,7.441230748426056,0.0022999968768548144,0.0003118870268216418,0.006096723041844566,-0.6533689289501942,0.2442817519182567,0.27015876355251467,0.22336319399995616,7.855846506190366,5.86101289882583,-0.004814523727705322,0.00377628187417037,-0.01039571750684746,0.01988416135299731,0.6687474458808768,0.2983717963281581,-2.2095959094941735,-5.6147851489643905,7.659532871632939,-0.00232332391749065,0.0040988338669503245,0.004218279377371412,0.5993968961923507,0.16500011289765956,-0.16166413975812902,2.9441945443589725,-5.5474478325283565,7.642840748750643,-0.0022957462482003986,-0.0010750173560103492,0.005150997170272016,0.021370880891114725,0.42977555687956864,-0.7089512391143656,0.4574056379261281,-5.776383142242042,7.9314612481213285,0.000797503816982728,-0.00175247055315967,-0.011547767603403102,-0.35967408662995276,0.5298929203097466,-0.407068007996843
2.31606436038447,-5.869748856833297,7.438450987261467,0.0030569055685288875,0.0019221572738789725,0.007998743011221903,-0.6500384358150354,0.24282492085682972,0.2647308681284003,0.2401647829940604,7.848087554485555,5.8316503768681445,-0.0034509040632886515,0.001238294427851807,-0.011120098023665486,0.024728149772478673,0.6659770815820355,0.2969346575583671,-2.1945656789965815,-5.606119484524511,7.627502668605099,-0.0018178211982997762,0.002747527097201564,0.0024344960343272506,0.6020800287040637,0.1596300015499802,-0.15946269045412187,2.947518416624002,-5.561057808889577,7.591900641069046,-0.0006984024579463612,0.002888986296599007,0.005830248123776348,0.02286038324249832,0.42782477683017306,-0.7072609861912494,0.4869806519080129,-5.77797572724281,7.971503735356598,2.6383865023312536e-05,-0.0006095101968828943,-0.007685523483248373,-0.35627750612383,0.5267102519916002,-0.40809045224573604
2.327099270885076,-5.855521562027158,7.448117942973727,-0.0037990334684805294,0.0005127209980827597,0.012160553230979658,-0.6551175550886625,0.2467455740721586,0.2667773772951038,0.23213623799518573,7.870194464408221,5.833090940602302,-0.0111529722153878,-0.004066616979327561,-0.009824421311519194,0.020190978890550767,0.6740844672130258,0.29633624915384965,-2.2081632505162134,-5.602540016504063,7.6549027990328735,-0.004176251238941004,0.0038471334370976914,0.00548267379171957,0.5957383381802716,0.16891709909791236,-0.16310825795941322,2.9499351404847385,-5.528024453250976,7.614080265052211,-0.0007011219424066135,0.008461319507761675,0.0046225129755845685,0.019194470363836404,0.4336900324590347,-0.7084394704610503,0.4855039441481633,-5.782049378891489,7.979767127967215,-0.007142107243370598,0.0016565707244206689,-0.008438163162631167,-0.36036765238442653,0.5318501574718919,-0.4046188921899978
2.317103953677253,-5.887189358672124,7.444054139266853,-0.008786497198882541,0.001836859992453704,0.014906315686384489,-0.6490170830886206,0.24158441281842166,0.2681285319456267,0.23173057003968792,7.852043402302436,5.86516484295206,-0.014259801845710187,-0.006705543532907625,-0.009370997345499628,0.02325249754602485,0.6652565508742814,0.2964619218967704,-2.2201837740019816,-5.624096327091521,7.648560563623719,-0.00801041014934745,0.0018237048522895863,0.003133577963122467,0.6013223926489938,0.15767396128922428,-0.16041371942653013,2.937870007291736,-5.558010095933036,7.696124424746724,-0.003391661401671773,0.00834121072280361,0.0043569545113755674,0.02430698641792066,0.42757257300638696,-0.7082629954148225,0.45858758614508005,-5.778028240538289,7.961957201852987,-0.01242685398608361,0.005677208728464174,-0.00670744773084428,-0.3586880006001507,0.5250093189907306,-0.40561179286893967
2.292938918846335,-5.9338972595349935,7.460994399347644,-0.006950191498203712,0.0019853238756862646,0.01399840002453591,-0.6635228321693961,0.24356529714425898,0.2771442945253108,0.2306675527580343,7.8499608150886315,5.867994068598029,-0.014874257785118312,-0.0036505207657392346,-0.009202768957262478,0.011147612734432115,0.6711794711195854,0.3064173191498106,-2.212396495318838,-5.620685341261879,7.6469472355786365,-0.008541806055655365,0.0020861027938943906,0.0010117674836025003,0.5912015916095752,0.16243277474006104,-0.15298272912505334,2.9216025946002273,-5.555094101588094,7.714202486100322,-0.004951792017193506,-0.0003284028010880016,0.0061116706732853516,0.008438130105084377,0.4301132537432498,-0.6948033641525668,0.44291243141372644,-5.768621076723062,7.93863966130726,-0.009396144021130513,0.002323389933977235,-0.006785361799408091,-0.37050869355227095,0.5365196064694149,-0.3973976203427665
2.307596558601175,-5.9111510773993015,7.4298238179596225,-0.004850654707423537,0.0021859010716780394,0.01048346104176415,-0.6571465120908442,0.24213172702907976,0.26312490923276965,0.24931935408551187,7.849282311035748,5.858101472099105,-0.01324900466364483,-3.8585098708272456e-05,-0.009989724501350137,0.015939475907398044,0.6669994445097039,0.2925493342250908,-2.2138713317065086,-5.601442883811838,7.638952960444955,-0.007396238471567153,0.002818861867574133,-0.00041240422311909417,0.5954503111818112,0.16281207570216735,-0.1635452886054371,2.933816648165207,-5.558278655485653,7.6300297852170464,-0.008624985788580926,-0.004561780345638414,0.0055615342509890316,0.018657014240215992,0.4290460004610616,-0.7103652123225117,0.4648494032390695,-5.791347715783409,7.924170661129124,-0.009080658174635516,-0.0009266372800681306,-0.009802731479879123,-0.3662996239818689,0.528684303884862,-0.4091688685671484
2.3305147983622656,-5.894044858349806,7.4673891662221346,-0.00119454843248203,0.0017844710020894616,0.009914945601724528,-0.660039051345884,0.24384541757921066,0.26512897294344495,0.23449332178350205,7.856571707724498,5.878487273729009,-0.009744186039573428,-0.0010964695147031235,-0.01142405081525415,0.013761545982091882,0.667353459593533,0.29792197608556104,-2.2025691890781376,-5.624287639600734,7.625873530642641,-0.004810060307989781,0.0036734284389656736,0.002390611916915722,0.5947307260121019,0.16160718334367366,-0.16206043622624994,2.9494210113070403,-5.555331752357673,7.557924839208522,-0.0034520790358992088,0.0009589590571865831,0.00681703541552668,0.013598337248424186,0.4312716903319093,-0.706864961804117,0.48281912312032116,-5.800099910452743,7.968459749738617,-0.005494834094918784,0.0009239782648719431,-0.010199199352663047,-0.3672501220829778,0.5279565733779672,-0.4072012497856963
2.324884928584636,-5.914887863258274,7.424032084647465,-0.0009580518991565881,0.0016211884746632093,0.011798917259144658,-0.6573362091152503,0.2540956023148272,0.26318056160031483,0.25154441012596634,7.843883335498282,5.841324262594462,-0.00902584583974616,-0.0036092125889346134,-0.009793638106700331,0.015588910801933593,0.6779746303960655,0.2914068304541395,-2.206264462652702,-5.6189237700546935,7.643646090888767,-0.002372569340075673,0.002313630181618474,0.004418023439190533,0.5949916213339814,0.1723202908894973,-0.1655667283336816,2.9481765853097164,-5.528237035179086,7.5682958386757635,0.0033093276347910166,0.010522182920003469,0.005047023499409901,0.0164898967370648,0.43906251236461263,-0.7103653287532236,0.45644003617282947,-5.795158259219778,7.951288198005927,-0.004924029186564759,0.0031463077313552586,-0.007844518164264298,-0.36506348188202703,0.5391790244783348,-0.4096868621712957
2.296166294535824,-5.910427568192521,7.441633378443571,0.0007835968609274461,0.001124379802584888,0.01151164432299243,-0.6568691389634317,0.2406547890445403,0.2658005673458353,0.2312445301991403,7.854072695276921,5.881954343966001,-0.007851271594009916,-0.0032878897672776546,-0.010758103235948422,0.014958190016601286,0.6656217270041281,0.29745681988226313,-2.1979685713519164,-5.63500805569932,7.649563651858253,-0.002210740725498442,0.0033119853174920443,0.003824812243932994,0.5969274624013609,0.16086251909359492,-0.16184168204740934,2.9342599881729114,-5.566011007111065,7.703902141846427,0.002262798544288346,0.010171319006142057,0.004806020643241128,0.01792952302956749,0.42758511806224736,-0.7098584854184854,0.4589040068646677,-5.779968631965443,7.935868032432753,-0.002322952754900357,0.002931252363655477,-0.008103637027845277,-0.36604247672921253,0.5267320671816106,-0.407950348093406
2.301955534929444,-5.904420742063096,7.451194481126619,-0.00039785736396200197,-0.0004278016742457971,0.010961393855046617,-0.6605216668845159,0.2426244293746712,0.2658638899770253,0.22828666055310523,7.865088613975506,5.845192575858588,-0.008578170667149655,-0.0003195153578132616,-0.009613105374506966,0.014748490294390406,0.6683093200563658,0.2974164390443715,-2.2147360712094866,-5.608478955247136,7.648652742573921,-0.0021614771339720598,0.005093212763548902,0.0036280995499763354,0.5937424726876228,0.16014638695197017,-0.1622789911819066,2.938817245694521,-5.534709570696504,7.702501336625525,-0.0023595972799250126,0.0026893913387134993,0.005195564252689335,0.01574880955370604,0.4300346151791157,-0.7093399648203892,0.4503376602046183,-5.7539334724433235,7.943214914734635,-0.004338140708946187,0.00023387508671894274,-0.008866921598457726,-0.3653040787085427,0.5264869548052875,-0.40747163180368534
2.309363698154441,-5.875725546094737,7.423383977931436,-0.0021230262858473133,0.000768373641817305,0.00999935549603882,-0.655942453811798,0.23870823894716675,0.26309178803622785,0.23952190412064864,7.846701246095087,5.843669858088257,-0.010058753132747726,0.0006534504410480368,-0.00994863945147938,0.01908346202679226,0.6645247273117423,0.2930669123072862,-2.218057802879595,-5.624934965054577,7.642180192540961,-0.007076924567715297,-0.0002260966035392134,0.0025013678235588812,0.5982731620803081,0.1578689927515869,-0.16891816630258752,2.9475341213902144,-5.572239060808398,7.629321908429842,-0.006283869558572252,-0.002699518736726052,0.005343501002237573,0.016399437643430104,0.42611132018275827,-0.7132440330140071,0.4669031142903695,-5.770359997176019,7.94073350341464,-0.005369566561007458,-0.00039782797628307425,-0.009766540935674054,-0.36267144738365986,0.5262330463907486,-0.4111715181295435
2.3197858205376214,-5.885415923009144,7.438809224292085,-0.006275590927582283,0.002467315149814362,0.01328535270367872,-0.652676572384483,0.2460013891357862,0.26698261427611025,0.23106203582810514,7.86401930341136,5.837103762348541,-0.011896498051978335,-0.003601385479819453,-0.009978353056743447,0.01965053511464313,0.6703996577154717,0.29444080817829343,-2.2076388271980494,-5.605570206380121,7.646484062221546,-0.006803427351171332,0.0031187037315829023,0.00014591542737047908,0.6000996410411654,0.16473624436861464,-0.16362628120992198,2.9431800429515045,-5.541765187399657,7.597400267049461,-0.006345723866921064,0.0010638839321859554,0.005388036338372721,0.022306737624162066,0.43098413754734866,-0.7114150341433155,0.4717331187144729,-5.776706990877798,7.9605070222773175,-0.011239244397705938,0.0028305573002534684,-0.007624544297111631,-0.3597142505260435,0.5291580552347215,-0.40975292516185186
2.3125223744679078,-5.907452425520523,7.425373940958327,-0.008945712920705262,0.0019490264415055018,0.013657039879514133,-0.6560553955950924,0.24649417293714093,0.26947662045825366,0.23701096860087117,7.847502020758106,5.8571806451398905,-0.014675562939547408,-0.005524753319007791,-0.009681823958918848,0.014287161481640992,0.6705056923978301,0.2968962311396088,-2.195167859150495,-5.61003328664707,7.648122642853571,-0.008443366164308186,0.0025172621789672773,0.0019861145328899325,0.5952172071979116,0.16233228471364472,-0.16256108885943907,2.9538573725332617,-5.554624360980177,7.599048778447237,-0.0038430388274512304,0.006897882655620977,0.00699504084619851,0.015798136496769838,0.4319970458873421,-0.7069070401260967,0.4721876006276369,-5.778934813687435,7.958862709132121,-0.012025076756364677,0.003253938215641556,-0.007045660798841047,-0.36524341119618803,0.530152852785615,-0.40381403704062385
2.302216663012695,-5.9273539606078804,7.433601209676961,-0.0028150168465398326,-0.0004130062056510531,0.01196772835703546,-0.6516910048759627,0.24550471788431938,0.26769777045074317,0.23669515487672357,7.854052864425037,5.87736009208333,-0.012111968018917056,-0.004243201744679885,-0.010792029635924655,0.02113911404299805,0.6718706508104918,0.29612220554015073,-2.2094094142725833,-5.647390359962934,7.636052214651651,-0.0035108873307522995,0.00349022580800451,0.0031097387285594033,0.5990985681151347,0.1657009878999653,-0.165816962363236,2.926214331288042,-5.5702447514607245,7.670175512900257,-0.0012072751085965045,0.005717907741346518,0.005419305202109663,0.02060958939157819,0.433431216385739,-0.711149176972377,0.4401040936802386,-5.78194699081658,7.958556243964605,-0.007786813995231712,0.0037413603118971665,-0.006297916545987593,-0.3603835316136951,0.532581852869391,-0.4058395717938892
2.3033716360350205,-5.94143192788412,7.430459415494209,4.0189042832186654e-05,0.0002114810760448139,0.008362349047684578,-0.6545777600876946,0.241349828679735,0.2718731075682903,0.23404020414613197,7.856679059175415,5.8556952171067405,-0.007406639450594177,-3.0463483236794e-06,-0.01057048668551566,0.019369326727103706,0.6663345261526545,0.2998752911545999,-2.203115235011581,-5.600745153564784,7.652444861585703,-0.003826291002411954,0.00340585603743509,0.001562666892568045,0.5974959585242317,0.16163464046348977,-0.15648409726054568,2.9506456246165844,-5.538821897013586,7.694251775768248,-0.002789422320962658,0.002188260165165243,0.005350202478866224,0.019702848846953527,0.4288141822637115,-0.7064763318539543,0.45167540304507514,-5.7813112529287665,7.928908465077794,-0.0028689495645962105,-2.567597702054052e-06,-0.009942861298602394,-0.36279603895816487,0.5279511860180024,-0.4031147305463424
2.312571052239258,-5.890567735374133,7.436978153087333,0.002129436586165075,0.0008950379239970358,0.008087089645855838,-0.6542932019036357,0.23847370090540057,0.2591596114061174,0.23836614813656434,7.8575312753686175,5.844986228491952,-0.0064430155043468645,0.001154833498226114,-0.010311944326950217,0.021019561653467262,0.6641850025088846,0.28842685074585067,-2.1990790319328837,-5.6308077553084726,7.630840940758502,-0.0031823422401786768,0.0023585858857087614,0.0032879947515332165,0.5975239763267657,0.15956710422872808,-0.17087414486021293,2.922130584952982,-5.588984137055044,7.6309014286026144,-0.003239550209445307,0.0012527647712144254,0.004888782657112805,0.01806387148159847,0.42585270950881277,-0.7157141501200734,0.4632867987918931,-5.7876408327237865,7.961831023505554,-0.0002916779395710132,0.0005018642036601472,-0.01071846011797647,-0.3595366120221522,0.5245143547327048,-0.41365692096224715
2.3347891748488188,-5.871314632137234,7.434821618725025,-0.0007884319160378545,0.0010250070815815595,0.009816508167188603,-0.6568112611043748,0.24210367246534487,0.26922451345907195,0.24417505646813437,7.87097104410479,5.860767095081389,-0.00858474915203939,-0.0018037703238021861,-0.011643692954365016,0.016687898691464777,0.6670757233508182,0.2981626509696446,-2.200319706605878,-5.609651212770736,7.654383453691593,-0.0032968989413130305,0.003140478489979931,0.003685529300486212,0.5947608762212377,0.16259655620284394,-0.16035941026806286,2.9700372504936063,-5.540946809109411,7.60773547488552,-0.0003597895006183151,0.006290808768031174,0.004500807211968419,0.016537321340024388,0.4300446946905697,-0.70618055022805,0.4802917786588664,-5.783064779055896,8.000724168178522,-0.004039745914698382,0.0021216133746734967,-0.008508181158924877,-0.3645226296830467,0.5294184351799857,-0.4045566720726922
2.322274120709633,-5.8889892572200475,7.434152674724954,-0.005678176822505937,0.0030013959980635667,0.011943613148254779,-0.6605910243970804,0.254307745664095,0.27397348343272554,0.23424603420553491,7.842441019149729,5.854675650427422,-0.014333966435747449,-0.002795123563617327,-0.011287653098982832,0.01273670321529977,0.6811501105577352,0.30504041478202587,-2.207089354281211,-5.621011451037836,7.63551110601393,-0.004911459421874098,0.003237327157501091,0.001421346271177453,0.5893043168004986,0.17439769425523755,-0.1542699848471968,2.9471761405259884,-5.541400756190964,7.638459381604811,-0.0002174911075363519,0.009833182456036876,0.005710749285726976,0.012258521896023377,0.44081879770341714,-0.7015061320196984,0.46683980623696486,-5.773256334843361,7.945764024382403,-0.00831595623487216,0.003782754122015936,-0.007007441769437853,-0.370731028740084,0.5431126533215551,-0.3969124180450132
2.3083121991782853,-5.907111633013672,7.4639590959081,-0.005966102291489334,0.0010655833091931367,0.013808600858112119,-0.660476194601679,0.2413883668043191,0.26927616877478905,0.2343667315747582,7.865687957249856,5.8776254991004295,-0.011806181823380096,-0.005556379830921395,-0.009484740793918376,0.015190633870539323,0.6641911376367869,0.2999202542566309,-2.217024322241891,-5.62321949899345,7.6748823688441465,-0.0076375867868923855,0.0024663551167101085,0.003119246946133747,0.5922890138589186,0.16089125891209782,-0.16177618287223214,2.928727708683651,-5.555750077726239,7.706573585615692,-0.0019236721835285083,0.003194523715963402,0.005045802469227867,0.014329880334960073,0.4263893714447908,-0.7061269855192492,0.45187025512019163,-5.775817702034829,7.928877801670596,-0.009658904211281507,0.002699386190352879,-0.005500859990276116,-0.367686608844698,0.527473574166148,-0.4035320914260414
2.307204537076624,-5.909149937192099,7.4322888130905325,-0.006432846043594115,0.0025774813575766306,0.012034038500468597,-0.6621871204564121,0.24726365366129008,0.2673744568965306,0.24635186014409957,7.8593969565031205,5.870578418230953,-0.012102755348750037,-0.0017775955725856764,-0.009468502782838803,0.008218433671672626,0.6730430251785816,0.29809649074829375,-2.2026980760858184,-5.612698072277229,7.651464695434287,-0.007231505589486231,0.000686895007057405,0.0003611068519275135,0.588161787637799,0.16530983929496865,-0.16199643981267073,2.941857424042932,-5.541423564977659,7.662019327715362,-0.00720842110325781,6.361899845447043e-05,0.005694358947339298,0.007678537935777588,0.4324961802265501,-0.7104266421092414,0.4558705479106264,-5.770079762999855,7.942334671077025,-0.009260847062341008,-0.0004334905007018301,-0.009124602274824433,-0.37138130963094573,0.5330933488348709,-0.40665940077640694
2.321409320523966,-5.897613505415434,7.4199008070332,-0.0026256776771328163,0.0008765300970396279,0.010728438317145239,-0.6580438140955233,0.2474909048616936,0.26682443299547465,0.23697144662548797,7.847574283603886,5.867236872071229,-0.01017092079537537,8.366008884670324e-05,-0.011721833566628348,0.016231351953151143,0.6697515407841289,0.29714605658675364,-2.2044592221221815,-5.632424725845174,7.635548482453529,-0.005089404846238503,0.003452024010971577,0.00338643906467542,0.5923424386214958,0.16457133771633126,-0.15960755685805278,2.923628924801483,-5.563679678316085,7.604814328349296,-0.004987264898383825,-0.001188123206436493,0.004885429057889966,0.015817050288017342,0.4310257867203538,-0.7056824116522152,0.4701029214934109,-5.790625053800849,7.948103986903247,-0.007108250829414219,-0.0004879906688123249,-0.010693593093683909,-0.36675350906041443,0.5318614713178998,-0.4072125451179412
2.31611761904629,-5.896938284609004,7.441128501546117,-0.002196891825031349,0.002001783470139711,0.011370071030903275,-0.6563788894302195,0.24431880514981277,0.2648322913647796,0.255410215990571,7.860144596535173,5.8505070033894135,-0.009131663937849387,-0.002714606738213264,-0.009526939959033446,0.01690432307821947,0.6653341340010666,0.29623434600889553,-2.198389113062539,-5.625314995089916,7.643646708839089,-0.003890685690330517,0.0028376665319268745,0.0031302471967305464,0.5957091202910869,0.16354828407603014,-0.1628216422310177,2.9589222623244265,-5.531891380162338,7.569414390524773,-0.0003760157120852312,0.005858447940206728,0.003888669298892949,0.014784314491206697,0.4297964027353948,-0.7085897027954466,0.47432994938710343,-5.784268130823144,7.962001987890492,-0.0056652261759814375,0.00213572206216992,-0.006231637316800089,-0.36507704410133995,0.5299025749194588,-0.4091877132477901
2.303238591874131,-5.90272322967023,7.4529419992389,-0.001211940856293725,0.0010780737415082722,0.011172240481153116,-0.660777181975463,0.24091765213988886,0.2656161471484168,0.23997889771482567,7.85914538361597,5.852990841309799,-0.010402309810229377,-0.0025801237486125636,-0.011081448689311843,0.010061234113611374,0.6649253593047387,0.29577261267665594,-2.187640953364017,-5.625868130710904,7.655142284208763,-0.0022127203182033305,0.003306029422335816,0.003828887599820614,0.5915086401232464,0.15819368015793964,-0.1639412252962477,2.9466040406230034,-5.570857138437321,7.648210306517736,-0.000664562993710022,0.008898689612548418,0.005252271528292696,0.010625530037370396,0.4310270814770564,-0.7092523540622167,0.46278402897679227,-5.794822329919156,7.943102965155956,-0.003693694025105565,0.002572380520889639,-0.007113483317239664,-0.370416785443638,0.5279641843688415,-0.40666776573432245
2.310378761647664,-5.908634147425289,7.4192990424886665,0.00020178101027348307,0.0012796217999999709,0.011615042766725307,-0.6547468585377113,0.2496409940276252,0.27435453536053955,0.2320972663168732,7.860235587620937,5.875646082551825,-0.007838186072500343,0.00017989811314854626,-0.010151959700557683,0.019971145284934443,0.6746685799026145,0.3024317207969388,-2.2163706644423273,-5.617117579557586,7.658080981857373,-0.0034617231980569874,0.0021381578470823026,0.004280814352549579,0.5985297522417926,0.16944595968723045,-0.15582700401423263,2.9337110786318847,-5.552053401716915,7.682207260976117,-0.0006443053685661836,0.00426956148559336,0.003975626153547968,0.02002358303286598,0.43712469377248137,-0.7035837613630949,0.4620575006376834,-5.770750686182912,7.930331371112616,-0.003591250188253471,0.0019680581536313355,-0.007198316899754736,-0.3620104120584737,0.5347883972520758,-0.40044702574349345
2.3105494810186356,-5.899396661847346,7.44091089120861,-0.0016232423723664651,0.0006531824374951001,0.009281285843238644,-0.6530966034085334,0.24329395818095015,0.2723485971836148,0.229081093115058,7.850603355700349,5.859762932566865,-0.009644684745858417,0.0004243584166732924,-0.010325406243204403,0.01671157508288079,0.6678820390589892,0.3030328709243536,-2.195665054768662,-5.616008273304795,7.659871153267972,-0.00512741723749806,0.0035851105267120883,0.0008485994248559969,0.5967418017857634,0.16211373548585253,-0.15818639851865782,2.9204574901567395,-5.541528473576111,7.679841651717932,-0.005583678049662944,-0.0006014956235701526,0.005104838337551756,0.01879133088654456,0.43029435239377134,-0.7030472240408444,0.4553634720977425,-5.765659436569185,7.973430447034,-0.005021563403356037,5.6930420074994455e-05,-0.008375875769932683,-0.3627763544015454,0.5289284864504424,-0.40189492999584925
2.3138879333306064,-5.880816777082136,7.452892435652972,-0.005296766112182223,0.0003622414490304557,0.011101157727257204,-0.6506728220571382,0.23962091361725052,0.2722961320170266,0.22059053817663574,7.867933692578116,5.85325474660296,-0.012112903852779413,-0.002805405470403938,-0.008731707816913561,0.021529666147439765,0.6629262904288317,0.3023622324164314,-2.220102731249354,-5.616644187107137,7.634740076413587,-0.0057836312488547086,0.0027180650583688085,0.0018568381501212975,0.5996481934036128,0.1577037273208826,-0.15794791005228298,2.9420312634096697,-5.572390636390906,7.615109339770774,-0.005996259194913737,-0.0006702651151206649,0.005872596473695833,0.021710050911959333,0.42662355106983635,-0.7030851061400482,0.46612182708681527,-5.7933620345182435,7.964654744737207,-0.0075470402768617,0.00038215517126101103,-0.008720021702066216,-0.36035587613094683,0.5245282647549582,-0.402658042027041
2.3254224308232123,-5.891050994809349,7.43717886135859,-0.00645026594220897,0.0018781016122824785,0.013287364283736672,-0.6602143201209529,0.2523827320622849,0.2671235203290881,0.23981462663770442,7.859325480765099,5.8578941681426855,-0.013920870357997836,-0.004034418888058005,-0.010945922606683183,0.01508097076458808,0.6756036752641098,0.2955949888418695,-2.193537527746843,-5.605309550669464,7.654346263337513,-0.007639576464370599,0.0024633833643935813,0.0031212987433220443,0.5916006891206241,0.16992359927309722,-0.1625694707504409,2.9501047931424242,-5.525507900572923,7.595748432667139,-0.0032749867163819825,0.005453536749396168,0.005555256243460515,0.014063132475313014,0.43785268033295066,-0.7093401591706427,0.4750841441733292,-5.780548263391206,7.960664056833514,-0.010768797882216965,0.004221157083873102,-0.00795281296430561,-0.36650580213228057,0.5362553885601516,-0.40770984135359595
2.3050076179693195,-5.915833194523013,7.426598474622151,-0.0046314676791905625,0.0013212035270032552,0.013628748819200072,-0.652198787639987,0.24380121061458412,0.26696575566501873,0.2448567673250277,7.838552895830823,5.869138549781421,-0.01295224392621968,-0.0018624945412074895,-0.011412948802114102,0.020604122514985054,0.6682193783175076,0.2964245021609233,-2.2113760210364495,-5.637522676179933,7.6297837583349,-0.00456201462974328,0.0031816748112616544,0.005511369150527971,0.5976327081323968,0.1615736932756589,-0.16405454935965855,2.940005305883965,-5.567033529076132,7.650273615340192,-0.003830823818125238,0.006904888948189797,0.0070057974911961855,0.021163217161957,0.4302718517954555,-0.7069961288535216,0.46019278222851334,-5.783401047712697,7.943557000451905,-0.010190046240110032,0.0027407844680510073,-0.006210356521497762,-0.35988078632555875,0.5313610688781,-0.4046253565650832
2.3043251376760963,-5.930385567874276,7.454037781747054,-0.002952525301460222,0.0015758601825965083,0.01146350230205168,-0.6552226207092717,0.24457663406919247,0.2604216020883411,0.2442379437455811,7.8702862490976,5.877063320871076,-0.009559209877894435,-0.002530774724942295,-0.009112438740642307,0.017954636714601093,0.6718554574396016,0.29246934456464035,-2.2042085183833637,-5.611750662761437,7.652871839092615,-0.004206075194259395,0.0027533046148912814,0.001584175229529286,0.596875670122721,0.16764641444103517,-0.1684860976330611,2.9422442519172223,-5.552779184340524,7.665497985370464,-0.0013637405978497196,0.0017451787828558763,0.0036001811895578495,0.018126880455482566,0.43245408428211685,-0.7132994397913602,0.45199676266518185,-5.787031862940859,7.939023007829896,-0.00520265174597169,0.0005500869057658512,-0.007690732943370397,-0.36190793792650067,0.5325806941580896,-0.40996912504464966
2.3271304682401914,-5.9002660224025325,7.433025138613981,-0.0007708855763358613,0.0017193427872202998,0.008573159441432946,-0.6594600923916532,0.24455031392577334,0.2709841382417025,0.23396242185671084,7.837958813294694,5.8615476751442515,-0.007835310199878175,0.0011821078839344456,-0.01086834039871889,0.012290869457459042,0.6659745504810283,0.3023428578097588,-2.2036867069127526,-5.615302885081851,7.642939040424793,-0.0040555241148052526,0.0018353380354954188,0.003724532380003816,0.5908795531958828,0.162634176583914,-0.15859548473681834,2.931251512764138,-5.5439397155714225,7.639504611680381,-0.0030160707502762214,0.0014681068786382844,0.006671257259484391,0.014403179354967965,0.4290895262528032,-0.7024751426603034,0.45318131123535293,-5.771424930194516,7.955861093823737,-0.0034229129321219076,0.0007703123759770752,-0.011171865014514325,-0.3696008771938259,0.52748080300827,-0.40081935140322894
2.320345153194267,-5.874440656292617,7.438894315303805,-0.00022897821532502183,0.00015036437485651622,0.010976422255529377,-0.6646625364518588,0.24630741666028477,0.26545402063166884,0.23161669723118022,7.870043709201547,5.836534180393865,-0.008488082494538291,-0.0012821375062328564,-0.009827713670077265,0.010653743712760087,0.6722947736842144,0.2990768726661991,-2.209726861871234,-5.625746907555591,7.654998220481727,-0.0036777012649744697,0.002484933412790354,0.0037070755778110683,0.5896118274320614,0.16796937463997783,-0.16423516407968144,2.9505452163088615,-5.553871702023646,7.6058951204369665,-0.0007287243737547442,0.0020262856907215772,0.004612927604750885,0.011167783457991486,0.4361610556361768,-0.7070845550490912,0.47865699104650844,-5.785325254430329,7.9569795098012515,-0.0036816139315477745,0.0011473039641492339,-0.00988342210334461,-0.37181042176500284,0.5348076055949192,-0.4027486688069372
2.325995435424738,-5.903637155036699,7.4420713316403715,-0.0043662229731028694,0.0013763076698517054,0.011021708585652958,-0.6558341291625588,0.24869971498606536,0.26728578056536784,0.23725880172215574,7.8540252150321415,5.855811259800704,-0.01062593138828714,-0.004249790784063379,-0.011159335662265209,0.018964059552208003,0.6731568113764393,0.298551266667561,-2.219456516749466,-5.609825162682305,7.678644128227898,-0.006177554740136596,0.0032795374775473475,0.0032481921688807536,0.5954711308290673,0.16793307040707697,-0.1643179028523778,2.9627901709750137,-5.510878091400566,7.6281057586046295,-0.002175437663389757,0.007182963402869745,0.003937663485588783,0.0189611537254376,0.43320561697026816,-0.7077003067576061,0.4680487352452438,-5.77569252610489,7.978960715042621,-0.00751132401809508,0.002643896126750496,-0.007070777875604757,-0.36205436915163297,0.5323435374176815,-0.4031300628591753
2.3084195289211764,-5.9066493690682345,7.434789985390791,-0.00435896697414103,0.0025566273811288695,0.013017052598511306,-0.6548396576749839,0.24380051153299612,0.2699346057739904,0.2293578053568,7.862978142960312,5.864201913824533,-0.01254296567132346,-0.004099018322315369,-0.010356911072386597,0.01764055618286818,0.6644298723335107,0.30161862624419233,-2.2296408474434086,-5.616456379992645,7.647053350549919,-0.005899163578610729,0.0034969875685956914,0.0022574102458082007,0.5969531655261313,0.16112092852533955,-0.16013485167652813,2.912364484100516,-5.570896202465661,7.680288914329565,-0.0026765115004580248,0.004869914711811795,0.005338799011724919,0.018733294140247023,0.42833003160884653,-0.7059680673420147,0.4425275029664236,-5.759589519942565,7.922881912064074,-0.009328617580599326,0.0024325718533206903,-0.007393510209187863,-0.36205845006887294,0.5289258083640292,-0.402882330217129
2.2955411216323154,-5.924593426567879,7.43391526077603,-0.004692106342089581,0.0020776464024648525,0.011753766651624814,-0.656451312686791,0.24605147849105666,0.259469370522137,0.23520748733068902,7.8590060451122685,5.878093000912661,-0.012220102324254236,-0.0033763511886248745,-0.010510899620671277,0.01593277949152528,0.6667368853102522,0.2913332117704022,-2.206751732798511,-5.617976910063628,7.670200042345422,-0.007412468907916173,0.0008986105964052971,0.002326265824278071,0.592954258557886,0.16352657574297547,-0.1676660772423706,2.94189875385757,-5.5344087151311125,7.659953076163199,-0.005312320593476315,0.0009923933332754164,0.005020807841791793,0.015458791545339365,0.4310019398698426,-0.712024982976293,0.4533919505818748,-5.783683743777045,7.937389245686249,-0.007278439744778862,0.0029873951046500004,-0.008876673046267764,-0.36753772489334824,0.5303944622096957,-0.4106180792616288
2.312051926576394,-5.914570069412443,7.431052248999389,-0.0024517920869105625,0.0014626820393536242,0.010741426851881229,-0.6570098423447843,0.25113752509159387,0.2695113936050773,0.23950969491028207,7.8550963631640585,5.859452754347609,-0.010723094592131775,-0.0008508634785471892,-0.009588701878203789,0.017770749601299457,0.6746781013140529,0.3012168882248677,-2.2068286485662836,-5.622852821698391,7.629001019484501,-0.006328103818985447,0.0041955120105388,0.0011088507679424058,0.5967829008729858,0.16943545279742334,-0.15848852179560552,2.9433201919758396,-5.556029117478145,7.62863922173695,-0.006324436911922992,-0.0035552473342791782,0.004111333863748693,0.016568406720193288,0.43615146007950856,-0.7054716389616716,0.44861071615835335,-5.779802814280626,7.947677771461652,-0.008153853606480303,0.0003133787279479929,-0.00883125291999713,-0.36543047031828446,0.5352837703784131,-0.4006425019957667
2.3151527691376197,-5.895896953963785,7.443233782558492,-0.0024702659664974113,0.0007613201311415291,0.011991759283469764,-0.6609886989754996,0.2426201901197081,0.2673360343499415,0.24463244667111086,7.85976909779164,5.858158291332637,-0.009343422178342145,-0.002368147004528781,-0.011051786541650429,0.01376014172161949,0.6680294610543493,0.29424922669947073,-2.214322519975883,-5.6308344665713745,7.649927620532401,-0.005093376117026896,0.0034450884099032314,0.0033915504682151556,0.5913180736398426,0.16187426280249737,-0.1617701461148305,2.947429879486499,-5.551703861466332,7.58389665744972,-0.002310823414470557,0.0035611304498403802,0.006436524377826458,0.012852021253987381,0.42785499636642077,-0.7070824446370997,0.4768820178399644,-5.786846530798273,7.963156241406913,-0.005410546797252563,0.0017617372649524256,-0.007522025934814236,-0.3681802013944957,0.5296708750412219,-0.40426043012416507
2.3189275660694553,-5.900463260219716,7.430754660421881,-0.003109810326015821,0.0016860352184048845,0.010210188341970182,-0.6585817906308258,0.24457496114290567,0.2643783096387477,0.23589699441281023,7.852383745201599,5.863233188569403,-0.009344441755552105,-0.0023701032931679284,-0.011049753465883699,0.014052058783023203,0.671466001633423,0.2956611255193731,-2.199687980554968,-5.618888591940408,7.6577744945749044,-0.0037791165471948557,0.0020508163241963547,0.0027357943137465185,0.59473372082052,0.16379832463906574,-0.16280978518017586,2.9560760280419465,-5.543846367428402,7.616471341540298,-0.0019702464803324268,0.006962939137187189,0.005105048126958707,0.014249226326844158,0.4285674364411788,-0.7110167974586272,0.4615868162010275,-5.776345327493831,7.940638163958272,-0.005618417587968699,0.0029713897652783577,-0.0073513169344004625,-0.36751424713966013,0.5330817574015049,-0.4094001587604626
2.3107352947536657,-5.9095209132776185,7.461205890967973,-0.0008879699504236517,0.0003697089470815608,0.010448180973815129,-0.6623623810791898,0.24235592444716048,0.27345915464373893,0.2202300029249606,7.851332599374791,5.865721510930037,-0.010086799657015654,-0.0018900095968479697,-0.011211916312702814,0.013809912030812641,0.6698833528493755,0.3037439501356039,-2.2137350323075538,-5.616293819721412,7.654271671685906,-0.003022456798676745,0.0033500087370584653,0.0027018664589066326,0.5914416496436244,0.1646195718170874,-0.15422346708457485,2.928385570048064,-5.55919222682829,7.687696875475593,-0.0009612492344533392,0.0064460810338138235,0.004117876784796818,0.012490396437659224,0.4308119658058205,-0.7004943442108257,0.44758289663818895,-5.774246373457495,7.9478086011716425,-0.005410546797252563,0.0017617372649524256,-0.007522025934814236,-0.3656537525719815,0.5304036756964531,-0.3984368603815665
2.3099055093984395,-5.898882572648734,7.442497983470658,-0.001950069328802782,0.0013505037352359239,0.010018340894278678,-0.6555088051627344,0.24018930038551722,0.2589413360289163,0.2533172741655143,7.85962761950051,5.871987623358645,-0.009235573647520801,-0.000814809405816064,-0.009978665393398707,0.01786332407109304,0.6652285345360405,0.2901294050715355,-2.2258414251575647,-5.616002176069443,7.672278264010425,-0.00519380768645758,0.0030129493189182278,0.0024182394665798385,0.5933887935919221,0.15911342819421875,-0.1695908273604632,2.951060210502971,-5.554000306288094,7.669546043226217,-0.0033776614029789797,0.0027798983942382647,0.005578447935092482,0.017323966997145362,0.42756106364762464,-0.7164396819872512,0.47248851118922186,-5.788383623623564,7.948754431799912,-0.004122386601413166,0.002018455336242215,-0.007908823222457595,-0.3641672897731524,0.526477971768892,-0.4133485418099242
2.3156335122993896,-5.893371320707001,7.451793782188434,-0.0023735943166234025,0.0014065791628636685,0.01137208648747849,-0.658675207884002,0.24550894552851066,0.27415101726684415,0.2233649688485105,7.85471021593788,5.866242855356436,-0.009978918696194723,-0.00033370309756351675,-0.010140840788485534,0.01554609818096221,0.6720543026412157,0.30346170794645105,-2.2057654097330905,-5.616050178717128,7.642951361439201,-0.007365152490675672,0.0026768898507471086,0.002134604533880002,0.5922200248124968,0.16585605639099446,-0.1515588560444843,2.9395742504648026,-5.563907025655965,7.636569913884407,-0.004946629558139673,-0.0003153909407535372,0.006118529281537313,0.016634553791712303,0.43348156586420955,-0.7013117849445164,0.46459346014101716,-5.775291544855004,7.96196610589762,-0.007367038959060563,-0.00010500657156322061,-0.00941215605457179,-0.36638646797942565,0.5316260466172887,-0.3986716761893598
2.329946900149336,-5.881755035470092,7.439554522588615,-0.004868860503409355,0.001487464064728952,0.011750804442866048,-0.6546177881690897,0.2477181732284774,0.2672632557852931,0.22861579479494318,7.871787389796333,5.859167124801333,-0.011267565896797968,-0.0032412846736389516,-0.009516635877543526,0.01577457079255934,0.6721993077617183,0.29711005943753793,-2.209304644197173,-5.6113330872238985,7.6603717442493675,-0.005193799602289546,0.003011957222482936,0.002419247275742979,0.5937489623142184,0.16574576807700675,-0.1642763201236012,2.9594978288188365,-5.555878657077994,7.609326680090546,-0.0029630597876965886,0.0028496657089698467,0.004811650033165009,0.01574796974932115,0.43418272614011677,-0.7100891408677581,0.48106016314167177,-5.792347491208128,7.958903723281493,-0.009650910966438511,0.001267313252699154,-0.008275733178239254,-0.36526899105381055,0.5328364981778896,-0.4060147626208378
2.30523981836887,-5.902789710550092,7.410421609943771,-0.0035333100256190134,0.0017411018381015464,0.011565929346672475,-0.6564061571392569,0.24237122954258317,0.2636039531677962,0.22668682273361135,7.85331390603369,5.858745496460298,-0.0143528354945946,-0.003887253754803538,-0.010512846927016066,0.01738801721037273,0.6650727535982255,0.2955048247470181,-2.214693810961278,-5.625844331270121,7.631997338056117,-0.006558365147966069,0.0026249844967930615,0.003268730637042469,0.5934638922323084,0.15842556240926323,-0.16397075175099854,2.9308676017976545,-5.5413087588089,7.625443928557448,-0.0038602292386600134,0.006044165933722657,0.0057834521170855085,0.014976822802070707,0.4256372069358658,-0.7107743940439823,0.4600961221829207,-5.777301773865968,7.947232256820948,-0.008881147188494217,0.0022740178138867077,-0.006084626003167916,-0.3655720333693687,0.5267296747361685,-0.4091772227085903
2.3045546922894573,-5.9170739755456125,7.438070165508087,-0.0009793244459627534,0.0009017567264320813,0.013068214087467127,-0.6580170603388066,0.2509056006296381,0.26757219635970375,0.23844192002822903,7.84708493586573,5.851769153274878,-0.010733736547790685,-0.003354159511091227,-0.010892647322702537,0.016318598776795132,0.6759027401169526,0.30022635312436713,-2.2149847225477783,-5.62580162769859,7.662088072441535,-0.0023160949418350833,0.002866964242088533,0.00286267362006074,0.591393770325623,0.16921515844367402,-0.15963058980636008,2.9330356762985805,-5.565244165498273,7.659642641246271,-0.0019144655313375054,0.0031985391015089087,0.005056624402250892,0.014385584682931276,0.43494088755467425,-0.7044518212741611,0.456640833503745,-5.7738502879055495,7.9252308731642644,-0.0063564095096613525,0.004225439367823632,-0.007889122213170039,-0.3672055630544391,0.5369913700605805,-0.40550235797136025
2.3082827241591,-5.909791881663423,7.438030554020852,-0.002136128727233717,-0.00042097594202726547,0.008017060640716217,-0.6589300699297453,0.2486915366158329,0.2724596709662493,0.23143944539718012,7.852130876962929,5.883331554807162,-0.008286904200467972,-0.0016818940948907487,-0.00826501857383502,0.016064983145028394,0.6742605012387556,0.3044026490403986,-2.207453191398011,-5.621516056995281,7.661102581555213,-0.005194785315684538,0.0030119712712783505,0.0024202612637775635,0.5953452482316901,0.16751271496255793,-0.15576669610292182,2.947361066907425,-5.533502576583732,7.654665193498245,-0.002670396546490893,0.004872919800678969,0.005344679214007175,0.01539846175451484,0.43567850028925015,-0.7025184334466282,0.4557297128606912,-5.790757857616756,7.939293451008831,-0.004686301420150237,-0.0001948994018959656,-0.010272613797015755,-0.3656450858930651,0.5343106637226845,-0.3984411559094733
2.31758544093254,-5.894138500042945,7.438249559675586,-0.00011279037928545394,0.001489958830697815,0.009111371028180461,-0.6558503772661711,0.23648110887828133,0.2699174102471338,0.2286670139304592,7.855172250544671,5.86137865758382,-0.007848549001158585,0.0011576911853755935,-0.010840925822812193,0.015651032774350215,0.6615291936759791,0.30191274345331154,-2.2119673092235637,-5.617053103927863,7.647912755772625,-0.003481813360984715,0.0033392901925800742,0.005659846793775151,0.5969679397190519,0.1567491592651767,-0.15717033818202028,2.93614207153839,-5.562870468549859,7.647629001106365,-0.003052567214484823,0.000606385643231572,0.005444041499909328,0.018048019518786686,0.4234635386170483,-0.7025184127717772,0.46976384445594677,-5.794239909822714,7.963023255407562,-0.004416868947505293,0.00013670062220588842,-0.00827462691850527,-0.3615611415726447,0.5220915635878797,-0.4011729933283757
2.3298977686921942,-5.880405619200654,7.416964467523794,-0.003031587267511233,0.0016289235339838463,0.010842843389069923,-0.6539326016174812,0.242350413709011,0.26576413366529317,0.232197019788176,7.847434634191288,5.833578957067226,-0.011690134885271304,-0.002045407763296007,-0.00982767263628634,0.021311131077150967,0.6653411442677695,0.3003728022569081,-2.194175797348653,-5.610054564647395,7.66824239460721,-0.004487445829615918,0.0025299048239482954,0.002579046627733946,0.5973842660241498,0.15913908373519378,-0.16329881004989216,2.952590649666184,-5.551382581658567,7.612038997729759,-0.0026886759745551243,0.004440553391399939,0.0047295774739374505,0.020658422121207793,0.42636643011291614,-0.7072160298503066,0.45785587440072306,-5.776151802235698,7.955417020722487,-0.005567832551472911,0.0015344065846459956,-0.006320402053014798,-0.35992072318534596,0.5259880005013532,-0.406572249285814
2.3185026160401416,-5.911232595565591,7.444121104028193,-0.003857159110728288,0.0024434226129878716,0.012299961566153988,-0.6541944446126008,0.24797934521770496,0.2628625428401872,0.2388969956073586,7.864323292321041,5.859143785261421,-0.012225509693117673,-0.0034129442497803923,-0.010488322901750155,0.016722963550493596,0.6711318010142031,0.29199594030315046,-2.1994838853747436,-5.624443558137338,7.6399608918031925,-0.006066985478126702,0.002492693465078414,0.002853753405141213,0.5956953163099853,0.16694693474087172,-0.1652904620114954,2.9402266609992385,-5.56196377601655,7.667934974626154,-0.002668358228501849,0.004873921496968027,0.005346639281434592,0.017173271967770097,0.43294975696208393,-0.712063133418936,0.463992411857201,-5.782815093632243,7.942993797557384,-0.009091022204886234,0.003481674787921392,-0.005913886111637424,-0.3648339229348826,0.5338072331891315,-0.4099284465975842
2.3086341346454624,-5.919229676977522,7.4341141641935655,-0.0044370048677638135,0.0026116817234802586,0.01239738728033772,-0.657748251348583,0.2428303331135955,0.27168303183088505,0.23043435527028958,7.8566052511017865,5.864602002118902,-0.010522435283650126,-0.002728105805159604,-0.010066716615523125,0.015944670549805712,0.665886671859255,0.29964714734210807,-2.2090788097414866,-5.6087421615378235,7.663541612683208,-0.005194783315079248,0.00300997922487394,0.0024212770133137463,0.5918119449638942,0.1604139795173716,-0.1607885459709522,2.9380686540013117,-5.552321711760882,7.638794285535356,-0.003574714212688406,0.0030049255599115246,0.004417899803865397,0.016570037325278494,0.42932027156969743,-0.7042240020415096,0.4554588036063234,-5.786595253922816,7.938374799462761,-0.007516362100156279,0.002645904087054554,-0.007073708033375587,-0.3649636195980143,0.5289341777338052,-0.40113147300975943
2.304385850441408,-5.918933352105253,7.424289807884287,-0.003287554030893717,0.0010948530415437994,0.010208236640643515,-0.6617011681904172,0.246040378445968,0.26760581839452235,0.24361901887675036,7.83808246393553,5.895554544796008,-0.011479801105321099,-0.001416372346474434,-0.009003784812977872,0.011610487271766797,0.671042890184806,0.2978720127298546,-2.2024739888352136,-5.6233804525890285,7.647373878305867,-0.00545907968096829,0.001580473777906178,0.0020381978986816086,0.5891317955369239,0.168706277567281,-0.1639901182566549,2.949311163402351,-5.555679700562612,7.643941494057945,-0.0033735818176517177,0.0027829017747588417,0.005582364143591299,0.011098891292634194,0.4319978124422651,-0.7102417273563782,0.4553271524438197,-5.775676824095065,7.931193289588936,-0.008017707648575935,0.001970800716253551,-0.007267813880306887,-0.37044393830019373,0.533088302405266,-0.4093581246455408
2.315232457929769,-5.893809227131231,7.445983140368789,-0.0024527011454900625,0.0014596557563201678,0.010748427939189672,-0.658282602148109,0.25335836048440935,0.26538972857246496,0.24750824442584096,7.867738766807976,5.85029634665947,-0.00988463715120451,-0.002290794049574143,-0.009650208547563273,0.015610191240376709,0.6785407312835743,0.2965257512318134,-2.215467588324467,-5.641807647361877,7.650356078016879,-0.004060501350282157,0.0018274086797195415,0.003729665843161082,0.5935381803125154,0.1723351173927562,-0.16481315393661053,2.954119556778582,-5.552606541525511,7.631793745267649,-0.003666242109508239,0.0007606476709921804,0.005049331036393113,0.014510383527343644,0.4373546998855423,-0.7115445806299958,0.4631791746141612,-5.790640234175559,7.948523392087173,-0.00528234688570266,0.00044191897877406523,-0.007094412237480051,-0.3650362760516259,0.537228376839638,-0.40748694248357104
2.329995830522492,-5.893465803662889,7.421674925748833,-0.0017741839835731963,0.0019366465679842315,0.01003129948028406,-0.6595836293495214,0.24629807439781534,0.26220363290587995,0.2452875613899074,7.849849981888513,5.849080560922145,-0.007965568720308932,-0.001425453472566655,-0.011176224289069345,0.015553155001534542,0.6745982604624704,0.2941437624215533,-2.1932510431104433,-5.604215044376756,7.651348215384539,-0.004158683937154426,0.0045276390440934094,0.00139954478215407,0.5947030943257617,0.16499816895949992,-0.16550512794586278,2.9498743854494456,-5.5320148387743115,7.629739416376623,-0.0021918243360037615,0.006242786248418735,0.006430013058824656,0.016217695744166656,0.4353965091249369,-0.7113234314962276,0.47042113565960253,-5.792931712909477,7.959977112418502,-0.005208451065026523,0.002831739026988796,-0.009844308334578547,-0.3653403765934146,0.5338070231562063,-0.41114130505908986
2.3149955688367996,-5.897560802534141,7.424027454304492,-0.002629500169625487,0.0008694866606534286,0.010742466095123842,-0.6575427771914756,0.24161794391567695,0.2694773394671291,0.24394459037369623,7.840149561400842,5.865652454362908,-0.011267890217682262,-0.0022568803796002086,-0.010222734369748437,0.013507649626176475,0.6657149702988986,0.302343245187507,-2.2051753137471533,-5.625492637136066,7.645042432153928,-0.004767832752182743,0.002308483030614305,0.003571888288367839,0.5930985382276578,0.16287705876369776,-0.1571636423308598,2.9355314221432502,-5.56856032800897,7.64340323257842,-0.0018401577836487286,0.005012459157423419,0.0038130652402547614,0.010939343601256682,0.42518632401531103,-0.7043525158689509,0.463254363816003,-5.784137664172442,7.91734114386902,-0.005987547232472702,0.003952722658531239,-0.005976925775316457,-0.3671873645969711,0.5262525297036416,-0.4025618509395158
2.3069113713312053,-5.918571496262798,7.44189077744805,-0.00494794885097066,0.0015445405777253496,0.011127163276052794,-0.6504439365842966,0.2442694879809311,0.26987093329822975,0.25597804117843426,7.863471424781755,5.855309174603955,-0.009139370947119215,-0.0017657090745364663,-0.0102064720229398,0.02229258960666392,0.6664962675669311,0.2969338882831977,-2.201773852601336,-5.612737778832036,7.67160455567065,-0.005096333338958743,0.0034381544671071257,0.0033976476213005012,0.5998289327882209,0.16034297589816568,-0.16358793817474487,2.962659386673298,-5.530129234671531,7.647131827936659,-0.004760482218138536,0.004180171188310263,0.004859585155875711,0.020913497010572067,0.428319611963893,-0.7069841086183541,0.4592847376753103,-5.7721833596384045,7.9750633159990665,-0.006260993479239496,0.0006458680811324439,-0.009115797061952115,-0.35817792466746123,0.528671259563312,-0.40464692096771454
2.3134634697944456,-5.902028924494296,7.4323376535604435,-0.0037110537304969097,0.0011499196612404616,0.01156397764534581,-0.6573392909901621,0.2391845022364643,0.26751031609163356,0.2271512417542159,7.854253659786337,5.873102531803907,-0.010203672843910334,-0.0020152481771187553,-0.010211542404508065,0.013484398348954279,0.6639988662977164,0.3018814319836749,-2.220301494563019,-5.624055821027562,7.640347835749968,-0.006446826340897253,0.001840110628399297,0.002871262266942064,0.5920311891291931,0.1591819397964476,-0.16200313566383118,2.9237706886030015,-5.562520024233007,7.649399743054468,-0.0038563524799999586,0.0009042233419728334,0.0075995933902959336,0.013562899915987591,0.4251649798925638,-0.7078178363002904,0.46873782809275244,-5.775090513777098,7.953983599412415,-0.006944407440791906,0.00045992557708072714,-0.008622741545461105,-0.3654788203256479,0.5245399789333659,-0.40233951486021974
2.319231081112627,-5.896818984083659,7.441431505417606,-0.0032875137884044066,0.0010938398195896636,0.010211231930581686,-0.6611860694439303,0.2416292340083038,0.27075302716284905,0.24474935903984496,7.846325187637588,5.8447003730587035,-0.009673771374734772,-0.003135257974567813,-0.0108670944517047,0.012523354327047693,0.6652284054183356,0.30162146864236594,-2.2017887850398767,-5.599613432585765,7.644603151880657,-0.005476176202334582,0.0027875636768324185,0.0034141407335651686,0.5901149914261248,0.15897114594172201,-0.15928797575812298,2.9441017395402667,-5.545269413999871,7.62555208431465,-0.0032719552909299485,0.00039804686809813503,0.003665467400612476,0.014119989472054069,0.4290817497815091,-0.7046684239958163,0.47541216419894317,-5.781476834572329,7.941708379282332,-0.0054423661482332145,0.0024872401509337025,-0.008040397511326692,-0.36642800653519864,0.5286934487496819,-0.4011102020340644
2.3196612366492784,-5.89982256402916,7.450298892841491,-0.00436906272894949,0.0013752728000616709,0.011032747826172543,-0.6587381436627565,0.24455021074884697,0.2702402511385752,0.2292731861480841,7.845055892074993,5.847406488798856,-0.011908860074205649,-0.0027099827565683875,-0.010627990929243995,0.014997017008894336,0.6685575889748463,0.2978999812000254,-2.2005603046103017,-5.624252830380285,7.640989779334465,-0.006562338419359753,0.0026200409421291257,0.0032728262910460223,0.591598640799888,0.16335302366852705,-0.1598314802411423,2.948905240033039,-5.542074855724606,7.61350196894417,-0.003097141838563764,0.00437479502658598,0.005503251485001975,0.016066838649554854,0.4300499519572032,-0.7051950090573645,0.47291076296361945,-5.773954418994441,7.943385414086222,-0.008521069552953838,0.0012947007485916207,-0.007462889832050276,-0.36647380007066976,0.530154795527872,-0.4045294589044943
2.307607201135564,-5.894395210560527,7.443268253954402,-0.002876180177202167,0.0015127135882007728,0.012106160010025561,-0.6500452926258004,0.25162775417504407,0.26159544542071295,0.23500045266372094,7.866353586383353,5.849211058943388,-0.009143457016377966,-0.0027867344921846332,-0.009478799431347676,0.026291865525610462,0.6749038817065748,0.29117822015490913,-2.214603899209919,-5.62202549718045,7.637184753508202,-0.004489427422926098,0.0025259409751964765,0.002582106234085384,0.6025389279574699,0.16885556996009662,-0.16564645670014744,2.944401023674827,-5.559413669445413,7.630594365930947,-0.0012020914559431233,0.005292568639866555,0.004828761572478976,0.025206373332947875,0.43560478187718465,-0.7139261017914462,0.4481334707921068,-5.790516481210003,7.961600497336521,-0.006567531811105249,0.0031624544859265567,-0.005569718083939584,-0.35581179831132803,0.5372037425357457,-0.41128166665929466
2.308450600342758,-5.920290084660038,7.427724451390427,-0.001851316345649953,0.0019907228598061246,0.00940561557176215,-0.6593251184614386,0.2431144062888679,0.2641389495447826,0.2541774859972502,7.845876680063834,5.8589562574588845,-0.010206769876478925,-0.002024116447879319,-0.01020539731191426,0.016439109085253988,0.6665973891212518,0.29865873674515786,-2.202411757604128,-5.625862291849288,7.639271424716978,-0.0046039396202628285,0.0033058650936647178,0.0029836561389448546,0.5949386291866527,0.16134251343130945,-0.1645026235875105,2.9501884944341983,-5.548180472041184,7.654568562649233,-0.0019509827928527275,0.0023358140050517466,0.0038284127358210332,0.014995613480782717,0.42905705579989667,-0.7102998957219826,0.46188383049362425,-5.769975985583455,7.94062110117041,-0.0063942203816310965,0.001972694312291381,-0.009546346414277387,-0.3645417608578723,0.5286841350703295,-0.405775739891605
2.308718030815335,-5.911321448842303,7.449197650302354,-0.0021297714529058326,0.000755313092308414,0.010020401273949807,-0.6544676750086527,0.2448108285163103,0.26187652303122977,0.23180894970222257,7.863551303019102,5.8531046379901275,-0.010314295912077328,-0.002116858171132018,-0.009230549567681033,0.019400779129133326,0.6696885364553248,0.2956725360301622,-2.2084000166366486,-5.636560070139519,7.651150838819218,-0.004588855028273561,0.0020967876853234145,0.0016077574232963542,0.5959373029056041,0.16548433677032717,-0.16479333862228523,2.9450978410197846,-5.564017966999046,7.639206198466789,-0.0015060679393395493,0.002757500493178705,0.0073924331171957664,0.016477036662671952,0.43027545346542595,-0.7095989381734862,0.4523629970779531,-5.789173348628139,7.951150294311466,-0.004946048617055715,0.00018709013472246167,-0.008988161622891011,-0.36408989527483215,0.5313659089595931,-0.40871539060244244
2.304401776835024,-5.899103048720656,7.451910458818414,-0.00275402626456297,0.0028613026044250465,0.010236058652626402,-0.6648163680010768,0.24603759415266718,0.2715588721997947,0.23598459269740207,7.847580288243307,5.839922382431682,-0.008927529926040218,-0.0015999544473285097,-0.012140855331735489,0.00991453530985223,0.6711318161550032,0.30227116550223043,-2.207549074852923,-5.600958804545483,7.649470966745636,-0.006515265138863385,0.0012669383005580103,0.004437938881157631,0.5858199269841902,0.1668397428659962,-0.15562644030384531,2.956003094723058,-5.5383505253162975,7.622217315627415,-0.003368499446612792,0.00278690212428719,0.005586258589415,0.008567317956189905,0.4310639738151105,-0.7014024527899536,0.4685388526579229,-5.789300873948954,7.966027870812648,-0.006049138650516913,0.002417466913200328,-0.00814862794035929,-0.3720021273326436,0.5331033266191334,-0.3988366938392221
2.3265476054312315,-5.892672187501707,7.436939850154434,-0.0047925474742808,0.0014303350057352792,0.012389488709310526,-0.663396159144876,0.24824404135551273,0.2678849266985897,0.2274947060097043,7.844183972553234,5.853917793564028,-0.010844715502463121,-0.0014621031458888943,-0.011333232595399156,0.009918864021423147,0.6718376050368265,0.30055118052655455,-2.20623381284548,-5.625561422842289,7.64589608090222,-0.005197750621784418,0.0030060294249175364,0.0024253506076997687,0.5896523484201263,0.16896449628590957,-0.16180223416714298,2.942441268531895,-5.556771940048544,7.642289062403002,-0.002660222804503119,0.004877924409016269,0.005353479717933452,0.009955693062626624,0.4361666318321317,-0.7065748582965972,0.45328699125647204,-5.778950868912736,7.943417323328316,-0.006682703512939565,0.0030661886164676535,-0.008772294290913262,-0.37013770915943406,0.5343131837642667,-0.40521339710688137
2.3103379497610557,-5.908711105234992,7.457533961108764,-0.003534174221382864,0.001738062312998928,0.011575930069287982,-0.6498346179241473,0.24283566114171537,0.26204254078344497,0.23253344608062837,7.873886211268855,5.841076430872402,-0.010209881565506864,-0.0030471542790744487,-0.009477696883623224,0.023018827356550503,0.666224303152092,0.29571475740929576,-2.2046531297292953,-5.610652851938951,7.650863252985649,-0.004490411135715799,0.002523962977587481,0.002584135971656152,0.6005648144320282,0.16082641035635215,-0.16360216248299897,2.9412913766565656,-5.548603982310945,7.645464479867187,-0.004183321635281169,0.0031641840520349536,0.004026080026606048,0.020622002665382805,0.43026197984811293,-0.709916918201173,0.45780138542445314,-5.785122929595333,7.963402205870539,-0.006704781360594301,0.0015100261760473378,-0.007141147446613822,-0.357468438840156,0.5291567963308255,-0.40636679739009074
2.3041262710557775,-5.906509383052673,7.4384382493363725,-0.002308574852374927,0.00016415312632238902,0.010014465033245696,-0.6591973342081966,0.24307668846187253,0.2726829107777325,0.23879394065463394,7.8492904901205875,5.87502928637655,-0.010206894771527931,-0.0010228070392103781,-0.010917754983672123,0.013534732300984561,0.667678747415097,0.30304529858050555,-2.209342294418466,-5.624264355781487,7.653463927448643,-0.005197742537616385,0.0030050373284822448,0.002426358416862909,0.5911511819067096,0.16094484503472267,-0.1558997121647416,2.955985916318096,-5.546292559007887,7.662461094808103,-0.0049871306474521,0.0034600179017833044,0.006180639936493879,0.011724852351734701,0.43007456838157204,-0.7021871071272489,0.46391002783477797,-5.779196712423288,7.944983322952932,-0.006685748307763813,8.99296974357647e-05,-0.0099151917386782,-0.36880885236693917,0.5277275983396206,-0.39667955071502925
2.307960555823215,-5.899292647218103,7.438367756668437,-0.00155089457153734,0.0005840453548747863,0.009925977133331772,-0.6575786275239386,0.24651808686805618,0.26559303273362944,0.22910259625384305,7.84598281067458,5.856730976881197,-0.010208919087877178,-0.0020379355284871957,-0.010195178999846281,0.016212648328086554,0.6682868314190716,0.29716845413846865,-2.217178788074894,-5.632843949755503,7.643661046677472,-0.004968697891649402,0.0014461968950487073,0.0016242505355610222,0.5937340863077626,0.161601724491926,-0.16351146362112307,2.92186595236948,-5.582060873215735,7.617250060304635,-0.0026155708898960447,0.0011115304939787382,0.005298261212972026,0.014785000027328972,0.4315044370907119,-0.7088403722413247,0.45619775570508747,-5.782513370254799,7.9406580755118865,-0.0053111709893889966,0.0011654151695156961,-0.007612824653447328,-0.365738337562105,0.5333268901952648,-0.4047874246378656
2.311661392925209,-5.892082468634703,7.438337235528427,-0.001974409225412416,0.0006391163885945022,0.01128071825959838,-0.6510485069813454,0.2403938865443346,0.2632700647841883,0.24811044771211865,7.850547710241263,5.854812323997993,-0.009464577060482865,-0.0025190698991936506,-0.010034006224293365,0.023693702991545804,0.6615890259271563,0.29651657093205597,-2.219392312232115,-5.609289030284365,7.676439718821315,-0.003997039787792928,0.00239265165178495,0.0021681226921027802,0.6017663625025004,0.15837605800034346,-0.16384397349546045,2.9646915336457766,-5.529365256402511,7.609428310754747,-0.001884958981050672,0.003635918719514515,0.005683508309560243,0.024280119519063455,0.42732290184522337,-0.7097267930377982,0.468959841779785,-5.773802318809693,7.958243479651192,-0.005339958702228225,0.0018859145719663628,-0.008128234081628185,-0.35772241361613716,0.5262270898838517,-0.40660405030941094
2.317630461378438,-5.8984403324645465,7.435151521429225,-0.004291824593676685,0.001318161256400423,0.01166641772607328,-0.6549281899422844,0.23967106724927562,0.2652791363083731,0.23198212969421467,7.857740503233694,5.8427415066320725,-0.01084784202956174,-0.0014739250650855017,-0.011324041999400502,0.017091227821542567,0.6607041084098053,0.29703751201987316,-2.201710903266581,-5.624617900066554,7.641613029570193,-0.0049847803641591484,0.0026532884522471887,0.0030011791199901928,0.5949351343684752,0.15793427360166495,-0.1632546435997419,2.9447351504468466,-5.561130781887953,7.6379532803998,-0.004276812738004209,0.005553041870743904,0.0059498172060837295,0.014719866234925475,0.42270703384616964,-0.7110024970624217,0.4641000498329859,-5.78593425324954,7.951260438552853,-0.00668471543241001,0.003067192013477334,-0.00877326659461345,-0.3645631077943454,0.5238013675510248,-0.40650329652907463
2.312480564905466,-5.909490083688826,7.443970832638112,-0.001617746013923832,0.0018174188856942288,0.01129758772607478,-0.6522202167135466,0.23916330390807214,0.26694560184410127,0.22527488107184107,7.866558253126066,5.883384608799025,-0.010105512415915554,-0.0039814190892029895,-0.00972278328709977,0.021034789730818113,0.6631243616582317,0.29894225155093584,-2.2015913536624088,-5.606771711078719,7.655847047818832,-0.0043929671242838066,0.002951144465113135,0.003560528639260436,0.6000511399536328,0.15789675385521224,-0.16405993678937042,2.9309984609334148,-5.541265615737165,7.639331742228502,3.144173055145055e-05,0.004986065177702003,0.005628065960992943,0.02211450669409616,0.4248960799995403,-0.707480367249651,0.4590474700127692,-5.781955532651185,7.961720771126944,-0.006678007785469417,0.0007895301736710477,-0.006626709222689105,-0.3594288149399631,0.5257431693972017,-0.40633502152908163
2.308541978258629,-5.9087512382714005,7.434389827906117,-0.0018313540541268897,-0.0006523552829422105,0.010540788438881146,-0.6588788670191371,0.24336910717953875,0.2612030435335937,0.2426083331972917,7.842024646876792,5.85209014183088,-0.011489336986564212,-0.00045255880289544743,-0.009690539878618188,0.014203996180310187,0.664831231689494,0.29307656214842587,-2.1932460665567364,-5.623518987361921,7.661304055352089,-0.005858000659020602,0.002133009037805893,0.0034336934521812753,0.5919823077910674,0.1613453214009339,-0.16641401206746723,2.9395294896043396,-5.551918130218433,7.664998019988285,-0.0053031350423167305,0.0010073969668640316,0.005028587085266147,0.015682764797415896,0.42831239750234507,-0.7127506845925173,0.45032330851826285,-5.772953598516498,7.9513102627314565,-0.00584031870458011,0.0012108078998706979,-0.008323354171158547,-0.36653038666578447,0.5299066266011968,-0.40843478630960217
2.30119098903915,-5.906573010311767,7.44607579194213,-0.004315281813217113,0.0006138133544015178,0.01291881175025304,-0.6565508456728502,0.25040986066727855,0.2677921087128214,0.22755343336316353,7.85727902915625,5.857921376542029,-0.010850941815988557,-0.003508194060414846,-0.009878831618187494,0.015298292266320125,0.6727269841372556,0.29930067359985474,-2.224236199487259,-5.630968865059108,7.658025192859475,-0.005198726250406085,0.0030030593308732487,0.002428388154433677,0.5948024255642831,0.16602589062434805,-0.15892174268562959,2.9309225051423526,-5.554165292797263,7.611635440282881,-0.002021172309950175,0.0005259050638162505,0.005077883846381591,0.015806058448652422,0.43468301350079297,-0.7069175863183679,0.4703013769968456,-5.794387990224892,7.969492370336357,-0.0062064332777128604,0.002186136245152683,-0.00694699966078365,-0.365759609466184,0.5347900613394698,-0.40649785841584785
2.310261155540302,-5.90317003540983,7.43369166954859,-0.0024535792022329296,0.0014536162915626258,0.010758415625698504,-0.6499710555238896,0.24158239174270368,0.2696079688344462,0.22463766633339494,7.843522109214852,5.833365795967461,-0.009574195389510579,-0.001607507692569243,-0.009773556295525447,0.02328363055900552,0.6670136068597974,0.2996084112101584,-2.2031122758638118,-5.612290088011822,7.643838358936133,-0.006399420916061507,0.0036144529111352512,0.0026876316883569455,0.6004003858276421,0.15989991499606196,-0.1574877543692548,2.948713532551818,-5.525769027961453,7.615301536447767,-0.0027922873346878712,0.006403051561871012,0.006046045330343042,0.021408002140180835,0.4261240003292245,-0.706252308627579,0.46880350333209336,-5.7747088934331785,7.9328500620446185,-0.0073979048711133215,0.0036007522162356423,-0.008794605164260184,-0.35717625470459696,0.5272061664778056,-0.40270652860113054
2.312856569158381,-5.9077926751034555,7.451999678190003,-0.0038917568253964926,0.0005577379267737735,0.011565066157053227,-0.6569459521402249,0.24776697493500674,0.2585082228946097,0.2380769968234201,7.85429095427651,5.861183452968328,-0.009786648886329005,-0.0022474085415626504,-0.010590271310170787,0.016467518544060655,0.6710753518898336,0.28809108008221473,-2.209320280477728,-5.623218391954759,7.655484666189696,-0.0054801333053921975,0.0027806359292979004,0.003420252005895002,0.594438907812775,0.16790844727451892,-0.1682095958446344,2.941073855688896,-5.559877386977033,7.6493076662877595,-0.002909188652594935,0.0037244090547906028,0.0060575083636926685,0.015164695881170571,0.43172331945738257,-0.71495301631473,0.45305233195619765,-5.789035125668282,7.954562609044753,-0.006706807628591015,0.0015110285055520355,-0.007143119646798768,-0.3651430270378671,0.5333150913462821,-0.41431794042489906
2.3143198699102516,-5.8991436861360755,7.4424318093180055,-0.0021307150403554378,0.0007512956574360906,0.010025398259017982,-0.6625857098227386,0.24308363612260994,0.27468685574324136,0.23679762742156785,7.856942901746671,5.87204707112938,-0.010852011596738344,-0.0025019185897629005,-0.01059426263004912,0.008230324729953062,0.6721928117275844,0.30641042631999954,-2.222143056532635,-5.62369249984064,7.642501355712076,-0.00439395692063625,0.0029481665175350204,0.0035625663172042465,0.5858460861432896,0.16490792731463338,-0.15292628505388134,2.9559317511686882,-5.5480066979260565,7.670030963162692,-0.0012895248688274215,0.0030502980166333144,0.005465112773072345,0.007860108659684279,0.4320469009719996,-0.7001724323774459,0.45947359913749086,-5.779159550912644,7.95982747609267,-0.005841330729456518,0.001211809063090699,-0.008324340820973048,-0.37222967891456504,0.5326171755154654,-0.3976127831472321
2.3125902129071876,-5.900086799597165,7.442221486586796,-0.0017730519513631875,0.0019295935997529728,0.010042252751129079,-0.6683834839910373,0.23900778716290588,0.26376823902906515,0.22679781855114553,7.849562003342547,5.844895724472113,-0.009575260163699697,-0.0016134326833945006,-0.009769462307293074,0.005876125565322894,0.6625156620058565,0.29435648013808396,-2.209265937603928,-5.609709264035857,7.62875829511686,-0.005396597748311309,0.0021467307487361195,0.00047766079528484956,0.5829804678694652,0.15728116678016826,-0.1623480249493916,2.935269616345786,-5.549242579912247,7.643847159594906,-0.004389652318541456,0.002877398871076084,0.005964196614721358,0.006956278485556296,0.42542509459566996,-0.7086770723657544,0.4605336118274167,-5.780203807221428,7.959007296320448,-0.0056582866822944625,0.0007246438214123757,-0.009013518522367278,-0.3745588289533612,0.5250445065279397,-0.4056281091232696
2.3057537974076086,-5.874586735999708,7.447982978463276,-0.002220034158724236,0.001281321125381812,0.01264839236850865,-0.6586914744738511,0.24673638751183852,0.27269150105397816,0.2323391282450117,7.858473387762122,5.852441450719681,-0.009895225039657176,-0.0013319056952060403,-0.01033288491340242,0.014587388328466542,0.673073411920362,0.3054022126993145,-2.224958378808048,-5.622407542281372,7.650154155105529,-0.0029588981444242375,0.003910322641082726,0.0011493618288244214,0.5926417606346681,0.16630365983256112,-0.15645198838025812,2.9398536667316235,-5.5552588271234535,7.628399068659333,-0.0024010959345895045,0.0014053185508132353,0.003366973282287512,0.013672338061673197,0.4342158383247743,-0.703215076809251,0.47052272073850493,-5.779058088352788,7.9616210148279505,-0.006340705185740634,0.000536699089700372,-0.008520475153102475,-0.36686516462777863,0.5330926553930934,-0.39817832214043697
2.3165405634502045,-5.907417764359121,7.438899649106386,-0.003289388195617467,0.001091809243177918,0.0102202520944957,-0.6512196479793256,0.24428575075549788,0.2669532505955039,0.23766103335731117,7.850540779037643,5.857210392929437,-0.012450390400820745,-0.002659471923844914,-0.009216001353810191,0.022581675184671687,0.6696851222206704,0.2981055441737701,-2.199025771046026,-5.611459408423396,7.639367352025426,-0.005579568994907695,0.002352474735860129,0.002444895385942832,0.6005722424621378,0.16204734926864597,-0.16361185767848396,2.9574602136189325,-5.535948120326432,7.628756094855064,-0.0023756503507656093,0.0064728205849491904,0.005281211422199008,0.025557974475554537,0.4292835434029343,-0.706826710212714,0.4792480152280909,-5.765610208145823,7.9581591056712755,-0.006526677326834038,0.003999138791223322,-0.006686313034843894,-0.35699720291570436,0.5279336680985931,-0.4073483548418084
2.306832228607984,-5.892025075776282,7.453507549666803,-0.004149729057405514,2.568091769241836e-05,0.010929498169659522,-0.6544299896791894,0.24822229763340245,0.2633551975319465,0.22204745752093336,7.861601109398176,5.8543191836811275,-0.010854095083758983,-0.0014975689034787164,-0.011305660807403192,0.016502413690305553,0.6717121921826829,0.2978474413798591,-2.2157036586709897,-5.603528161265506,7.654025274794002,-0.005860990217624585,0.002130043480750953,0.00343575936861406,0.5947515456593578,0.16672817804858328,-0.16283305047319063,2.937729115842362,-5.558589277862486,7.660572252887721,-0.004388631684872347,0.002878399713191843,0.005965174685257057,0.018956746870786995,0.43466870535616753,-0.7081949773092648,0.45367157091112514,-5.7699301592969965,7.970280956320108,-0.008631569940663313,0.001899036716147431,-0.007381941066559764,-0.3630641820299754,0.5360055785808279,-0.4060497850155038
2.3051157831123095,-5.905031402404458,7.440619240875438,-0.003957563527463669,0.0017910936607412097,0.012939661410737996,-0.6567504708605343,0.24893091437200673,0.27120698098571,0.2356094819610434,7.85955765293128,5.8882726356375015,-0.01191751765850404,-0.0037815350076130573,-0.009872530924005321,0.01576607852737401,0.6696478916461102,0.3059390639503042,-2.231203311681752,-5.638061391163924,7.650776651342601,-0.00813178487908895,0.001365814965608236,0.002175767947171956,0.5926625163602569,0.16631516525961784,-0.15498718060276528,2.9267774201433125,-5.569694735297609,7.660158661939931,-0.002852196192522794,0.005105951936275417,0.004196829958886088,0.016169831180180477,0.43543979958246976,-0.700333911947139,0.460747252322633,-5.7891161334292,7.963714232086426,-0.00826739569715024,0.0038999795263507143,-0.007614326502113429,-0.36540031904751186,0.5330893828912129,-0.3981993391978979
2.3073640173184704,-5.909768551949577,7.458952939005969,-0.002775377955900018,0.0021539103410210974,0.011496408719454376,-0.6582759029164641,0.25164508677448727,0.26635818369026093,0.2470617871834405,7.849714723868158,5.872001180614935,-0.009363389466479341,-0.0034701098801835895,-0.010266825951503997,0.015084554972916232,0.6756222981217901,0.29681584155314245,-2.1973310397165355,-5.601783519377845,7.633034520676099,-0.0038844970166408903,0.0016107635845031274,0.0017696165128486619,0.5930610817481842,0.1708847255979703,-0.16332980920205595,2.9353003328868725,-5.55140937439821,7.663540288197282,-0.0032262166304778505,0.0012697872898131094,0.004904481368285257,0.014139360422310307,0.4386007449049842,-0.7051937254383657,0.4533498609744871,-5.764031209550907,7.938645000421642,-0.0035543994386098934,0.0028287470505141787,-0.008318880438798061,-0.36496889639686775,0.5391860614711786,-0.4030955445437853
2.304455196170071,-5.909407349057236,7.4182760878127265,-0.004626900372511563,0.000843176064772831,0.010406178744700024,-0.6617116553572848,0.2413982406946956,0.2683175712431593,0.24539538917196263,7.848244812303426,5.874035736993905,-0.011496644983440562,-0.00048114308263523813,-0.009669079866190124,0.010345493666063191,0.6669503093098474,0.30062447870774645,-2.1821863562960817,-5.628883001303524,7.663260747556975,-0.00612097308361253,0.003831934416318904,0.001700849240444783,0.5883884397485778,0.161162369462079,-0.16147801064108575,2.9518858588530312,-5.549446385220764,7.624288120729547,-0.006146523368872611,0.00044349924835472034,0.0059509777257700834,0.012426476499888492,0.43128577660028805,-0.7041576494905697,0.46567858247102906,-5.800003847131334,7.959401651036999,-0.007714347697421055,-0.0005357939628882397,-0.010827859365203587,-0.3674536568779435,0.5304007167213874,-0.4047596857574445
2.3287310759467847,-5.881436378992239,7.437475858219938,-0.0005616162391778026,0.0008236252035939387,0.0117334604326216,-0.6570689763224054,0.2430871537021278,0.26801156105963847,0.2432527840211405,7.855297574055588,5.861346926220829,-0.008510539081225586,-0.004872700150525819,-0.010359948204020983,0.015708604407358464,0.6666142093164031,0.29914868367759834,-2.2028577432326597,-5.616220899379072,7.634762432694984,-0.00319424596777053,0.0023347949396640214,0.0033053525208517455,0.5937834959911092,0.16065545712875967,-0.1595972185137495,2.9313516502252033,-5.550786257904104,7.597948410704165,-0.0008302229228570879,0.003984804983309344,0.005936374326418075,0.012412742516034468,0.42811086595945896,-0.7043901463732105,0.4664865264616023,-5.784952258818306,7.976077716812931,-0.005027657607597727,0.0030541955012906062,-0.007245870949765869,-0.36569525250243545,0.5306445471590688,-0.40136682534624946
2.302712056786267,-5.901511738388558,7.43958659719794,-0.001515003854701884,0.002458624185041081,0.010683806973030239,-0.6567011678730416,0.2321196286047163,0.26331807928357664,0.23412516874179495,7.856279915159276,5.851706574346117,-0.009901367172497651,-0.00033341206452108417,-0.011038181123292806,0.018294176692621858,0.6599119234719649,0.29411571085657895,-2.2066969658557456,-5.611086452740135,7.652498829408024,-0.005004826023289253,0.0038524523119420314,0.004384226917122239,0.5960615553247062,0.15373756805977792,-0.1681212820108074,2.9434320250756834,-5.536991889049556,7.642730842833032,-0.00150278527113944,0.007476090151133054,0.004983697169870749,0.013009706609035316,0.42222419908963393,-0.7109700987313489,0.4569649545022828,-5.779725462571212,7.942114241969875,-0.007189111403985157,0.0023950910648313515,-0.008971332287473004,-0.367066853939706,0.5211166610227354,-0.4103709058806705
2.3160993798111322,-5.901408800453447,7.446078643101154,-0.00411287517852223,0.0019052727485929571,0.01168333524809439,-0.6603183928544922,0.24410229864831795,0.26269298804244445,0.2265478753992111,7.8442323091300885,5.880424033157196,-0.010855307009152453,-0.0035408464818381612,-0.009859318431265923,0.014485410741456732,0.6684409692049984,0.28984629019177344,-2.209229060888565,-5.63029598702649,7.636507467951094,-0.004624952823846568,0.004501066762879983,0.0043707492919739495,0.5917452885408672,0.16475698913665948,-0.1674145789747971,2.9325668030206526,-5.558542599632835,7.671639054660306,-0.0032403621584356037,0.005473557803921557,0.005586565944236939,0.01349160714215139,0.4305170066183237,-0.7127201104936777,0.4674973807950927,-5.791266580948309,7.950555311155254,-0.007736360609956721,0.000880311364361122,-0.008051767844050569,-0.36752801433672777,0.5316159794101329,-0.4101314721982541
2.3109631088743154,-5.91238770059853,7.454918065733198,-0.0012958047716048564,0.0011090720288793137,0.010571558410596028,-0.6580724713073204,0.2460333964398417,0.26535424934557134,0.24363863099417513,7.857566745392217,5.831693606801945,-0.010537360760216437,-0.0028120859825989655,-0.010011385250579525,0.01523427140669684,0.6676084595547158,0.299867998398773,-2.205355736956469,-5.599547199579123,7.647440539625317,-0.003505629781886716,0.002258384280733547,0.0017561609473179017,0.5957006699895595,0.15989413233813307,-0.16181669264580062,2.9379050265763373,-5.537206233272258,7.666253241927138,-0.004550212536160732,-0.0006639785847825636,0.004739574170188274,0.01625706492428767,0.42954987301481173,-0.7081269563651752,0.4554211043042247,-5.77335009328748,7.942955675307698,-0.0035266380991733387,0.0021092477437785304,-0.007805457556916458,-0.36428403372838547,0.5301493669495146,-0.4050489268021894
2.315681879371452,-5.893715497200052,7.436362663817819,-0.003264860947540296,0.0017951305403937352,0.00897283814276018,-0.6614261934954675,0.23771796181485633,0.27220352992694086,0.23696968007750738,7.853705200157995,5.878073674924741,-0.009583486647939251,-0.0006228203321739493,-0.010468631453184357,0.013185065681636523,0.6602960297459464,0.29900844026333306,-2.195555172382304,-5.619275390667609,7.6435891185364415,-0.007276614482316645,0.0030892299420300206,0.00312424167455158,0.5903628696029452,0.15507916767008184,-0.15730766200961313,2.957263740669652,-5.5567672611848495,7.628891258820561,-0.004228090237979793,0.001792647426946344,0.005897503297342242,0.011398252822306495,0.4242021923253026,-0.7058211397634713,0.46599893804825765,-5.784380907503536,7.951763586184543,-0.006265112142195433,0.000656866307529679,-0.009125750736227003,-0.3669202654028646,0.5208836079666106,-0.40011769906163597
2.308411167174,-5.903376378746624,7.435506644609551,-0.0067888958827806165,0.0014120152801285796,0.01205422102590822,-0.6549390272849634,0.2460307956250168,0.26262104723183793,0.2134933168596412,7.850473735159401,5.860573764809952,-0.012560641732986351,-0.0032362560037119087,-0.010987094171526896,0.01840254151146437,0.668450506944064,0.2937411159339849,-2.2108762560341364,-5.614454399539965,7.648821008183667,-0.006386305750256932,0.0024034115539803666,0.0013147766983137976,0.5971962241471044,0.16720102480471727,-0.16287140457027371,2.933238882010727,-5.555003800259936,7.5938923859674965,-0.004698487608297251,0.005060913548956196,0.006111276236979374,0.019385505287226983,0.43050687984094116,-0.710871957062857,0.4620127262575613,-5.793107181695771,7.968053784074122,-0.009690912747706186,0.00198782121426156,-0.008805983246434064,-0.3616362309121689,0.53087349965942,-0.4077739739696493
2.308590462437265,-5.9067599080007875,7.444167081203325,-0.003637648421662319,0.0010867690751010432,0.012210679790158354,-0.6480234257573343,0.25233144432862886,0.265963847020148,0.24715756645792003,7.862959095661635,5.876054383438225,-0.01011298067331005,-0.0030116781129812683,-0.010412635201765543,0.0277890581467447,0.6764205633607877,0.29578924878364216,-2.2113221951249367,-5.5972327472806445,7.6322068953639475,-0.0032123019494224216,0.003536930551675392,0.004686348520795494,0.60330250765334,0.1717885613406814,-0.16470318547220175,2.936138221699104,-5.542424891016515,7.641597875962016,-0.00037090017958013366,0.004920315811035823,0.006408631786618601,0.02334732421335354,0.4378265637525291,-0.7090177080960173,0.46770613692984503,-5.787421247357236,7.949450096493038,-0.006923665340371132,0.0027197021805547626,-0.0069712805354274175,-0.35577568883744065,0.5376953468167711,-0.4088414569681465
2.2892823093668846,-5.918948794138481,7.4153665174287555,-0.0013739576790763673,0.0011651616633001076,0.00994389841030583,-0.6581993565031302,0.24526596318144736,0.2734097386132071,0.2235327410729051,7.830886371534184,5.86075006478067,-0.007456797274450831,-0.00011767194027962229,-0.010455577302196827,0.014547873330272819,0.6708172729315691,0.30153027256184245,-2.2214850319041917,-5.620575622498014,7.647504210918793,-0.004776781258448039,0.0022936180737700824,0.00358213315506484,0.5935726619298076,0.16383847502358465,-0.15864310422299657,2.9349199669760617,-5.553785912520177,7.670765486625611,-0.0022100383302308293,0.005387068696462194,0.005217450185531975,0.01362736602022626,0.4322543526548969,-0.7054040422001046,0.4455931300523007,-5.800124528016395,7.959187954385221,-0.0034807587021861673,0.0029509219323083993,-0.008921129839127807,-0.36689943544111026,0.5286958444964187,-0.399882313176281
2.318057946233088,-5.894250836236767,7.45347284845694,-0.0018756206200966148,0.0012773223113255925,0.01067098388165113,-0.6569254197687654,0.23480352750561362,0.263822340899235,0.24239329473289065,7.864911169628185,5.8560301800043995,-0.010330017052048954,-0.0011707354126670813,-0.009902014810022505,0.01613043098889372,0.6621626977877604,0.2957969361564579,-2.205921554929645,-5.629563292633031,7.662045204660864,-0.0040009908072878,0.00238672385421955,0.0021742260240595703,0.5961480470154393,0.15548866388718705,-0.16276455683672345,2.914324820380987,-5.583775773614782,7.6668835744352455,-0.002197886576299705,0.0011853041961080483,0.004535393429506443,0.01625290134535888,0.42222974535073027,-0.7071213626867141,0.44709093389780263,-5.7563178706666775,7.955409308134928,-0.005813620129393336,0.0004953054771410319,-0.00781492082336262,-0.3657834764674743,0.5208746249302151,-0.4059946090678748
2.341989639029079,-5.924467185984383,7.441545141768391,-0.007419410095774528,0.002346693587219136,0.01027155889037412,-0.6575517460966457,0.24284323185575452,0.26850576393087855,0.26153527413489563,7.856877931787228,5.860134008383345,-0.011927420450799205,-0.0013293623672244533,-0.008527740502997516,0.01767151127091277,0.6673257668693737,0.29937609628459705,-2.1834474610932846,-5.592294415830237,7.663145249702059,-0.006501807743946107,0.003180357724870493,0.0017183642811170784,0.5966617239378902,0.15914937364869866,-0.1625565566893315,2.9795100822294067,-5.5040127369960405,7.638951561043614,-0.005575453993326581,-0.0005734891277948515,0.005112584374716938,0.014344333960012664,0.42980827914358044,-0.7058954466674775,0.4777733453963281,-5.804573505986985,7.9650265694118545,-0.011365261804072565,-0.002529634319510534,-0.00985724522036678,-0.3628173108622439,0.5294143571622075,-0.4048251643243247
2.3106516622709043,-5.882316596117983,7.415091616263866,-0.002440120539216809,0.0026228338570160885,0.012770619926713911,-0.6522884622211861,0.2394277756529529,0.26230822605095633,0.218776022766818,7.842992379357369,5.870095512845985,-0.011816390099550345,-0.0037253277787905833,-0.010821799571042692,0.020514958635192163,0.6616036199772731,0.29481647436696,-2.225145600115379,-5.641668261283927,7.62976539710788,-0.005202683353463701,0.00299613158333873,0.002434499426763509,0.6009958689540109,0.15543923409525104,-0.16527518069297373,2.9135125517119866,-5.604818936822631,7.60287889892777,-0.004616256203892603,0.0021602532945924854,0.007287239282693095,0.022507602350335186,0.4234107639680571,-0.7126094858963256,0.47849759481657095,-5.806323567705378,7.963707909198193,-0.0071165837860055325,0.006180161794754792,-0.005133016209541558,-0.3609343535375497,0.5247665786424126,-0.4089976523763524
2.2910500426395806,-5.907714970276452,7.4451072840381345,-0.000873529774751374,-0.0011230956053151645,0.013602759241931196,-0.6526233615430529,0.2535638517971479,0.2682353517194178,0.22980381418555026,7.858366998362971,5.842320294811602,-0.009682114141000717,-0.005700107321951199,-0.012139103973476473,0.019778538753708632,0.6799522778280387,0.2964919820015878,-2.202991636860521,-5.582862069587972,7.6553340441647935,-0.004070476072529487,0.001810542164664841,0.0037389408410585575,0.5977311828347028,0.17379350423800022,-0.16244270173111275,2.9417230133411283,-5.52967667231464,7.62059532061167,0.0014266835754839083,0.00830338586809359,0.003946034858055377,0.018721428391420922,0.43759940664764335,-0.7082021294705456,0.42280982658016414,-5.74284085664367,7.897299304190228,-0.004325329152497402,0.005499931886455506,-0.006075438006177505,-0.3623036202314318,0.5425959661997369,-0.4050906339413101
2.3005911995218686,-5.915979162688736,7.4202401016862805,-0.007252888464295896,0.0017615697774512776,0.008279243736214909,-0.6630051412171221,0.2470477863786517,0.2617690555414683,0.2366187396480524,7.8376408290815505,5.8849635521902135,-0.010872054268265544,0.0009478753816476083,-0.009949742772994452,0.012836471414951154,0.6724212187459818,0.29320882891853983,-2.2112159017535373,-5.630625297248139,7.636963263031359,-0.005301113078290685,0.0025689641446084905,0.0014591207471938098,0.5941538695391702,0.16399356522419692,-0.16939596750421115,2.934780953010925,-5.565013380346331,7.687131182557352,-0.004738111466644617,0.004198174270655174,0.00487711908024191,0.014757345277120621,0.4339388434663009,-0.7108026346634494,0.4590165047023873,-5.77598967394735,7.936955283244098,-0.009892023459161669,-0.002751084917555711,-0.010932258900144686,-0.3692136463826672,0.532598357857286,-0.40864318049557247
2.3185200510333637,-5.907927337173172,7.457636075725548,-0.0009096081176086999,0.002985664321809655,0.009342917083537306,-0.6542801932540554,0.24287076654311401,0.2586907686257787,0.22750975996367304,7.855359225495836,5.878330247763623,-0.005966065258833612,-0.00107598234800716,-0.010134298264513219,0.02155807560624643,0.6674042531974135,0.2917945757534883,-2.216166780995288,-5.622711133894827,7.663995798542308,-0.002604412320600077,0.0026266950573737386,0.003868777396009609,0.5980633384283557,0.16178206561508673,-0.16821283248089547,2.9330484893204263,-5.555438303716235,7.657804126754068,-0.003044304057297195,0.000617411709524974,0.005456853451180936,0.021035414340841004,0.4297564360749765,-0.7140730319243571,0.47809284911179795,-5.813560142506299,7.969665058437983,-0.003422224209248572,0.001510917688037743,-0.007893326117778718,-0.36142255341253693,0.5262324037707805,-0.4092362369003852
2.3286422913609077,-5.880916913574889,7.439536729389488,-0.0008225560085683217,0.0002855643234590534,0.011101910809853208,-0.6559706201778377,0.24922865847582681,0.2580110289790779,0.23685963928366055,7.858986494436529,5.823446857318666,-0.010227653762499544,-0.001093712933753592,-0.010862605927353206,0.017771319115075707,0.6765041211406788,0.292888031144306,-2.206578664657109,-5.6033423358873335,7.6380724417799115,-0.0054680443555696545,0.0015675930139325378,0.0020464271470523295,0.5971582335439037,0.1722894194907105,-0.1677944741649092,2.943792928479511,-5.528229702872689,7.608384735992008,-0.0026083907582973875,0.0011185441350050319,0.005307107373143549,0.01589599728282325,0.4370882616638173,-0.7159630160085694,0.45810776368360834,-5.749214938931697,7.979374131172846,-0.0048017249742550155,0.003412711137252405,-0.00905068229280473,-0.3640955006374199,0.5367355890755259,-0.4099421693243266
2.314679242481817,-5.885390850094905,7.410623273715443,-0.008526348046420025,0.0019287744326136381,0.012348520121026866,-0.6594584907176035,0.2401489357875362,0.2724298622537078,0.22256571473851178,7.8528626709745755,5.8499964207483055,-0.014694373386262661,-0.0033247146832918717,-0.008219147587177096,0.014919071883930329,0.66177235521929,0.30117809474899737,-2.220657436721223,-5.640473993618652,7.625673893949989,-0.005963399297407996,0.0016969325373876593,0.002464484283420956,0.5908562670854297,0.15653915482493225,-0.15757015283221418,2.950882650136446,-5.584828300517523,7.617042855502932,-0.0035330136022446016,0.0034543036639822803,0.005053521057970691,0.013133102575500712,0.4242027031960123,-0.7043878662121725,0.47794905015644346,-5.790854736707769,7.956037472944415,-0.010376392765527348,0.0017978789200280582,-0.008316894225877256,-0.36765404125478296,0.5247904486488001,-0.40084441625775136
2.317340244918489,-5.9388652104949005,7.449973226851925,-0.0061347852414729885,0.001182645128714418,0.012593492388552641,-0.6575735345866696,0.24920519131648622,0.26511575949405114,0.24219820421436175,7.873646176258685,5.852026042162777,-0.012988506826632122,-0.004091512330556385,-0.009845656009806346,0.017020613583940622,0.6745981290142837,0.2953606035334673,-2.1805996170701776,-5.593183579683289,7.657126095520408,-0.006290849415697861,0.0028256292427850825,0.002294236912642562,0.5945293645237453,0.17087756580199892,-0.16310652591044625,2.95149431805954,-5.512718599286014,7.643947137163188,-0.0035980246870482664,0.006277540282696155,0.007603171926934068,0.01575376393333515,0.43467166529438694,-0.7098470976260571,0.4575465376831527,-5.788513724698533,7.950350131162016,-0.009611531418294303,0.0027966032147214393,-0.006117707352803925,-0.36329542763376627,0.5342984345204488,-0.4048235176597286
2.290993326945591,-5.923200831740411,7.41744841489912,-0.003792934784503454,0.0011999393550217077,0.010956349039017233,-0.6570384310985011,0.23941121725417797,0.2711692624736311,0.22828328863407346,7.84246810992391,5.88986298532707,-0.010438201624744384,-0.0027538230256399297,-0.010958679235411491,0.014231944785955023,0.66497644727342,0.30259641363411766,-2.2039425696102732,-5.635793864780616,7.613908782963572,-0.006953135634815172,0.0019535976355642515,0.003299600448869708,0.5937844462566918,0.1579801727729453,-0.15835605868821123,2.8968844833416973,-5.57886006914575,7.683236537271658,-0.0044241700591941,0.0020206637912963204,0.004734925884306368,0.016808305528940592,0.4244384839032932,-0.7037212631000428,0.44456929169612336,-5.774869563443943,7.918818506302982,-0.006696749379204551,0.003077214518286596,-0.00877710502162129,-0.363768376709901,0.5252681591434457,-0.402364837162617
2.307787414893384,-5.901844713130353,7.42704870499447,-0.00271341903454294,0.0009145199785985446,0.010133845832245731,-0.6604301226891748,0.2468238854448449,0.2544046644632752,0.22576699699868652,7.862270039329129,5.871344116186747,-0.007988463109709461,-0.002522333152787874,-0.010388332282477214,0.01550385669312493,0.6725190551833529,0.2858746219532774,-2.216296208552972,-5.614476598940767,7.656103926546533,-0.0039045345916029614,0.0028089353477626787,0.003153672119143848,0.592351196949819,0.16443944170390618,-0.1762108236069065,2.9354775971050766,-5.5490779186493056,7.624305550483263,-0.001706118079694145,-0.0016495852199444403,0.0049416639606798055,0.016289600595249504,0.4331628681724768,-0.7205946100506446,0.4493190294461835,-5.780975056300735,7.93888494939291,-0.005070703734668597,-0.000753761714706016,-0.007283192151293372,-0.36612944163140343,0.5333164890438572,-0.41503686274066065
2.323709716028008,-5.903361449608765,7.442959837890445,-0.0012977218550478337,0.0011010459871807746,0.010579552623861007,-0.6575430393346087,0.24235200619298844,0.26923655428421855,0.24402063192992587,7.846468038876277,5.8572928524540755,-0.010552316241582269,-0.00036572608321998985,-0.008658490363203715,0.016220574014965194,0.6690122429601897,0.2966693065856345,-2.194238059826359,-5.616300903804817,7.648796781104048,-0.004497341629041329,0.002512085480127439,0.00259432877874505,0.5928432059909287,0.16384493241258186,-0.1583887868320035,2.9496810834347036,-5.545007444378134,7.609104746547556,-0.004299139215986655,0.004701309234540049,0.0047303111401676414,0.015291111372923176,0.4302867076376919,-0.7076234859339368,0.48090187983856997,-5.779961295031134,7.969642883754313,-0.003582297315678698,0.0005889710772042208,-0.009984261565699192,-0.3672072883364045,0.5267389653807755,-0.40402623592189524
2.3175415604100347,-5.900703207302892,7.424160526384016,-0.0006426953482486341,0.000869693391329089,0.011113800929223903,-0.6561151465119845,0.250178729972115,0.26436615645936334,0.23605007003384962,7.85952204032557,5.874407212892685,-0.00874088619889586,-0.0010376957748238563,-0.01125587210911996,0.016791753938330736,0.6760473412393052,0.29411802187037256,-2.1978367567400143,-5.632607827344358,7.642121957645769,-0.004584882875934907,0.0031380394025841006,0.005540039595687785,0.5937633420888152,0.17037686308119884,-0.16529002732207096,2.9321870309828784,-5.569166056699961,7.617275911427576,-0.0005415499346232961,0.005577712346266511,0.00587004153738418,0.015253218529624761,0.43515830055432403,-0.7105721696380742,0.473651350740947,-5.7950478870249436,7.971799246390052,-0.0014316460697263124,0.0042213774574997726,-0.007104699774962342,-0.36480398435188716,0.5362510500711578,-0.4082223083475088
2.3001562574297334,-5.9029822276279935,7.417095592439463,-0.0041137393742860795,0.0019022332234903388,0.011693335970709895,-0.6549477886391701,0.24334377263235002,0.2628533459093038,0.24038182245620407,7.856271109895288,5.8554397927652975,-0.011494809408812874,-0.0050519065288743914,-0.00952735425386205,0.020844801028621445,0.6681938954107556,0.29495900754321325,-2.2038429300505697,-5.604031174138289,7.662484295519981,-0.005866957249453934,0.0021191361773969615,0.0034429305097151354,0.5993608402342825,0.16644011248605106,-0.1648493559444059,2.9509134746124324,-5.533005510461021,7.657094270229651,-0.0016115154691328818,0.004801458302316865,0.005004000306140866,0.021298233302152816,0.43024747372422995,-0.7131034628341985,0.455915647707848,-5.763270119004506,7.913886809845205,-0.008063646966814974,0.0026933263444445716,-0.007793980484764927,-0.35972904947053286,0.5303767491397136,-0.410974140194996
2.3046692879203516,-5.9096917824768385,7.4446118322174755,-0.005320102020886587,0.0030111611292978602,0.010006065967240277,-0.6541745291804121,0.24675082621275196,0.264566029391361,0.23123056021112837,7.840395506902859,5.842993291451729,-0.010549823742722885,-0.0018431892435863892,-0.01069520889977414,0.02089201983763756,0.6716298249342292,0.29612660451725786,-2.2064660908013796,-5.623906906868078,7.615547395908595,-0.0054870840500112475,0.002767750628334913,0.003429452884566845,0.596919590198991,0.16353496302133694,-0.16357178565167835,2.933654283686959,-5.557375816945196,7.665011020791938,-0.005602832274224532,0.0032019075803469375,0.005181461990000966,0.019924911298780927,0.43319982848292043,-0.7084506105848905,0.4613337965373828,-5.7822609169686565,7.939608002701405,-0.008376004276369513,0.0015320400561425417,-0.008681350795159378,-0.36013685107519194,0.5338013040857796,-0.4058444135675224
