# sampling frequency: 40
# units are seconds/meters/radians/a.u.
seg1_acc_x,seg1_acc_y,seg1_acc_z,seg1_gyr_x,seg1_gyr_y,seg1_gyr_z,seg1_mag_x,seg1_mag_y,seg1_mag_z,seg2_acc_x,seg2_acc_y,seg2_acc_z,seg2_gyr_x,seg2_gyr_y,seg2_gyr_z,seg2_mag_x,seg2_mag_y,seg2_mag_z,seg3_acc_x,seg3_acc_y,seg3_acc_z,seg3_gyr_x,seg3_gyr_y,seg3_gyr_z,seg3_mag_x,seg3_mag_y,seg3_mag_z,seg4_acc_x,seg4_acc_y,seg4_acc_z,seg4_gyr_x,seg4_gyr_y,seg4_gyr_z,seg4_mag_x,seg4_mag_y,seg4_mag_z,seg5_acc_x,seg5_acc_y,seg5_acc_z,seg5_gyr_x,seg5_gyr_y,seg5_gyr_z,seg5_mag_x,seg5_mag_y,seg5_mag_z
-2.256426,1.245046,9.982085,0.394089,-0.295344,-0.955167,0.158691,0.222656,-0.599609,-2.893137,2.021935,9.69563,1.749002,-0.237208,0.887687,-0.187256,-0.102783,-0.558105,-2.850019,7.643273,-2.786914,2.345606,0.434346,0.533232,-0.243896,-0.077148,-0.020996,-0.819456,5.780808,9.243379,1.991054,0.127974,0.022433,0.212158,-0.123291,-0.178711,2.199676,5.118999,8.946588,1.797849,-0.39096,-0.027236,0.154053,-0.260498,-0.515137
-1.995801,0.653972,10.076577,0.979448,0.04403,-0.956752,0.162354,0.199463,-0.599121,-4.196499,4.10479,9.194446,2.054591,-0.370883,0.999276,-0.206787,-0.132812,-0.541016,-3.030295,11.837938,-2.451366,3.546904,0.669323,-0.05111,-0.275635,-0.030518,-0.040283,-1.691834,6.991643,10.002162,0.649127,0.437896,0.253719,0.228516,-0.117432,-0.158203,2.132999,6.841687,9.457899,0.887419,-0.655767,-0.077173,0.14917,-0.272949,-0.509766
-2.204272,3.885791,10.746147,0.89961,-0.010931,-0.553733,0.147705,0.182861,-0.604492,-1.932916,7.170655,9.814498,1.795596,-0.803757,0.524015,-0.246582,-0.159424,-0.533203,-3.091774,13.50096,-2.475483,0.779865,0.576661,0.380907,-0.305664,0.016113,-0.067871,-1.603423,4.827096,9.850649,-0.295763,-0.078113,0.417003,0.241943,-0.106934,-0.150635,3.293409,5.398145,9.12534,-0.244477,-0.207111,-0.03204,0.148682,-0.274902,-0.521484
-3.151573,1.865352,10.416296,0.097293,-0.311299,-0.539684,0.151611,0.179688,-0.609619,-1.552617,7.266156,10.387377,0.137405,-0.100226,0.533376,-0.259766,-0.158203,-0.532227,-2.500275,10.917243,-3.132708,-1.95675,0.448569,0.555611,-0.327148,0.061035,-0.06543,-0.030806,4.060835,9.735594,0.52113,0.095241,0.490832,0.258301,-0.103516,-0.120605,2.200382,3.716941,8.841872,0.023976,0.072755,-0.21947,0.156982,-0.280518,-0.509277
-2.258129,1.969691,10.59173,0.518714,-0.544763,-0.355056,0.138672,0.163818,-0.61084,-2.376508,3.953146,9.493113,-0.237023,-0.217355,0.318461,-0.275391,-0.163086,-0.530518,-2.117601,8.283368,-3.509254,-1.053547,0.649698,0.715728,-0.354004,0.109131,-0.06543,-0.536612,6.263701,10.495281,0.71182,0.486438,0.81876,0.276367,-0.104248,-0.091553,2.690378,4.288379,9.106632,0.480927,-0.059273,-0.384154,0.164551,-0.294434,-0.493408
-1.667704,1.99348,10.621639,0.531009,-0.569863,-0.453446,0.131104,0.149414,-0.616455,-1.499755,2.302315,8.387286,1.088668,-0.147018,0.392239,-0.293945,-0.177734,-0.528076,-2.011111,9.140726,-4.281765,1.128557,0.717143,0.370918,-0.368164,0.155029,-0.085693,-1.019915,6.692516,10.56395,-0.599913,0.440184,0.592687,0.303711,-0.096924,-0.076172,2.142284,5.267571,9.894091,0.138009,0.533437,-0.400892,0.189453,-0.299561,-0.493896
-0.785169,4.374578,10.828349,0.158695,-0.311213,-0.477397,0.118652,0.148682,-0.612305,-1.156344,5.674389,8.676881,2.324242,-0.255951,0.380555,-0.322266,-0.20874,-0.505859,-1.299258,11.499082,-4.216924,0.626423,0.58866,0.537187,-0.396973,0.209961,-0.104736,-0.378041,3.991872,9.768273,-1.349149,0.200295,0.658331,0.308838,-0.083984,-0.061768,0.767115,4.412231,10.531375,-0.785037,0.480024,-0.147398,0.196045,-0.285889,-0.492676
-1.201226,1.639809,9.634685,-0.987208,-0.331546,-0.660166,0.119385,0.155273,-0.612549,-0.074752,9.139985,9.476288,0.820727,-0.004788,0.593632,-0.337646,-0.225098,-0.498291,-0.559028,11.134028,-3.324959,-1.320528,0.443019,0.733764,-0.417725,0.252686,-0.112793,0.336064,1.759966,8.290033,-0.613615,0.271936,0.455203,0.317871,-0.085449,-0.056396,1.409962,1.629434,9.470002,-0.859477,0.192159,0.210287,0.201904,-0.284668,-0.500488
-0.125869,0.756447,10.044764,0.139826,-0.272484,-0.54377,0.112305,0.16626,-0.629395,-2.393156,7.025068,8.761675,-1.045991,-0.267285,0.708031,-0.363281,-0.194824,-0.511475,-0.555341,8.585698,-2.917046,-1.393648,0.593688,0.413857,-0.438477,0.306641,-0.101318,-0.272362,2.370956,8.081713,0.632791,0.464965,0.604305,0.333496,-0.077393,-0.025635,0.818235,0.880865,9.043443,0.469574,0.268654,-0.033959,0.206299,-0.290283,-0.488281
-1.395554,1.91755,10.535473,0.688116,-0.079492,-0.214166,0.113037,0.138428,-0.632324,-0.604994,3.440551,7.382417,0.457396,-0.717731,0.457156,-0.38501,-0.215576,-0.500977,-0.81944,7.134285,-3.03634,0.083744,0.584146,0.20782,-0.463379,0.369141,-0.12207,-0.755812,3.831656,8.376863,0.913733,0.243367,0.505848,0.350586,-0.066895,-0.006348,0.535686,2.79577,9.399584,1.184506,-0.271028,0.048914,0.20459,-0.302002,-0.483887
-1.57495,2.823173,10.708607,0.650436,-0.229642,0.101816,0.098877,0.134033,-0.630615,-0.843327,8.050057,9.019336,1.925086,-0.216104,-0.039397,-0.412354,-0.239502,-0.485352,-0.986186,8.0049,-3.316482,1.458472,0.639204,-0.032098,-0.486816,0.415771,-0.142334,-0.740174,4.934158,8.338121,0.768136,0.260871,0.509835,0.376953,-0.070557,0.024902,1.862806,4.543134,9.32251,0.868291,-0.411895,-0.039291,0.207275,-0.325195,-0.46582
-1.850835,2.119093,10.60035,0.568011,-0.408133,0.061722,0.109619,0.125244,-0.630127,-0.188179,8.986227,9.630207,-0.297707,-0.440388,0.227186,-0.412109,-0.236816,-0.481934,-0.668992,9.570089,-3.968352,1.359412,0.553636,-0.101067,-0.522217,0.484619,-0.188965,-0.714639,4.656572,8.15367,0.265947,0.029154,0.634359,0.398193,-0.060547,0.040039,1.686603,3.910876,9.3279,-0.085182,-0.00747,-0.131211,0.209473,-0.323242,-0.472656
-1.529676,2.687776,11.594616,0.921717,-0.566123,-0.018807,0.09082,0.108887,-0.638428,0.489159,4.215643,8.472389,-0.54206,0.211613,0.313596,-0.433594,-0.228271,-0.494141,-0.641706,9.416698,-4.454966,0.231891,0.50144,-0.085583,-0.552734,0.549072,-0.21582,0.07321,3.40821,7.933652,0.393737,0.017299,0.400527,0.429688,-0.048096,0.067627,0.534332,1.67173,8.795386,0.05016,-0.315939,-0.028976,0.209473,-0.329102,-0.471436
-0.606859,3.885423,11.428234,0.675277,-0.597711,-0.181875,0.077148,0.098877,-0.634033,-0.465888,3.665015,7.537301,1.802808,0.430768,0.363631,-0.444336,-0.24707,-0.480713,-0.81791,7.67185,-4.98621,0.027205,0.391652,-0.006039,-0.580811,0.620605,-0.241943,-0.083558,3.127821,8.352063,1.168984,0.173124,0.450534,0.467773,-0.037598,0.094727,1.150976,1.487676,8.675629,1.199428,-0.559595,-0.097071,0.214111,-0.347168,-0.461182
-0.692905,3.301056,9.94119,0.160042,-0.289257,-0.268511,0.067871,0.091553,-0.638916,-1.23784,7.75648,7.000546,2.472621,0.525075,0.479599,-0.461426,-0.279053,-0.469971,-0.997197,7.985349,-4.698595,1.920078,0.32284,-0.251328,-0.634766,0.686523,-0.316162,-0.717427,5.074193,9.210895,1.815537,0.118,0.202448,0.494629,-0.023438,0.125488,1.567252,4.206221,9.395282,1.849942,-0.590042,0.015354,0.199707,-0.376709,-0.445312
-0.349645,2.953666,9.188434,0.626493,-0.063044,-0.131759,0.070068,0.083984,-0.633789,-1.716673,9.509404,6.549784,1.419757,0.075759,0.682973,-0.47583,-0.287842,-0.455566,-1.121039,10.38931,-6.060549,2.679104,0.396273,-0.412626,-0.667725,0.737061,-0.415039,-0.525883,6.926596,9.257771,1.339944,-0.049229,0.310617,0.536865,-0.005127,0.148438,2.187961,5.829853,9.479723,0.948273,-0.498059,-0.020595,0.206055,-0.391846,-0.44043
-1.380909,4.51123,10.242138,0.496988,0.2351,-0.176303,0.078125,0.063721,-0.639893,-1.017991,10.393056,7.897317,0.381102,-0.145207,0.792606,-0.493652,-0.299561,-0.455322,-1.552751,12.333057,-6.177378,1.610371,0.19358,-0.4091,-0.715576,0.769775,-0.480225,-0.451337,7.358988,9.080222,0.765784,0.135741,0.107573,0.565674,0.005127,0.179443,2.319241,5.051266,9.072211,0.372166,-0.275253,0.041747,0.198975,-0.410645,-0.431885
-1.884162,4.317122,11.070252,0.387875,-0.142831,0.179414,0.07959,0.063477,-0.635742,-0.060168,7.488638,5.343332,-0.156566,-0.111905,0.52495,-0.501709,-0.290771,-0.449463,-1.007796,11.178281,-4.952866,-1.723507,0.117593,-0.131155,-0.739258,0.838623,-0.461914,-0.907643,7.901113,9.248232,0.265011,-0.007477,0.213882,0.596191,0.030029,0.202393,2.503491,5.549665,9.26937,0.461298,-0.265944,-0.329493,0.203613,-0.413574,-0.421875
-0.290117,5.081975,10.133317,0.36529,-0.183359,0.119543,0.066406,0.057861,-0.627686,0.310986,14.196181,10.53541,0.316059,0.405897,-0.169695,-0.511475,-0.296387,-0.451172,-0.680448,7.503607,-5.659904,-1.985154,-0.111604,0.395472,-0.752197,0.900879,-0.449463,0.076446,7.477575,8.373155,-0.716038,-0.412482,0.16514,0.621094,0.035645,0.202393,3.335868,6.260562,9.184595,-0.387747,-0.063304,-0.293643,0.20874,-0.414795,-0.436035
-1.890673,3.805676,9.889974,0.142936,-0.367496,0.263162,0.063477,0.053955,-0.62793,-1.372395,10.307133,8.843073,-3.793614,0.122767,0.548539,-0.510742,-0.245361,-0.482422,-0.119584,8.788916,-6.167737,1.026361,0.063153,-0.807494,-0.785645,0.919678,-0.514404,0.153432,6.820625,8.886997,-1.130883,0.053763,0.249403,0.645508,0.043213,0.214355,2.466675,6.419737,9.892011,-0.922336,0.27322,-0.440238,0.221924,-0.408447,-0.444336
-0.673032,4.129897,10.20697,1.130315,-0.221371,0.534788,0.058838,0.034912,-0.630127,-0.521107,2.035174,6.018975,-2.356229,0.053917,-0.238936,-0.513916,-0.218994,-0.503418,-2.306249,11.778639,-5.541961,-0.290833,1.228443,-0.679852,-0.801025,0.947754,-0.55249,-0.559148,6.114152,15.763299,-1.541324,-0.297216,0.223079,0.651367,0.054688,0.216064,1.822445,4.181871,9.780574,-2.602301,0.234567,-0.292218,0.220947,-0.370361,-0.463135
-2.180286,5.373087,10.025787,0.168349,-0.702692,0.045944,0.039062,0.040039,-0.623535,-1.450742,5.383315,7.307184,0.553507,0.452989,0.150784,-0.519531,-0.215088,-0.503174,-3.745934,11.806845,-2.664376,-0.783016,-0.377619,1.093897,-0.781982,0.986084,-0.520996,1.235423,3.588052,7.396418,-1.367125,0.329435,-0.022555,0.649658,0.051514,0.217285,2.544809,0.331094,8.800575,-0.447728,0.622428,-0.440815,0.237305,-0.361816,-0.462891
1.415486,4.62202,8.572556,-0.110736,0.160342,0.132372,0.043945,0.038818,-0.625488,-2.169186,8.889505,7.597691,-1.385076,-0.346574,0.126246,-0.522461,-0.200684,-0.509766,0.946299,9.407896,-5.713507,-1.782595,-0.872327,0.599641,-0.782227,1.014648,-0.446045,-1.167488,1.483198,8.020004,-0.125407,0.872472,0.330689,0.652344,0.052002,0.238281,-1.569982,2.464635,8.36669,0.733641,0.812072,-0.624174,0.253906,-0.371826,-0.450684
-0.783237,4.042552,8.404009,-0.275491,0.236978,-0.028092,0.048828,0.048584,-0.625977,0.681081,4.379236,5.966436,-2.440835,-0.528113,0.489743,-0.533203,-0.159424,-0.51709,-0.527354,7.181812,-4.062686,-1.610783,0.980389,0.061974,-0.773438,1.031006,-0.436035,-1.462149,5.707272,9.420168,1.366924,-0.140378,-0.341476,0.655762,0.062988,0.229736,1.90378,5.379935,9.688942,0.758941,-0.889517,-0.008515,0.241943,-0.385986,-0.455566
-0.326218,2.545681,8.60665,-0.133077,0.648323,0.215934,0.065918,0.046387,-0.635986,-1.344614,3.341783,6.049851,-0.756258,-0.006352,0.146094,-0.536621,-0.152588,-0.530518,-2.347392,6.776635,-3.512104,-0.432109,-0.246344,0.288311,-0.781738,1.052979,-0.422852,0.529102,7.85837,6.855579,-0.954371,-0.078328,0.191644,0.655273,0.0625,0.232422,3.110295,6.116431,8.562489,-0.757184,1.089231,-0.446833,0.256104,-0.375977,-0.456055
-1.568996,4.00422,9.223757,0.305438,0.295885,-0.005693,0.07251,0.043945,-0.63208,-0.692451,7.052279,7.760074,-1.134959,-0.75437,0.160634,-0.54834,-0.133057,-0.521484,0.266892,8.220449,-3.388717,-0.02895,-0.474894,0.316117,-0.791992,1.088379,-0.425781,-1.185115,4.206409,5.23848,-2.508794,0.5299,-0.173737,0.662109,0.07666,0.259033,-1.350009,4.323661,8.884862,-1.489765,0.342501,-0.130848,0.266602,-0.35083,-0.459961
-0.010531,4.936058,8.204601,-0.233458,0.88237,-0.118295,0.083008,0.05542,-0.640625,1.114893,5.275644,10.912933,-2.271598,-0.176715,0.515155,-0.565674,-0.084229,-0.540771,-0.46845,6.463755,-6.888086,-2.831547,0.60588,-0.326694,-0.804688,1.129395,-0.384766,-2.266761,1.816605,9.407736,-0.44474,-0.407808,0.178576,0.689941,0.07373,0.266602,1.177844,2.57865,9.030046,-1.535697,-0.436624,-0.38298,0.268799,-0.344238,-0.4729
-7.653591,5.275782,13.15336,-0.380456,-0.029831,0.939653,0.075928,0.06665,-0.637939,-1.245761,3.356451,17.291316,-0.920207,0.063473,0.143554,-0.562256,-0.064941,-0.537354,-3.128172,11.537687,-5.865924,6.940931,-0.277371,-0.258781,-0.844238,1.062988,-0.631592,0.086656,8.261202,12.430582,1.487676,-0.999115,-0.219615,0.688721,0.10498,0.250977,3.111151,3.615427,11.354772,-0.345908,0.288226,-0.516955,0.268311,-0.336426,-0.476318
0.917137,-2.609761,8.779761,-0.509352,-2.199223,-0.09392,0.036133,0.0625,-0.626953,1.724232,-1.605396,8.702088,-0.095514,-0.074262,0.595905,-0.559326,-0.074951,-0.533691,1.939618,19.894152,5.74221,-1.375386,-0.518598,-1.059096,-0.883057,1.065186,-0.559082,1.138924,7.096714,6.899619,-5.310865,0.20151,0.16998,0.686035,0.094971,0.276855,-0.098343,6.461245,9.270342,-0.898401,0.803916,-0.81494,0.288086,-0.315918,-0.479248
-0.622578,3.450387,9.356083,3.19165,-0.904996,0.241239,0.022949,0.012451,-0.606689,1.763036,6.593115,8.065455,2.192193,1.496435,-1.035938,-0.540283,-0.113525,-0.547119,-2.35411,9.226602,-12.032359,-9.672456,0.58829,0.788641,-0.835693,1.138184,-0.276367,-1.176342,-1.618648,18.438315,-3.260219,-0.530482,0.580635,0.686035,0.081787,0.267334,1.081359,5.574167,11.548667,-4.329314,-0.789324,-0.0622,0.27832,-0.26123,-0.51123
2.571502,10.312913,9.959726,0.311261,-0.67079,-0.163137,0.016357,0.003906,-0.612061,-5.697153,8.461079,4.692405,-2.437989,0.89469,1.344567,-0.529297,-0.0625,-0.570801,-2.647591,6.700823,0.091763,-3.209114,-0.664523,0.726595,-0.805908,1.12207,-0.17749,1.444563,1.518508,0.109468,-0.545567,-0.276555,-0.527216,0.689697,0.087891,0.271973,3.320842,-4.360989,6.479554,-4.238698,1.775025,-0.141445,0.309814,-0.207031,-0.514893
1.868324,2.962964,6.588579,-2.148504,0.653464,-0.478058,0.027832,0.037598,-0.618652,0.538818,0.790723,4.573543,-1.991265,-2.054559,-0.111385,-0.560303,-0.035645,-0.552002,1.541342,5.744911,1.493412,-1.572173,-0.791036,-0.209562,-0.829346,1.115967,-0.121582,-0.205471,0.909937,12.52839,-1.411886,0.397464,0.535139,0.675537,0.079346,0.276611,-4.506099,-4.556665,11.656928,0.9066,0.04338,-0.527822,0.302246,-0.20874,-0.516113
-2.191411,3.981046,10.618804,-0.006901,1.354064,0.204271,0.044922,0.032715,-0.624023,1.412749,1.110846,14.401822,0.313821,-0.056124,0.903527,-0.569824,-0.031982,-0.547852,0.233325,7.142239,0.902023,2.195418,0.425517,0.330772,-0.825928,1.139648,-0.178223,0.037663,-2.743626,11.62416,-0.317882,-0.053691,-0.461699,0.672607,0.087891,0.297363,2.93971,0.836418,8.970633,1.880775,-1.585443,-0.399982,0.286621,-0.229248,-0.499023
-4.677168,3.327401,10.65745,-1.020022,-1.533128,0.378276,0.025879,0.057861,-0.619873,1.754323,8.968787,16.250269,1.510304,0.204422,-1.128714,-0.554443,-0.064697,-0.547852,-1.619436,9.517589,-5.423042,3.933543,0.328896,-0.845214,-0.859863,1.140869,-0.333252,1.240753,-0.255551,8.414356,2.904261,-0.007021,0.205643,0.685547,0.097412,0.272461,2.411753,3.555443,8.876977,1.252322,0.978219,-0.134949,0.303467,-0.245117,-0.510498
5.32731,1.054841,5.016725,0.819301,-1.06542,0.56781,0.004395,0.049072,-0.613037,-0.275718,5.210862,4.322922,-2.245382,1.024318,0.958204,-0.542236,-0.015137,-0.561279,-0.542419,13.407064,-2.125691,1.895973,-0.17302,0.346703,-0.85791,1.145752,-0.37915,-1.125895,8.330977,7.467928,2.281832,-0.012372,0.143284,0.694092,0.103516,0.277832,-0.979846,4.469056,9.726021,0.225896,-0.15653,-0.32297,0.302734,-0.249268,-0.503418
-3.353672,6.544256,10.034636,0.834997,0.583417,-0.020674,0.008301,0.030762,-0.611084,-3.928326,-2.883773,4.28769,-1.033762,-0.946289,-0.663532,-0.562256,-0.012207,-0.552734,-0.365435,12.757355,-2.377408,-1.466207,0.123111,-0.148876,-0.853271,1.132568,-0.325684,0.792494,7.678704,11.412715,-2.08383,-0.053939,-0.22603,0.683594,0.090088,0.285156,3.226548,3.280019,8.809143,-0.67844,-0.371802,0.144746,0.296143,-0.252441,-0.500488
0.028941,4.331882,9.342126,-0.433938,-1.224472,0.472087,-0.007812,0.039062,-0.615234,3.665984,3.578217,14.016131,2.699589,-0.287485,0.732717,-0.564453,-0.044922,-0.553955,-2.564733,9.419331,-2.825689,-3.119064,0.238244,0.218095,-0.835449,1.142334,-0.241211,-0.967029,1.279985,7.671156,-2.566856,0.721662,0.151217,0.672852,0.091797,0.291016,-0.698597,3.384891,8.897002,-0.67402,1.361864,-0.417874,0.315186,-0.226318,-0.503662
-0.106582,3.812336,8.692351,0.171814,-0.763328,-0.00162,-0.027832,0.037598,-0.60083,-1.077311,10.323434,10.248454,0.07067,1.018213,-0.765838,-0.554688,-0.05542,-0.556641,-0.161012,8.504712,-2.002379,-2.048091,-0.937643,0.259535,-0.817383,1.124512,-0.161133,-1.557178,2.125043,9.807518,-0.611667,-0.658386,-0.156811,0.682129,0.093506,0.287598,0.211268,4.574205,10.347799,-1.781901,-0.642833,-0.154942,0.316895,-0.207764,-0.509277
2.617951,4.348483,8.069665,-0.180739,-0.755435,0.330095,-0.030029,0.05249,-0.596924,-0.987338,2.019808,5.742886,-2.581224,-0.476318,0.893859,-0.551758,0.001953,-0.555908,0.844419,9.521695,-0.099015,-1.096349,0.453299,0.116995,-0.803955,1.115967,-0.142578,2.997102,2.654741,11.146381,-2.545719,-0.567692,0.167173,0.675781,0.089111,0.281494,4.045001,-0.096657,9.257948,-3.636837,0.857101,0.270438,0.325928,-0.156494,-0.513184
-1.415719,4.215038,11.367956,-0.079894,-0.278463,0.242885,-0.037598,0.053467,-0.595459,-0.270205,-0.721224,8.888929,0.494984,0.028158,-0.623408,-0.550049,-0.011719,-0.553467,-2.759619,8.92969,-0.181605,-1.248418,0.500077,-0.367312,-0.816406,1.094727,-0.126953,-0.453653,-2.521572,8.145057,-1.961201,1.677196,-0.14885,0.65332,0.080322,0.304443,-4.026572,-4.683246,9.159569,-0.849067,1.500285,0.049163,0.335449,-0.153809,-0.510254
2.649338,5.570045,10.616372,-0.808951,-0.617491,0.300047,-0.05542,0.067383,-0.593506,0.413944,6.62597,11.2886,2.100653,-0.117686,0.217322,-0.562012,-0.041016,-0.546631,-0.561953,9.473287,-0.427403,-0.084354,-0.933223,0.630572,-0.793213,1.095947,-0.105469,-3.491485,-0.512394,10.335146,0.662119,-0.630213,0.214435,0.665283,0.079834,0.287598,-0.106634,0.988544,10.053913,1.401709,-1.579763,-0.328172,0.323486,-0.172119,-0.516113
0.057976,3.801005,9.131299,-1.251563,-0.189286,0.336999,-0.061035,0.092285,-0.594971,0.444632,6.369234,8.868235,-1.576663,0.346769,-0.333811,-0.556152,-0.028076,-0.553467,1.174508,9.976224,-0.058583,-0.796163,0.095829,-0.038458,-0.791992,1.090332,-0.091553,2.945069,2.148822,9.410172,-0.365938,-1.094113,-0.196885,0.664307,0.083984,0.27124,4.399963,2.897608,10.635471,-1.09054,0.854221,0.266672,0.333008,-0.160156,-0.513184
1.324609,2.979875,9.6086,-1.036608,-0.165738,-0.06135,-0.063721,0.106689,-0.595703,-2.279078,-0.255161,7.506823,-0.960173,-0.141239,0.322309,-0.558594,-0.009033,-0.551514,-2.098605,9.262108,-0.41006,-0.444351,0.833436,-0.361073,-0.795898,1.086182,-0.094238,0.816951,1.057934,9.981089,-0.858782,1.608535,0.138621,0.653809,0.080811,0.296143,-3.864285,-1.357081,9.850126,-1.788217,1.074551,0.043447,0.344238,-0.133545,-0.508789
0.568553,2.58816,10.570103,-1.041765,-0.158152,0.32006,-0.070312,0.125732,-0.604004,1.142378,2.845976,9.211723,1.505081,-0.225538,-0.439889,-0.56543,-0.035156,-0.555908,-1.688006,9.962016,-0.066325,-0.19221,-0.79057,0.342308,-0.794434,1.082275,-0.081299,-4.49745,0.673724,10.239012,-0.684458,-0.129258,0.071035,0.64624,0.07959,0.285889,0.236594,-1.779121,9.205732,0.206624,-1.21685,-0.206273,0.321777,-0.136475,-0.521973
2.015657,2.716062,9.520914,-0.86562,0.17052,0.024574,-0.059814,0.145264,-0.604492,-0.114063,6.599093,10.571927,0.182851,0.271369,0.184374,-0.556152,-0.034424,-0.556396,1.443742,10.455606,0.397877,-0.679583,-0.248247,0.291285,-0.789062,1.0896,-0.056396,2.526489,-0.23361,9.304417,-0.946291,-1.460523,-0.310894,0.644287,0.093018,0.271973,2.966443,1.100748,9.986937,0.023588,0.655345,-0.030841,0.329102,-0.123779,-0.514404
-0.205761,2.822374,9.176444,-0.774687,-0.135895,0.263557,-0.06543,0.158691,-0.608398,-0.711476,3.519514,8.428028,-1.125336,-0.095578,-0.220132,-0.560791,-0.02417,-0.562012,-1.244541,9.15657,0.148841,-1.058253,0.78522,-0.406119,-0.785645,1.070557,-0.044678,1.960947,-0.962263,9.38061,-0.231291,1.350865,0.323368,0.64624,0.080078,0.294189,-2.568195,0.255275,10.224105,-1.13654,0.659506,-0.073458,0.34082,-0.118896,-0.512207
1.259569,3.196929,8.83473,-1.304807,0.108139,0.1573,-0.056885,0.180908,-0.613525,-0.583146,1.34752,8.050956,0.137423,-0.010887,0.047838,-0.553711,-0.026123,-0.561279,-2.107833,9.037478,0.332415,-0.018422,-0.328794,0.200143,-0.778564,1.069824,-0.031494,-4.446783,0.954384,10.361976,0.301748,0.444392,-0.082934,0.650635,0.08374,0.304932,0.140357,-1.559586,9.07519,-0.278075,-0.724068,0.141179,0.335449,-0.116211,-0.504883
0.608854,2.593706,8.921031,-1.697087,-0.257502,0.187697,-0.067627,0.211914,-0.606934,0.187482,4.574804,9.503738,0.891251,-0.168885,-0.244297,-0.563965,-0.042236,-0.554688,0.765636,10.346163,0.253223,0.106876,-0.551635,0.279551,-0.773438,1.067139,-0.034668,0.865042,1.739427,10.129977,-0.784917,-1.625501,-0.055137,0.64917,0.081055,0.277344,1.788868,0.680081,9.84987,0.193944,0.474363,-0.183255,0.341064,-0.121338,-0.511475
1.056826,2.984698,10.308648,-2.209566,-0.115824,0.373076,-0.061279,0.263916,-0.606934,-0.289865,5.428576,9.781754,-0.391613,0.070412,-0.100619,-0.55957,-0.029053,-0.557861,-0.448085,10.616795,0.431441,-0.73332,0.675686,-0.309164,-0.779541,1.068848,-0.032715,2.942584,-0.480065,9.181777,-1.330004,0.862975,0.029189,0.637695,0.090088,0.291748,-1.436006,0.981746,10.399304,-1.172008,0.449222,0.208583,0.341797,-0.097168,-0.510498
1.488788,1.680066,10.559744,-2.758795,-0.16078,0.205302,-0.06958,0.306885,-0.599609,-0.681271,2.935149,7.70276,-0.605487,-0.195851,-0.231099,-0.567383,-0.029297,-0.556152,-1.951659,9.770331,0.618548,-1.16157,-0.139622,0.133601,-0.769287,1.052734,0.009521,-3.357749,-1.19014,10.151948,-0.530778,0.889043,0.102049,0.639893,0.080322,0.307129,0.166929,-2.040782,9.436626,-1.201119,-0.246255,0.102285,0.343018,-0.087402,-0.505127
1.283687,0.58009,10.273434,-3.069306,0.211845,0.389537,-0.05957,0.370361,-0.584717,0.325996,2.806174,10.129739,0.385421,-0.194012,-0.199722,-0.565918,-0.035645,-0.549805,0.259246,9.247225,1.399175,-0.814629,-0.558635,0.367158,-0.759766,1.054688,0.035889,-0.811684,-0.523924,9.512911,-0.306571,-1.401755,-0.117602,0.63916,0.091309,0.28833,0.381582,-1.82923,9.844174,-0.035486,0.430342,0.074594,0.345703,-0.081787,-0.501709
0.528842,-1.740886,9.367745,-2.927476,0.002202,0.186507,-0.057129,0.421387,-0.573242,-0.050627,4.365548,9.464076,0.136727,0.115663,-0.252475,-0.564941,-0.036133,-0.559082,0.015264,8.719968,1.539024,-0.506372,0.472005,-0.205575,-0.771973,1.040527,0.027588,3.116114,-1.295548,9.951778,-0.705386,0.270023,-0.004734,0.628906,0.077881,0.285156,-1.520264,-1.834735,10.337517,-0.667167,0.118981,0.042445,0.339111,-0.081055,-0.510742
1.436722,-3.203978,8.680577,-1.832558,0.053557,0.019593,-0.050781,0.450195,-0.557373,-0.604439,2.664847,9.232328,-0.689925,-0.099897,-0.045274,-0.5625,-0.030518,-0.552734,-1.568689,8.448829,1.150081,0.510187,-0.006568,-0.105444,-0.763672,1.046143,0.023682,-2.100367,-2.752493,9.027959,0.232865,0.989895,0.136572,0.638672,0.077148,0.30542,0.023054,-3.132693,8.703231,0.477324,-0.445527,0.052798,0.342529,-0.086182,-0.505859
0.11096,-2.937447,8.530333,-1.002514,0.17076,-0.070893,-0.044434,0.476074,-0.55542,0.090738,1.114874,8.953781,0.030115,-0.008866,-0.013144,-0.559326,-0.027344,-0.554199,-0.152106,10.649839,0.511444,0.980413,-0.275273,0.071506,-0.768311,1.049561,0.002686,-1.590753,-0.047061,10.172649,1.374323,-0.91866,-0.067477,0.64209,0.080078,0.285889,0.379497,0.249154,10.316489,1.287207,0.142033,-0.063007,0.346191,-0.109131,-0.50708
1.182859,-3.716971,8.721867,-0.252761,-0.154038,-0.307117,-0.047852,0.4729,-0.558838,-0.276975,3.675223,9.310788,0.893431,0.083046,0.015467,-0.558594,-0.044678,-0.556885,-0.032406,14.315038,1.315462,-2.445036,0.555723,-1.345271,-0.795898,1.023682,0.05542,2.154442,1.730364,10.24692,0.173338,-0.232608,0.042004,0.649658,0.0896,0.282959,-0.683079,1.165898,10.08624,-0.321943,-0.055019,0.078121,0.347656,-0.094727,-0.511719
0.926493,-3.590734,9.608417,0.662661,0.005302,-0.180721,-0.052246,0.463379,-0.562256,-0.315963,5.007093,9.498247,-0.351991,0.014973,0.122849,-0.559814,-0.035156,-0.55542,-1.879324,10.141039,1.43333,-4.22211,0.357951,0.325073,-0.769043,0.987061,0.151611,-0.591927,0.416139,9.570524,-0.682664,0.836084,0.006646,0.646973,0.086914,0.297119,0.58634,-1.373071,9.281259,-0.579275,-0.167785,0.254683,0.347656,-0.088867,-0.509277
1.43807,-3.019886,9.558298,1.070856,0.03839,-0.068505,-0.05127,0.44043,-0.574707,-0.17048,2.49068,8.807999,-0.446894,-0.023597,0.122264,-0.560303,-0.031006,-0.562012,-1.420547,6.202295,2.227434,-2.575819,-0.525451,0.590664,-0.751465,0.945801,0.210449,-1.755817,-0.945732,10.303388,-0.512328,-0.354663,0.020004,0.636475,0.074951,0.290039,-0.053862,-1.286977,9.626549,-0.008322,0.37061,-0.158192,0.343018,-0.100098,-0.508301
0.820846,-1.913491,9.69721,1.454383,-0.06635,0.150275,-0.055908,0.418945,-0.569336,-0.081217,3.653563,8.973124,0.710049,0.069457,-0.011197,-0.563721,-0.038818,-0.551025,0.5695,9.102714,1.969528,-0.150148,-0.357159,-0.977011,-0.775146,0.923828,0.220703,1.32956,-1.200844,9.177841,-0.064397,-0.403962,-0.079628,0.63501,0.074463,0.29126,-0.759596,-0.94949,10.028991,-0.185405,-0.097055,0.109382,0.341064,-0.097656,-0.505615
1.324834,-0.930978,9.46048,1.386908,0.044499,0.262191,-0.064697,0.39624,-0.580078,-0.468534,5.27165,9.287299,-0.010004,0.031198,0.006349,-0.570068,-0.036865,-0.552734,-2.395692,11.137699,4.261882,-1.762248,0.150147,-0.565933,-0.781006,0.900146,0.253418,0.025871,-0.437935,10.105786,0.217526,0.620333,0.105445,0.634521,0.081787,0.297852,0.290628,-1.478448,9.568142,-0.116597,-0.060712,-0.052964,0.340332,-0.089355,-0.505615
0.61008,0.065921,9.579446,1.284853,-0.091864,0.344561,-0.057617,0.374023,-0.579102,-0.272261,3.306296,9.075957,-0.722877,-0.066098,0.011901,-0.562744,-0.026611,-0.546875,-1.413068,12.029752,3.566263,-3.734533,-0.72587,0.852234,-0.739014,0.859131,0.335693,-1.687763,-0.211401,9.868071,-0.133537,-0.11971,-0.013031,0.640869,0.083984,0.300049,-0.379518,-1.075458,9.773756,0.161297,0.183114,0.006193,0.350098,-0.0896,-0.5
1.406215,0.530645,9.829615,0.962642,-0.073113,0.260909,-0.059082,0.355225,-0.583008,-0.108474,2.308342,8.808316,0.199373,0.003606,-0.04201,-0.563721,-0.034668,-0.547119,-1.252352,8.736844,4.569253,-5.469174,-0.992069,0.781135,-0.702393,0.7771,0.430908,0.719814,-0.716448,9.860156,-0.106162,-0.435302,-0.054784,0.63916,0.085449,0.293213,-0.393233,-0.636066,9.918046,0.017963,-0.201647,-0.022509,0.342529,-0.0896,-0.506592
0.835858,1.067214,10.283209,0.820797,-0.007472,0.191508,-0.059082,0.343994,-0.588379,-0.263991,4.039511,9.442673,0.318664,0.012376,-0.030445,-0.564209,-0.037109,-0.553711,-0.864885,5.478188,5.029971,-4.448422,-1.598871,0.978849,-0.656982,0.700684,0.509521,0.40795,-0.502534,9.733242,0.128114,0.418025,0.085991,0.637939,0.076172,0.294922,0.536868,-0.888435,9.516008,-0.095809,0.062316,0.015722,0.343506,-0.094971,-0.508057
1.282334,1.391182,10.193568,0.340991,-0.009455,0.018786,-0.056152,0.341797,-0.593506,-0.160337,3.771562,9.249298,-0.300286,-0.015794,0.022046,-0.559814,-0.031494,-0.557861,0.607098,5.84916,6.009126,-2.924546,-1.61897,0.414917,-0.627441,0.663818,0.556152,-1.366824,-0.304649,10.053794,-0.144522,0.069832,-0.004062,0.638184,0.087402,0.289551,-0.748674,-1.191953,10.011663,-0.179289,0.164193,0.017297,0.346924,-0.082764,-0.516357
0.85913,1.421669,9.930999,-0.014231,0.056268,-8.9e-05,-0.052002,0.336914,-0.590088,-0.211777,3.10456,8.860609,0.04372,0.039055,0.001741,-0.557129,-0.034668,-0.551758,1.823285,8.413287,6.538126,-3.020248,-0.712618,-0.160835,-0.619873,0.605225,0.605713,0.161769,-1.018302,9.61532,-0.018243,-0.390243,-0.024753,0.637207,0.087891,0.295166,-0.209833,-1.601526,9.535278,0.128756,-0.237603,-0.004069,0.34082,-0.085205,-0.501709
1.083725,1.174536,9.72288,-0.587388,9.7e-05,-0.080511,-0.063721,0.350586,-0.599365,-0.281123,3.831986,9.303929,0.100637,-0.001319,-0.014541,-0.567627,-0.0354,-0.564697,1.132974,6.983824,7.385096,-3.944438,0.161588,0.306142,-0.609131,0.537354,0.626953,0.537098,-0.409646,9.82681,0.336082,0.219466,0.029525,0.638428,0.078857,0.288574,0.315623,-0.636722,9.7101,0.349998,0.051732,-0.038799,0.344238,-0.099121,-0.510254
0.808867,0.362062,9.749139,-0.7161,-0.000983,-0.16951,-0.060303,0.360107,-0.585693,-0.231251,3.52895,9.132401,-0.157489,0.010944,0.045354,-0.5625,-0.03418,-0.550537,-0.145551,4.707812,8.202835,-3.909254,0.408866,0.194092,-0.60498,0.481445,0.655273,-1.001102,0.197434,10.122511,-0.011807,0.156921,0.039574,0.637695,0.080078,0.29834,-0.487525,-0.299888,9.863923,-0.124159,0.070907,-0.008118,0.343994,-0.093506,-0.503662
1.275393,-0.021169,9.975325,-0.928983,-0.015431,-0.161998,-0.060059,0.379639,-0.582764,-0.225138,3.274429,9.010505,0.034358,-0.008945,-0.008481,-0.563965,-0.03125,-0.553223,-0.422957,4.854581,7.945951,-3.712319,-0.046243,0.622176,-0.595459,0.426758,0.673096,-0.164528,-0.379731,9.752171,-0.239068,-0.289551,-0.048423,0.633545,0.07959,0.28833,0.040334,-1.143755,9.60784,-0.21918,-0.110928,0.057985,0.338135,-0.091553,-0.513916
0.953814,-1.039144,9.757323,-0.86356,0.037851,-0.163494,-0.052002,0.39624,-0.590088,-0.246808,3.763045,9.279466,0.089893,0.024783,0.015121,-0.556641,-0.030518,-0.566162,0.797662,5.25915,10.086317,-5.008641,-0.555794,0.856581,-0.569336,0.358154,0.706787,0.459862,-0.710111,9.883025,-0.156715,0.106782,0.042989,0.638184,0.075684,0.297363,-0.022994,-1.092594,9.905926,-0.019449,0.152905,-0.069763,0.34668,-0.091553,-0.504639
1.252412,-1.210065,9.727465,-0.649662,0.051696,-0.115644,-0.058105,0.399902,-0.578857,-0.107956,3.587499,9.04067,-0.107461,-0.008556,-0.0058,-0.564453,-0.035156,-0.553223,3.39469,0.464348,6.890696,-4.969474,0.752494,0.936884,-0.564697,0.292725,0.712402,-0.624825,-0.96911,9.482663,0.029532,0.17968,0.010603,0.639893,0.079102,0.293945,-0.529376,-1.291104,9.647411,-0.029325,-0.03205,0.06642,0.346436,-0.090088,-0.51123
0.873252,-1.820743,9.460511,-0.413492,0.012302,-0.110347,-0.052734,0.414062,-0.57959,-0.284788,3.498103,9.182987,0.035452,0.046209,0.038936,-0.560303,-0.031006,-0.560303,-1.196495,-1.42646,9.68,-2.024843,1.830418,1.057452,-0.585938,0.287109,0.709717,-0.446503,-0.110045,10.247066,0.241811,-0.219559,0.007444,0.638428,0.083252,0.293701,0.079458,-0.806961,9.805769,0.146416,-0.10907,-0.079754,0.342773,-0.087891,-0.51001
1.042836,-1.661092,9.482072,-0.072376,0.024817,0.009582,-0.051514,0.410156,-0.582031,-0.322185,3.618197,9.083185,-0.028128,-0.005403,-0.030016,-0.557617,-0.037354,-0.558105,-1.982639,-0.068953,9.827059,-0.842975,0.305494,-0.452787,-0.59375,0.267578,0.713623,0.342581,-0.201291,9.712932,-0.242722,-0.015641,0.005314,0.641602,0.081543,0.292725,-0.121102,-0.734665,9.836396,-0.12256,0.129172,0.044851,0.344238,-0.085449,-0.507812
0.95142,-1.736765,9.401116,0.153757,-0.026933,0.022344,-0.058594,0.404541,-0.582031,-0.151239,3.466561,9.1893,-0.043209,0.003682,0.021661,-0.563965,-0.031494,-0.55835,0.764624,1.178117,10.045904,-0.507509,-0.316317,-0.06936,-0.58667,0.266846,0.710205,-0.331702,-0.933382,9.89461,-0.122609,0.179641,0.014572,0.638428,0.0896,0.292236,-0.428395,-1.326221,9.640704,-0.12731,-0.083062,0.001563,0.342041,-0.078613,-0.509766
1.090064,-1.316559,9.696723,0.476072,-0.039885,0.071216,-0.057373,0.39624,-0.573242,-0.309611,3.600531,9.034584,0.08287,0.004668,0.001183,-0.560303,-0.037842,-0.547607,0.072501,0.512652,9.505444,-0.487205,0.227471,-0.380245,-0.591797,0.237305,0.718262,-0.491827,-0.565898,9.926744,0.196299,-0.1166,0.019925,0.641357,0.073486,0.29834,0.208154,-1.149869,9.626863,0.143634,-0.001459,-0.031532,0.346436,-0.095215,-0.504395
1.064056,-0.85534,9.848812,0.541899,-0.008881,0.125568,-0.058838,0.38623,-0.580811,-0.213604,3.726521,9.261812,-0.094328,-0.007244,-0.002658,-0.564453,-0.036133,-0.55542,-0.076696,1.555452,9.928574,-0.746084,0.09401,-0.499542,-0.595947,0.232422,0.722412,0.202052,-0.238815,9.779375,-0.018262,-0.03917,-0.01989,0.639648,0.087646,0.298828,-0.405845,-0.746679,9.887748,0.031956,0.085301,0.010859,0.345459,-0.085205,-0.506104
1.092152,-0.367109,9.790207,0.551134,-0.016981,0.089926,-0.052246,0.37915,-0.584473,-0.145902,3.290378,9.101693,-0.044699,-0.003683,0.012409,-0.554199,-0.035645,-0.555664,0.098402,1.061065,9.960245,-1.299263,0.01186,0.507965,-0.59082,0.220703,0.725586,-0.217564,-0.575452,9.836413,-0.09637,0.135229,0.044855,0.639648,0.085938,0.299805,-0.121505,-1.065655,9.739264,-0.100413,-0.110755,-0.007952,0.344238,-0.083252,-0.505371
1.000822,0.02791,9.870753,0.471281,0.00081,0.095426,-0.058105,0.372559,-0.584473,-0.246002,3.564403,9.127316,0.078867,0.022865,-0.01792,-0.564453,-0.034912,-0.555664,0.056109,-0.525666,9.643797,-1.263905,0.123644,0.34165,-0.586426,0.192871,0.720459,-0.42881,-0.665933,9.807119,0.024143,-0.0513,-0.018223,0.645996,0.074219,0.290039,0.035582,-1.200155,9.662901,0.054833,0.063249,0.014651,0.348633,-0.096924,-0.510986
0.991263,0.274547,9.829006,0.249146,-0.001433,0.034117,-0.058594,0.366699,-0.589844,-0.344871,3.701421,9.179758,-0.02427,-0.002824,0.019935,-0.564209,-0.037354,-0.556152,-0.43342,-1.233905,9.781332,-0.61841,0.10007,-0.046439,-0.589844,0.191895,0.722168,-0.026008,-0.495556,9.86164,0.102443,-0.043161,0.022656,0.642578,0.078369,0.292236,-0.497029,-0.93136,9.84565,0.090358,0.012569,-0.039903,0.34668,-0.092285,-0.50708
1.037293,0.36267,9.834234,0.048752,-0.016815,0.02603,-0.054932,0.366455,-0.593994,-0.072333,3.462498,9.083994,-0.075807,-0.019718,-0.009935,-0.560547,-0.034912,-0.561279,0.10931,-0.985796,9.65402,0.238474,-0.084647,0.09354,-0.593018,0.199707,0.722656,-0.150661,-0.29167,9.851048,0.047405,0.053308,0.009716,0.637939,0.086426,0.290771,0.073603,-0.838807,9.647065,0.024184,-0.126106,0.026316,0.3396,-0.085693,-0.510986
1.103042,0.175433,9.981744,-0.177833,-0.005021,-0.047139,-0.049072,0.379395,-0.590088,-0.304304,3.436129,9.168835,0.025736,0.037171,0.020343,-0.552246,-0.02832,-0.558594,-0.041761,-0.018557,9.775565,0.552797,0.116129,-0.394341,-0.59668,0.197266,0.721924,-0.25128,-0.368077,9.873156,-0.073758,-0.003986,0.007821,0.637695,0.081055,0.291992,0.034458,-0.914781,9.757617,-0.039635,0.118052,-0.024829,0.342285,-0.088623,-0.508301
1.032622,-0.072799,9.984593,-0.306434,0.01536,-0.049717,-0.061035,0.377197,-0.585938,-0.231536,3.563292,9.101881,0.022493,-0.021269,-0.013346,-0.565918,-0.032227,-0.554932,-0.245531,1.249899,10.077576,-0.04752,0.011929,-0.47063,-0.598633,0.185547,0.72168,-0.171308,-0.678415,9.806363,-0.077716,-0.002107,0.010678,0.638672,0.077637,0.295166,-0.551055,-1.073513,9.864257,-0.05044,-0.001367,0.021461,0.345215,-0.093506,-0.508057
1.109629,-0.398124,9.720493,-0.355977,0.028226,-0.076719,-0.058594,0.385742,-0.583008,-0.130748,3.692726,9.174895,0.004077,0.031086,0.015526,-0.562012,-0.031006,-0.552246,0.059405,0.562744,9.886721,-0.637391,-0.150665,0.582553,-0.598877,0.187988,0.7229,-0.16968,-0.66357,9.778882,0.127143,0.002433,0.004736,0.634766,0.082275,0.29248,0.072816,-1.205025,9.582742,0.082062,-0.117393,-0.008184,0.340332,-0.088379,-0.506836
0.931377,-0.638187,9.65735,-0.373453,0.013443,-0.057516,-0.056152,0.388428,-0.578125,-0.344856,3.509387,9.086009,-0.082387,0.006696,0.004534,-0.561279,-0.03418,-0.549805,0.211092,-0.302678,9.811941,-0.938265,0.1464,-0.235592,-0.603271,0.170898,0.72168,-0.227833,-0.12047,9.956616,0.124731,-0.000572,0.0249,0.632324,0.081787,0.290527,-0.059801,-0.675706,9.815874,0.134607,0.101028,-0.024018,0.33667,-0.092285,-0.511963
1.041505,-1.017258,9.592152,-0.264108,0.007274,-0.054738,-0.063477,0.391113,-0.580566,-0.15508,3.411883,9.106825,0.012578,-0.00774,0.01123,-0.571045,-0.03418,-0.552246,-0.354544,-1.43337,9.67875,-0.313079,0.142149,0.399682,-0.594971,0.176025,0.730957,-0.199515,-0.172039,9.902978,-0.166832,-0.000663,-0.00448,0.639404,0.080078,0.297363,-0.360644,-0.680462,9.835658,-0.147254,-0.03721,0.015046,0.344482,-0.091064,-0.503662
1.036135,-1.082077,9.742451,-0.108394,-0.01403,-0.030012,-0.056152,0.394287,-0.581299,-0.260641,3.635974,9.133229,0.047988,0.026381,0.004335,-0.561279,-0.036377,-0.551025,0.098421,0.245478,9.89383,-0.10542,-0.088518,0.365821,-0.593018,0.186523,0.724121,-0.136238,-0.722006,9.807658,-0.174376,0.00767,0.008419,0.638428,0.087158,0.289551,0.070259,-1.26245,9.645157,-0.142628,-0.014469,0.012895,0.342529,-0.082031,-0.51123
1.099607,-1.16284,9.739817,0.025847,0.003301,0.012078,-0.060303,0.391602,-0.586914,-0.196654,3.673271,9.184865,-0.043251,-0.017433,0.006602,-0.567871,-0.03833,-0.560547,-0.264189,-0.984791,9.832633,-0.500671,0.065969,0.645838,-0.583984,0.187256,0.732666,-0.215028,-0.744349,9.77872,0.047727,-0.000953,0.012518,0.643799,0.084961,0.298096,-0.288946,-1.191736,9.706205,0.063526,0.069997,-0.01987,0.349365,-0.084229,-0.50415
1.022099,-0.967404,9.729833,0.196944,0.002354,0.036543,-0.054688,0.39624,-0.578125,-0.18902,3.43553,9.111918,-0.070995,0.0303,0.002767,-0.558838,-0.028076,-0.553955,-0.199922,-1.780935,9.723163,0.111625,-0.125249,-0.448407,-0.58374,0.173584,0.728271,-0.141786,-0.519452,9.841124,0.056251,-0.009522,0.009533,0.645264,0.078613,0.293213,-0.201551,-0.975048,9.749906,0.034979,-0.074893,-0.000739,0.349365,-0.091553,-0.508301
0.999497,-0.680742,9.659525,0.253832,0.009209,0.043751,-0.057373,0.386475,-0.585938,-0.290368,3.400729,9.096671,0.039201,-0.009417,-0.000274,-0.561523,-0.033447,-0.559814,-0.256096,-0.593724,9.740171,0.572594,0.203763,-0.849763,-0.596436,0.170654,0.728271,-0.170718,-0.478609,9.827934,0.059038,0.025359,0.015149,0.643311,0.078125,0.297119,0.006304,-1.045896,9.712523,0.040752,0.023545,0.002929,0.3479,-0.091553,-0.506592
1.02953,-0.422565,9.700268,0.252324,-0.02183,0.047154,-0.059082,0.382812,-0.582764,-0.136568,3.719093,9.087927,0.054971,0.010273,-0.005356,-0.561523,-0.033203,-0.555664,0.109367,0.497411,9.951968,0.546174,-0.181208,-0.039324,-0.599365,0.179688,0.7229,-0.252304,-0.270797,9.945443,0.055974,-0.001729,0.012928,0.635986,0.08252,0.290283,-0.258504,-0.768523,9.825968,0.073719,0.014214,-0.025682,0.338623,-0.088623,-0.510254
1.029243,-0.226071,9.887284,0.187771,-0.010595,0.034195,-0.056641,0.378906,-0.590088,-0.314578,3.659308,9.216261,-0.084125,0.00441,0.013115,-0.563477,-0.033936,-0.561035,0.008048,0.506657,9.873468,-0.176162,0.023613,0.177061,-0.597412,0.181641,0.727295,-0.158304,-0.251187,9.886889,-0.084036,-0.011549,0.00589,0.637939,0.086182,0.293213,-0.051833,-0.778512,9.775649,-0.078558,-0.032847,0.013533,0.341553,-0.084961,-0.506592
1.105316,-0.147265,9.928314,0.086054,-0.004829,0.021643,-0.060791,0.383057,-0.582031,-0.135513,3.360467,9.081525,-0.047526,-0.004776,0.004115,-0.56543,-0.031494,-0.551025,-0.129154,-0.419868,9.910381,-0.542381,0.051047,-0.272311,-0.604492,0.166504,0.726807,-0.158703,-0.558354,9.850008,-0.167482,0.015463,0.005408,0.630615,0.078369,0.294678,-0.139726,-1.067897,9.739185,-0.138658,0.053604,-0.001569,0.334717,-0.091797,-0.508057
1.045934,-0.118382,9.868167,-0.01008,0.020437,-0.006363,-0.059814,0.38501,-0.582031,-0.245894,3.498768,9.137348,0.053531,0.023626,0.001923,-0.563232,-0.024658,-0.554199,-0.119295,-1.206507,9.727654,-0.16874,-0.107291,0.333676,-0.582031,0.172607,0.724365,-0.20477,-0.826566,9.747671,-0.043492,0.002815,0.011233,0.646973,0.082031,0.290283,-0.27356,-1.298346,9.708866,-0.028103,-0.008799,0.005724,0.35498,-0.084229,-0.512207
1.011548,-0.195061,9.747143,-0.121219,0.00606,-0.024431,-0.0625,0.375244,-0.586426,-0.253658,3.632316,9.134406,-0.00796,-0.001773,0.004178,-0.565918,-0.037598,-0.555176,0.124802,-0.915809,9.72459,0.25116,0.047818,-0.283046,-0.595947,0.171631,0.72998,-0.20529,-0.656094,9.799071,0.141468,0.001501,0.009142,0.638184,0.085938,0.295166,-0.133396,-1.12641,9.726489,0.131285,-0.030706,-0.012741,0.343262,-0.085693,-0.504395
1.006617,-0.394342,9.716675,-0.187384,0.007632,-0.032543,-0.064941,0.372803,-0.575928,-0.200054,3.527452,9.126529,-0.045258,0.00806,0.004212,-0.570312,-0.044922,-0.548828,-0.108207,-0.076251,9.918968,0.346954,0.093862,0.094276,-0.597656,0.170166,0.722656,-0.191478,-0.240087,9.965061,0.083528,-0.008998,0.019451,0.63501,0.077637,0.292236,-0.138201,-0.76654,9.816234,0.053833,0.006971,-0.014757,0.342773,-0.094971,-0.510498
1.061751,-0.60242,9.788453,-0.185042,-0.011219,-0.034776,-0.054199,0.39209,-0.584717,-0.282369,3.476681,9.145242,-0.005607,0.007942,0.00885,-0.557373,-0.027344,-0.55957,-0.293479,0.114236,9.912279,-0.026071,-0.064634,-0.003759,-0.597656,0.178711,0.727051,-0.167832,-0.398985,9.814064,-0.085374,0.007587,-0.001368,0.636719,0.085205,0.291992,-0.195648,-0.98179,9.846717,-0.064793,-0.005793,0.020652,0.342773,-0.086914,-0.507812
1.047071,-0.787703,9.79585,-0.136129,0.004313,-0.032954,-0.060303,0.388184,-0.575195,-0.193971,3.564675,9.131861,0.027358,-0.000146,0.001216,-0.56543,-0.033936,-0.543457,0.205612,-0.344152,9.836614,-0.263846,0.00392,-0.060359,-0.59668,0.17041,0.733643,-0.233062,-0.705364,9.839963,-0.030659,0.010804,0.016208,0.639648,0.081299,0.297607,-0.198374,-1.194589,9.754377,0.0156,-0.020501,-0.012854,0.343262,-0.091064,-0.503662
1.063368,-0.820735,9.729665,-0.045576,0.005108,-0.005376,-0.052246,0.383301,-0.573486,-0.219442,3.644859,9.16054,-0.020712,0.015502,0.005771,-0.558838,-0.040527,-0.551514,-0.205606,-0.991023,9.771731,-0.080277,0.034408,0.146975,-0.599609,0.172119,0.722168,-0.194572,-0.779488,9.744692,0.115699,-0.0268,0.002646,0.63623,0.082031,0.285889,-0.194356,-1.180477,9.624808,0.117319,-0.038655,0.008027,0.339355,-0.090576,-0.51416
1.049073,-0.838827,9.675363,0.020468,0.002582,0.003276,-0.05127,0.389648,-0.581299,-0.216618,3.46687,9.125964,-0.060323,-0.005923,0.002947,-0.555908,-0.031738,-0.55542,-0.023671,-0.787186,9.763386,0.310625,-0.01635,-0.163135,-0.598633,0.16748,0.730713,-0.080317,-0.401682,9.817127,0.274413,-0.001864,0.014345,0.633789,0.074951,0.296387,-0.048073,-0.933662,9.699673,0.212978,-0.050934,-0.017404,0.337891,-0.099121,-0.505127
1.001091,-0.737465,9.73143,0.106994,-0.007876,0.016321,-0.063721,0.391357,-0.58252,-0.226249,3.441012,9.062574,0.028357,0.013635,0.003185,-0.570312,-0.028809,-0.557373,0.015712,0.06025,9.894221,0.392089,0.066409,0.065431,-0.597412,0.179443,0.732666,-0.242286,0.108245,10.010772,0.107917,0.028829,0.021023,0.638672,0.08252,0.302002,-0.099029,-0.482273,9.785512,0.107676,0.005663,-0.014297,0.34082,-0.093506,-0.501465
1.080057,-0.59869,9.781621,0.130154,-0.002709,0.022296,-0.055176,0.390625,-0.582764,-0.244559,3.698374,9.161582,0.040688,0.001431,-0.004184,-0.561523,-0.029053,-0.554932,-0.293347,0.417966,9.935547,-0.006232,0.018113,-0.047816,-0.595459,0.178955,0.726562,-0.215535,-0.117346,9.884486,-0.163134,-0.022095,-0.006109,0.640381,0.082031,0.29248,-0.084188,-0.667709,9.767654,-0.124789,-0.008596,0.017434,0.342041,-0.090576,-0.507324
1.04924,-0.422648,9.825417,0.124645,-0.00517,0.02621,-0.047852,0.384521,-0.585449,-0.184462,3.646355,9.17858,-0.070518,0.006684,0.01113,-0.551758,-0.028809,-0.556396,0.00797,-0.02075,9.912855,-0.36313,-0.0588,0.028223,-0.602783,0.170898,0.728516,-0.111533,-0.492691,9.858172,-0.147841,0.007385,0.014964,0.631104,0.079346,0.293457,-0.095589,-0.980237,9.74341,-0.116734,0.032388,-0.006236,0.337891,-0.095215,-0.506836
1.052895,-0.359731,9.796377,0.070224,0.004738,0.015916,-0.057617,0.37915,-0.585938,-0.254109,3.383866,9.116703,-0.05288,0.008496,0.005986,-0.5625,-0.036621,-0.558838,-0.036925,-0.836727,9.756315,-0.357294,-0.001868,0.070397,-0.596191,0.171631,0.730713,-0.222744,-0.673578,9.811827,-0.077004,0.015977,0.007919,0.638428,0.083252,0.296875,-0.226722,-1.143455,9.702576,-0.075856,0.012152,0.005816,0.342285,-0.088135,-0.50708
1.011696,-0.291793,9.782021,0.035311,0.005701,0.002102,-0.053223,0.382812,-0.585205,-0.217074,3.461757,9.131816,0.049916,0.005677,-0.000783,-0.557617,-0.033447,-0.556641,-0.074358,-1.095707,9.735325,0.059303,0.020662,-0.059661,-0.59668,0.179688,0.719238,-0.196031,-0.681201,9.822158,0.056943,-0.002104,0.00885,0.641602,0.090576,0.287109,-0.186279,-1.192747,9.759338,0.056215,-0.01589,-0.002516,0.342285,-0.081543,-0.515381
1.050735,-0.300293,9.775751,-0.055638,-0.003254,-0.011539,-0.059814,0.382324,-0.583984,-0.224012,3.66233,9.156318,0.009046,0.007195,0.003153,-0.560791,-0.029541,-0.554443,-0.054375,-0.426068,9.844261,0.36541,0.011466,0.018898,-0.59082,0.181396,0.719971,-0.167537,-0.416657,9.869455,0.139769,-0.012992,0.017614,0.644531,0.085449,0.289795,-0.122449,-0.880069,9.709857,0.13171,-0.026962,-0.018461,0.34668,-0.085693,-0.514648
1.035162,-0.455875,9.808082,-0.096323,-0.000309,-0.01592,-0.05249,0.379639,-0.574707,-0.20923,3.548469,9.133101,-0.054426,0.000333,0.006815,-0.557129,-0.037842,-0.549805,-0.062291,0.168093,9.897286,0.189965,0.033985,-0.055097,-0.595703,0.175781,0.731201,-0.160639,-0.180322,9.875059,0.046199,0.012083,0.004351,0.63916,0.080811,0.299561,-0.067904,-0.715533,9.835299,0.03478,-0.000345,0.002011,0.345215,-0.095215,-0.501465
1.062057,-0.550743,9.833167,-0.094993,0.003009,-0.019488,-0.063232,0.384521,-0.570068,-0.227841,3.483555,9.14325,-0.000444,0.012432,0.004379,-0.567383,-0.037354,-0.542236,-0.13994,0.144141,9.912297,-0.148986,0.003829,0.038087,-0.593994,0.182129,0.72168,-0.237896,-0.237735,9.904097,-0.062522,0.011541,0.016729,0.643799,0.088623,0.289062,-0.152107,-0.794377,9.726134,-0.048852,0.002292,-0.005766,0.344482,-0.083496,-0.512451
1.065072,-0.670005,9.726765,-0.075282,0.010339,-0.015204,-0.059082,0.384766,-0.590332,-0.231547,3.57703,9.145402,0.012576,0.00388,0.005238,-0.564697,-0.035156,-0.561768,-0.099138,-0.41776,9.810495,-0.290416,-0.043307,0.022726,-0.594482,0.179199,0.730225,-0.168622,-0.418153,9.838527,-0.115139,-0.017611,-0.000195,0.637207,0.088623,0.297119,-0.06346,-0.931617,9.759707,-0.082657,0.005241,0.003541,0.341797,-0.082031,-0.505127
1.015353,-0.688984,9.720512,-0.027096,0.005133,-0.006745,-0.05249,0.385254,-0.580566,-0.206104,3.593721,9.147836,-0.0261,0.011258,0.004868,-0.558105,-0.035645,-0.553711,0.031274,-0.793549,9.771968,-0.121077,0.008562,-0.000732,-0.594482,0.170898,0.729492,-0.13374,-0.63939,9.808553,-0.070662,0.012984,0.012009,0.639648,0.084717,0.297119,-0.181762,-1.103022,9.732092,-0.057673,0.022711,-0.000439,0.342529,-0.088379,-0.503906
1.045484,-0.701079,9.724316,0.005886,-0.000202,0.002198,-0.063477,0.386963,-0.575928,-0.281599,3.462112,9.123733,-0.038532,0.006395,0.007937,-0.56958,-0.030518,-0.547363,-0.157077,-0.696963,9.82924,0.130361,0.032546,0.006702,-0.602783,0.178223,0.73584,-0.225351,-0.621373,9.829135,0.055914,0.01864,0.010369,0.634521,0.087646,0.302002,-0.199846,-1.120591,9.759491,0.046363,-0.019171,-0.003229,0.335693,-0.084473,-0.500488
1.028263,-0.641291,9.746436,0.063352,-0.004988,0.007043,-0.065918,0.391846,-0.581055,-0.18835,3.494491,9.148486,0.027418,-0.004668,-0.000889,-0.56958,-0.025635,-0.555176,-0.06344,-0.267315,9.854863,0.193833,-0.007134,-0.035927,-0.598877,0.176514,0.728516,-0.219236,-0.394259,9.854269,0.102954,-0.021839,0.009374,0.636963,0.083496,0.293457,-0.107469,-0.898595,9.754278,0.094048,-0.019455,-0.011699,0.341064,-0.091064,-0.507568
1.081351,-0.548327,9.818312,0.067625,-0.002852,0.011758,-0.051758,0.384277,-0.577881,-0.221005,3.664379,9.150622,0.007188,0.019433,0.005551,-0.556885,-0.033447,-0.550293,-0.030527,-0.015219,9.871346,0.043851,0.023439,0.015791,-0.597656,0.175537,0.724121,-0.099387,-0.244007,9.893967,0.030694,-0.002108,0.009273,0.640137,0.084961,0.290527,-0.072668,-0.76378,9.75943,0.029743,-0.005006,-0.001598,0.34375,-0.091064,-0.51123
1.032259,-0.496862,9.799859,0.063278,0.006296,0.013869,-0.06543,0.38501,-0.582275,-0.248956,3.573773,9.149993,-0.042916,-0.002537,0.006239,-0.568115,-0.03125,-0.555664,-0.163124,-0.16054,9.859618,-0.114934,0.010092,-0.000879,-0.602051,0.171387,0.723389,-0.221952,-0.253682,9.904496,-0.063769,0.033697,0.01237,0.634033,0.078857,0.288818,-0.123265,-0.796383,9.782268,-0.045559,0.015177,-0.00321,0.336426,-0.09668,-0.512207
1.06106,-0.401988,9.769634,0.043012,-0.000342,0.00756,-0.050049,0.383789,-0.580566,-0.173845,3.481092,9.115496,-0.014709,0.010882,0.005565,-0.553955,-0.030518,-0.551025,-0.047837,-0.438026,9.838573,-0.157901,-0.03228,0.013161,-0.594727,0.174561,0.732422,-0.237967,-0.476689,9.860734,-0.115103,-0.021791,0.007605,0.642578,0.085938,0.297852,-0.133087,-0.986161,9.701996,-0.093421,-0.003428,0.006091,0.345703,-0.087646,-0.502441
1.025515,-0.400822,9.767196,-0.00414,0.005085,-0.000947,-0.062256,0.384277,-0.577393,-0.27488,3.51251,9.140548,-0.000487,0.008547,0.00364,-0.564941,-0.030518,-0.549805,-0.020454,-0.629584,9.785899,-0.055821,0.01476,0.010181,-0.603516,0.170898,0.731445,-0.097027,-0.635817,9.793964,-0.02061,-1.9e-05,0.002286,0.63208,0.082275,0.293945,-0.133599,-1.137971,9.761249,-0.009593,0.014102,-0.001317,0.335449,-0.093262,-0.506836
1.039648,-0.458826,9.798012,-0.042225,-0.007591,-0.009777,-0.0625,0.387451,-0.583008,-0.17143,3.554493,9.131164,-0.000973,-0.000982,0.003044,-0.56543,-0.029541,-0.553955,-0.115032,-0.551448,9.818057,0.073665,0.019473,-0.015279,-0.594727,0.179688,0.727051,-0.220566,-0.52702,9.818357,0.065995,0.026687,0.020703,0.642578,0.0896,0.290527,-0.198015,-0.998692,9.71968,0.053709,-0.011236,-0.011586,0.34668,-0.084473,-0.508545
1.057684,-0.508995,9.827262,-0.047555,0.00851,-0.010109,-0.061279,0.389648,-0.579102,-0.245968,3.549806,9.138451,-0.014171,0.014583,0.005562,-0.564941,-0.030518,-0.548828,-0.063066,-0.312228,9.830691,0.130907,-6.8e-05,0.000981,-0.599854,0.17749,0.730225,-0.210568,-0.342661,9.872053,0.072728,-0.016326,0.00313,0.636475,0.085938,0.296631,-0.080594,-0.876606,9.763064,0.067536,-0.024455,0.000819,0.34082,-0.0896,-0.503906
1.047892,-0.559461,9.778044,-0.054055,0.000883,-0.009587,-0.054199,0.386475,-0.584473,-0.202206,3.553803,9.147296,-0.01248,-0.003889,0.002981,-0.557861,-0.032715,-0.554932,-0.053694,-0.090715,9.869953,0.037467,0.018683,-0.013694,-0.595947,0.178467,0.725098,-0.13075,-0.23466,9.867387,0.000618,-0.007158,0.015251,0.641357,0.083496,0.293945,-0.109225,-0.7535,9.738319,0.007047,0.009136,-0.012413,0.344971,-0.091309,-0.508545
1.060672,-0.633792,9.757273,-0.027388,0.006281,-0.007707,-0.056152,0.38208,-0.57373,-0.202319,3.54328,9.112589,-0.00855,0.017881,0.007606,-0.563232,-0.036377,-0.544189,-0.109293,-0.205462,9.864518,-0.115489,-0.000335,0.016662,-0.593262,0.168701,0.725098,-0.182635,-0.368984,9.876674,-0.094521,0.023805,0.004916,0.640137,0.078125,0.293457,-0.113808,-0.88525,9.774333,-0.078472,0.004317,0.011099,0.344727,-0.094482,-0.508545
1.024653,-0.611283,9.755012,-0.000245,0.001015,-5.5e-05,-0.054199,0.385254,-0.576904,-0.250548,3.555114,9.135594,-0.008316,0.000194,0.002949,-0.55542,-0.033447,-0.548096,-0.089686,-0.475673,9.816727,-0.130945,-0.012907,0.011843,-0.601074,0.172607,0.733398,-0.236742,-0.545359,9.833256,-0.058208,0.005503,0.009825,0.636719,0.082031,0.299805,-0.15109,-1.055428,9.745166,-0.036438,0.009967,-0.004811,0.340332,-0.090332,-0.502441
1.072931,-0.634157,9.730984,0.019208,-0.002719,0.003239,-0.059814,0.385498,-0.585205,-0.175394,3.531016,9.127727,-0.021282,0.005648,0.006637,-0.561523,-0.036377,-0.557617,-0.036404,-0.619771,9.814727,-0.020654,0.005374,-0.001557,-0.595215,0.175293,0.726807,-0.165438,-0.543033,9.829668,0.023351,-0.02251,0.009782,0.638428,0.088135,0.292236,-0.159636,-1.024452,9.744596,0.022974,-0.012095,-0.003259,0.341553,-0.086426,-0.509277
1.042412,-0.552929,9.786936,0.044816,-0.000381,0.006405,-0.053955,0.384033,-0.587891,-0.241923,3.49858,9.125656,-0.005813,0.008168,0.003482,-0.557861,-0.033447,-0.55835,-0.080399,-0.487476,9.859543,0.096743,0.016283,-0.001572,-0.591553,0.17334,0.731689,-0.138254,-0.433257,9.863477,0.051507,0.016271,0.009311,0.641602,0.082764,0.299316,-0.124319,-0.955148,9.757774,0.038972,-0.006637,-0.002674,0.345947,-0.092285,-0.502686
1.07225,-0.514978,9.814004,0.028961,0.005185,0.00633,-0.061279,0.382812,-0.583984,-0.221457,3.574497,9.141214,-0.000752,0.004664,0.001841,-0.566895,-0.033447,-0.558838,-0.091235,-0.241453,9.850771,0.09192,0.015048,-0.015541,-0.590576,0.17627,0.725342,-0.243324,-0.331782,9.88562,0.020645,0.014626,0.016321,0.646729,0.083252,0.289795,-0.131519,-0.867591,9.765756,0.02442,0.003477,-0.00515,0.346924,-0.091309,-0.510254
1.057653,-0.487565,9.753761,0.028718,0.001473,0.003003,-0.054688,0.394531,-0.583984,-0.226069,3.553676,9.132653,-0.011285,0.004663,0.006811,-0.556885,-0.024658,-0.555664,-0.088098,-0.175346,9.87946,-0.032467,-0.003093,0.009076,-0.600098,0.171875,0.729248,-0.184421,-0.344867,9.875869,-0.035773,-0.01983,0.00145,0.633789,0.07959,0.294189,-0.128909,-0.848214,9.777745,-0.014901,-0.008687,-9.9e-05,0.338379,-0.093994,-0.506592
1.017335,-0.438959,9.782744,0.003099,0.005203,-0.000176,-0.057129,0.387939,-0.577393,-0.212378,3.574969,9.150015,-0.009203,0.008574,0.00163,-0.561523,-0.028809,-0.549561,-0.078978,-0.360102,9.825405,-0.105815,0.000863,0.008525,-0.596924,0.169922,0.734131,-0.119894,-0.443723,9.821101,-0.037524,0.0109,0.012422,0.63916,0.082031,0.302002,-0.114375,-0.955784,9.730415,-0.031874,0.009068,-0.000927,0.342773,-0.09082,-0.501953
1.0521,-0.483447,9.770055,-0.025514,-0.001319,-0.004686,-0.071289,0.385986,-0.588867,-0.258088,3.496915,9.129592,-0.028205,0.006439,0.010106,-0.57373,-0.028809,-0.560791,-0.086701,-0.523221,9.813539,-0.066932,0.003792,0.005737,-0.593994,0.172363,0.72583,-0.224656,-0.453769,9.884524,-0.020569,0.017694,0.009475,0.641602,0.082275,0.290527,-0.173192,-0.965024,9.760401,-0.015191,0.006261,-0.003126,0.347412,-0.089355,-0.510498
1.022016,-0.506244,9.794421,-0.023483,0.000603,-0.00794,-0.056885,0.390625,-0.585205,-0.198281,3.515918,9.132714,0.010784,0.003091,-0.000227,-0.560059,-0.028809,-0.55957,-0.04831,-0.517831,9.812771,0.027758,0.000357,0.002031,-0.593506,0.175049,0.72876,-0.205957,-0.494095,9.833191,-0.01186,-0.017884,0.008364,0.643066,0.084961,0.295654,-0.1532,-1.009137,9.740944,-0.003711,-0.013781,-0.000704,0.346924,-0.09082,-0.507324
1.087958,-0.577916,9.799689,-0.03529,0.001618,-0.004481,-0.051758,0.385254,-0.581543,-0.239528,3.584095,9.140161,-0.011782,0.013614,0.008994,-0.555908,-0.032715,-0.553955,-0.082445,-0.373804,9.824864,0.072474,0.018514,-0.009363,-0.602051,0.17041,0.732666,-0.143122,-0.455507,9.838472,0.039789,0.007036,0.009532,0.635498,0.077881,0.300537,-0.11906,-0.966083,9.749968,0.043833,-0.00043,-0.005957,0.3396,-0.093262,-0.501709
1.03056,-0.596708,9.77482,-0.012554,0.003588,-0.005459,-0.05835,0.388428,-0.577637,-0.219626,3.534579,9.136482,-0.019432,-0.000933,0.001964,-0.561768,-0.029785,-0.551514,-0.10472,-0.259302,9.855954,0.017635,0.00575,0.003017,-0.594727,0.17749,0.741455,-0.216971,-0.330149,9.901624,0.014965,0.013684,0.015222,0.640137,0.087402,0.306885,-0.157165,-0.846977,9.784809,0.009571,-0.003605,-0.007657,0.345459,-0.087646,-0.494141
1.064447,-0.597178,9.748392,0.001203,0.003929,-0.001913,-0.058105,0.386719,-0.582275,-0.226833,3.537927,9.117167,-0.001911,0.015934,0.007491,-0.562744,-0.031738,-0.553467,-0.085219,-0.312059,9.845745,-0.051457,-0.002496,0.005138,-0.594482,0.165771,0.731689,-0.200251,-0.383811,9.866075,-0.03258,-0.013827,0.004382,0.641113,0.078613,0.298096,-0.110896,-0.930551,9.734448,-0.02337,-0.006506,0.004958,0.345459,-0.096924,-0.502686
0.998145,-0.572441,9.756783,0.021192,0.001172,0.004573,-0.057129,0.387939,-0.583252,-0.23168,3.568983,9.155633,-0.00428,0.002735,0.000551,-0.559814,-0.031982,-0.552979,-0.080588,-0.400053,9.843924,-0.045422,0.006668,0.004988,-0.600586,0.178955,0.727051,-0.172589,-0.433276,9.833709,-0.019632,0.00911,0.011113,0.636963,0.088867,0.296387,-0.156304,-0.928421,9.756961,-0.00439,0.010562,-0.010143,0.341309,-0.083496,-0.508301
1.067968,-0.538095,9.770201,0.017697,-0.002542,0.002035,-0.054443,0.381348,-0.582275,-0.206318,3.530452,9.12559,-0.03056,0.005112,0.008279,-0.557617,-0.038818,-0.556641,-0.082608,-0.450956,9.852355,-0.030046,-0.000753,0.002616,-0.590576,0.173828,0.729736,-0.19735,-0.465238,9.854489,-0.031937,0.006355,0.009442,0.64502,0.082764,0.294678,-0.158631,-0.950463,9.744692,-0.026911,-0.006465,0.003115,0.3479,-0.091797,-0.508057
1.042119,-0.527606,9.815884,0.024006,0.001477,0.003467,-0.050049,0.383057,-0.583008,-0.234102,3.509266,9.124662,0.003465,0.007768,0.001903,-0.554199,-0.035156,-0.554199,-0.057445,-0.469073,9.811689,0.01477,0.005634,0.001506,-0.591553,0.174316,0.728516,-0.170308,-0.511212,9.822187,0.007822,-0.006386,0.008175,0.643555,0.084717,0.294922,-0.13273,-1.040191,9.705674,0.006404,-0.003016,-0.001858,0.34668,-0.085938,-0.510742
1.076035,-0.493277,9.790245,0.011268,0.002995,0.001021,-0.049561,0.390137,-0.581299,-0.218605,3.576074,9.152911,-0.002622,0.006405,0.005826,-0.554199,-0.024658,-0.553223,-0.085113,-0.364393,9.848461,0.040798,0.015114,-0.004392,-0.593994,0.172607,0.726807,-0.192248,-0.393892,9.866103,0.043572,0.006546,0.014359,0.640869,0.081543,0.290771,-0.146616,-0.907952,9.781006,0.048535,-0.00137,-0.01025,0.344482,-0.089111,-0.510498
1.026803,-0.501693,9.755641,-0.001715,0.005523,-0.001484,-0.060059,0.385742,-0.580566,-0.228478,3.545731,9.143799,-0.019843,0.006081,0.004292,-0.5625,-0.031494,-0.552734,-0.092074,-0.31026,9.839713,0.003552,-0.002978,-0.000233,-0.600098,0.178467,0.72998,-0.198291,-0.337076,9.862016,-0.013721,0.000787,0.00693,0.636963,0.086426,0.292969,-0.115645,-0.854474,9.773809,-0.011509,-0.008122,-0.000292,0.339844,-0.087158,-0.508789
1.056809,-0.503781,9.781617,-0.014389,0.000802,-0.003042,-0.062744,0.380371,-0.582031,-0.221387,3.518561,9.107928,-0.014072,0.006442,0.006571,-0.567139,-0.037109,-0.551758,-0.063743,-0.340331,9.826296,-0.031698,0.006885,0.005551,-0.597412,0.176758,0.726074,-0.165672,-0.416975,9.861348,-0.033019,0.000434,0.008526,0.639648,0.0896,0.292969,-0.103212,-0.949546,9.710533,-0.02126,0.004777,-0.000555,0.342773,-0.085938,-0.508545
1.021842,-0.550253,9.756149,-0.021487,0.001567,-0.00443,-0.057373,0.387207,-0.574219,-0.235318,3.532973,9.131372,-0.004548,0.006419,0.004579,-0.561523,-0.032227,-0.548096,-0.103501,-0.398995,9.856842,-0.042282,0.00632,0.002086,-0.597412,0.17749,0.726074,-0.188322,-0.442845,9.86356,-0.016636,0.008367,0.012372,0.638916,0.086426,0.294434,-0.165268,-0.945221,9.772557,-0.005011,0.006877,-0.004812,0.343506,-0.085205,-0.508057
1.074684,-0.567708,9.796076,-0.01346,-0.001517,-0.00261,-0.062988,0.382324,-0.583984,-0.205628,3.567619,9.15687,-0.007445,0.005845,0.004905,-0.568604,-0.035645,-0.553711,-0.069233,-0.455921,9.82719,-0.026573,-0.005908,0.005587,-0.603271,0.171875,0.724365,-0.179327,-0.466663,9.826996,-0.015701,-0.003756,0.008537,0.634277,0.08374,0.290283,-0.151469,-0.967423,9.744874,-0.012212,-0.010681,-0.000515,0.338867,-0.089355,-0.511475
1.061167,-0.582734,9.77108,-0.006284,0.004832,-0.002732,-0.054932,0.388428,-0.587402,-0.237335,3.526849,9.146813,-0.021157,0.007062,0.006127,-0.556396,-0.02832,-0.559326,-0.054268,-0.441355,9.82412,0.023721,0.011344,-0.001502,-0.595215,0.176025,0.732666,-0.159109,-0.445462,9.855407,0.022974,0.002298,0.010227,0.64209,0.086426,0.297852,-0.117935,-0.980588,9.753824,0.022268,0.001977,-0.004415,0.344238,-0.089111,-0.503662
1.055878,-0.575768,9.750939,0.006946,0.001283,-0.000177,-0.054688,0.384521,-0.583008,-0.210409,3.532867,9.128005,-0.001502,0.004469,0.003011,-0.55957,-0.033203,-0.55249,-0.10623,-0.346849,9.842312,0.031099,0.007603,-0.001368,-0.594238,0.175293,0.730225,-0.204064,-0.385016,9.849692,0.008646,0.005744,0.011471,0.642822,0.08374,0.298096,-0.151367,-0.880154,9.764813,0.013372,-0.003945,-0.006645,0.346191,-0.09082,-0.50415
1.046208,-0.547334,9.761901,0.015202,0.004839,0.002788,-0.056885,0.390137,-0.580078,-0.219736,3.558375,9.138228,-0.006499,0.010905,0.005484,-0.560303,-0.028809,-0.550293,-0.07682,-0.328995,9.855466,-0.012705,-8.9e-05,0.004437,-0.600098,0.173584,0.731445,-0.186776,-0.407209,9.844513,-0.024706,-0.000145,0.007381,0.63623,0.083008,0.296143,-0.122058,-0.930964,9.77377,-0.014624,-0.005936,0.003103,0.339844,-0.087646,-0.502441
1.045609,-0.530783,9.747805,0.012106,-0.001941,0.001868,-0.050781,0.38623,-0.582031,-0.237409,3.552713,9.152767,-0.017599,-0.000339,0.004581,-0.554932,-0.031006,-0.557373,-0.085757,-0.370142,9.828772,-0.036331,0.005304,0.004253,-0.59668,0.173828,0.726807,-0.179806,-0.440518,9.835803,-0.013231,0.004971,0.010868,0.639893,0.085205,0.291748,-0.140505,-0.94402,9.76923,-0.002535,0.006794,-0.006806,0.346436,-0.086914,-0.509766
1.054733,-0.528676,9.77406,0.008749,-5e-05,0.001983,-0.063965,0.387207,-0.580078,-0.196402,3.525903,9.144509,-0.01031,0.009566,0.004525,-0.569824,-0.030029,-0.549072,-0.073919,-0.434546,9.837304,-0.034001,-0.00273,0.004551,-0.594971,0.17041,0.727539,-0.180879,-0.440679,9.857196,-0.016092,-0.002434,0.008617,0.63916,0.08374,0.29248,-0.144661,-0.953304,9.741084,-0.012485,-0.00929,0.001422,0.343506,-0.0896,-0.510254
1.041424,-0.505394,9.808112,0.001406,0.001726,0.000537,-0.062012,0.384277,-0.575928,-0.267401,3.543781,9.133246,-0.006351,0.008382,0.00424,-0.566162,-0.037354,-0.548096,-0.073267,-0.46341,9.848316,0.004096,0.011716,0.001621,-0.60083,0.165771,0.72998,-0.173953,-0.471837,9.848551,-0.00434,0.007463,0.009382,0.634766,0.075684,0.296875,-0.123115,-0.977872,9.73364,0.004305,0.004837,-0.00455,0.338379,-0.096924,-0.505127
1.084456,-0.537379,9.778211,-0.004336,0.00437,-0.001202,-0.058838,0.376709,-0.585205,-0.206806,3.550141,9.142102,-0.009923,0.002169,0.003642,-0.5625,-0.039307,-0.555664,-0.102815,-0.391522,9.853065,0.025544,0.004576,-0.00119,-0.59668,0.179199,0.719727,-0.19938,-0.416237,9.843612,0.010163,0.000351,0.011929,0.638672,0.08667,0.288086,-0.169927,-0.935543,9.744531,0.016248,-0.005659,-0.003237,0.343262,-0.084961,-0.514648
1.03525,-0.516454,9.773113,-0.008465,0.003381,-0.002138,-0.058594,0.385254,-0.584961,-0.224999,3.544668,9.156538,-0.012391,0.012114,0.004522,-0.561523,-0.033447,-0.558105,-0.091023,-0.334824,9.833371,0.007061,0.005156,-0.000411,-0.596924,0.166016,0.726562,-0.160226,-0.405721,9.86994,0.000151,-0.003054,0.005537,0.640381,0.073975,0.297363,-0.110741,-0.934972,9.746089,0.002051,-0.005839,-0.001065,0.342529,-0.099121,-0.505371
1.039258,-0.565018,9.770723,-0.017115,0.003121,-0.002348,-0.057617,0.388428,-0.582275,-0.241203,3.518348,9.140928,-0.0127,0.003542,0.004871,-0.562988,-0.030029,-0.551514,-0.081426,-0.352982,9.846981,-0.026259,0.011048,0.003307,-0.601807,0.170166,0.722412,-0.181753,-0.408514,9.878275,-0.013387,0.013745,0.013575,0.632812,0.082031,0.289795,-0.14622,-0.915542,9.777003,-0.007102,0.011829,-0.005538,0.337646,-0.093018,-0.512207
1.047974,-0.570441,9.767568,-0.00233,-0.002558,-0.003153,-0.061279,0.384521,-0.585693,-0.191908,3.536697,9.1093,-0.001064,0.004455,0.005121,-0.565918,-0.029785,-0.560059,-0.082791,-0.415004,9.825817,-0.032979,-0.005286,0.004543,-0.591797,0.171875,0.727295,-0.222696,-0.43801,9.836507,-0.02529,-0.003949,0.006784,0.643799,0.083252,0.295654,-0.156318,-0.956261,9.740898,-0.012309,-0.012083,0.001217,0.345947,-0.09082,-0.505127
1.043327,-0.560636,9.776547,0.003924,0.004771,-0.000421,-0.056885,0.384766,-0.576172,-0.229879,3.561334,9.175011,-0.008291,0.008006,0.004456,-0.560547,-0.032227,-0.547363,-0.062592,-0.440619,9.825797,-0.002976,0.005135,0.001727,-0.593994,0.173096,0.729736,-0.146286,-0.463007,9.855435,0.00183,-0.002698,0.008396,0.640869,0.081543,0.292969,-0.107286,-0.973258,9.734045,0.00603,0.000596,-0.004357,0.344482,-0.0896,-0.508057
1.056116,-0.556546,9.779514,0.002388,-0.002333,0.000759,-0.052734,0.385498,-0.58252,-0.198727,3.519994,9.137717,-0.028215,0.001877,0.005045,-0.555908,-0.030762,-0.555664,-0.088125,-0.395078,9.863242,0.005712,0.01006,-0.001584,-0.5979,0.16748,0.727051,-0.192095,-0.418343,9.855949,-8.2e-05,0.007519,0.013498,0.640869,0.076904,0.291504,-0.153319,-0.937805,9.752831,0.002415,0.003018,-0.004635,0.343994,-0.095215,-0.510986
1.064364,-0.564425,9.783823,0.013152,0.007194,0.000579,-0.063477,0.384033,-0.580811,-0.211006,3.513454,9.131158,0.006291,0.013778,0.003691,-0.566895,-0.034912,-0.554443,-0.078997,-0.397992,9.836164,0.000687,0.001025,0.00355,-0.599121,0.173584,0.7229,-0.18644,-0.457946,9.844319,-0.013694,0.001664,0.007002,0.640381,0.083984,0.290771,-0.133607,-0.979917,9.733561,-0.005141,-0.007873,0.001192,0.339844,-0.091064,-0.510254
1.02803,-0.51311,9.789538,0.010738,0.00068,0.001125,-0.058594,0.388428,-0.580322,-0.246512,3.581429,9.117568,9.7e-05,0.006412,0.003067,-0.562988,-0.028809,-0.553955,-0.104811,-0.379662,9.827957,0.007213,0.012203,-0.001834,-0.602051,0.168701,0.719971,-0.204773,-0.421929,9.864691,0.014366,0.006016,0.010847,0.63208,0.07959,0.290283,-0.152899,-0.935239,9.776992,0.027805,0.005881,-0.008433,0.336914,-0.092529,-0.510742
1.035908,-0.503665,9.743185,0.006066,0.003455,0.000284,-0.050049,0.390381,-0.580322,-0.18376,3.560977,9.138088,-0.029252,0.002272,0.006536,-0.554932,-0.027344,-0.549072,-0.100688,-0.361605,9.852018,-0.011772,-0.003799,0.002659,-0.601074,0.172607,0.730225,-0.191593,-0.382116,9.867834,-0.009316,-0.006442,0.010152,0.634033,0.085449,0.295654,-0.136735,-0.88283,9.73731,-0.012518,-0.010179,-0.000364,0.340088,-0.086182,-0.505127
1.040681,-0.524117,9.777728,-0.008932,-0.003595,-6e-05,-0.063232,0.381348,-0.574951,-0.236164,3.496214,9.13271,-0.014715,0.009017,0.005703,-0.570801,-0.0354,-0.54834,-0.080065,-0.400455,9.857581,-0.029221,0.007355,0.00468,-0.596436,0.168945,0.72583,-0.156318,-0.436604,9.854411,-0.028319,0.006105,0.004931,0.639893,0.080322,0.290527,-0.129085,-0.967072,9.753512,-0.025092,0.007286,0.000669,0.343994,-0.093262,-0.506592
1.067566,-0.562287,9.797167,-0.009971,0.001967,-0.004449,-0.056152,0.37793,-0.581543,-0.210969,3.528169,9.1159,0.011574,0.001077,0.003115,-0.562256,-0.041748,-0.554199,-0.087812,-0.439122,9.852365,-0.017712,0.005233,0.001395,-0.594971,0.170654,0.728516,-0.19989,-0.468496,9.85271,-0.010105,0.008374,0.013487,0.643799,0.078369,0.292969,-0.170045,-0.980563,9.752416,0.004904,0.001851,-0.007746,0.346436,-0.091797,-0.506104
1.062018,-0.540376,9.791827,0.001831,0.005935,-0.000239,-0.060059,0.389404,-0.579102,-0.229026,3.592189,9.143992,-0.009801,0.012886,0.006007,-0.563721,-0.029785,-0.552734,-0.077994,-0.44409,9.825205,0.007188,0.000317,0.001635,-0.594727,0.172363,0.725098,-0.189136,-0.463331,9.83458,0.010938,-0.006549,0.005352,0.642578,0.083252,0.293457,-0.129875,-0.961774,9.745471,0.01475,-0.013975,0.001135,0.344727,-0.091797,-0.508545
1.042923,-0.540913,9.739598,-0.012843,0.004986,-0.002038,-0.061279,0.380127,-0.575439,-0.212639,3.508884,9.136975,-0.036521,0.002355,0.003627,-0.565674,-0.036133,-0.544922,-0.060001,-0.382956,9.835291,0.012549,0.008438,-0.00202,-0.59375,0.169434,0.728027,-0.153862,-0.389396,9.859997,0.00894,0.002559,0.011978,0.643066,0.080811,0.293945,-0.11814,-0.921144,9.757679,0.005277,0.006005,-0.006272,0.347168,-0.091309,-0.506592
1.04228,-0.555206,9.753951,0.004172,0.002179,-0.001457,-0.056152,0.391357,-0.572998,-0.207774,3.504558,9.11725,0.007856,0.011419,0.004457,-0.560791,-0.025391,-0.543945,-0.091294,-0.382233,9.838195,-0.000421,0.009,0.002393,-0.598389,0.168213,0.727051,-0.177177,-0.410075,9.862341,-0.017254,0.010934,0.007481,0.635742,0.07959,0.295898,-0.158895,-0.932545,9.75681,-0.008293,0.00119,0.001779,0.341309,-0.094482,-0.506104
1.046507,-0.525599,9.76758,-9e-05,-0.002612,0.000416,-0.060547,0.38623,-0.578613,-0.24008,3.598807,9.162151,0.004342,0.004633,0.002452,-0.565674,-0.032471,-0.552979,-0.100943,-0.37889,9.851623,-0.016149,-0.000892,0.001685,-0.596436,0.170898,0.727783,-0.219447,-0.432203,9.863665,-0.017416,-0.001288,0.010155,0.641113,0.083252,0.294678,-0.152,-0.955228,9.741067,0.001452,-0.005193,-0.006093,0.343262,-0.09082,-0.507812
1.068619,-0.544433,9.78899,0.007281,0.002883,-0.000533,-0.064209,0.382568,-0.58374,-0.201951,3.541155,9.136567,-0.035748,0.004283,0.007691,-0.567871,-0.035889,-0.556641,-0.071231,-0.423512,9.843624,-0.028006,0.000728,0.003185,-0.596924,0.177002,0.728516,-0.160753,-0.450226,9.863153,-0.010233,-0.008695,0.008016,0.638428,0.088379,0.293945,-0.111078,-0.945114,9.741813,-0.008868,-0.002149,-0.002399,0.341553,-0.085205,-0.507812
1.050519,-0.543097,9.802359,0.006942,0.002866,0.000922,-0.061768,0.388672,-0.583008,-0.233129,3.48629,9.132248,-0.0068,0.011911,0.004373,-0.563721,-0.027832,-0.557129,-0.085583,-0.453593,9.838375,-0.006734,0.010771,0.003145,-0.603271,0.169189,0.726562,-0.15956,-0.442422,9.835248,0.001234,0.015062,0.009609,0.634521,0.081055,0.292969,-0.158965,-0.982686,9.748834,-0.000715,0.006293,-0.00012,0.337646,-0.090576,-0.508545
1.057971,-0.537061,9.726846,0.004119,0.003915,-0.00125,-0.057617,0.388184,-0.577393,-0.212328,3.562759,9.148378,0.007266,0.000328,0.001439,-0.560303,-0.030029,-0.549561,-0.105452,-0.402484,9.835171,0.013567,0.004443,-0.002305,-0.592285,0.175049,0.731689,-0.238783,-0.412879,9.8593,0.001906,0.002651,0.013248,0.64502,0.084961,0.298584,-0.147009,-0.943189,9.737039,0.012711,-0.011566,-0.007138,0.347656,-0.087158,-0.504639
1.026697,-0.517633,9.744916,-0.000345,0.001328,-0.001827,-0.062012,0.385742,-0.576172,-0.208043,3.571359,9.136208,-0.019392,0.009458,0.005745,-0.565918,-0.032959,-0.546387,-0.076425,-0.372374,9.842906,0.00268,-0.000974,0.002703,-0.594238,0.175293,0.732422,-0.150317,-0.42849,9.85093,-0.01163,-0.012198,0.005657,0.645264,0.088623,0.299316,-0.09439,-0.944991,9.750324,7.6e-05,-0.002382,-0.001557,0.347168,-0.087891,-0.502197
1.057904,-0.54871,9.77032,-0.013063,-0.003007,9.3e-05,-0.059814,0.389404,-0.579346,-0.232972,3.514422,9.124405,-0.017909,0.004185,0.005654,-0.563721,-0.026855,-0.551758,-0.085735,-0.381032,9.861921,-0.014202,0.013379,0.00122,-0.594971,0.173096,0.724854,-0.150778,-0.430232,9.850847,-0.002799,0.015127,0.013085,0.644043,0.087402,0.290283,-0.150601,-0.949479,9.733106,-0.004344,0.005652,-0.004421,0.345703,-0.085693,-0.510498
1.058036,-0.554042,9.80658,0.001203,0.003932,-0.001912,-0.059326,0.390625,-0.588623,-0.217559,3.528021,9.106303,-0.000157,0.005619,0.004952,-0.5625,-0.027344,-0.559814,-0.082846,-0.421421,9.829657,-0.017121,-0.001453,0.002531,-0.591064,0.16748,0.737061,-0.221396,-0.418768,9.85996,-0.007454,0.005539,0.008563,0.644531,0.079834,0.300781,-0.152085,-0.9447,9.748913,-0.001785,-0.008186,-0.000793,0.348145,-0.090332,-0.500244
1.056798,-0.543683,9.763177,-0.003072,0.003644,-0.001133,-0.062256,0.385986,-0.580566,-0.239501,3.568197,9.153113,-0.008224,0.006074,0.004599,-0.566895,-0.032715,-0.554199,-0.071798,-0.428282,9.837623,-0.012324,-0.001657,0.002053,-0.59668,0.159912,0.720947,-0.172592,-0.441923,9.846742,-0.017481,-0.014448,0.007678,0.641846,0.07373,0.287354,-0.121704,-0.972614,9.737706,-0.004404,-0.000819,-0.00296,0.344727,-0.10083,-0.511475
1.047223,-0.549975,9.744268,0.002518,0.003047,-0.000957,-0.061035,0.387207,-0.583008,-0.209739,3.539182,9.123546,-0.017763,0.006937,0.003636,-0.566162,-0.030518,-0.558838,-0.088762,-0.417175,9.851021,0.001546,0.014421,0.001598,-0.591553,0.177734,0.722412,-0.142826,-0.44378,9.838687,0.000341,0.014263,0.00935,0.645996,0.085693,0.290283,-0.153454,-0.963575,9.760874,0.004101,0.002045,-0.001094,0.351318,-0.084961,-0.510498
1.051113,-0.526851,9.765109,0.002916,-1.6e-05,0.000663,-0.054688,0.379395,-0.577881,-0.238706,3.527613,9.144251,-0.008242,0.005674,0.006063,-0.55957,-0.038818,-0.548584,-0.106993,-0.391367,9.858943,0.004627,0.001588,0.001296,-0.597656,0.176758,0.730225,-0.231737,-0.410072,9.85302,0.00442,0.009295,0.011988,0.638184,0.085205,0.297119,-0.161395,-0.930056,9.736669,0.004742,-0.006016,-0.00456,0.34082,-0.089355,-0.502197
1.059645,-0.536245,9.76931,9e-05,0.002612,-0.000415,-0.057373,0.384521,-0.58252,-0.201573,3.54788,9.154834,-0.007116,0.003336,0.004705,-0.561279,-0.031982,-0.554688,-0.058624,-0.399909,9.850694,-0.01031,-0.000797,0.001809,-0.598145,0.176514,0.724121,-0.172319,-0.423042,9.843348,-0.014191,-0.019697,0.006784,0.638672,0.086426,0.290039,-0.10982,-0.957096,9.745924,-0.005565,-0.004064,-0.001979,0.34082,-0.08667,-0.510254
1.050953,-0.543026,9.815879,0.005201,-0.000458,0.000745,-0.053955,0.380615,-0.580811,-0.219497,3.546231,9.141556,-0.010408,0.010584,0.004459,-0.558838,-0.039307,-0.552979,-0.075018,-0.430636,9.823837,-0.012645,0.012396,0.001837,-0.604004,0.18042,0.72998,-0.144969,-0.449985,9.847796,-0.007969,0.015621,0.011373,0.635498,0.092285,0.296875,-0.13848,-0.959481,9.761208,0.001146,0.00614,-0.002945,0.338867,-0.083252,-0.503662
1.058934,-0.544069,9.747463,0.002322,0.003906,-0.000126,-0.057373,0.385986,-0.584473,-0.243564,3.546678,9.135722,-0.012281,0.004362,0.004034,-0.561035,-0.033691,-0.557373,-0.109637,-0.410128,9.829014,-0.005644,0.002408,-0.001002,-0.602539,0.166992,0.73291,-0.244309,-0.423598,9.849288,-0.003729,0.013474,0.012707,0.632568,0.081299,0.302246,-0.172218,-0.939559,9.744418,0.000828,-0.005983,-0.002728,0.334473,-0.095703,-0.501465
1.040599,-0.530962,9.746419,-0.000541,0.002187,-0.000997,-0.056396,0.385498,-0.579834,-0.203775,3.531205,9.135607,-0.01216,0.006306,0.004948,-0.558838,-0.036865,-0.552002,-0.052308,-0.424622,9.842426,-0.007941,-0.003136,0.003317,-0.598145,0.167969,0.72876,-0.176874,-0.444217,9.858575,-0.012025,-0.021605,0.004416,0.637939,0.080811,0.292969,-0.109812,-0.952762,9.737798,-0.006839,-0.005812,-0.001233,0.344482,-0.090332,-0.50708
1.057802,-0.541899,9.776736,-0.006373,0.002219,-0.002323,-0.057617,0.383057,-0.580322,-0.233773,3.536718,9.123003,-0.004281,0.009751,0.005026,-0.562256,-0.034912,-0.553711,-0.086133,-0.416283,9.81798,-0.003756,0.017342,0.002377,-0.595703,0.168945,0.727295,-0.145568,-0.442583,9.841293,-0.000606,0.014668,0.012578,0.637939,0.079346,0.293213,-0.153592,-0.976657,9.740968,0.005771,0.007579,-0.005678,0.34082,-0.093262,-0.506104
1.040305,-0.559252,9.775041,-0.0017,-0.000556,-0.00148,-0.064209,0.385498,-0.572266,-0.21385,3.554216,9.146933,-0.008904,0.000437,0.003657,-0.567871,-0.031494,-0.547119,-0.103426,-0.404275,9.866602,-0.002537,-0.001004,-6.8e-05,-0.601318,0.172607,0.726318,-0.246854,-0.436758,9.84605,-0.004151,0.012476,0.01083,0.637207,0.082031,0.291748,-0.158968,-0.930117,9.760612,0.003433,-0.010454,-0.002526,0.341309,-0.089111,-0.509521
1.053083,-0.556019,9.777974,0.000671,0.003194,-0.00072,-0.056152,0.386719,-0.583252,-0.201941,3.533333,9.138995,-0.016397,0.011996,0.006341,-0.559082,-0.029541,-0.553467,-0.055623,-0.400901,9.817617,-0.00596,-0.001424,0.002492,-0.596924,0.170654,0.725342,-0.168205,-0.439642,9.861843,-0.009873,-0.020727,0.00658,0.640381,0.083496,0.292236,-0.094246,-0.948208,9.73817,-0.004275,-0.005212,-0.000761,0.343018,-0.090088,-0.512451
1.052175,-0.542693,9.763732,-0.00025,0.002595,0.001038,-0.06665,0.388428,-0.582275,-0.231251,3.525315,9.132133,-0.007723,0.005892,0.00385,-0.568359,-0.029785,-0.556396,-0.088657,-0.405183,9.833898,-0.008673,0.017253,0.000493,-0.584717,0.172363,0.732422,-0.135475,-0.419517,9.850622,-0.002759,0.014522,0.011331,0.651367,0.084229,0.297363,-0.154885,-0.941287,9.776673,0.001941,0.010098,-0.004458,0.355957,-0.087402,-0.505859
1.051914,-0.549078,9.770946,0.002478,0.000279,0.000345,-0.056396,0.394531,-0.579102,-0.21137,3.544235,9.142464,-0.007442,0.005307,0.00351,-0.559082,-0.024658,-0.54834,-0.110656,-0.414153,9.823044,-0.014767,-0.005214,0.003719,-0.595215,0.174316,0.728027,-0.238044,-0.427534,9.861546,-0.015591,0.011191,0.011117,0.640869,0.085693,0.294678,-0.155855,-0.960489,9.740793,-0.008685,-0.012707,-0.001586,0.34668,-0.086914,-0.507324
1.047265,-0.538995,9.779928,0.001794,0.001589,-2.8e-05,-0.047607,0.384277,-0.590332,-0.228363,3.528255,9.148292,-0.010232,0.00669,0.004737,-0.551758,-0.031982,-0.559326,-0.057408,-0.432856,9.86358,-0.004537,0.006135,0.001108,-0.591797,0.168701,0.733887,-0.182291,-0.466396,9.86429,-0.004793,-0.01585,0.004734,0.640869,0.082031,0.29834,-0.116203,-0.967932,9.729682,0.006228,-0.000215,-0.00166,0.346436,-0.091553,-0.501465
1.060019,-0.54485,9.760873,-0.000246,0.001015,-5.5e-05,-0.052246,0.38501,-0.591064,-0.217188,3.521991,9.121123,-0.012863,0.005545,0.004708,-0.556641,-0.033203,-0.562012,-0.098619,-0.416159,9.839118,0.003029,0.013709,0.000758,-0.59375,0.175781,0.730469,-0.148009,-0.426002,9.859231,0.006615,0.009553,0.012413,0.644531,0.085693,0.29541,-0.16108,-0.936855,9.756664,0.011246,0.00501,-0.008233,0.345703,-0.086426,-0.508789
1.064018,-0.537859,9.766857,0.00466,0.00173,-0.000251,-0.060547,0.38916,-0.584229,-0.208522,3.534667,9.137841,-0.007372,0.00823,0.004357,-0.564697,-0.031738,-0.55542,-0.101748,-0.390644,9.828049,-0.000905,-0.002274,0.00202,-0.596191,0.168945,0.723877,-0.217721,-0.410478,9.85909,-0.009909,0.009888,0.009467,0.640381,0.078857,0.29126,-0.130114,-0.94039,9.749364,-0.011256,-0.014028,0.002143,0.343506,-0.094238,-0.508789
1.050534,-0.541847,9.763955,-0.010209,0.001636,-0.001229,-0.05835,0.381348,-0.581055,-0.22052,3.526701,9.144851,-0.013054,0.00418,0.005185,-0.563477,-0.040527,-0.552734,-0.046532,-0.40731,9.855058,-0.015873,0.002772,0.002566,-0.59668,0.175293,0.736328,-0.171935,-0.448962,9.861359,-0.014778,-0.012641,0.006667,0.641113,0.087158,0.300781,-0.116039,-0.962226,9.721695,-0.003338,0.007701,-0.004346,0.34375,-0.084473,-0.498535
1.050095,-0.562227,9.785492,0.006158,0.004491,-0.001219,-0.058838,0.390137,-0.580811,-0.222324,3.539408,9.126364,-0.001785,0.00896,0.004145,-0.562744,-0.027344,-0.55249,-0.105481,-0.437818,9.836299,-0.012107,0.015411,0.002748,-0.598145,0.171875,0.734863,-0.160708,-0.452511,9.830852,-0.004213,0.010763,0.010603,0.63916,0.082275,0.299072,-0.177696,-0.954671,9.784168,0.005238,0.001513,-0.001905,0.342285,-0.088867,-0.5
1.040332,-0.538558,9.767129,-0.001073,0.001449,0.000194,-0.057373,0.38501,-0.595459,-0.243398,3.569481,9.151525,-0.01237,0.004955,0.00542,-0.563477,-0.03418,-0.568848,-0.102171,-0.420975,9.82522,0.001217,-0.001503,-0.001156,-0.600098,0.178955,0.725098,-0.228964,-0.417895,9.836802,0.005359,0.00947,0.0105,0.638916,0.09082,0.292969,-0.13981,-0.955157,9.765164,0.005135,-0.010709,-0.003185,0.342285,-0.081055,-0.511719
1.066438,-0.554433,9.7653,0.002039,0.000574,2.7e-05,-0.062256,0.385742,-0.58374,-0.194124,3.517656,9.119578,-0.018086,0.002288,0.004714,-0.563965,-0.031738,-0.556396,-0.055237,-0.403273,9.841229,-0.001259,0.000927,0.000269,-0.593018,0.164795,0.727051,-0.160679,-0.428352,9.849185,-0.01207,-0.018805,0.008909,0.63916,0.078369,0.294922,-0.112645,-0.942686,9.733731,-0.006368,-0.000262,-0.001483,0.34375,-0.09668,-0.506348
1.043927,-0.532052,9.773129,-0.002683,0.003506,-0.001702,-0.054932,0.381348,-0.571045,-0.236105,3.525035,9.148847,0.00056,0.01069,0.004519,-0.558838,-0.037598,-0.544678,-0.113549,-0.404267,9.833136,-0.008875,0.014769,0.001353,-0.595947,0.174561,0.728271,-0.150574,-0.431898,9.849524,-0.009212,0.014824,0.008517,0.641357,0.084473,0.294434,-0.153094,-0.954628,9.732867,-0.000495,0.005104,-0.002731,0.343994,-0.08667,-0.509033
1.056748,-0.564959,9.782732,-0.000103,0.001893,-0.000678,-0.060547,0.386963,-0.585205,-0.22288,3.563612,9.133308,-0.007546,0.001992,0.004122,-0.563721,-0.030762,-0.558838,-0.099703,-0.419007,9.854754,-0.012555,-0.001858,0.002609,-0.598145,0.174805,0.726318,-0.234804,-0.444613,9.870545,-0.008983,0.013596,0.013426,0.640869,0.084717,0.294678,-0.153297,-0.954541,9.756781,0.000126,-0.006735,-0.006029,0.343506,-0.084473,-0.506592
1.059806,-0.53094,9.760158,0.008537,0.005317,0.00173,-0.05542,0.383545,-0.585449,-0.211954,3.552125,9.147325,-0.016739,0.008712,0.005897,-0.557617,-0.034424,-0.560303,-0.061509,-0.425678,9.838392,-0.004512,-0.001285,0.001052,-0.591309,0.175049,0.727783,-0.192958,-0.440746,9.844494,-0.001556,-0.021237,0.00465,0.64624,0.084473,0.295654,-0.121641,-0.95793,9.725586,0.002133,-0.004067,0.002516,0.351318,-0.08667,-0.506592
1.037611,-0.544479,9.77463,-0.00889,-0.000829,-0.00137,-0.055664,0.391113,-0.58667,-0.237955,3.508704,9.129465,-0.01459,0.005581,0.004501,-0.560303,-0.027588,-0.559326,-0.090416,-0.425164,9.827557,0.000469,0.014991,0.000417,-0.593262,0.177002,0.72876,-0.140853,-0.411726,9.868189,7.4e-05,0.010917,0.013902,0.643311,0.087891,0.293213,-0.138303,-0.949985,9.733239,0.003987,0.006069,-0.008612,0.345459,-0.080811,-0.507324
1.050731,-0.548171,9.784691,0.005438,0.001453,-0.001384,-0.05835,0.386475,-0.572021,-0.207135,3.53355,9.133648,0.00224,0.006772,0.003944,-0.562988,-0.033691,-0.547119,-0.126798,-0.404963,9.846345,-0.007008,-0.001712,0.001866,-0.591797,0.161377,0.729492,-0.233937,-0.432952,9.854864,-0.018426,0.015413,0.010254,0.645996,0.072266,0.294434,-0.145144,-0.952241,9.745022,-0.007822,-0.005896,0.001606,0.346924,-0.096436,-0.505859
1.045669,-0.534305,9.757356,-0.002388,0.002334,-0.000761,-0.054443,0.38623,-0.576904,-0.233942,3.570415,9.138377,-0.010085,0.007671,0.005721,-0.557129,-0.031982,-0.552734,-0.063885,-0.41412,9.819174,-0.005528,0.002713,0.001349,-0.599365,0.160889,0.727295,-0.195157,-0.445697,9.844228,-0.003145,-0.01623,0.006643,0.637207,0.073242,0.296143,-0.133092,-0.966758,9.757306,0.006616,-0.003101,-0.003366,0.3396,-0.101318,-0.506836
1.05437,-0.551277,9.768668,-0.002477,-0.000279,-0.000346,-0.057373,0.382812,-0.581787,-0.214049,3.520473,9.134337,-0.024267,0.002755,0.005592,-0.565186,-0.034668,-0.554932,-0.088567,-0.411031,9.851571,-0.010663,0.008987,0.000676,-0.591553,0.170654,0.725098,-0.133624,-0.426915,9.865353,0.001896,0.001895,0.012288,0.64502,0.083984,0.289551,-0.143174,-0.928025,9.748953,-0.000255,0.001021,-0.00338,0.349609,-0.087158,-0.512695
1.036378,-0.528939,9.789569,0.003148,0.003475,-0.000373,-0.058838,0.382812,-0.587402,-0.226021,3.513778,9.12778,-0.000181,0.010897,0.004222,-0.5625,-0.037598,-0.559082,-0.089074,-0.426368,9.821756,-0.009221,0.001507,0.003596,-0.591797,0.165527,0.727295,-0.204182,-0.42162,9.862106,-0.014655,0.0185,0.006293,0.645752,0.077393,0.292725,-0.149113,-0.983884,9.737074,-0.010729,-0.002008,0.000433,0.348389,-0.09668,-0.507812
1.066501,-0.547722,9.7717,-0.002093,0.001162,0.00018,-0.057861,0.38208,-0.581787,-0.231344,3.557196,9.161253,-0.003951,0.003325,0.00405,-0.564941,-0.035156,-0.552002,-0.081301,-0.432522,9.843397,0.000262,0.005928,0.00064,-0.59375,0.171387,0.729736,-0.198263,-0.452607,9.853268,-0.004228,-0.007789,0.011659,0.642334,0.08374,0.293701,-0.138249,-0.969069,9.745201,0.01244,-0.003485,-0.007354,0.345703,-0.091309,-0.505615
1.061863,-0.531487,9.773477,0.002187,-0.000128,-0.001689,-0.057129,0.385986,-0.581055,-0.212646,3.537517,9.118515,-0.018039,0.005231,0.005552,-0.560791,-0.033447,-0.552734,-0.086025,-0.409597,9.845906,-0.005007,0.002859,0.001656,-0.592529,0.170166,0.731201,-0.154588,-0.433086,9.842629,-0.004586,-0.007799,0.009081,0.644531,0.081787,0.299561,-0.145778,-0.935173,9.72105,-0.000321,-0.00436,-0.000803,0.347412,-0.091064,-0.502441
1.053112,-0.548568,9.79798,-0.004575,0.002463,0.000928,-0.056396,0.390381,-0.582275,-0.239595,3.503471,9.122566,-0.01256,0.007502,0.006674,-0.559814,-0.029053,-0.554932,-0.090341,-0.427994,9.84322,-0.011049,0.006859,0.002999,-0.592529,0.168701,0.732422,-0.185944,-0.434398,9.850465,-0.005993,0.019185,0.010459,0.641602,0.080566,0.297119,-0.143484,-0.970277,9.733205,-0.005734,0.003589,-0.000824,0.346924,-0.092041,-0.502441
1.056827,-0.55405,9.752793,0.006068,0.001879,-0.000802,-0.059082,0.381348,-0.578369,-0.209535,3.539445,9.135096,0.001929,0.003457,0.003506,-0.563477,-0.038574,-0.552246,-0.101203,-0.411705,9.851145,-0.002469,0.003861,0.00173,-0.595459,0.176758,0.724121,-0.238228,-0.436421,9.866649,-0.002145,-0.001541,0.01029,0.640137,0.0896,0.29126,-0.171331,-0.948402,9.752445,0.00714,-0.003707,-0.005007,0.345459,-0.083496,-0.512207
1.038629,-0.524354,9.766579,0.000577,0.002162,0.000789,-0.05835,0.385254,-0.585938,-0.212644,3.560138,9.152231,-0.012875,0.009475,0.005484,-0.563965,-0.032471,-0.560791,-0.075911,-0.428059,9.845785,-0.003,0.002287,0.001115,-0.596924,0.167236,0.726562,-0.155261,-0.424363,9.836234,-0.008666,-0.012085,0.006972,0.636719,0.078613,0.293457,-0.12194,-0.939936,9.749514,0.000619,-0.005883,-0.001235,0.342041,-0.094482,-0.509033
1.056131,-0.557569,9.78924,-0.004279,0.001057,-0.002505,-0.05542,0.383789,-0.582764,-0.232545,3.513694,9.1272,-0.022394,0.004124,0.005308,-0.5625,-0.034424,-0.549561,-0.082148,-0.420875,9.832102,-0.010623,0.009568,0.00156,-0.599609,0.17627,0.730713,-0.15776,-0.432143,9.854667,-0.006076,0.019528,0.013826,0.637939,0.087646,0.296143,-0.141027,-0.95147,9.769066,-0.005971,0.008389,-0.004374,0.34082,-0.085938,-0.505859
1.060007,-0.544448,9.78804,0.004221,0.002026,-0.000566,-0.060791,0.379883,-0.583984,-0.204634,3.505528,9.127753,0.001332,0.006012,0.00266,-0.56543,-0.037109,-0.556641,-0.103812,-0.428942,9.856413,-0.007707,-6.2e-05,0.003324,-0.597168,0.169922,0.726318,-0.230417,-0.435801,9.879173,-0.007285,-0.000167,0.008681,0.637207,0.080322,0.291016,-0.163866,-0.97098,9.736707,-0.002342,-0.008465,-0.00095,0.342285,-0.089355,-0.51001
1.050661,-0.550907,9.769089,-0.006229,0.003097,-0.002948,-0.061279,0.384277,-0.583008,-0.232984,3.549876,9.16827,-0.009012,0.009812,0.00654,-0.564941,-0.036133,-0.557617,-0.065341,-0.421019,9.821047,-0.008091,0.004,0.000994,-0.594727,0.164795,0.72876,-0.14901,-0.44254,9.842639,-0.005722,-0.013724,0.008138,0.642822,0.076172,0.294678,-0.107994,-0.961169,9.745798,0.005165,-0.002059,-0.002413,0.344727,-0.096924,-0.50293
1.058598,-0.570106,9.751339,0.005428,0.004614,0.000805,-0.060547,0.392334,-0.578613,-0.226889,3.53715,9.126296,-0.014313,0.005427,0.002689,-0.564453,-0.025635,-0.551758,-0.084836,-0.438718,9.837341,-0.000191,0.010647,0.002139,-0.600098,0.172607,0.731445,-0.170904,-0.447253,9.860212,-0.000217,0.021031,0.010897,0.635498,0.085449,0.297363,-0.167868,-0.953445,9.760552,0.00115,0.005053,-0.004064,0.341553,-0.088623,-0.504639
1.044382,-0.527276,9.763909,0.001891,0.001277,0.001745,-0.060547,0.389893,-0.577637,-0.233852,3.538851,9.120835,-0.009588,0.007494,0.004972,-0.563477,-0.026367,-0.551514,-0.115162,-0.411563,9.850732,0.005109,0.001147,0.000733,-0.600586,0.16748,0.727783,-0.240901,-0.430749,9.860056,0.001949,0.001417,0.009722,0.635986,0.081299,0.293213,-0.154886,-0.943538,9.75286,0.005618,-0.012914,-0.002424,0.339844,-0.092773,-0.508789
1.053398,-0.543681,9.775225,-0.002132,-0.001841,-0.002894,-0.057617,0.387451,-0.576904,-0.211303,3.519119,9.147551,-0.009043,0.002423,0.003502,-0.561279,-0.029785,-0.550537,-0.060125,-0.399899,9.853347,-0.010557,0.00272,0.002386,-0.591064,0.172363,0.724609,-0.168834,-0.417905,9.860065,-0.015453,-0.016554,0.006845,0.641602,0.085449,0.292236,-0.092513,-0.955909,9.74622,-0.005813,0.001819,-0.00441,0.347412,-0.087158,-0.510254
1.075478,-0.556852,9.789459,0.000676,0.001616,-0.001812,-0.053223,0.382568,-0.582275,-0.218706,3.536283,9.122683,-0.006267,0.009405,0.00525,-0.559082,-0.032715,-0.553467,-0.08633,-0.440662,9.823591,-0.019377,0.009226,0.004259,-0.603271,0.164795,0.733398,-0.152908,-0.454162,9.860869,-0.013472,0.018205,0.010633,0.635498,0.075684,0.297607,-0.166686,-0.977808,9.756657,-0.006675,0.005109,-0.00039,0.340088,-0.096924,-0.501465
1.048379,-0.540638,9.791388,0.001104,0.004481,0.000694,-0.053467,0.383057,-0.575684,-0.237108,3.531128,9.136759,-0.01268,0.005982,0.004287,-0.556641,-0.035156,-0.549316,-0.108269,-0.449316,9.847848,-0.003596,0.002426,-0.000665,-0.591309,0.172607,0.736816,-0.233363,-0.444527,9.847842,0.001393,0.00978,0.012315,0.644775,0.083984,0.302002,-0.158912,-0.95227,9.748694,0.007996,-0.007713,-0.00483,0.349121,-0.086182,-0.500488
1.064643,-0.533056,9.771211,0.00334,0.004197,-0.000108,-0.061035,0.393066,-0.581543,-0.203996,3.532563,9.124971,-0.01235,0.004419,0.004012,-0.565918,-0.024658,-0.55542,-0.060612,-0.417503,9.844984,0.001639,0.000151,0.002397,-0.594238,0.168701,0.728027,-0.181232,-0.428399,9.847011,-0.0043,-0.020701,0.007533,0.641846,0.07959,0.29541,-0.124181,-0.942198,9.737453,-0.000903,-0.001743,-0.002922,0.345947,-0.091553,-0.507324
1.042029,-0.526711,9.764191,-0.003989,0.001465,-0.000472,-0.0625,0.38208,-0.587158,-0.244922,3.530358,9.13223,-0.008504,0.009627,0.005794,-0.567383,-0.034424,-0.561035,-0.084675,-0.425278,9.847709,-0.001329,0.012926,-0.000223,-0.594238,0.172607,0.732178,-0.141619,-0.433332,9.8488,-0.003179,0.013396,0.01025,0.643555,0.084473,0.300049,-0.148082,-0.960479,9.753028,0.000293,0.002388,-0.002109,0.345703,-0.08667,-0.502686
1.055749,-0.566732,9.78086,-0.002615,-0.002737,-0.000819,-0.052734,0.386475,-0.583252,-0.21192,3.531075,9.133739,-0.007244,0.000445,0.003837,-0.560059,-0.032471,-0.555908,-0.112364,-0.410963,9.852948,-0.00983,0.00022,0.001499,-0.598145,0.17334,0.73291,-0.233967,-0.431827,9.863086,-0.010211,0.014266,0.012405,0.63916,0.085205,0.297607,-0.152113,-0.944399,9.75282,-0.001888,-0.005972,-0.005231,0.342773,-0.088379,-0.500977
1.055464,-0.557234,9.802902,0.003532,0.004918,0.000155,-0.053467,0.383545,-0.581787,-0.202793,3.545667,9.136813,-0.010551,0.01122,0.005864,-0.556396,-0.033936,-0.553223,-0.061902,-0.419761,9.831241,-0.012329,-0.000204,0.002308,-0.599609,0.168701,0.727295,-0.183369,-0.439635,9.83442,-0.010771,-0.020373,0.00471,0.639404,0.08252,0.295654,-0.118613,-0.982944,9.733734,-0.00271,-0.001798,0.000584,0.340332,-0.0896,-0.506104
1.058599,-0.54003,9.765446,-0.001758,0.002761,-0.00018,-0.052246,0.387695,-0.574463,-0.242637,3.53169,9.13601,-0.017774,0.003296,0.006721,-0.553467,-0.03125,-0.545898,-0.08779,-0.431516,9.84741,-0.005097,0.012002,0.000551,-0.595703,0.168213,0.730469,-0.124906,-0.44345,9.858714,0.003184,0.011953,0.014577,0.641357,0.080322,0.298584,-0.151288,-0.944868,9.752787,0.003633,0.003889,-0.007183,0.342529,-0.091309,-0.504395
1.058202,-0.562081,9.757865,0.006747,0.00215,0.000668,-0.054443,0.383545,-0.588135,-0.220251,3.528083,9.130066,-0.001831,0.00507,0.003378,-0.558838,-0.03418,-0.557617,-0.094213,-0.423807,9.833754,-0.004497,0.001578,0.001654,-0.599365,0.165527,0.728516,-0.225785,-0.443226,9.850992,-0.009811,0.011627,0.009645,0.639404,0.079346,0.293457,-0.15091,-0.945076,9.752773,-0.005241,-0.006386,0.000961,0.3396,-0.094727,-0.507324
1.03986,-0.519589,9.757276,-0.003989,0.001465,-0.000472,-0.067871,0.383301,-0.581787,-0.245344,3.539379,9.145598,-0.007419,0.008266,0.004365,-0.569092,-0.033936,-0.556152,-0.071681,-0.429154,9.836486,0.000325,0.00422,0.001809,-0.590088,0.166504,0.734131,-0.186925,-0.448972,9.852746,-0.003941,-0.012869,0.007715,0.645996,0.080566,0.298584,-0.135798,-0.969948,9.757255,0.00845,-0.001068,-0.003965,0.348633,-0.09082,-0.505615
1.062251,-0.562468,9.770979,-0.000625,-0.002006,-0.001676,-0.05835,0.38501,-0.580078,-0.201042,3.546662,9.12774,-0.015951,0.001725,0.005594,-0.5625,-0.03418,-0.549805,-0.089392,-0.404938,9.844432,-0.006876,0.007646,0.00017,-0.601318,0.173096,0.729492,-0.144413,-0.438509,9.839128,-0.002071,0.000894,0.011416,0.634277,0.084961,0.295898,-0.143906,-0.93655,9.733054,-0.000328,-0.002553,-0.003887,0.336426,-0.088135,-0.505615
1.061986,-0.543311,9.815035,0.003827,0.003746,0.001097,-0.056152,0.387207,-0.58374,-0.234219,3.516036,9.138499,-0.008018,0.010828,0.003522,-0.559082,-0.029541,-0.558105,-0.083102,-0.426623,9.849852,-0.008963,0.002302,0.003887,-0.594482,0.165283,0.726318,-0.195427,-0.431528,9.858348,-0.009251,0.013138,0.00826,0.641602,0.07959,0.292969,-0.141195,-0.971706,9.745209,-0.006162,-0.001085,0.001224,0.345703,-0.092041,-0.506104
1.065565,-0.564746,9.755047,-0.001855,0.003074,-0.001951,-0.053955,0.388672,-0.574707,-0.220277,3.538848,9.142797,-0.010273,0.001861,0.004002,-0.560059,-0.029297,-0.549072,-0.094711,-0.425025,9.841612,-0.005103,0.005431,-9.4e-05,-0.602539,0.165527,0.721191,-0.207829,-0.451092,9.851611,-0.008487,-0.005613,0.010269,0.634521,0.080811,0.288086,-0.143829,-0.961239,9.729109,0.003862,0.000896,-0.006716,0.339111,-0.091309,-0.51416
1.05994,-0.528314,9.735421,0.004118,0.003921,-0.001241,-0.061035,0.387207,-0.583252,-0.219288,3.515105,9.126723,-0.006546,0.010411,0.004136,-0.566406,-0.0271,-0.554932,-0.082726,-0.440646,9.841615,-0.006703,0.006229,0.003689,-0.596924,0.170166,0.724121,-0.158377,-0.458337,9.853817,-0.008695,-0.002923,0.007221,0.640625,0.082764,0.290771,-0.140015,-0.948195,9.749058,-0.002165,-0.0053,0.000908,0.34082,-0.087646,-0.511719
1.05119,-0.535908,9.781924,-0.005679,-0.00202,0.000231,-0.054932,0.385742,-0.58667,-0.251292,3.540818,9.144525,-0.010969,0.004587,0.006015,-0.558105,-0.031006,-0.557373,-0.09169,-0.422125,9.836042,-0.003281,0.00522,0.000836,-0.598389,0.170898,0.737549,-0.197446,-0.442804,9.845747,0.00133,0.017208,0.012373,0.637695,0.08374,0.301514,-0.141318,-0.966262,9.737197,0.003549,0.001404,-0.006572,0.340088,-0.09082,-0.501465
1.059915,-0.555464,9.764081,0.002079,0.003346,-0.00127,-0.062744,0.384277,-0.57959,-0.194311,3.528382,9.13124,-0.011684,0.005208,0.004247,-0.564453,-0.033936,-0.554688,-0.092504,-0.422703,9.83601,-0.001446,0.001292,0.001735,-0.5979,0.168213,0.72998,-0.206547,-0.423668,9.851423,-0.004631,-0.009248,0.00719,0.63623,0.08252,0.295898,-0.145827,-0.949483,9.76096,-0.00062,-0.004941,-0.001778,0.341309,-0.091064,-0.505859
1.050887,-0.556143,9.803456,-0.001506,0.000164,-0.001219,-0.057617,0.38208,-0.587646,-0.231447,3.545798,9.147864,-0.005813,0.010204,0.004445,-0.558838,-0.037109,-0.558594,-0.072735,-0.417934,9.811601,-0.007531,0.004727,0.002182,-0.595703,0.169189,0.723389,-0.148839,-0.443872,9.860282,-0.009513,-0.000544,0.009028,0.642334,0.083984,0.288818,-0.132393,-0.969343,9.757362,0.000772,0.000179,-0.001343,0.34375,-0.092041,-0.512695
1.054563,-0.555102,9.751106,0.001833,0.004363,-0.001325,-0.05957,0.392578,-0.581299,-0.231289,3.534518,9.126594,-0.013542,0.002888,0.004573,-0.566162,-0.025635,-0.553467,-0.098645,-0.429696,9.827727,-0.009898,0.007083,0.000666,-0.601318,0.169434,0.723877,-0.199175,-0.440552,9.857874,-0.006241,0.014528,0.012315,0.633301,0.083252,0.291748,-0.142116,-0.960606,9.753104,-0.002574,0.001202,-0.003553,0.335449,-0.088867,-0.510254
1.053349,-0.524786,9.751776,0.006501,0.003168,0.000615,-0.052246,0.38623,-0.577637,-0.215759,3.531731,9.141557,-0.005743,0.009635,0.00305,-0.556885,-0.034912,-0.551758,-0.076421,-0.436404,9.830414,-0.005246,0.001224,0.00192,-0.596924,0.169434,0.727539,-0.212725,-0.456207,9.872734,-0.00565,-0.003454,0.006875,0.63916,0.080811,0.29248,-0.14291,-0.955688,9.745031,-0.00113,-0.005423,-0.001256,0.343018,-0.091797,-0.509766
1.049105,-0.551449,9.767346,-0.009081,-0.001554,-0.001641,-0.057617,0.38208,-0.574951,-0.239566,3.532503,9.135542,-0.015997,0.003131,0.004057,-0.560791,-0.03418,-0.546387,-0.087054,-0.419498,9.838407,-0.003077,0.007719,-1.8e-05,-0.591797,0.171631,0.721436,-0.158861,-0.431646,9.844184,-0.000944,-0.002335,0.01205,0.644531,0.088867,0.287354,-0.129104,-0.951536,9.745317,0.004673,0.001961,-0.006266,0.350342,-0.088623,-0.513428
1.057895,-0.545886,9.786312,0.002961,0.001176,-0.001727,-0.064209,0.387451,-0.579346,-0.205378,3.523403,9.115303,-0.005674,0.007268,0.00464,-0.562988,-0.033936,-0.554443,-0.06607,-0.440057,9.824921,-0.006025,0.001725,0.001608,-0.599609,0.167725,0.733154,-0.190566,-0.436055,9.861224,-0.011581,0.010191,0.008289,0.639404,0.081055,0.299072,-0.155562,-0.959174,9.744827,-0.00594,-0.002274,-0.00139,0.341309,-0.092529,-0.504883
1.066048,-0.548675,9.783405,-0.000595,0.003926,-0.000787,-0.060303,0.380371,-0.585693,-0.253833,3.533574,9.151514,-0.009602,0.007932,0.003511,-0.563232,-0.038574,-0.555176,-0.09039,-0.436278,9.82208,-0.00275,0.006794,0.001453,-0.59375,0.169434,0.72998,-0.193925,-0.45618,9.854927,-0.002419,0.002338,0.010681,0.640869,0.080322,0.297119,-0.139092,-0.966279,9.761135,0.00531,-0.00086,-0.003472,0.343018,-0.092773,-0.506348
1.06098,-0.554716,9.777585,0.003783,0.002323,-0.000881,-0.062256,0.390625,-0.582275,-0.208594,3.530001,9.125331,-0.013266,0.002308,0.004227,-0.567871,-0.028564,-0.553467,-0.093265,-0.411972,9.846323,-0.006352,0.002651,0.000136,-0.600342,0.17041,0.735107,-0.190917,-0.435468,9.851843,-0.004207,-0.00753,0.009971,0.635254,0.083984,0.302246,-0.143226,-0.949439,9.761003,-0.000642,-0.002046,-0.003744,0.3396,-0.087402,-0.501709
1.047224,-0.534821,9.782409,0.000676,0.001617,-0.001812,-0.056885,0.384766,-0.58252,-0.236941,3.509969,9.123279,-0.006706,0.013362,0.00395,-0.559326,-0.032959,-0.552734,-0.075255,-0.449718,9.830128,-0.00909,0.00573,0.001556,-0.596924,0.180664,0.732178,-0.170312,-0.427123,9.846525,-0.010711,0.010127,0.008437,0.638672,0.092041,0.296143,-0.138912,-0.96101,9.729203,-0.003521,-0.002863,0.000134,0.34375,-0.079102,-0.505859
1.043037,-0.564364,9.768791,-0.004564,-0.000699,-0.001264,-0.062012,0.380371,-0.577637,-0.246858,3.54534,9.142721,-0.009247,-0.000314,0.005483,-0.564697,-0.036865,-0.549316,-0.107017,-0.439118,9.86243,-0.002555,0.007864,0.000293,-0.604004,0.173828,0.730713,-0.213693,-0.433532,9.872315,-0.002181,0.007471,0.011353,0.633545,0.087646,0.298096,-0.160662,-0.960749,9.756718,0.005809,0.00143,-0.007079,0.334961,-0.086426,-0.502197
1.073578,-0.551243,9.78058,0.004324,0.000135,0.000114,-0.059814,0.38208,-0.580322,-0.200972,3.525873,9.148993,-0.008945,0.008296,0.005215,-0.564941,-0.03833,-0.552734,-0.093768,-0.427022,9.838021,-0.004682,-0.003204,0.002775,-0.596436,0.171631,0.717773,-0.173102,-0.439398,9.843257,-0.010417,-0.011069,0.006714,0.639648,0.085938,0.285156,-0.123195,-0.962069,9.737545,-0.003172,-0.007354,0.000835,0.342773,-0.085205,-0.518311
1.059907,-0.538461,9.792541,-0.003414,0.003628,0.000317,-0.057373,0.381348,-0.576904,-0.25954,3.53665,9.136868,-0.016117,0.008599,0.006182,-0.561523,-0.037842,-0.550049,-0.067345,-0.429265,9.848889,-0.004524,0.009014,0.001717,-0.594971,0.164062,0.7229,-0.155024,-0.442605,9.874978,0.000536,0.009105,0.011222,0.642578,0.077881,0.289307,-0.135933,-0.965835,9.737316,0.003011,0.003099,-0.003814,0.345215,-0.095703,-0.510498
1.054678,-0.547277,9.757563,0.006355,0.003639,-0.00204,-0.05542,0.383789,-0.587402,-0.203094,3.522278,9.137356,-0.006967,0.003777,0.004282,-0.561035,-0.032959,-0.560791,-0.108818,-0.428028,9.84326,-0.006825,0.004514,0.00102,-0.600342,0.16626,0.723633,-0.214037,-0.424888,9.865967,-0.008619,0.009998,0.011301,0.63623,0.078125,0.289062,-0.160945,-0.954944,9.748741,-0.001687,-0.000116,-0.004663,0.338867,-0.093506,-0.511719
1.058123,-0.533245,9.756462,0.001108,0.002903,-0.000399,-0.054199,0.388184,-0.580566,-0.251933,3.549438,9.140701,-0.003523,0.012913,0.004778,-0.556396,-0.029053,-0.553467,-0.067712,-0.430334,9.835207,-0.005473,0.001013,0.002496,-0.598633,0.176025,0.729492,-0.177223,-0.449731,9.861516,-0.008987,-0.0089,0.006406,0.635986,0.089355,0.296387,-0.135136,-0.966042,9.737307,-0.001157,-0.008114,3.2e-05,0.340088,-0.085205,-0.507324
1.049457,-0.544018,9.773752,-0.006405,-0.002134,-0.002125,-0.062988,0.38623,-0.5896,-0.217336,3.525608,9.13948,-0.019284,-0.001117,0.00534,-0.566895,-0.030518,-0.562256,-0.077672,-0.426296,9.848647,-0.004408,0.008938,-0.00122,-0.600098,0.171875,0.720215,-0.157485,-0.44678,9.874751,-7e-05,0.006014,0.01156,0.636963,0.087158,0.288086,-0.146555,-0.951086,9.772911,0.003874,0.004678,-0.006889,0.342285,-0.088379,-0.515625
1.071669,-0.557392,9.78799,0.003496,0.000568,0.000363,-0.057617,0.378174,-0.577881,-0.207259,3.526614,9.148244,-0.005431,0.011573,0.00504,-0.563965,-0.040283,-0.554443,-0.103464,-0.437626,9.82953,-0.008813,0.002804,0.001826,-0.60083,0.166992,0.737061,-0.196608,-0.443818,9.841959,-0.01044,0.007701,0.009842,0.636719,0.082275,0.303223,-0.157753,-0.960801,9.732851,-0.006201,-0.002692,0.003634,0.340332,-0.089844,-0.496338
1.053752,-0.557346,9.801207,0.00028,0.003337,-0.00015,-0.051758,0.394531,-0.585205,-0.249941,3.550983,9.144458,-0.006809,0.004743,0.005272,-0.555908,-0.023193,-0.557373,-0.075349,-0.438059,9.862079,-0.000977,0.004578,0.001191,-0.593262,0.174072,0.725586,-0.187654,-0.440171,9.854697,-0.001689,-0.001752,0.008635,0.643066,0.08374,0.291504,-0.12578,-0.969464,9.733531,0.007294,-0.003591,-0.007192,0.34668,-0.088623,-0.509766
1.057028,-0.549429,9.741747,0.002319,0.003913,-0.00012,-0.055176,0.382568,-0.581055,-0.19833,3.528421,9.14371,-0.015147,0.0053,0.003819,-0.557617,-0.03418,-0.555664,-0.085951,-0.421181,9.834879,-0.007083,0.005159,0.001017,-0.601807,0.171875,0.723145,-0.177734,-0.448663,9.842757,-0.008762,-0.001716,0.010658,0.636719,0.087158,0.291016,-0.142955,-0.932364,9.760958,-0.00055,-0.001367,-0.001273,0.340332,-0.084473,-0.511719
1.047476,-0.527389,9.788822,-0.001171,0.001763,-0.001578,-0.062012,0.388916,-0.573975,-0.255217,3.515891,9.128234,-0.007525,0.010665,0.002786,-0.56665,-0.029785,-0.547363,-0.092465,-0.441215,9.845625,-0.007456,0.00588,0.003952,-0.593262,0.172119,0.734131,-0.178906,-0.444359,9.855006,-0.00674,0.011107,0.009278,0.639404,0.084961,0.301514,-0.143684,-0.980279,9.753201,-0.005192,8e-05,-0.000495,0.34375,-0.092041,-0.501709
1.060861,-0.556315,9.762069,-0.001013,-0.001869,-0.001109,-0.055176,0.379883,-0.582764,-0.223358,3.527168,9.138431,-0.009927,-0.000662,0.003769,-0.559326,-0.035645,-0.557129,-0.100156,-0.435346,9.845525,-0.002522,0.001864,0.000531,-0.595215,0.164307,0.723145,-0.217997,-0.425533,9.868544,-0.00095,-0.001617,0.01295,0.640381,0.080078,0.290039,-0.150748,-0.953059,9.736961,0.006863,-0.001586,-0.007282,0.346436,-0.092529,-0.512207
1.074044,-0.556793,9.801347,0.001306,0.002044,-0.001229,-0.054199,0.389404,-0.582764,-0.214084,3.541449,9.14177,-0.010163,0.011641,0.006523,-0.55835,-0.027832,-0.556152,-0.073387,-0.437562,9.821213,-0.005988,0.002302,0.00249,-0.600342,0.172607,0.728027,-0.157486,-0.439564,9.828101,-0.009783,-0.007113,0.006466,0.636963,0.087402,0.292969,-0.118943,-0.96162,9.737642,-0.004958,-0.002914,-2.8e-05,0.341309,-0.085693,-0.507812
1.047381,-0.556972,9.788339,-0.00258,0.001614,-0.001026,-0.053955,0.379883,-0.581055,-0.237263,3.529505,9.140945,-0.011916,0.003867,0.004703,-0.559082,-0.037842,-0.554688,-0.083422,-0.433705,9.834642,-0.005312,0.008089,0.001097,-0.595215,0.162354,0.723389,-0.1705,-0.436954,9.87999,-0.00399,0.015642,0.012842,0.640381,0.076172,0.291016,-0.155521,-0.960581,9.756817,0.000393,0.002698,-0.00496,0.343018,-0.095459,-0.510986
1.055304,-0.55286,9.778304,0.007224,0.004631,-0.000307,-0.051514,0.379639,-0.583496,-0.203814,3.531747,9.129058,-0.00584,0.004927,0.005175,-0.554932,-0.037109,-0.555176,-0.094042,-0.416877,9.842655,-0.003536,0.000722,0.000489,-0.597412,0.168213,0.726074,-0.209816,-0.433771,9.847186,-0.005534,-0.000154,0.00811,0.639893,0.079834,0.292725,-0.14537,-0.96929,9.761077,0.001709,-0.006208,-0.002729,0.343018,-0.090088,-0.510254
1.041291,-0.542752,9.761125,-0.005884,0.001766,-0.001127,-0.060547,0.388184,-0.575684,-0.245855,3.540471,9.144578,-0.015432,0.009805,0.004962,-0.565186,-0.031982,-0.548584,-0.079466,-0.430633,9.864332,-0.008245,0.004953,0.003329,-0.597412,0.168701,0.728271,-0.152424,-0.448031,9.868422,-0.007699,-0.007248,0.00933,0.63916,0.081543,0.291992,-0.142345,-0.951207,9.749054,-0.001596,0.000563,-0.002192,0.344727,-0.088623,-0.509521
1.071998,-0.572929,9.78674,-0.00039,0.000138,0.000567,-0.061768,0.387207,-0.585938,-0.215893,3.51203,9.114782,-0.008201,0.003215,0.004781,-0.567383,-0.032959,-0.559082,-0.094532,-0.445549,9.853345,-0.007044,0.005736,0.001903,-0.596924,0.172119,0.727051,-0.182213,-0.452805,9.854561,-0.008116,0.011253,0.011529,0.640137,0.084473,0.294189,-0.155816,-0.955411,9.748779,-0.002015,0.001478,-0.0034,0.343506,-0.089111,-0.509277
1.053667,-0.537301,9.793278,0.001203,0.003939,-0.001905,-0.055664,0.387451,-0.582275,-0.225307,3.533208,9.153043,-0.003104,0.009392,0.004636,-0.558838,-0.02832,-0.552979,-0.085743,-0.437417,9.820824,-0.002474,0.003868,0.001728,-0.593994,0.177246,0.728027,-0.204002,-0.454912,9.862777,-0.002437,0.000883,0.008811,0.641113,0.089111,0.294189,-0.137441,-0.967715,9.749226,0.003907,-0.004889,-0.002792,0.345215,-0.081543,-0.504883
1.053405,-0.559946,9.785656,-0.001554,0.000321,-0.002105,-0.058594,0.390625,-0.583984,-0.214645,3.538485,9.13429,-0.01717,0.000642,0.004658,-0.561279,-0.025635,-0.556641,-0.083602,-0.421908,9.823496,-0.004818,0.003943,0.000482,-0.595459,0.166748,0.725342,-0.191879,-0.432478,9.881817,-0.006339,-0.006069,0.009723,0.640137,0.080078,0.290039,-0.147773,-0.952784,9.737034,0.001188,-1.7e-05,-0.00434,0.342285,-0.09375,-0.509033
1.05688,-0.539654,9.77736,0.006006,0.005204,0.00051,-0.054932,0.387451,-0.574707,-0.220154,3.529185,9.120472,-0.008785,0.009693,0.004751,-0.558105,-0.032715,-0.548584,-0.096654,-0.434456,9.834202,-0.006454,0.005595,0.003682,-0.592529,0.170898,0.736816,-0.161028,-0.44099,9.830672,-0.010746,0.008566,0.007374,0.644043,0.084717,0.306152,-0.15102,-0.965871,9.741002,-0.00429,-0.003045,0.001479,0.345703,-0.087402,-0.499023
1.047279,-0.545664,9.75845,-0.003798,0.002186,-0.000211,-0.059082,0.383301,-0.584961,-0.244664,3.526787,9.141528,-0.008304,0.005181,0.004656,-0.563721,-0.034912,-0.557861,-0.091457,-0.442805,9.834165,-0.003795,0.006516,0.000832,-0.601562,0.166504,0.723145,-0.224526,-0.454066,9.852352,-0.000439,0.007325,0.011639,0.638184,0.078857,0.288818,-0.144169,-0.963826,9.753089,0.005097,-3.9e-05,-0.006182,0.342041,-0.089355,-0.514648
1.051479,-0.555628,9.749546,0.000342,1.9e-05,-0.001452,-0.05542,0.391602,-0.581787,-0.210472,3.516195,9.134908,-0.009926,0.003255,0.004568,-0.558105,-0.025635,-0.554443,-0.091198,-0.429933,9.850343,-0.00977,-4.6e-05,0.002935,-0.593506,0.166504,0.730469,-0.192636,-0.431108,9.863083,-0.010846,-0.009136,0.008497,0.645996,0.081299,0.296387,-0.136131,-0.938588,9.745082,-0.006372,-0.005142,-0.002428,0.348633,-0.092285,-0.505615
1.059984,-0.549481,9.768582,-0.001464,0.001588,0.00076,-0.055664,0.38623,-0.584229,-0.225548,3.543069,9.153305,-0.007331,0.010662,0.003847,-0.562744,-0.033447,-0.555908,-0.067971,-0.449037,9.823303,-0.0029,0.007733,0.003811,-0.60083,0.167236,0.72876,-0.164667,-0.457435,9.836562,-0.001616,0.008249,0.009035,0.637207,0.083008,0.295166,-0.143002,-0.988346,9.749175,0.000326,-0.001595,-0.001265,0.34082,-0.091064,-0.508057
1.072627,-0.552708,9.778754,0.001887,0.002628,-0.001531,-0.05957,0.395508,-0.576416,-0.230198,3.523645,9.13072,-0.012319,0.001132,0.005629,-0.561279,-0.024658,-0.549561,-0.094681,-0.419274,9.844814,-0.000917,0.006221,-0.002904,-0.603271,0.165283,0.730469,-0.223655,-0.435563,9.849194,-0.000101,0.005875,0.012352,0.634277,0.080811,0.295898,-0.148668,-0.942177,9.768794,0.006026,-0.00047,-0.005498,0.338379,-0.094971,-0.506592
1.050058,-0.538722,9.76457,0.00563,0.002181,-0.001111,-0.063965,0.385986,-0.581299,-0.203717,3.526178,9.139898,-0.008698,0.013038,0.004165,-0.566406,-0.032471,-0.554443,-0.089863,-0.442057,9.828524,-0.008501,0.000453,0.002977,-0.595459,0.166992,0.726807,-0.194349,-0.440738,9.85053,-0.015153,-0.008645,0.006915,0.640625,0.080811,0.292969,-0.137434,-0.951626,9.725176,-0.007612,-0.004922,0.001236,0.344482,-0.092773,-0.508545
1.067064,-0.544699,9.758682,-0.003798,0.002185,-0.000212,-0.062012,0.378418,-0.585449,-0.251114,3.528966,9.140261,-0.0091,0.006383,0.004285,-0.565918,-0.037842,-0.556641,-0.096911,-0.449497,9.833809,-0.006613,0.008455,0.000471,-0.602051,0.169189,0.721436,-0.166448,-0.461414,9.836346,-0.001254,0.008974,0.012517,0.636475,0.081055,0.288818,-0.144499,-0.977518,9.733132,0.003724,0.003487,-0.005837,0.338623,-0.090088,-0.514893
1.062803,-0.548528,9.781909,0.002778,-0.002474,0.000196,-0.064453,0.384521,-0.580811,-0.200546,3.517613,9.147872,-0.008876,0.002871,0.003071,-0.564941,-0.031006,-0.556641,-0.091051,-0.430997,9.844618,-0.006522,0.000733,0.001864,-0.599365,0.170898,0.732422,-0.205053,-0.433414,9.853019,-0.007544,0.004474,0.009951,0.635742,0.082275,0.301025,-0.162037,-0.940916,9.760523,-0.000866,-0.005727,-0.002079,0.339844,-0.086426,-0.5
1.075929,-0.54525,9.784849,-0.003408,0.002047,-0.000778,-0.05835,0.384766,-0.578613,-0.224834,3.531454,9.136525,-0.011527,0.009149,0.006095,-0.559082,-0.035889,-0.552246,-0.070344,-0.43945,9.825695,-0.007538,0.004741,0.002168,-0.595947,0.163086,0.730225,-0.176704,-0.44803,9.851211,-0.00938,-0.006837,0.007379,0.641357,0.074463,0.296631,-0.135218,-0.981116,9.753238,-0.003311,-0.002964,-0.001363,0.345947,-0.096191,-0.505859
1.053914,-0.568276,9.777243,0.002182,0.001455,-0.000591,-0.053955,0.396484,-0.580566,-0.21882,3.513843,9.135356,-0.008332,0.001283,0.003843,-0.556641,-0.025391,-0.55835,-0.103473,-0.443072,9.841692,-0.00101,0.010588,0.000961,-0.594971,0.172363,0.736328,-0.16647,-0.447253,9.842388,-0.000427,0.008046,0.012554,0.641357,0.086182,0.303223,-0.157533,-0.95193,9.752686,0.006718,0.002092,-0.005281,0.345947,-0.086914,-0.499512
1.078988,-0.53809,9.790955,0.0045,0.005369,-0.000709,-0.068604,0.390137,-0.581055,-0.228446,3.551063,9.141339,-0.00747,0.012221,0.005188,-0.572266,-0.028564,-0.554443,-0.096892,-0.436275,9.822747,-0.004474,0.000729,0.00222,-0.605713,0.169189,0.72998,-0.206647,-0.437592,9.852801,-0.007972,0.003489,0.008082,0.631592,0.082031,0.296387,-0.148476,-0.955004,9.748933,-0.002591,-0.008166,-0.000131,0.332764,-0.090576,-0.506836
1.034642,-0.550646,9.739921,-0.004229,0.000899,-0.001625,-0.057373,0.387939,-0.582275,-0.238862,3.520924,9.131307,-0.017138,0.003593,0.005512,-0.561768,-0.029297,-0.553955,-0.08907,-0.443237,9.844379,-0.00936,0.004962,0.00123,-0.593018,0.174561,0.722656,-0.188113,-0.444796,9.862896,-0.007617,-0.00408,0.01137,0.641602,0.087402,0.289795,-0.14104,-0.953383,9.737075,0.001147,0.003967,-0.005187,0.3479,-0.084229,-0.509277
1.052085,-0.551444,9.792307,0.003256,5e-06,-0.000784,-0.058594,0.384766,-0.580811,-0.216547,3.517449,9.125441,-0.000885,0.005259,0.003301,-0.563965,-0.032471,-0.556885,-0.09817,-0.45263,9.827964,-0.006752,0.005671,0.002788,-0.595459,0.173828,0.724609,-0.177863,-0.444723,9.854045,-0.007886,0.005201,0.008306,0.639648,0.086182,0.292969,-0.154429,-0.957189,9.736851,-0.001362,-0.002431,-0.001725,0.345947,-0.086426,-0.510742
1.047427,-0.544586,9.772069,-0.002922,0.001595,0.000425,-0.065186,0.383057,-0.574707,-0.249593,3.554385,9.151659,-0.013016,0.009589,0.005478,-0.568359,-0.035889,-0.548584,-0.098317,-0.439071,9.844192,-0.001017,0.004009,0.000305,-0.604736,0.165283,0.726318,-0.187955,-0.429142,9.869025,0.000382,0.005666,0.010745,0.632324,0.075684,0.294922,-0.138807,-0.958492,9.745148,0.003907,-0.004887,-0.002795,0.335693,-0.095947,-0.508057
1.078065,-0.570057,9.761423,0.003208,0.000162,-0.001669,-0.053711,0.381836,-0.582275,-0.213514,3.520668,9.128634,-0.017659,0.000301,0.003984,-0.558105,-0.034912,-0.558105,-0.076982,-0.432023,9.841603,-0.005037,0.005166,0.001366,-0.596436,0.166992,0.728271,-0.187454,-0.433416,9.847357,-0.010685,-0.004977,0.009846,0.639648,0.083008,0.293701,-0.140062,-0.952785,9.761055,-0.002319,0.000896,-0.004375,0.342285,-0.089355,-0.50708
1.054945,-0.530891,9.784089,0.002645,0.007097,0.000619,-0.061523,0.38501,-0.584229,-0.243174,3.524403,9.129632,-0.002239,0.011542,0.004434,-0.56543,-0.032715,-0.555176,-0.08612,-0.440814,9.825212,-0.006231,0.005814,0.003098,-0.603516,0.171631,0.734863,-0.161074,-0.460238,9.851632,-0.005292,0.004261,0.007842,0.631836,0.085938,0.302734,-0.151741,-0.962335,9.768836,-0.000954,-0.002258,0.000603,0.337646,-0.088623,-0.501953
1.049892,-0.553447,9.763418,-0.0034,0.000466,-0.001873,-0.058105,0.380615,-0.577637,-0.239416,3.52941,9.145077,-0.009274,0.00013,0.003994,-0.561035,-0.036621,-0.550049,-0.093362,-0.447791,9.830502,-0.005075,0.004594,0.000476,-0.599609,0.16748,0.723633,-0.198605,-0.428897,9.859111,-0.001782,0.007593,0.013067,0.63623,0.084229,0.292969,-0.140899,-0.947323,9.753037,0.005094,-3.6e-05,-0.006186,0.340088,-0.089844,-0.507324
1.053952,-0.553714,9.776543,0.002325,0.002334,-0.001212,-0.061768,0.385254,-0.580078,-0.211521,3.535553,9.127101,-0.013908,0.007455,0.005694,-0.565918,-0.036621,-0.55127,-0.069914,-0.439865,9.849571,-0.008563,0.002173,0.001809,-0.592285,0.167725,0.724854,-0.190914,-0.456109,9.84084,-0.011212,-0.008394,0.006825,0.644043,0.080566,0.29126,-0.143396,-0.960385,9.733115,-0.006681,-0.005357,0.001923,0.349609,-0.088623,-0.509766
1.058023,-0.563529,9.767667,-0.004618,0.001037,-0.001059,-0.052979,0.38623,-0.581787,-0.240976,3.524074,9.147094,-0.0101,0.006221,0.00438,-0.557861,-0.032227,-0.555176,-0.085106,-0.454068,9.838542,-0.001275,0.009805,0.000653,-0.595703,0.169678,0.719971,-0.171398,-0.453568,9.85411,0.000471,0.007374,0.010969,0.636963,0.083496,0.2854,-0.133809,-0.969116,9.76126,0.007173,0.002781,-0.006483,0.342285,-0.091064,-0.515869
1.066279,-0.550412,9.779577,0.006068,0.001887,-0.00079,-0.05542,0.379639,-0.577148,-0.213166,3.531178,9.128756,-0.004665,0.001605,0.003862,-0.558105,-0.039062,-0.546875,-0.093813,-0.435024,9.833074,-0.004808,0.00023,0.000437,-0.594971,0.174805,0.725342,-0.210667,-0.440491,9.855301,-0.006719,0.003552,0.009973,0.641602,0.088379,0.293213,-0.15541,-0.939726,9.736837,-0.000657,-0.005825,-0.003579,0.343994,-0.085938,-0.510254
1.056524,-0.540058,9.775518,-0.000946,0.005492,0.00176,-0.054688,0.384277,-0.577881,-0.238172,3.541482,9.144619,-0.012839,0.010978,0.005016,-0.560059,-0.034912,-0.549561,-0.085502,-0.441642,9.819515,-0.006734,0.003385,0.003055,-0.601562,0.162842,0.729492,-0.192548,-0.453684,9.853017,-0.0074,-0.001841,0.008347,0.635498,0.07666,0.296875,-0.124283,-0.972154,9.757512,-0.001386,-0.000255,0.000515,0.339355,-0.095459,-0.506592
1.043023,-0.569127,9.73578,-0.001505,0.000164,-0.00122,-0.060059,0.384766,-0.583984,-0.225483,3.507956,9.141573,-0.011693,-0.00059,0.003527,-0.564941,-0.03418,-0.556396,-0.08976,-0.432283,9.827572,-0.00502,0.00803,0.001984,-0.598145,0.168213,0.730713,-0.18064,-0.428723,9.862873,-0.004889,0.005841,0.011428,0.636963,0.082031,0.295898,-0.173479,-0.95098,9.756492,0.001168,0.001791,-0.007428,0.340332,-0.091553,-0.505615
1.060218,-0.540071,9.788698,0.005104,-0.00014,-0.001014,-0.0625,0.38623,-0.581543,-0.217603,3.548735,9.134409,7e-06,0.01131,0.003909,-0.566162,-0.03125,-0.55249,-0.102213,-0.457451,9.843601,-0.005473,0.002451,0.00279,-0.597412,0.171387,0.727539,-0.203802,-0.449374,9.864756,-0.007638,0.002047,0.008779,0.639648,0.085449,0.29126,-0.133277,-0.96352,9.753274,-0.003264,-0.007668,0.003688,0.343262,-0.085938,-0.509277
1.073634,-0.559509,9.78397,-0.00641,-0.000557,-0.001036,-0.054932,0.382568,-0.581055,-0.242202,3.546078,9.15547,-0.018889,0.003659,0.005286,-0.558105,-0.038086,-0.554932,-0.083731,-0.439915,9.849165,-0.003047,0.006879,0.000565,-0.601318,0.172852,0.72876,-0.189075,-0.414647,9.846963,-0.000376,-0.000718,0.009805,0.633789,0.085693,0.292969,-0.134271,-0.957806,9.745279,0.006123,0.00471,-0.007403,0.338867,-0.085938,-0.508545
1.060272,-0.578885,9.766227,0.006156,0.004505,-0.001202,-0.062988,0.383301,-0.585938,-0.200794,3.505996,9.152486,-0.010401,0.006818,0.004722,-0.56665,-0.034424,-0.558105,-0.098147,-0.426949,9.849041,-0.007009,0.001169,0.002432,-0.59082,0.171875,0.723145,-0.172687,-0.439821,9.850766,-0.011212,0.00195,0.010581,0.645264,0.084717,0.291504,-0.152181,-0.94511,9.7449,-0.004328,-0.003933,-0.000316,0.349365,-0.085938,-0.51123
1.0455,-0.536413,9.778761,-0.002014,0.005361,0.000859,-0.063965,0.379395,-0.579346,-0.242476,3.519598,9.140231,-0.003181,0.010389,0.004598,-0.56665,-0.037842,-0.552002,-0.089372,-0.446413,9.840856,-0.005787,0.004815,0.001629,-0.602051,0.172119,0.72876,-0.186294,-0.455828,9.865482,-0.003828,0.007872,0.009383,0.63501,0.082031,0.298096,-0.14682,-0.961473,9.745089,0.003618,-0.001688,-0.003941,0.337402,-0.090088,-0.503174
1.057865,-0.536112,9.752617,-0.000533,0.000609,-0.00209,-0.058105,0.4021,-0.584473,-0.221327,3.527076,9.142872,-0.013506,2.5e-05,0.004705,-0.560791,-0.018555,-0.559082,-0.118716,-0.434033,9.859562,-0.005787,0.004815,0.001629,-0.593506,0.169922,0.728027,-0.193141,-0.431191,9.852806,-0.005398,-0.002975,0.011895,0.644287,0.08374,0.290527,-0.147708,-0.955769,9.737095,-0.000752,-0.001638,-0.005101,0.343506,-0.092773,-0.508545
1.048947,-0.536832,9.791946,0.00082,0.001149,0.000847,-0.060059,0.390625,-0.577637,-0.222902,3.537535,9.138625,-0.00729,0.01222,0.006256,-0.562744,-0.025635,-0.551758,-0.079189,-0.450678,9.835388,-0.005162,0.005242,0.004299,-0.604492,0.164551,0.726318,-0.165233,-0.457869,9.82622,-0.009347,0.001605,0.006733,0.631592,0.077148,0.290283,-0.152631,-0.963445,9.756942,-0.003215,-0.002287,0.001111,0.33667,-0.092773,-0.508301
1.053515,-0.559876,9.79737,-0.002811,-0.000533,-0.003271,-0.059326,0.388672,-0.58667,-0.241158,3.532336,9.15246,-0.011305,0.000773,0.004113,-0.563965,-0.031494,-0.556396,-0.100033,-0.44299,9.840622,-0.002336,0.006664,-0.000589,-0.594971,0.162598,0.725098,-0.195231,-0.437154,9.861881,1e-06,0.008295,0.013476,0.641602,0.077881,0.289795,-0.171965,-0.96868,9.744727,0.007561,-0.000103,-0.008196,0.347168,-0.09375,-0.510742
1.061965,-0.562315,9.794474,0.007907,0.003325,7.5e-05,-0.060059,0.384766,-0.591309,-0.190872,3.535579,9.141421,-0.007064,0.008706,0.005034,-0.56543,-0.033936,-0.562256,-0.072328,-0.430627,9.832732,-0.005947,-0.000837,0.003323,-0.604004,0.173096,0.726562,-0.186987,-0.454886,9.846742,-0.01072,-0.00641,0.007969,0.634033,0.087646,0.293701,-0.139614,-0.95348,9.749214,-0.005032,-0.005407,0.000587,0.338623,-0.084229,-0.508789
1.043272,-0.551743,9.764224,-0.003909,0.005663,0.000204,-0.066895,0.385254,-0.579346,-0.261178,3.537679,9.162007,-0.013164,0.007678,0.00454,-0.570068,-0.032959,-0.550049,-0.103828,-0.447445,9.818789,-0.007639,0.011051,0.000462,-0.599854,0.168457,0.735107,-0.176377,-0.442428,9.862698,-0.003002,0.006942,0.009419,0.637207,0.084229,0.299805,-0.133247,-0.975271,9.757425,0.003824,0.003081,-0.004488,0.341553,-0.087891,-0.500732
1.051589,-0.554857,9.761304,0.003703,-0.001871,-0.001557,-0.057129,0.383301,-0.58667,-0.213805,3.510817,9.132655,-0.007417,0.001062,0.005194,-0.562012,-0.03418,-0.560059,-0.099698,-0.44357,9.848567,-0.005256,0.001236,0.001898,-0.599609,0.172852,0.726074,-0.215362,-0.432865,9.842233,-0.008302,0.00772,0.011829,0.638184,0.082275,0.292725,-0.167555,-0.955497,9.764689,-0.002226,-0.003293,-0.002854,0.342773,-0.087646,-0.509277
1.042746,-0.535344,9.779114,-0.000589,0.000998,0.001397,-0.052246,0.378906,-0.57959,-0.223535,3.546189,9.152417,-0.006923,0.01107,0.004516,-0.557373,-0.038818,-0.550781,-0.06688,-0.440396,9.854234,-0.004412,0.000445,0.00368,-0.596924,0.169434,0.727539,-0.18733,-0.447468,9.840419,-0.007273,-0.008155,0.00674,0.637695,0.081787,0.293457,-0.131462,-0.97585,9.733484,-0.002705,-0.006671,-0.000365,0.342285,-0.090332,-0.506104
1.064707,-0.56509,9.778595,-0.005295,0.000767,-0.002529,-0.050781,0.38916,-0.583984,-0.25152,3.526042,9.15006,-0.015825,0.001259,0.005169,-0.555176,-0.028564,-0.557861,-0.087398,-0.432621,9.824255,-0.003608,0.011323,-0.000283,-0.595947,0.170166,0.729248,-0.168751,-0.447747,9.862954,-0.000452,0.007902,0.013336,0.640625,0.08252,0.297119,-0.139653,-0.948183,9.765099,0.005687,0.006716,-0.007493,0.344238,-0.088135,-0.506592
1.064189,-0.571407,9.785845,0.007708,0.004186,0.000906,-0.058105,0.38208,-0.581299,-0.207178,3.533889,9.132577,-0.002208,0.01057,0.004513,-0.561768,-0.036621,-0.553223,-0.094802,-0.439266,9.829534,-0.004934,0.000304,0.003366,-0.594238,0.168945,0.723877,-0.199619,-0.445426,9.861423,-0.009992,0.005964,0.007138,0.639404,0.083008,0.291504,-0.15593,-0.964872,9.744983,-0.00583,-0.007561,-0.000985,0.343506,-0.089355,-0.510498
1.036527,-0.534796,9.766232,-0.001425,0.004364,-0.000539,-0.060791,0.385498,-0.581299,-0.243224,3.540561,9.140587,-0.014993,0.004388,0.004899,-0.563965,-0.035156,-0.556641,-0.080448,-0.452621,9.851236,-0.002497,0.006165,0.001457,-0.603516,0.172363,0.733643,-0.19049,-0.454068,9.849438,-0.00142,-0.003345,0.0101,0.63501,0.08374,0.299561,-0.134597,-0.959346,9.733343,0.005262,-0.001733,-0.005281,0.337646,-0.087402,-0.502197
1.058128,-0.550705,9.751438,0.000199,-0.00086,-0.000831,-0.064941,0.384521,-0.586914,-0.195979,3.511071,9.125143,-0.011004,0.002704,0.0061,-0.56958,-0.03418,-0.558105,-0.093272,-0.438254,9.837571,-0.01186,0.00599,0.002319,-0.595947,0.169434,0.724121,-0.158635,-0.437527,9.847943,-0.009929,0.002145,0.011651,0.643555,0.082764,0.290527,-0.156125,-0.959556,9.736963,-0.00491,0.002459,-0.002601,0.347656,-0.088379,-0.512695
1.053533,-0.54509,9.796684,-0.000884,0.002172,0.000457,-0.062256,0.384521,-0.577393,-0.239231,3.531549,9.148719,-0.002272,0.012956,0.002943,-0.5625,-0.032959,-0.549805,-0.091466,-0.451038,9.829319,-0.00447,0.002165,0.002521,-0.607178,0.16333,0.734619,-0.190974,-0.448189,9.852433,-0.006378,0.008955,0.009019,0.630859,0.077637,0.302002,-0.141507,-0.985536,9.741285,-0.001545,-0.00451,-0.002468,0.333984,-0.092529,-0.499268
1.053332,-0.567991,9.789054,-0.001123,0.001607,-0.000693,-0.049805,0.387207,-0.583984,-0.206175,3.531902,9.15068,-0.01387,-0.003695,0.005668,-0.554932,-0.030029,-0.556396,-0.085175,-0.431404,9.840293,0.000995,0.003432,-0.000221,-0.598877,0.166748,0.725586,-0.199625,-0.435032,9.845875,0.003333,-0.003466,0.011813,0.634277,0.07959,0.291504,-0.138566,-0.942573,9.757124,0.010856,-0.000911,-0.006669,0.342529,-0.093506,-0.509521
1.082871,-0.547601,9.79388,0.006099,0.004897,0.002288,-0.059326,0.384277,-0.583496,-0.215947,3.50183,9.140453,-0.011012,0.013332,0.004718,-0.566162,-0.033936,-0.55835,-0.076221,-0.423019,9.843095,-0.008265,0.003541,0.002997,-0.597656,0.174561,0.72583,-0.15055,-0.448012,9.835859,-0.01098,-0.00396,0.006545,0.63501,0.085938,0.290283,-0.137968,-0.965988,9.729409,-0.007931,-0.003337,0.002508,0.340576,-0.08374,-0.51001
