# sampling frequency: 40
# units are seconds/meters/radians/a.u.
seg1_acc_x,seg1_acc_y,seg1_acc_z,seg1_gyr_x,seg1_gyr_y,seg1_gyr_z,seg1_mag_x,seg1_mag_y,seg1_mag_z,seg2_acc_x,seg2_acc_y,seg2_acc_z,seg2_gyr_x,seg2_gyr_y,seg2_gyr_z,seg2_mag_x,seg2_mag_y,seg2_mag_z,seg3_acc_x,seg3_acc_y,seg3_acc_z,seg3_gyr_x,seg3_gyr_y,seg3_gyr_z,seg3_mag_x,seg3_mag_y,seg3_mag_z,seg4_acc_x,seg4_acc_y,seg4_acc_z,seg4_gyr_x,seg4_gyr_y,seg4_gyr_z,seg4_mag_x,seg4_mag_y,seg4_mag_z,seg5_acc_x,seg5_acc_y,seg5_acc_z,seg5_gyr_x,seg5_gyr_y,seg5_gyr_z,seg5_mag_x,seg5_mag_y,seg5_mag_z
1.384737,-7.458717,6.208426,0.00807,-0.000246,-0.000905,-0.23999,0.532227,-0.115723,-0.120854,8.162875,5.40274,-0.006435,0.011049,0.005843,-0.25708,0.371094,0.438232,-0.995896,-7.023185,6.821236,-0.006806,0.004402,0.000699,0.623291,0.058838,0.019287,1.558315,-7.310706,6.388314,-0.002258,-0.002535,0.008874,0.229492,0.326172,-0.54126,3.185223,-6.34064,6.824842,0.01184,0.004405,-0.012457,-0.463867,0.414307,-0.284424
1.387886,-7.484469,6.195435,-0.005,-0.004666,-0.001875,-0.240479,0.533691,-0.11084,-0.164511,8.169573,5.409244,-0.007006,0.001279,0.003728,-0.262695,0.370361,0.432617,-1.007346,-7.020589,6.811651,-8.8e-05,0.007043,0.003121,0.624756,0.062256,0.017578,1.566139,-7.268112,6.439633,0.001601,0.004486,0.009206,0.231445,0.329102,-0.539795,3.152481,-6.356071,6.790433,-0.01262,0.020365,0.003209,-0.464355,0.413818,-0.282471
1.396366,-7.486148,6.229957,0.008542,-0.003078,-0.001285,-0.234619,0.530762,-0.104492,-0.118327,8.180479,5.394989,-0.003593,0.005816,0.003413,-0.264893,0.365234,0.441895,-0.998911,-7.018783,6.844274,0.005164,0.005711,0.000551,0.630127,0.061768,0.029785,1.555979,-7.296786,6.449662,-0.004089,0.001459,0.010629,0.234619,0.326172,-0.532471,3.131808,-6.389568,6.772823,0.001159,0.013476,-0.006305,-0.460205,0.411377,-0.276123
1.384206,-7.465418,6.231799,-0.001159,-0.002578,-0.00205,-0.24292,0.536865,-0.115479,-0.160717,8.193591,5.386079,-0.011221,0.008318,0.005239,-0.264893,0.369385,0.447021,-1.009669,-6.999271,6.840569,-0.002667,0.005704,0.001986,0.620605,0.066406,0.014404,1.592917,-7.269144,6.463429,0.003397,2.4e-05,0.007961,0.226807,0.330566,-0.544434,3.152513,-6.375429,6.748265,-0.000574,0.013934,-0.004976,-0.467529,0.416016,-0.28833
1.3949,-7.482941,6.239634,0.001702,0.000724,-0.001041,-0.233643,0.52832,-0.113037,-0.137464,8.177785,5.384079,-0.007392,0.001106,0.002032,-0.270752,0.376709,0.438232,-1.027651,-7.020942,6.851428,-0.007024,0.006573,-0.000551,0.630127,0.056396,0.016846,1.552809,-7.274669,6.495937,-0.011535,0.002372,0.011847,0.236572,0.321289,-0.541504,3.101842,-6.356318,6.750323,0.009895,0.005306,0.001251,-0.459229,0.405518,-0.284668
1.384654,-7.468123,6.200988,-0.0033,0.00398,-0.001058,-0.243408,0.52832,-0.117432,-0.145418,8.187534,5.396273,-0.013654,0.011316,0.004353,-0.260498,0.371094,0.439453,-1.003527,-7.012767,6.8366,-0.005908,-0.001928,-0.003178,0.623779,0.056885,0.015381,1.564723,-7.291598,6.444576,-0.008557,-0.00318,0.008124,0.229248,0.323486,-0.547852,3.122587,-6.334378,6.756188,-0.004781,-0.011979,-0.01047,-0.466553,0.407471,-0.287842
1.396853,-7.485722,6.23036,0.000498,0.002979,0.000917,-0.234375,0.535156,-0.117432,-0.149711,8.169129,5.385557,-0.013847,0.001052,0.005418,-0.258057,0.368652,0.435303,-0.988872,-7.037011,6.831817,-0.007806,0.004094,0.002464,0.632812,0.064209,0.014404,1.571641,-7.28322,6.448607,-0.003647,0.00187,0.008959,0.239258,0.329102,-0.547363,3.127277,-6.360254,6.739124,-0.007026,-0.014323,0.007195,-0.456055,0.414062,-0.290039
1.388322,-7.457308,6.231281,0.001749,0.005786,0.001418,-0.246826,0.52832,-0.118896,-0.121337,8.182649,5.402348,-0.00379,0.010152,0.003103,-0.261963,0.378174,0.440674,-1.018953,-7.012199,6.809564,-0.000403,0.001704,-0.005188,0.618652,0.059326,0.013428,1.564604,-7.287582,6.40661,-0.0078,-0.00079,0.009136,0.226318,0.322021,-0.545898,3.135325,-6.35973,6.76756,-0.000948,-0.022635,-0.011125,-0.469971,0.407471,-0.289551
1.395164,-7.488953,6.199395,-0.00976,0.004721,0.000354,-0.23291,0.527832,-0.115234,-0.169381,8.172392,5.395942,-0.015858,0.002074,0.007074,-0.260254,0.371582,0.442871,-0.986024,-7.01431,6.845572,-0.011826,0.003756,0.002314,0.63208,0.057861,0.017578,1.573542,-7.268792,6.423222,-0.007798,0.001651,0.010517,0.237305,0.324219,-0.542725,3.187081,-6.384857,6.792674,-0.01266,-0.022808,0.005993,-0.45752,0.407471,-0.285645
1.394289,-7.488917,6.199635,0.010592,0.004618,0.001263,-0.238281,0.531494,-0.117188,-0.104172,8.170254,5.391851,-0.006342,0.003669,0.004025,-0.263428,0.36499,0.435791,-1.003512,-7.040911,6.832448,-0.003542,0.005487,-5.7e-05,0.624268,0.061035,0.01416,1.552292,-7.286709,6.446527,-0.007447,0.000664,0.01037,0.230957,0.324951,-0.544922,3.153339,-6.370045,6.812031,0.012162,-0.010901,-0.008583,-0.464844,0.410645,-0.289551
1.37584,-7.442266,6.1934,-0.000423,-2.8e-05,0.000982,-0.236816,0.530273,-0.116455,-0.159468,8.184327,5.400183,-0.006315,0.010359,0.005949,-0.266602,0.362793,0.436523,-0.98985,-7.008005,6.838315,0.001966,0.003253,-0.000837,0.628418,0.060303,0.014404,1.570353,-7.289625,6.436636,0.001587,-0.000406,0.006452,0.233398,0.320801,-0.543945,3.189117,-6.328994,6.803106,0.002436,-0.001372,-0.00516,-0.459961,0.410889,-0.287598
1.388804,-7.496474,6.201124,-0.001355,-0.003647,-0.00184,-0.242676,0.529541,-0.108887,-0.13396,8.187807,5.387932,-0.011162,-0.001327,0.002027,-0.262939,0.36792,0.430664,-1.011729,-7.013382,6.838966,-0.001811,0.004846,0.00129,0.621582,0.058594,0.022949,1.574006,-7.25914,6.461209,-0.005594,0.003005,0.011811,0.229004,0.322266,-0.536377,3.17732,-6.370163,6.793886,-0.005067,0.010158,0.000993,-0.464844,0.40625,-0.279053
1.389463,-7.459238,6.223209,0.00776,-0.000794,-0.000308,-0.242188,0.533447,-0.106934,-0.125434,8.187993,5.385331,-0.009262,0.012545,0.006251,-0.264893,0.380859,0.438721,-0.996287,-7.005011,6.84465,-0.007671,0.00135,-0.001835,0.621826,0.058594,0.023438,1.554614,-7.289761,6.450393,-0.008583,-0.002195,0.009073,0.229004,0.324951,-0.533936,3.170714,-6.373334,6.773423,-0.001136,0.015183,-0.011079,-0.467285,0.407227,-0.275635
1.387188,-7.480249,6.228126,-0.007278,-0.003399,-0.001793,-0.239014,0.540283,-0.115723,-0.166683,8.172893,5.389581,-0.008852,0.000795,0.003346,-0.267578,0.365967,0.432129,-1.000322,-7.030933,6.827389,-0.009025,0.005955,0.002982,0.624512,0.069336,0.01416,1.595374,-7.274973,6.442525,-0.004091,0.000462,0.009694,0.230713,0.335205,-0.543701,3.148238,-6.36566,6.76455,-0.003232,0.01366,0.006198,-0.465088,0.419434,-0.286865
1.397968,-7.48753,6.222445,0.005676,0.001542,-0.000438,-0.237305,0.540283,-0.112793,-0.121343,8.189598,5.396881,-0.00678,0.008734,0.005002,-0.259521,0.372803,0.43457,-1.007092,-7.043841,6.8289,0.001966,0.003253,-0.000836,0.628174,0.068359,0.019531,1.54696,-7.304267,6.421573,-0.008517,0.001178,0.009439,0.232422,0.332275,-0.540771,3.128766,-6.366685,6.734106,0.007965,0.004465,-0.011805,-0.460938,0.41748,-0.282471
1.374293,-7.459784,6.229804,0.000301,0.00191,0.001127,-0.22998,0.537109,-0.112549,-0.15748,8.184777,5.393896,-0.013062,0.007843,0.00486,-0.254883,0.358154,0.442627,-0.994923,-6.986859,6.834559,-0.00118,0.00313,0.00106,0.635742,0.06665,0.020264,1.565287,-7.265306,6.443441,0.002614,-0.001394,0.007898,0.237793,0.330322,-0.541992,3.142622,-6.335975,6.731686,-0.000932,-0.005203,-0.001014,-0.455566,0.415771,-0.285156
1.392174,-7.484978,6.210342,-0.00197,0.001816,-0.000515,-0.242432,0.532715,-0.106689,-0.121794,8.174379,5.395312,-0.005047,0.001081,0.004195,-0.260986,0.375488,0.438232,-1.007678,-7.012333,6.838053,-0.0088,0.006815,0.002514,0.625244,0.062256,0.025391,1.559107,-7.264308,6.464068,-0.010815,0.003302,0.012439,0.229248,0.328857,-0.534912,3.123213,-6.363362,6.753527,-0.003161,-0.013829,-0.002437,-0.465088,0.414795,-0.278076
1.389218,-7.472014,6.206267,0.002727,0.004572,0.000232,-0.235352,0.532227,-0.107422,-0.160834,8.197599,5.415408,-0.009417,0.010311,0.006252,-0.257324,0.375977,0.444336,-1.003666,-7.033307,6.824452,-0.003689,0.00042,-0.002227,0.62793,0.062012,0.026855,1.551975,-7.315572,6.452966,-0.005262,-0.002865,0.008905,0.233887,0.326172,-0.533936,3.144984,-6.361985,6.783234,-0.003448,-0.019174,-0.00484,-0.461914,0.411133,-0.2771
1.378288,-7.464525,6.212227,0.001167,0.001217,0.000327,-0.243164,0.530029,-0.113525,-0.140194,8.171671,5.384514,-0.011063,0.001064,0.005643,-0.260254,0.378418,0.438232,-1.00397,-7.013157,6.852556,-0.000882,0.006523,0.001679,0.622559,0.0625,0.019287,1.583686,-7.259129,6.458087,0.001587,0.002026,0.007837,0.227295,0.326416,-0.541016,3.156234,-6.382146,6.777886,-0.000405,-0.015445,0.001906,-0.464844,0.410645,-0.283447
1.39602,-7.463369,6.227752,-0.002,0.003926,4.4e-05,-0.234619,0.531494,-0.112793,-0.142337,8.19203,5.389006,-0.006579,0.009495,0.004359,-0.270264,0.367432,0.44043,-1.008822,-6.998342,6.840704,-0.006814,0.000495,-0.002536,0.631104,0.062012,0.018555,1.566348,-7.260496,6.444935,-0.014966,-0.000339,0.011674,0.23584,0.327881,-0.542725,3.163313,-6.333842,6.787438,0.00527,-0.012207,-0.010192,-0.458496,0.414062,-0.284424
1.390772,-7.487945,6.179639,-0.005057,-0.000445,-0.000755,-0.239502,0.532227,-0.110352,-0.155974,8.178488,5.403471,-0.01738,0.002332,0.004648,-0.262695,0.375488,0.445557,-0.993987,-7.027638,6.811721,-0.014514,0.002516,0.002784,0.625,0.060303,0.021973,1.581253,-7.303747,6.436687,-0.007836,0.000191,0.010093,0.230225,0.325684,-0.539307,3.165169,-6.36551,6.79965,-0.01601,0.001181,0.003618,-0.463623,0.408447,-0.282471
1.403705,-7.47076,6.20068,0.012456,0.001961,0.00044,-0.233398,0.527588,-0.117432,-0.103559,8.170863,5.396034,-0.005159,0.006876,0.003142,-0.263672,0.370605,0.433594,-1.009364,-7.057223,6.827966,0.003087,0.004526,-0.001458,0.630371,0.057129,0.013428,1.559339,-7.284334,6.429943,-0.001846,0.00129,0.009538,0.235107,0.323975,-0.544678,3.144692,-6.373532,6.796537,0.010345,0.004642,-0.006858,-0.46167,0.409668,-0.288818
1.377945,-7.453821,6.19936,-0.00867,-0.003574,-0.00135,-0.240479,0.53125,-0.110596,-0.171301,8.179604,5.40083,-0.007562,0.007055,0.004595,-0.258057,0.37085,0.436279,-1.007039,-6.980773,6.830086,6e-05,0.005366,0.001577,0.625,0.060791,0.023193,1.579694,-7.276448,6.433117,-0.001581,-0.002085,0.009969,0.231689,0.325684,-0.538574,3.159919,-6.349887,6.763651,0.002191,0.007584,-0.004375,-0.463623,0.4104,-0.279297
1.401399,-7.5155,6.201252,0.003116,0.00015,-0.000321,-0.243164,0.530518,-0.113037,-0.125413,8.177329,5.382053,-0.010079,-0.000912,0.00486,-0.259277,0.37085,0.437988,-1.000508,-7.028496,6.846292,-0.008099,0.007629,0.003371,0.622314,0.058105,0.017822,1.557504,-7.284981,6.442621,-0.005598,0.002009,0.010879,0.227051,0.324463,-0.539062,3.145086,-6.366317,6.769703,-0.006617,0.009062,0.002677,-0.465332,0.409668,-0.28418
1.388688,-7.434144,6.229363,0.009566,0.00077,-1e-05,-0.234619,0.537598,-0.111572,-0.148433,8.191002,5.38736,-0.003942,0.012346,0.003654,-0.259521,0.368164,0.437012,-1.007946,-7.005716,6.829058,0.002515,0.001839,-0.001662,0.631836,0.06665,0.020264,1.580472,-7.284994,6.473788,5e-05,0.000668,0.008142,0.238525,0.331299,-0.543945,3.15319,-6.368443,6.750206,0.006742,0.002642,-0.010168,-0.457764,0.415771,-0.285645
1.404017,-7.491116,6.227762,-0.015066,-0.000494,-0.000926,-0.229248,0.533936,-0.10791,-0.149103,8.177291,5.383492,-0.011648,0.000142,0.004584,-0.262695,0.376465,0.434326,-1.004318,-7.021534,6.839704,-0.006383,0.00592,0.001971,0.636475,0.063477,0.022949,1.563743,-7.276062,6.460489,-0.006391,0.001592,0.011759,0.237793,0.325684,-0.53833,3.126138,-6.369107,6.748514,-0.003571,-0.000953,0.002488,-0.455078,0.412598,-0.280273
1.396189,-7.486678,6.223869,0.011507,0.001065,0.001066,-0.237305,0.53125,-0.116699,-0.115896,8.188222,5.387914,-0.008813,0.00817,0.003779,-0.263916,0.370117,0.436523,-1.001255,-7.002289,6.830994,-0.003378,0.00098,-0.002098,0.628174,0.060791,0.016113,1.560488,-7.29711,6.460683,-0.008643,-0.002666,0.009592,0.234863,0.325195,-0.545166,3.142112,-6.365941,6.739746,0.006949,-0.011891,-0.009083,-0.460205,0.408447,-0.288574
1.385455,-7.431684,6.23853,-0.002423,0.003898,0.001026,-0.236816,0.529297,-0.115479,-0.176486,8.191431,5.404352,-0.011934,0.006778,0.007057,-0.261963,0.371094,0.432129,-0.976171,-7.013581,6.840102,-0.01044,0.004316,0.001275,0.627686,0.056396,0.016357,1.577162,-7.273389,6.420568,-0.002562,0.000818,0.008457,0.233398,0.321777,-0.544434,3.162988,-6.364137,6.770244,-0.009356,-0.008935,0.000372,-0.459473,0.407959,-0.2854
1.40031,-7.515357,6.201671,-0.008224,0.002265,-0.001038,-0.240234,0.53418,-0.111816,-0.118903,8.181721,5.383855,-0.007644,0.001181,0.004793,-0.260742,0.373535,0.441406,-0.998488,-7.0365,6.834155,-0.006075,0.002578,-0.001138,0.624268,0.062256,0.020996,1.553243,-7.302175,6.430746,-0.015015,0.001631,0.013579,0.228027,0.324463,-0.537354,3.13161,-6.37137,6.754995,-0.002239,-0.013934,-0.001429,-0.464844,0.412354,-0.281494
1.381661,-7.48003,6.207664,0.00639,0.004841,0.001431,-0.235107,0.530518,-0.111084,-0.1527,8.174094,5.404609,-0.013801,0.013545,0.004889,-0.258545,0.366211,0.435303,-0.981904,-7.016341,6.821597,-0.00228,0.002054,-0.000517,0.631104,0.061035,0.021729,1.59323,-7.297614,6.423312,-0.001869,-0.003593,0.006773,0.233643,0.324219,-0.537598,3.181856,-6.364143,6.768258,0.001412,-0.013483,-0.008236,-0.460693,0.410645,-0.28125
1.386321,-7.471422,6.207627,-0.000557,0.001242,0.000204,-0.236816,0.539795,-0.115967,-0.163075,8.173818,5.387889,-0.00883,-0.002018,0.005667,-0.258057,0.373291,0.436523,-0.999778,-7.037784,6.832644,-0.004334,0.008869,0.001738,0.628418,0.070312,0.015381,1.575082,-7.275461,6.444709,0.000816,0.005486,0.010547,0.232422,0.330078,-0.54248,3.168865,-6.368492,6.785696,-0.000541,-0.004618,0.002868,-0.460449,0.418457,-0.286133
1.375866,-7.453735,6.199925,0.00161,0.000495,0.000509,-0.237305,0.5354,-0.106201,-0.124448,8.195854,5.383915,-0.00096,0.012425,0.004751,-0.263428,0.37207,0.434814,-1.007597,-7.010329,6.839206,0.002157,0.002848,-0.001842,0.627197,0.062988,0.023682,1.566384,-7.285115,6.452536,-0.008585,-0.001731,0.008578,0.231445,0.326416,-0.536621,3.168412,-6.340473,6.79168,0.008557,-0.001247,-0.011334,-0.460449,0.412842,-0.275879
1.383741,-7.482397,6.198864,-0.00675,-0.00253,-0.001439,-0.23584,0.532715,-0.118896,-0.185665,8.186641,5.39452,-0.016523,0.000401,0.00524,-0.261719,0.371826,0.436768,-1.001029,-7.022503,6.836632,-0.01007,0.004372,0.004205,0.630127,0.061768,0.011475,1.568674,-7.288552,6.430065,-0.00411,0.002885,0.011095,0.236328,0.327881,-0.543945,3.172743,-6.375105,6.754505,-0.014007,0.007388,0.003389,-0.460938,0.4104,-0.291016
1.397132,-7.465414,6.219556,0.011072,0.000425,-0.000838,-0.241211,0.526855,-0.110596,-0.100769,8.178724,5.383853,-0.003705,0.006529,0.003317,-0.262939,0.364258,0.436279,-1.012893,-7.032161,6.844921,-0.003259,0.001944,-0.000957,0.62207,0.056396,0.022217,1.538655,-7.297274,6.433231,-0.007122,-0.001318,0.009295,0.229004,0.320068,-0.540771,3.137867,-6.383567,6.750909,0.01029,0.007023,-0.007602,-0.468262,0.404541,-0.283936
1.387085,-7.447653,6.211851,-0.009319,-0.00256,0.000402,-0.23877,0.532959,-0.110352,-0.165723,8.197344,5.417795,-0.010112,0.010104,0.005097,-0.271729,0.373535,0.444336,-0.983312,-7.010896,6.828653,-0.001851,0.003577,0.000753,0.627686,0.064453,0.020508,1.583191,-7.280329,6.453171,-0.000738,-0.000743,0.008079,0.23291,0.326904,-0.537842,3.149932,-6.35528,6.758131,-0.008104,0.005092,-0.004444,-0.459473,0.415527,-0.281982
1.402312,-7.51515,6.223429,0.002673,0.000871,-0.000502,-0.235107,0.525146,-0.110107,-0.112982,8.17112,5.38375,-0.009882,-0.000144,0.004204,-0.26001,0.376953,0.432129,-1.014329,-7.033238,6.843602,-0.006027,0.004908,0.002156,0.630615,0.057617,0.023682,1.550452,-7.281226,6.428257,-0.010113,0.001791,0.011656,0.23584,0.323486,-0.537598,3.145012,-6.389789,6.750279,0.001243,-0.000826,0.000972,-0.458984,0.407227,-0.281006
1.379291,-7.429641,6.225899,0.005542,0.002812,-0.001215,-0.238037,0.533447,-0.113525,-0.152922,8.181231,5.39906,-0.01137,0.014972,0.006319,-0.271484,0.368164,0.438477,-0.979726,-7.01622,6.819498,-0.004964,0.000818,-4.9e-05,0.626953,0.061523,0.019287,1.57589,-7.285199,6.423442,-0.005646,-0.00189,0.009066,0.234131,0.326172,-0.540527,3.151951,-6.352964,6.748218,0.002374,-0.006399,-0.012276,-0.46167,0.412598,-0.283203
1.399414,-7.501881,6.219708,-0.00973,0.00261,-0.00021,-0.243408,0.519531,-0.112305,-0.160253,8.172214,5.384893,-0.010042,-0.002383,0.004197,-0.260254,0.376465,0.437256,-1.002733,-7.034205,6.837542,-0.005457,0.007594,0.002365,0.621094,0.049072,0.02002,1.573408,-7.295802,6.423633,-0.001049,0.003145,0.00911,0.226807,0.312012,-0.540771,3.166928,-6.370148,6.764473,-0.007625,-0.008904,0.008589,-0.468994,0.399902,-0.280518
1.393912,-7.475951,6.211466,0.011455,0.003924,0.000464,-0.238037,0.531982,-0.115967,-0.101175,8.201013,5.380053,-0.001264,0.013043,0.00381,-0.258545,0.368408,0.43335,-0.999814,-7.014233,6.829575,0.004329,0.002865,-0.004175,0.628418,0.061523,0.013184,1.55582,-7.264312,6.443888,-0.004497,-2.2e-05,0.009425,0.233643,0.324951,-0.544678,3.154643,-6.356929,6.765534,0.009543,-0.013774,-0.013343,-0.462646,0.409668,-0.286377
1.385453,-7.458128,6.225433,-0.011546,0.002407,0.001215,-0.240479,0.532715,-0.113525,-0.179499,8.188529,5.400152,-0.019278,0.002695,0.006373,-0.26416,0.375244,0.434326,-0.995522,-7.014015,6.845287,-0.00882,0.003773,0.004231,0.625,0.061035,0.019287,1.580494,-7.277522,6.440418,-0.00527,0.001012,0.010744,0.230713,0.327637,-0.541504,3.163209,-6.367479,6.782469,-0.014879,-0.006835,0.004417,-0.462646,0.413574,-0.281494
1.40852,-7.488525,6.187605,0.006842,0.002758,-0.000109,-0.237305,0.526611,-0.107422,-0.095186,8.167648,5.384474,-0.004806,0.00479,0.003446,-0.264648,0.378418,0.438721,-1.014503,-7.016737,6.831609,-0.007019,0.003733,-0.001033,0.628418,0.055664,0.024414,1.561336,-7.298407,6.428644,-0.010123,0.001788,0.011662,0.234863,0.320557,-0.535889,3.167427,-6.390898,6.756737,0.008655,-0.007603,-0.006678,-0.460449,0.407227,-0.277344
1.376996,-7.453407,6.222017,-0.002188,0.001495,-0.001469,-0.234863,0.530762,-0.110107,-0.175464,8.189804,5.412139,-0.008932,0.01264,0.005715,-0.262939,0.375,0.437988,-0.991804,-7.02006,6.835408,-0.004084,0.004062,0.000289,0.632324,0.061768,0.020264,1.588346,-7.282532,6.42279,-0.000325,-0.000798,0.006915,0.237305,0.323975,-0.538574,3.184997,-6.347563,6.796957,-0.00118,0.00165,-0.006596,-0.457031,0.411377,-0.279785
1.392543,-7.512966,6.18982,-0.001589,-0.001244,0.000655,-0.242188,0.527832,-0.114502,-0.121068,8.188641,5.3895,-0.015003,-0.003581,0.005592,-0.273438,0.371094,0.433105,-0.995847,-7.024638,6.847518,-0.00307,0.005437,0.001275,0.625488,0.055908,0.015381,1.556399,-7.25999,6.445052,-0.01014,0.002771,0.012613,0.23291,0.320557,-0.543213,3.161259,-6.38418,6.757389,-0.00948,0.004266,0.005838,-0.464111,0.409424,-0.284912
1.392682,-7.452071,6.216269,0.009762,0.001839,-0.000218,-0.240723,0.529785,-0.113525,-0.129853,8.173064,5.390724,-0.005667,0.014928,0.005428,-0.259521,0.376221,0.434082,-0.987413,-7.008559,6.83215,0.000476,0.001924,-0.003136,0.624023,0.05835,0.018311,1.582372,-7.314169,6.423171,-0.001107,-0.0022,0.006846,0.229248,0.325684,-0.545166,3.168854,-6.375081,6.749504,0.005228,-0.001604,-0.01543,-0.464844,0.409424,-0.284424
1.395353,-7.477999,6.203198,-0.008586,-0.001984,-0.001178,-0.232422,0.531982,-0.111572,-0.168117,8.190396,5.389676,-0.007226,-0.000125,0.00583,-0.256836,0.369141,0.443115,-1.008286,-7.038494,6.83231,-0.008816,0.0107,0.005767,0.631836,0.064453,0.021729,1.57156,-7.273801,6.435249,-0.001805,0.005625,0.010876,0.238281,0.326416,-0.538574,3.161221,-6.369977,6.760478,-0.001219,0.006905,0.006711,-0.456055,0.412842,-0.278564
1.387326,-7.483765,6.212888,0.007699,0.003426,0.000814,-0.240234,0.529541,-0.118164,-0.118662,8.192086,5.378902,-0.007345,0.00851,0.002461,-0.255859,0.371338,0.444336,-1.019348,-7.015416,6.851341,0.001779,-0.00024,-0.00306,0.625488,0.059082,0.013672,1.555159,-7.302371,6.451678,-0.012439,-0.001946,0.010949,0.231201,0.325928,-0.548096,3.134039,-6.370729,6.758855,0.004984,-0.005904,-0.012035,-0.462646,0.411377,-0.288818
1.384426,-7.470761,6.208846,-0.005902,-0.0005,0.001207,-0.239746,0.536133,-0.108887,-0.176179,8.167608,5.371754,-0.017072,0.006195,0.006106,-0.265381,0.366943,0.440186,-0.988009,-7.01827,6.835278,-0.009969,0.004265,0.002598,0.628174,0.063721,0.021484,1.581875,-7.314702,6.461767,0.001955,0.001479,0.007194,0.231445,0.331543,-0.537842,3.165598,-6.377287,6.728377,-0.014047,-0.001902,0.002076,-0.462402,0.414307,-0.278076
1.407286,-7.484922,6.219658,0.006306,0.003251,0.001257,-0.24292,0.519775,-0.112549,-0.106888,8.181992,5.381179,-9.4e-05,0.002293,0.002782,-0.263428,0.368164,0.432861,-1.013025,-7.032951,6.824114,-0.001449,0.006865,-0.000226,0.623047,0.049805,0.017822,1.568227,-7.266497,6.445795,-0.004538,0.001938,0.01133,0.227295,0.31543,-0.542969,3.143805,-6.377442,6.756532,0.013411,-0.006693,-0.005757,-0.464111,0.399902,-0.283447
1.37059,-7.450433,6.210552,-0.003054,0.002189,-0.00067,-0.230225,0.533203,-0.114746,-0.16472,8.21778,5.392165,-0.012467,0.013251,0.006447,-0.261475,0.376953,0.447021,-0.99374,-7.00422,6.822505,-0.00445,-0.00186,-0.001428,0.633057,0.066895,0.015381,1.593729,-7.270433,6.441106,-0.009783,-0.002617,0.009179,0.239014,0.327637,-0.543457,3.164722,-6.341817,6.764747,-0.009084,-0.008083,-0.008085,-0.455811,0.414062,-0.281738
1.401079,-7.517094,6.215891,-0.00551,0.001638,0.000784,-0.238281,0.529053,-0.109863,-0.137938,8.151384,5.401181,-0.018301,-0.003695,0.005021,-0.26123,0.371826,0.437012,-0.989834,-7.021247,6.831956,-0.013373,0.005043,0.002705,0.626465,0.061035,0.020752,1.572972,-7.29267,6.415065,-0.011599,0.003808,0.012346,0.232666,0.326904,-0.538086,3.154986,-6.40011,6.759977,-0.010125,-0.007537,0.008523,-0.462158,0.412354,-0.277344
1.38562,-7.449561,6.204398,0.012765,0.002509,-0.000152,-0.239502,0.530762,-0.109619,-0.124654,8.190476,5.378293,0.002274,0.016198,0.005135,-0.263428,0.375,0.435791,-0.991074,-7.038264,6.825772,0.002518,0.001842,-0.001657,0.625488,0.061768,0.019531,1.564253,-7.302408,6.422751,0.002652,-0.000497,0.006893,0.232666,0.328125,-0.539795,3.168953,-6.371494,6.766592,0.01712,-0.005415,-0.018198,-0.463623,0.411865,-0.278564
1.38763,-7.483313,6.235313,-0.013012,-0.000719,-0.000241,-0.236328,0.530762,-0.114746,-0.173125,8.199763,5.397105,-0.013193,-0.000926,0.005116,-0.263184,0.377686,0.439697,-1.004502,-7.023063,6.834689,-0.00348,0.00801,0.001049,0.629639,0.062256,0.01416,1.589482,-7.25465,6.436911,-0.003026,0.001831,0.010592,0.23584,0.325195,-0.543701,3.182476,-6.358619,6.780045,-0.012663,0.000197,0.009033,-0.459961,0.413574,-0.285889
1.387786,-7.509833,6.200144,0.010009,4.9e-05,0.000176,-0.236328,0.531494,-0.114014,-0.103851,8.182504,5.375095,-0.008979,0.005284,0.005255,-0.259521,0.375732,0.440674,-0.998178,-7.035125,6.832183,-0.003058,0.002603,0.000782,0.627441,0.057129,0.016846,1.555336,-7.312313,6.443326,-0.013689,-0.001335,0.013955,0.233154,0.323975,-0.546875,3.157998,-6.383821,6.752448,0.001132,-0.001876,-0.010067,-0.460205,0.411621,-0.283203
1.372278,-7.439334,6.219654,0.000413,0.001389,0.000741,-0.245117,0.529541,-0.116943,-0.181461,8.182752,5.400498,-0.011366,0.010574,0.005767,-0.265137,0.376465,0.438232,-0.983991,-7.007235,6.814093,-0.006127,0.004143,-0.001186,0.620361,0.05957,0.015381,1.596776,-7.287657,6.435475,0.007975,0.001572,0.005688,0.225098,0.324951,-0.54541,3.165675,-6.374404,6.744808,-0.002912,0.005812,-0.002071,-0.470215,0.409668,-0.284912
1.40607,-7.497738,6.202902,-0.005026,-0.002555,-0.001316,-0.240967,0.539062,-0.114014,-0.122062,8.170232,5.403569,-0.005841,-0.000587,0.003761,-0.256348,0.376221,0.439697,-1.010236,-7.029152,6.845006,-0.002813,0.00756,0.001361,0.621338,0.068604,0.017334,1.55963,-7.285845,6.432536,-0.013015,0.005318,0.011568,0.22998,0.333496,-0.541992,3.138494,-6.388852,6.74063,0.006603,0.001,0.001072,-0.464111,0.417725,-0.284668
1.385378,-7.459629,6.218155,0.006728,0.003278,0.000276,-0.237549,0.526611,-0.117188,-0.151091,8.201562,5.403802,-0.01062,0.013745,0.00683,-0.252441,0.369629,0.432617,-1.00124,-6.99733,6.83443,-0.00445,-0.001859,-0.001429,0.627686,0.05957,0.015137,1.575791,-7.309523,6.422891,-0.00656,-0.005688,0.009582,0.234131,0.32373,-0.54541,3.157392,-6.339498,6.752395,0.00123,-0.003708,-0.01308,-0.459717,0.408203,-0.287109
1.400697,-7.482119,6.208039,-0.005479,-0.000472,0.000225,-0.239014,0.527344,-0.104248,-0.139432,8.161395,5.372264,-0.013676,-0.003221,0.00564,-0.272949,0.365234,0.435303,-0.989804,-7.0299,6.81884,-0.009679,0.007651,0.003228,0.627197,0.057129,0.029053,1.578058,-7.28048,6.433612,-0.001019,0.006029,0.01001,0.231934,0.324219,-0.532227,3.160573,-6.380924,6.74281,-0.014668,0.000607,0.007967,-0.461426,0.411133,-0.2771
1.395092,-7.477282,6.226071,0.003922,0.003677,-1e-06,-0.241455,0.539062,-0.110596,-0.117008,8.192458,5.383936,-0.002154,0.012069,0.003315,-0.258789,0.369873,0.436768,-1.004055,-7.026938,6.845673,0.003262,2.9e-05,-0.0035,0.623291,0.067627,0.018799,1.560432,-7.299949,6.43595,-0.009495,-0.00066,0.011885,0.231689,0.332764,-0.539062,3.148679,-6.379983,6.731301,0.007626,-0.011762,-0.012374,-0.465576,0.418701,-0.280029
1.394788,-7.477225,6.226207,-0.003116,-0.00015,0.000319,-0.232422,0.532471,-0.117432,-0.181686,8.192165,5.391759,-0.016916,0.004035,0.005543,-0.269531,0.371338,0.434814,-0.966199,-7.000815,6.833183,-0.005174,0.00405,0.001459,0.634277,0.0625,0.015869,1.590187,-7.273466,6.443139,0.000678,-0.001806,0.008366,0.238281,0.326416,-0.546387,3.184494,-6.372843,6.744253,-0.002757,-0.008232,0.003319,-0.458008,0.411621,-0.286621
1.397168,-7.47952,6.217435,0.005779,0.002382,0.000902,-0.242432,0.529053,-0.112305,-0.101987,8.173437,5.388909,-0.006038,0.003084,0.004955,-0.258545,0.376221,0.437744,-1.017935,-7.033131,6.824875,-0.005115,0.005516,-0.000197,0.625,0.060547,0.02002,1.557707,-7.292408,6.433594,-0.009026,0.002195,0.011602,0.230713,0.324463,-0.542969,3.163536,-6.370645,6.763132,0.007164,-0.004444,-0.005564,-0.466064,0.409668,-0.282715
1.381567,-7.459759,6.196902,-0.007026,0.001371,-0.001274,-0.241943,0.535645,-0.116699,-0.177322,8.193362,5.40384,-0.009432,0.012525,0.005411,-0.267578,0.373047,0.439453,-0.988854,-7.028455,6.803037,-0.006029,0.001009,-0.001088,0.621826,0.064209,0.015137,1.57467,-7.30617,6.423432,-0.007916,-0.002258,0.008735,0.228271,0.330078,-0.545898,3.170528,-6.367532,6.783368,-0.011843,-0.004386,-0.006057,-0.466064,0.415771,-0.286621
1.396896,-7.51673,6.195322,0.001527,-0.001094,0.000335,-0.23584,0.532227,-0.115234,-0.12506,8.172972,5.391074,-0.012825,-0.005177,0.006238,-0.263916,0.365479,0.437256,-0.980453,-7.044326,6.829246,-0.004748,0.005569,0.002734,0.630127,0.060791,0.01709,1.574867,-7.306383,6.436209,-0.001816,0.002192,0.008551,0.233887,0.324707,-0.540771,3.160312,-6.408021,6.762973,-0.004714,0.00014,0.004884,-0.460205,0.408936,-0.283691
1.404959,-7.449912,6.212281,0.009318,0.002559,-0.000399,-0.242432,0.524414,-0.11377,-0.118597,8.19496,5.391028,-0.003363,0.015461,0.003902,-0.262451,0.363525,0.431641,-0.994889,-7.009851,6.814039,0.000562,0.001624,-0.002537,0.625244,0.056152,0.018066,1.573748,-7.279113,6.419656,-0.005355,-0.001907,0.00988,0.229736,0.318848,-0.543945,3.173564,-6.361694,6.753937,0.013228,-0.00033,-0.015665,-0.468018,0.403809,-0.282715
1.397014,-7.469004,6.204306,-0.012568,-0.00144,-6e-05,-0.239746,0.528564,-0.118896,-0.143151,8.183198,5.385617,-0.014573,0.000236,0.00567,-0.260986,0.369873,0.430176,-1.007131,-7.014813,6.846226,-0.008738,0.006493,0.003124,0.628174,0.05957,0.010986,1.579543,-7.280335,6.424919,-0.003238,0.004684,0.008721,0.232422,0.326416,-0.546631,3.168315,-6.381958,6.749376,-0.012562,0.002067,0.009217,-0.463379,0.411865,-0.289795
1.399527,-7.482132,6.208287,0.009431,0.002039,-0.000784,-0.239502,0.539551,-0.107422,-0.109778,8.193817,5.390537,-0.007859,0.007715,0.003641,-0.263184,0.378418,0.430664,-1.013514,-7.032423,6.823726,-0.002724,0.003363,-0.001289,0.628418,0.06958,0.023926,1.564732,-7.2895,6.439724,-0.011738,-0.001019,0.011547,0.232666,0.334961,-0.537354,3.155759,-6.396252,6.745315,0.009873,-0.004171,-0.011516,-0.463135,0.421631,-0.277344
1.386569,-7.461603,6.210033,-0.004086,-0.000297,-0.000219,-0.23584,0.5271,-0.111572,-0.166752,8.182364,5.388346,-0.013166,0.008629,0.004729,-0.262207,0.373047,0.432861,-0.996088,-7.031871,6.835034,-0.006967,0.003223,0.001769,0.62793,0.056152,0.019043,1.582777,-7.311736,6.444335,-0.001084,0.000686,0.007739,0.233398,0.319824,-0.539307,3.169704,-6.365575,6.742678,-0.004341,0.001557,-0.00209,-0.458984,0.407227,-0.279541
1.394099,-7.489896,6.209509,0.003839,0.002087,-0.000174,-0.23877,0.524414,-0.112305,-0.117263,8.183834,5.377966,-0.003682,-4.5e-05,0.003599,-0.261475,0.369873,0.436523,-1.004936,-7.03673,6.831242,0.00329,0.005186,0.000299,0.627441,0.057861,0.018066,1.56203,-7.281986,6.437352,-0.004476,0.001879,0.00938,0.230225,0.322021,-0.544678,3.14912,-6.37533,6.749285,0.002824,-0.000779,-0.001283,-0.462646,0.406982,-0.286621
1.394121,-7.452833,6.231491,0.000423,2.8e-05,-0.000981,-0.238037,0.533447,-0.115479,-0.152569,8.211014,5.405952,-0.007674,0.011552,0.006537,-0.261963,0.371826,0.43457,-0.996186,-7.000026,6.844846,-0.003831,-0.000741,-0.00117,0.626465,0.061035,0.016846,1.565481,-7.294104,6.429308,-0.007593,-0.002265,0.009538,0.233154,0.32373,-0.539062,3.178068,-6.373623,6.750893,-0.002923,-0.006912,-0.008462,-0.461182,0.412598,-0.281738
1.414668,-7.493759,6.185475,-0.003291,0.004591,0.001822,-0.243164,0.5354,-0.106689,-0.133743,8.178192,5.391007,-0.019188,0.000468,0.003534,-0.26709,0.375977,0.429443,-1.000127,-7.025737,6.827556,-0.011559,0.007124,0.002945,0.623291,0.06543,0.026611,1.586146,-7.286949,6.43197,-0.001886,0.000266,0.008621,0.227539,0.332275,-0.536377,3.17228,-6.398941,6.76417,-0.006838,-0.001598,0.005516,-0.465332,0.418701,-0.27417
1.388272,-7.474595,6.214359,0.000898,-0.002803,-0.001358,-0.240967,0.530029,-0.103516,-0.133505,8.177069,5.392716,0.002302,0.009606,0.005443,-0.270508,0.366943,0.433105,-1.004685,-7.047059,6.833844,-0.002902,0.000935,-0.000776,0.622803,0.060059,0.025391,1.539206,-7.305386,6.423314,-0.016137,0.006033,0.01454,0.229736,0.324463,-0.532959,3.152874,-6.39112,6.754138,0.005295,-0.006915,-0.010216,-0.468018,0.408691,-0.27417
1.40154,-7.460011,6.204766,0.007543,0.005444,-0.001128,-0.241455,0.535889,-0.106689,-0.131872,8.224182,5.371089,-0.009432,0.004356,0.002801,-0.270996,0.370361,0.442139,-0.979652,-7.005175,6.831021,0.006528,0.005013,-0.000995,0.624756,0.065918,0.022705,1.590919,-7.2802,6.435008,0.00986,-0.012562,0.003571,0.227295,0.328125,-0.538818,3.186364,-6.342196,6.776552,0.01275,-0.012132,-0.002519,-0.468018,0.415527,-0.275146
1.372542,-7.478375,6.189739,-0.01752,-0.001044,0.000518,-0.233398,0.527832,-0.113525,-0.163209,8.153202,5.397034,-0.026742,0.007578,0.008116,-0.261719,0.365723,0.437744,-1.024315,-7.028791,6.849266,-0.019325,0.006798,0.004964,0.63208,0.056396,0.013916,1.587075,-7.249821,6.45388,-0.014207,0.018903,0.013853,0.238281,0.324219,-0.544434,3.183188,-6.391654,6.764152,-0.036976,0.00746,-0.001647,-0.457031,0.40918,-0.284424
1.411445,-7.514946,6.190392,0.019089,0.003037,-0.002336,-0.243408,0.540283,-0.11499,-0.120452,8.159817,5.375881,0.009577,0.000958,0.000748,-0.263428,0.37207,0.435303,-0.990499,-7.044644,6.814235,-0.000433,-0.002578,-0.004027,0.623535,0.069336,0.019287,1.515101,-7.356936,6.425299,-0.013912,-0.009064,0.012267,0.229248,0.334473,-0.54126,3.139611,-6.42024,6.715007,0.029615,-0.008878,0.000483,-0.467041,0.419434,-0.280029
1.357305,-7.393767,6.227728,0.001001,-0.001963,-2e-05,-0.238281,0.5271,-0.11499,-0.150722,8.238921,5.388822,-0.011514,0.01279,0.006314,-0.254395,0.371826,0.435791,-0.98595,-6.991976,6.817293,0.004861,0.006208,0.00321,0.630371,0.058594,0.016602,1.6311,-7.257028,6.439228,0.022214,-0.006658,-0.001626,0.232178,0.320312,-0.545166,3.196208,-6.298337,6.746139,0.01163,0.002548,-0.01791,-0.462158,0.40918,-0.282471
1.424851,-7.545281,6.202565,-0.019893,-0.00198,-0.002463,-0.237793,0.527344,-0.11499,-0.140218,8.163494,5.385627,-0.018503,-0.003729,0.004116,-0.262695,0.382324,0.441895,-1.01443,-7.006149,6.842632,-0.013785,0.003718,-0.000773,0.62793,0.05542,0.014893,1.551818,-7.261523,6.441522,-0.033726,0.014921,0.022049,0.233154,0.321533,-0.546875,3.156997,-6.375233,6.756877,-0.027888,0.004131,0.017287,-0.46167,0.4104,-0.283936
1.391739,-7.465997,6.192637,0.024495,0.002534,0.000152,-0.236328,0.530518,-0.10791,-0.117881,8.194114,5.398021,-0.002543,0.01499,0.005172,-0.259521,0.368408,0.442139,-0.980847,-7.038296,6.802244,-0.008276,-0.001541,0.000147,0.629883,0.060059,0.021484,1.582137,-7.346615,6.426057,0.005662,-0.015201,0.003738,0.233643,0.324951,-0.537598,3.174608,-6.415678,6.737026,-0.005141,-0.009439,-0.020754,-0.461426,0.410889,-0.276855
1.401444,-7.4668,6.249847,-0.012484,0.000149,0.000113,-0.235107,0.537109,-0.114258,-0.169294,8.193735,5.387705,-0.010515,0.000459,0.003751,-0.265625,0.374756,0.434082,-1.000826,-7.031308,6.836666,0.005442,0.011925,0.001727,0.62915,0.068115,0.02002,1.605595,-7.239442,6.43121,0.007807,0.012677,0.008958,0.236084,0.33252,-0.540771,3.170107,-6.435961,6.732106,0.004634,0.004584,0.012186,-0.459717,0.417725,-0.281006
1.391234,-7.489355,6.188861,0.003198,0.001739,-0.000145,-0.239746,0.535645,-0.117188,-0.107477,8.200161,5.381468,-0.010263,0.007919,0.005079,-0.261719,0.365723,0.438965,-1.028781,-6.996886,6.826149,-0.001012,-0.001373,-0.00099,0.628418,0.068115,0.013672,1.51583,-7.310596,6.459221,-0.027637,-0.001922,0.015499,0.233398,0.331543,-0.547119,3.124044,-6.338095,6.742268,0.034508,-0.009759,-0.014926,-0.464355,0.416992,-0.286133
1.401442,-7.472652,6.187979,0.001382,0.001537,0.001279,-0.23999,0.531982,-0.110352,-0.165241,8.163154,5.368636,-0.017555,0.003958,0.006593,-0.260742,0.373535,0.441406,-0.943143,-7.016591,6.817679,-0.014157,0.00169,0.000751,0.626465,0.05957,0.021973,1.61564,-7.294553,6.408926,0.015994,-0.01009,0.001474,0.23291,0.323975,-0.539062,3.231559,-6.334327,6.72892,-0.025415,-0.007832,-0.001209,-0.463135,0.413574,-0.279297
1.385506,-7.446808,6.229665,0.005242,0.000901,-0.00234,-0.236328,0.532715,-0.112061,-0.125804,8.197489,5.370989,0.005806,0.00672,0.003331,-0.263916,0.363037,0.443604,-1.047249,-7.041258,6.805626,-0.006959,0.013176,0.001625,0.629883,0.061768,0.020752,1.565614,-7.249615,6.439819,-0.02105,0.018392,0.016271,0.235352,0.328613,-0.541016,3.141241,-6.40084,6.767828,-0.005315,0.009844,0.005732,-0.461914,0.411377,-0.27832
1.396005,-7.528992,6.179173,-0.025806,-0.00112,0.000463,-0.243408,0.529785,-0.110352,-0.15293,8.203351,5.428492,-0.023295,0.005529,0.008112,-0.256348,0.372314,0.435547,-0.990823,-7.050142,6.823464,-0.003196,-0.009375,-0.002966,0.624268,0.058838,0.018066,1.535305,-7.36998,6.419646,-0.015183,-0.011867,0.012926,0.227539,0.324219,-0.541748,3.179184,-6.417219,6.7446,-0.021946,-0.012975,-0.016646,-0.467773,0.409912,-0.279297
1.413721,-7.513837,6.21317,0.036462,0.002128,0.002572,-0.23584,0.5271,-0.111816,-0.105495,8.135048,5.370509,-0.006942,0.002117,0.004427,-0.265381,0.369629,0.429932,-0.958326,-7.020062,6.81862,0.003324,0.01337,0.00241,0.628906,0.058594,0.02002,1.621188,-7.277943,6.424626,0.028059,0.000673,-0.001728,0.23291,0.322998,-0.537842,3.210354,-6.442034,6.740736,0.030145,-0.006937,0.013531,-0.461914,0.40918,-0.275879
1.379978,-7.359691,6.248167,-0.012535,0.003008,-0.000493,-0.236816,0.532959,-0.116699,-0.165562,8.23415,5.376544,0.005872,0.014098,0.003819,-0.257568,0.370117,0.443115,-1.044984,-6.985491,6.830782,-0.002499,0.004225,-0.001749,0.62793,0.062744,0.016113,1.554008,-7.232303,6.431131,-0.020144,0.011594,0.015941,0.233398,0.326904,-0.545654,3.153733,-6.300072,6.780278,0.017174,0.009221,-0.030204,-0.461426,0.413818,-0.284668
1.384393,-7.568992,6.176549,-0.022153,-0.001462,-0.001223,-0.239258,0.532471,-0.11377,-0.148397,8.195032,5.376273,-0.026221,-0.002594,0.006612,-0.261963,0.372314,0.430908,-0.973205,-7.022318,6.820846,-0.015039,-0.001554,0.0004,0.625,0.0625,0.018555,1.567701,-7.34613,6.418533,-0.018412,-0.009766,0.011584,0.231689,0.327393,-0.542969,3.146952,-6.361574,6.725642,-0.035615,-0.010931,0.026277,-0.462646,0.415039,-0.280762
1.403412,-7.449093,6.213612,0.032346,0.001967,-0.001696,-0.231934,0.533691,-0.109619,-0.117357,8.144528,5.399085,-0.007932,0.010706,0.004944,-0.258301,0.375,0.444824,-1.014637,-7.058897,6.820143,-0.008018,0.007504,0.001788,0.632324,0.062744,0.02124,1.603931,-7.321121,6.417859,0.006666,0.006416,0.005298,0.23877,0.326172,-0.540527,3.18547,-6.425189,6.722089,0.005449,0.000579,-0.025221,-0.456055,0.412842,-0.278809
1.379841,-7.41751,6.252897,-0.012679,-0.000919,0.000323,-0.23877,0.532715,-0.111572,-0.166136,8.205375,5.370814,0.008106,0.004381,0.004121,-0.26709,0.374268,0.439453,-0.997794,-7.021387,6.814194,0.013779,0.001092,-0.003176,0.629395,0.060303,0.022705,1.534945,-7.253592,6.444698,0.006796,0.000646,0.006287,0.233398,0.32666,-0.540039,3.156505,-6.399616,6.736843,0.0088,0.008068,0.005686,-0.463135,0.413818,-0.279297
1.416035,-7.526796,6.2174,-0.008306,0.000674,-0.001218,-0.238281,0.533936,-0.114258,-0.111221,8.225902,5.418897,-0.022864,0.003994,0.003289,-0.263672,0.365479,0.439453,-0.980442,-6.96323,6.837352,-0.004031,0.005524,-0.001356,0.626709,0.063965,0.019043,1.606993,-7.253763,6.41291,-0.019543,-0.007746,0.013068,0.231934,0.329346,-0.540771,3.142441,-6.386887,6.738368,-0.009207,-0.015851,-0.004528,-0.463379,0.414307,-0.281494
1.39294,-7.478303,6.197906,0.012763,0.00251,-0.000149,-0.232178,0.523926,-0.110107,-0.158818,8.136984,5.367667,-0.02076,0.009086,0.007331,-0.265625,0.371826,0.439697,-1.001033,-7.067655,6.819592,-0.032211,0.002219,0.004732,0.634766,0.053467,0.018799,1.562322,-7.331973,6.41282,-0.016359,0.012305,0.015049,0.240479,0.318848,-0.541016,3.216574,-6.404773,6.707549,1.8e-05,0.001873,-0.005059,-0.453369,0.405029,-0.278809
1.371859,-7.415567,6.21862,0.002971,0.00278,0.000625,-0.243164,0.52832,-0.109375,-0.140912,8.192993,5.358328,0.012095,0.003795,0.001481,-0.26001,0.379395,0.435791,-0.997291,-7.088953,6.805375,0.01456,0.007469,-0.002914,0.625732,0.057373,0.020508,1.545857,-7.290218,6.433159,0.016544,-0.005331,0.001121,0.230469,0.322754,-0.539551,3.134476,-6.356122,6.764303,0.01885,0.00047,-0.00044,-0.464844,0.407715,-0.277832
1.402779,-7.519567,6.201607,-0.020087,-0.00305,-0.002254,-0.243164,0.533203,-0.108887,-0.15344,8.224098,5.408645,-0.018856,0.005912,0.007898,-0.26123,0.372314,0.437256,-1.011604,-6.975932,6.831397,0.007295,0.000377,-0.003337,0.625,0.062256,0.020996,1.590019,-7.264457,6.439623,-0.015926,0.001674,0.014037,0.228027,0.32666,-0.537842,3.186953,-6.369802,6.743512,-0.02202,-0.014083,-0.009134,-0.467285,0.412598,-0.276611
1.41088,-7.500453,6.209571,0.0231,0.002359,0.000598,-0.235596,0.533691,-0.115967,-0.11874,8.168842,5.373851,-0.014076,0.003262,0.003623,-0.258545,0.375244,0.433105,-0.966471,-7.014033,6.829687,-0.020694,0.00359,0.003292,0.630615,0.062744,0.017334,1.563035,-7.303756,6.436392,-0.003811,-0.00011,0.00909,0.235352,0.329102,-0.543945,3.191383,-6.409863,6.723431,0.001558,0.001885,0.005999,-0.45874,0.414307,-0.283203
1.377139,-7.407358,6.217966,-0.009286,0.001888,-3.5e-05,-0.235107,0.527344,-0.113525,-0.157903,8.173575,5.367497,-0.002662,0.011269,0.004521,-0.261963,0.364258,0.432861,-1.016439,-7.055411,6.825214,-0.00551,0.006312,0.001839,0.632812,0.056396,0.02002,1.599899,-7.26849,6.435808,-0.000346,0.000613,0.007381,0.238525,0.320557,-0.54248,3.147496,-6.42255,6.767774,-0.011201,0.00396,-0.013799,-0.455322,0.408447,-0.282227
1.389147,-7.546624,6.194672,-0.007739,4.5e-05,0.001465,-0.23584,0.529053,-0.120605,-0.13733,8.197908,5.394547,-0.009463,-0.000732,0.003701,-0.269531,0.372314,0.445312,-0.994481,-7.017738,6.835207,0.007263,-0.000884,-0.003887,0.626465,0.057617,0.008545,1.549544,-7.325719,6.429619,-0.020485,0.003437,0.016727,0.23291,0.32251,-0.550293,3.171459,-6.403776,6.723248,0.020652,-0.014073,0.011675,-0.461182,0.411133,-0.289551
1.397314,-7.445836,6.202427,0.018684,0.002261,-0.000189,-0.23877,0.53833,-0.117432,-0.132979,8.181585,5.378594,-0.014965,0.010474,0.005726,-0.266357,0.368652,0.437012,-0.991004,-6.997644,6.827531,-0.007241,0.006955,0.000492,0.626221,0.064941,0.014404,1.584821,-7.291272,6.415374,0.016933,-0.005855,0.000453,0.232422,0.329346,-0.543457,3.209948,-6.315045,6.735912,0.016777,0.003827,-0.024555,-0.463379,0.417236,-0.286621
1.376444,-7.454429,6.209929,-0.011719,-0.001385,-0.002026,-0.23584,0.526123,-0.11377,-0.175864,8.182405,5.364392,-0.005817,0.004547,0.002822,-0.262207,0.369629,0.434814,-1.029805,-7.030057,6.813984,-0.014459,0.005216,0.001671,0.629639,0.055664,0.018066,1.57645,-7.249869,6.441531,-0.018033,0.008571,0.015932,0.236816,0.320557,-0.544434,3.126893,-6.370927,6.768709,-0.033867,0.008004,0.016744,-0.460449,0.406738,-0.281738
1.412842,-7.513281,6.214042,-0.002497,0.000946,-0.000874,-0.240479,0.530518,-0.109619,-0.108656,8.208362,5.415723,-0.003332,0.002286,0.004453,-0.267578,0.374512,0.441895,-0.976199,-7.047322,6.821083,0.003436,-0.000569,-0.002307,0.622559,0.058594,0.020752,1.547592,-7.350184,6.420294,-0.012185,-0.001489,0.011287,0.228271,0.324219,-0.539551,3.175867,-6.445322,6.712949,-0.0071,-0.014904,-0.01285,-0.466064,0.411133,-0.276123
1.407508,-7.473553,6.223947,0.012668,0.002282,0.001401,-0.236084,0.534424,-0.107422,-0.162262,8.198259,5.376727,-0.016901,0.008544,0.006065,-0.257812,0.373535,0.432861,-0.995741,-7.008214,6.814172,0.002458,0.007296,0.001566,0.628662,0.062012,0.024658,1.598275,-7.255961,6.422484,0.019958,-0.004116,0.00087,0.234863,0.328857,-0.535889,3.230217,-6.402162,6.735305,0.022119,0.001121,-0.003469,-0.461914,0.413574,-0.275635
1.396687,-7.418454,6.238686,-0.002312,0.003377,0.000636,-0.23877,0.524658,-0.109375,-0.125786,8.181539,5.357687,-0.004649,0.002635,0.002886,-0.259277,0.369141,0.438721,-1.023672,-7.005828,6.845207,-0.004651,0.004406,-0.001617,0.625732,0.055176,0.022461,1.581448,-7.2425,6.458522,-0.020257,0.007247,0.014637,0.230957,0.321777,-0.539795,3.134041,-6.322268,6.778467,0.007673,-0.001691,-0.003386,-0.465332,0.407227,-0.277588
1.390565,-7.535828,6.203473,-0.020109,-0.000327,0.001188,-0.242432,0.535156,-0.115723,-0.152611,8.199508,5.421249,-0.017127,0.009954,0.005869,-0.266113,0.373047,0.440186,-0.99603,-7.030075,6.835495,-0.019232,-0.000238,0.001796,0.622559,0.063721,0.016113,1.559114,-7.335003,6.428002,-0.020003,0.001911,0.013143,0.227783,0.328369,-0.543701,3.184835,-6.408657,6.720891,-0.034341,-0.009339,-0.000106,-0.467041,0.416748,-0.281006
1.401164,-7.484902,6.193655,0.028073,0.001213,0.001186,-0.238525,0.525146,-0.115234,-0.132146,8.173798,5.390439,-0.006341,-2.2e-05,0.001936,-0.266357,0.370605,0.440918,-1.001839,-7.048234,6.812336,0.00058,0.005718,-0.001474,0.622803,0.054932,0.016113,1.555997,-7.318455,6.398203,0.00926,-0.005808,0.00469,0.229492,0.322998,-0.546143,3.157975,-6.410646,6.71816,0.027631,0.000859,0.000723,-0.467285,0.406982,-0.286133
1.362221,-7.410577,6.215775,-0.016455,-0.000668,-0.000495,-0.238281,0.533447,-0.114746,-0.158932,8.183527,5.388162,-0.014212,0.013653,0.006804,-0.258057,0.368408,0.429932,-1.019257,-7.017247,6.810586,0.001659,0.002696,-0.000944,0.62793,0.061035,0.016602,1.572098,-7.249179,6.42695,-0.006192,0.006284,0.008724,0.23291,0.327393,-0.543701,3.16638,-6.330939,6.756533,-0.010349,0.002528,-0.016719,-0.462891,0.413574,-0.284912
1.447797,-7.584114,6.202475,0.001322,-0.002776,-0.002339,-0.239502,0.536865,-0.10791,-0.12583,8.18215,5.38657,0.002689,-0.007205,0.005621,-0.262939,0.369873,0.429688,-0.991134,-7.023691,6.807862,-0.005445,0.001915,0.001379,0.626953,0.063477,0.020996,1.568968,-7.311127,6.408198,-0.011041,-0.006819,0.014168,0.231201,0.329834,-0.537109,3.174773,-6.438141,6.722922,-0.004653,-0.012626,0.017043,-0.462158,0.416016,-0.276367
1.373205,-7.380442,6.232459,0.020435,0.006683,-0.000497,-0.239014,0.534424,-0.113525,-0.122095,8.225964,5.389336,-0.01372,0.021663,0.001659,-0.260254,0.370605,0.44043,-0.999902,-7.008982,6.832048,-0.00674,0.00711,-0.000385,0.628174,0.063477,0.018799,1.63275,-7.256637,6.437792,0.006242,0.003035,0.004121,0.232666,0.327393,-0.544434,3.205851,-6.361362,6.740747,0.008256,0.006703,-0.029691,-0.462402,0.414062,-0.280518
1.395486,-7.537006,6.217433,-0.03386,-0.002235,-0.000367,-0.23584,0.530273,-0.111084,-0.188289,8.159028,5.39334,-0.018498,-0.008692,0.00719,-0.263428,0.381348,0.433105,-1.027081,-7.068217,6.827864,-0.011982,0.003815,0.003923,0.629395,0.060791,0.021729,1.535312,-7.317275,6.459061,-0.024541,0.01193,0.021011,0.234131,0.324219,-0.539062,3.139837,-6.439257,6.749881,-0.020219,-0.002652,0.025362,-0.459717,0.410645,-0.279541
1.408617,-7.488774,6.198331,0.039098,0.005109,0.002637,-0.235107,0.528076,-0.107666,-0.081117,8.193068,5.354183,0.006338,0.014126,0.001938,-0.262207,0.372559,0.43335,-0.980735,-7.020808,6.824928,0.017143,0.000837,-0.00607,0.628174,0.056152,0.021729,1.595092,-7.347036,6.410072,0.015511,-0.017364,-0.001593,0.22998,0.322998,-0.538818,3.195693,-6.372379,6.727533,0.041485,-0.01845,-0.030481,-0.462891,0.411377,-0.277588
1.366854,-7.387699,6.234476,-0.018124,-0.003501,-1.4e-05,-0.23999,0.529053,-0.109131,-0.21905,8.193326,5.37078,-0.017522,0.006277,0.00796,-0.264893,0.369629,0.440186,-0.997817,-6.973193,6.828955,-0.008611,0.008696,0.004833,0.625244,0.060547,0.02124,1.60048,-7.186579,6.443434,0.004183,0.014778,0.008826,0.228516,0.323486,-0.537354,3.207967,-6.315084,6.741171,-0.021616,0.016244,0.00702,-0.465332,0.411133,-0.278076
1.413175,-7.538591,6.202278,-0.008471,0.004053,-0.001441,-0.240967,0.532715,-0.113037,-0.08828,8.191313,5.407502,-0.01178,-0.002809,0.002326,-0.266846,0.364258,0.444824,-1.019889,-7.032881,6.840076,-0.021113,-0.001817,-0.001252,0.625732,0.060791,0.018311,1.533105,-7.332485,6.435605,-0.046046,-0.003557,0.021643,0.231934,0.328613,-0.54248,3.121169,-6.416489,6.743383,-0.009217,-0.008712,0.003741,-0.463135,0.41333,-0.280518
1.389783,-7.487693,6.213132,0.008728,-0.000647,0.000239,-0.241943,0.524414,-0.108887,-0.174388,8.17146,5.410835,-0.015639,0.018474,0.007201,-0.266846,0.375,0.43042,-0.951941,-7.075192,6.789618,-0.00618,-0.000161,-3.3e-05,0.624268,0.054932,0.020508,1.622185,-7.365632,6.395201,0.020126,-0.009437,0.00133,0.227295,0.318848,-0.537354,3.252039,-6.428188,6.695977,-0.012012,-0.008431,-0.017856,-0.466553,0.40625,-0.279297
1.389285,-7.459943,6.249801,0.010057,0.003748,0.000911,-0.237061,0.534668,-0.113525,-0.125856,8.170803,5.355378,0.005754,-0.006609,0.001628,-0.267822,0.368164,0.444336,-1.017833,-7.030494,6.825364,0.013521,0.013865,0.002635,0.626953,0.064209,0.017822,1.541883,-7.225903,6.441325,0.002672,0.017303,0.010985,0.232666,0.330322,-0.541016,3.138085,-6.428961,6.740737,0.030291,0.012264,0.017671,-0.462646,0.417236,-0.282227
1.403002,-7.462185,6.190894,-0.013543,-0.002201,-0.003489,-0.241699,0.530029,-0.111816,-0.116081,8.215204,5.389813,-0.013831,0.016679,0.006188,-0.263428,0.372559,0.431885,-1.004798,-6.956062,6.83847,0.004731,-0.007869,-0.006054,0.625,0.060059,0.021973,1.551141,-7.298933,6.421551,-0.020212,-0.014936,0.012018,0.230713,0.326416,-0.539307,3.154572,-6.303739,6.739753,0.002738,-0.018567,-0.03339,-0.464111,0.411621,-0.280273
1.389844,-7.524042,6.192018,0.002269,9.5e-05,0.001645,-0.235352,0.53125,-0.116211,-0.171098,8.169152,5.379702,-0.020645,-0.001917,0.005582,-0.262451,0.371094,0.4375,-0.967041,-7.039718,6.82719,-0.031196,0.012801,0.01059,0.629883,0.061035,0.016602,1.620468,-7.315769,6.439446,0.002527,0.010059,0.008746,0.232666,0.328125,-0.541748,3.225942,-6.416791,6.717632,-0.023916,0.00088,0.028279,-0.460938,0.410156,-0.280518
1.408568,-7.4169,6.21214,0.013412,0.001495,-0.001898,-0.243896,0.527344,-0.108154,-0.100927,8.177525,5.368423,0.008449,0.011698,0.001886,-0.253174,0.372559,0.432129,-1.050228,-7.115172,6.803661,0.006728,0.004618,-0.001987,0.623291,0.056885,0.023193,1.527608,-7.308001,6.443425,-0.007804,0.007864,0.011909,0.227295,0.321289,-0.537109,3.131366,-6.396698,6.756357,0.012802,0.009182,-0.029128,-0.470215,0.408691,-0.274658
1.376958,-7.479686,6.198178,-0.020437,-0.000126,0.00062,-0.235107,0.53125,-0.112305,-0.183491,8.221771,5.398276,-0.01709,0.005646,0.00751,-0.258057,0.373535,0.44458,-0.967662,-6.955812,6.824108,0.017167,-0.001986,-0.006575,0.630859,0.059326,0.017578,1.597782,-7.286263,6.432654,0.006028,-0.015276,0.002531,0.232178,0.324707,-0.543213,3.19063,-6.400325,6.728674,-0.009002,-0.015066,0.013641,-0.461182,0.410889,-0.280762
1.407877,-7.522692,6.207724,0.012793,0.000399,-0.000704,-0.242676,0.535889,-0.109375,-0.10222,8.167749,5.388193,-0.01782,-0.000584,0.002877,-0.260986,0.369141,0.443848,-1.001527,-7.002899,6.82245,-0.027937,0.008752,0.006031,0.624756,0.063477,0.022949,1.597323,-7.259349,6.415712,-0.018434,0.01053,0.017089,0.226562,0.32959,-0.5354,3.18505,-6.407112,6.726708,0.01399,0.002479,-0.011102,-0.467773,0.414551,-0.273438
1.374636,-7.418959,6.202961,0.003507,0.002287,-0.000742,-0.23999,0.5354,-0.120605,-0.14435,8.181443,5.379366,-0.000715,0.016964,0.006271,-0.262939,0.37915,0.438232,-0.991692,-7.085427,6.78905,-0.00815,-0.004468,-0.001982,0.624512,0.064941,0.014648,1.546161,-7.316545,6.409202,-0.005016,-0.001983,0.00874,0.231201,0.331055,-0.544434,3.169109,-6.367807,6.744761,-0.004001,0.002682,-0.007189,-0.4646,0.414551,-0.284668
1.402624,-7.506872,6.21306,-0.014732,-0.000695,-0.000373,-0.241699,0.530029,-0.116699,-0.148397,8.195178,5.399195,-0.012498,-0.003696,0.002634,-0.256592,0.37207,0.430908,-0.973964,-7.011867,6.81708,0.010573,0.009448,0.000253,0.624756,0.057617,0.015625,1.590353,-7.272955,6.400253,-2.3e-05,-0.000394,0.007237,0.22998,0.32251,-0.545166,3.159499,-6.406775,6.71442,-0.015726,-0.011328,0.011107,-0.463867,0.4104,-0.282227
1.397639,-7.494244,6.187093,0.014484,0.002484,-2.1e-05,-0.235107,0.536377,-0.112061,-0.111719,8.178399,5.380295,-0.010048,0.012484,0.006498,-0.262207,0.369629,0.437256,-1.009801,-7.013549,6.845226,-0.006313,0.001708,-0.000672,0.631104,0.064941,0.019775,1.550113,-7.319062,6.413578,-0.013282,0.005841,0.015105,0.235352,0.330322,-0.543945,3.208233,-6.400791,6.737848,0.01956,-0.002799,-0.022124,-0.461426,0.414307,-0.27832
1.40254,-7.434624,6.227316,0.005559,0.002062,-4.9e-05,-0.235596,0.532227,-0.112793,-0.166024,8.187153,5.367391,-0.005628,0.004641,0.003667,-0.260254,0.369629,0.431152,-0.974007,-7.036474,6.816313,-0.006724,0.005332,0.001865,0.629639,0.062256,0.015625,1.609071,-7.272026,6.466057,0.016101,-0.007761,0.000868,0.236328,0.329346,-0.545654,3.172302,-6.369072,6.753265,-0.004319,0.000743,0.00879,-0.458984,0.415283,-0.282715
1.396899,-7.490549,6.219105,-0.013452,1e-06,-0.000431,-0.234619,0.529053,-0.101807,-0.10229,8.190615,5.384384,-0.007098,0.00433,0.004966,-0.258057,0.371094,0.435059,-1.011026,-7.019503,6.819599,-0.001264,0.006456,-0.001205,0.629883,0.056641,0.028564,1.582748,-7.272805,6.433714,-0.023653,0.007948,0.014867,0.236084,0.322998,-0.534424,3.169397,-6.418035,6.741274,-0.012548,-0.009624,-0.009914,-0.459229,0.411621,-0.269287
1.386389,-7.510101,6.189232,0.007808,0.002905,0.000432,-0.240723,0.52832,-0.121826,-0.154714,8.195568,5.395881,-0.016309,0.012366,0.0048,-0.257812,0.376221,0.437012,-0.993287,-7.018756,6.831334,-0.004811,-0.00085,-0.00162,0.625977,0.058838,0.011475,1.538546,-7.340204,6.433486,-0.003177,-0.001129,0.009754,0.230957,0.322754,-0.552246,3.204745,-6.391936,6.728105,0.008543,0.003,0.001388,-0.466553,0.411865,-0.287842
1.394293,-7.443271,6.206184,0.00325,-0.001119,0.000462,-0.237061,0.533203,-0.108643,-0.142401,8.168211,5.36985,-0.010456,-0.001567,0.006763,-0.257324,0.375732,0.43042,-1.009907,-7.02873,6.823468,-0.005829,0.006796,0.00447,0.626221,0.063232,0.018311,1.606317,-7.259883,6.41301,0.004068,-0.003572,0.005269,0.232666,0.328857,-0.540039,3.162558,-6.379821,6.72895,-0.001039,0.001132,-0.005684,-0.463135,0.413818,-0.278076
1.401969,-7.471731,6.205454,-0.005612,0.000796,-0.000557,-0.241943,0.528076,-0.105225,-0.122562,8.208486,5.378767,0.00335,0.010546,0.004642,-0.263672,0.375488,0.441162,-0.992387,-7.028067,6.83509,-0.001679,-0.001973,-0.00406,0.624268,0.059082,0.022461,1.567639,-7.29641,6.425304,-0.019746,0.002883,0.014939,0.229004,0.324707,-0.533447,3.199625,-6.364123,6.704292,0.009348,-0.010666,-0.003625,-0.466553,0.408203,-0.273193
1.396445,-7.51478,6.214278,-0.006138,-7.2e-05,-0.000913,-0.23999,0.529785,-0.116699,-0.150733,8.183074,5.403842,-0.022956,0.002633,0.003946,-0.256348,0.376709,0.439209,-0.971408,-7.027933,6.809865,-0.011279,0.008706,0.00585,0.626953,0.060791,0.017578,1.584221,-7.310344,6.415157,0.003662,-0.002086,0.006894,0.22876,0.325195,-0.546631,3.185852,-6.403069,6.744014,-0.024409,0.004528,3.7e-05,-0.464111,0.411865,-0.282715
1.383233,-7.493871,6.216515,0.016617,0.003847,0.000844,-0.241211,0.5271,-0.118896,-0.112837,8.160261,5.364505,-0.005688,0.005444,0.005805,-0.260742,0.367188,0.437012,-1.015183,-7.039436,6.809804,0.001969,0.003255,-0.000805,0.623047,0.056641,0.012451,1.566251,-7.288367,6.436549,-0.007892,0.005936,0.011986,0.229492,0.320557,-0.550293,3.147396,-6.447224,6.731361,0.006203,-0.005166,-0.000971,-0.464355,0.408936,-0.283691
1.396279,-7.432235,6.21513,-0.008397,0.000447,0.000328,-0.239502,0.5354,-0.106689,-0.150661,8.209167,5.395215,-0.000298,0.008132,0.00319,-0.264404,0.375977,0.435303,-0.967348,-6.995639,6.836088,0.003649,0.003125,-0.002255,0.627686,0.065918,0.025635,1.571981,-7.289578,6.442024,0.001423,-0.002428,0.00655,0.230469,0.330078,-0.537842,3.207153,-6.365003,6.742886,0.019776,-0.009149,-0.012235,-0.464355,0.41748,-0.273682
1.398415,-7.553557,6.184367,-0.004745,0.000103,-0.001356,-0.23584,0.539795,-0.11377,-0.134811,8.185963,5.376629,-0.018315,0.000886,0.005434,-0.258057,0.369629,0.439209,-1.02988,-7.020613,6.841707,-0.015928,0.007246,0.005418,0.630127,0.067383,0.020508,1.597902,-7.274713,6.422977,-0.008409,0.000661,0.010853,0.235107,0.329834,-0.537842,3.188625,-6.369592,6.731206,-0.008648,0.002558,0.004833,-0.460449,0.417969,-0.278076
1.390898,-7.453701,6.198281,0.015977,0.003499,0.000874,-0.238525,0.535156,-0.114502,-0.124326,8.18253,5.398267,-0.006484,0.01255,0.004311,-0.259521,0.37085,0.440674,-0.987028,-7.051424,6.833974,-0.003407,-0.001327,-0.005408,0.627441,0.062256,0.017578,1.571534,-7.322807,6.433767,-0.012855,0.001427,0.010616,0.231201,0.326904,-0.544434,3.18179,-6.39789,6.753498,-0.011858,-0.003116,-0.007355,-0.463135,0.415283,-0.283203
1.382429,-7.483091,6.203856,-0.017321,2.5e-05,0.000299,-0.241943,0.534424,-0.110107,-0.158428,8.185158,5.379445,-0.014816,0.00174,0.005381,-0.267578,0.379639,0.435303,-0.996115,-7.03666,6.80635,-0.000679,0.007362,0.001269,0.621826,0.064453,0.02124,1.579182,-7.286111,6.422802,0.004939,0.003129,0.007658,0.226807,0.327881,-0.537354,3.187819,-6.445801,6.701963,-0.014354,0.002766,0.003477,-0.467773,0.415527,-0.281006
1.39518,-7.503628,6.202175,0.011945,0.000344,0.00126,-0.237793,0.53125,-0.120361,-0.107871,8.198881,5.375441,-0.003388,0.00595,0.004282,-0.256592,0.36499,0.439453,-1.028126,-7.018856,6.826291,-0.002677,0.001796,-0.001236,0.626953,0.061523,0.012939,1.555709,-7.285389,6.417818,-0.013295,0.001467,0.011794,0.233154,0.328125,-0.547363,3.15759,-6.389029,6.703849,0.03916,-0.003221,-0.007872,-0.463379,0.412109,-0.286133
1.398065,-7.447633,6.189169,0.000525,0.000868,0.000356,-0.240479,0.535156,-0.11377,-0.147571,8.180919,5.402294,-0.015238,0.009001,0.005585,-0.253418,0.375732,0.435303,-0.963452,-7.027754,6.823895,-0.011324,0.002305,0.001476,0.626221,0.062744,0.018066,1.586519,-7.300654,6.40598,-0.001755,-0.005585,0.007657,0.227539,0.328125,-0.544678,3.201916,-6.312558,6.744043,-0.003717,-0.004714,-0.011183,-0.464355,0.414795,-0.282715
1.399998,-7.505552,6.215246,-0.008943,0.000326,-0.001193,-0.238281,0.529297,-0.105225,-0.124321,8.175198,5.361311,-0.00298,0.000865,0.003252,-0.26001,0.369385,0.432129,-1.007439,-7.055927,6.817935,-0.004905,0.007416,0.00212,0.62793,0.059814,0.02417,1.594901,-7.291675,6.424207,-0.007448,0.008311,0.012232,0.230713,0.32251,-0.531982,3.193805,-6.397363,6.723236,-0.032979,0.001501,0.011981,-0.4646,0.411377,-0.27124
1.389601,-7.49843,6.220604,0.007376,0.002264,-0.001472,-0.23999,0.540283,-0.110352,-0.129635,8.194596,5.402062,-0.00825,0.012874,0.004666,-0.266357,0.379395,0.427246,-0.999603,-7.0353,6.826592,0.005382,0.001432,-0.003663,0.624512,0.068848,0.018555,1.560921,-7.329063,6.429226,-0.005669,0.002876,0.00997,0.230225,0.334229,-0.538086,3.178622,-6.475417,6.703531,-0.001366,-0.003979,-0.015229,-0.465088,0.418945,-0.277344
1.400379,-7.473541,6.176255,0.003877,0.00059,0.002155,-0.236084,0.533447,-0.110107,-0.147895,8.175021,5.363188,-0.01755,-0.001861,0.005265,-0.271484,0.371094,0.438721,-0.986042,-7.002201,6.833325,-0.003763,0.006916,0.003752,0.628662,0.062012,0.022217,1.588381,-7.272219,6.443269,0.005874,-0.004178,0.005829,0.232666,0.326904,-0.540039,3.177191,-6.434989,6.722577,0.020434,-0.008228,0.005506,-0.461914,0.415771,-0.280029
1.391919,-7.452504,6.22141,0.001918,0.001043,-8.7e-05,-0.241699,0.530273,-0.111572,-0.114565,8.185774,5.367951,0.00172,0.010844,0.003625,-0.263184,0.370361,0.429932,-1.003904,-7.02389,6.843871,-0.004407,0.00244,-0.002583,0.624268,0.057373,0.019775,1.578458,-7.282725,6.436931,-0.015966,0.000196,0.011672,0.229492,0.324707,-0.541992,3.192827,-6.311058,6.731836,0.023789,-0.002775,-0.015166,-0.468262,0.411865,-0.280029
1.392047,-7.489937,6.199007,-0.011521,-0.000317,-0.002242,-0.240723,0.530029,-0.105469,-0.159558,8.198114,5.395673,-0.022337,0.005849,0.006399,-0.265869,0.377197,0.442627,-0.993626,-7.053202,6.798583,-0.015552,0.002358,0.002324,0.623047,0.061523,0.023926,1.570766,-7.306104,6.408613,-0.00949,0.00217,0.010888,0.227539,0.324219,-0.53833,3.189332,-6.361689,6.729794,-0.040527,0.003479,0.005427,-0.466797,0.413574,-0.27417
1.404997,-7.496407,6.215787,0.017092,0.001016,0.000471,-0.244873,0.535889,-0.113525,-0.12411,8.155921,5.365842,-0.006011,0.00164,0.004268,-0.267578,0.380127,0.436279,-1.004793,-7.046571,6.812333,0.006277,0.002896,-0.001056,0.620117,0.062988,0.018311,1.564716,-7.286737,6.4142,0.000273,0.000548,0.009009,0.223877,0.32959,-0.541504,3.168674,-6.475163,6.701785,-0.005933,-0.002496,-0.001147,-0.467529,0.41748,-0.281006
1.389648,-7.42611,6.234894,-0.009912,0.000179,-0.001732,-0.236084,0.525879,-0.106689,-0.13355,8.200317,5.385997,-0.002657,0.013465,0.003735,-0.262695,0.374023,0.437744,-0.969279,-6.99184,6.824192,-0.002111,0.004477,-0.001007,0.62915,0.054932,0.023682,1.587288,-7.278822,6.431104,-0.004958,-0.001047,0.007735,0.233154,0.320557,-0.535645,3.200449,-6.395087,6.711018,0.022137,-0.004418,-0.014964,-0.460205,0.405518,-0.272949
1.404714,-7.557598,6.189112,-0.00905,0.00146,0.002077,-0.237793,0.532471,-0.11377,-0.127241,8.180996,5.39318,-0.018369,-0.004218,0.0063,-0.26123,0.373779,0.431152,-0.995089,-7.075088,6.819726,-0.018825,0.006394,0.006887,0.627441,0.061035,0.016113,1.579406,-7.320317,6.418351,-0.01383,0.002976,0.015414,0.233643,0.328857,-0.544678,3.164441,-6.397023,6.74914,-0.008724,-0.002519,0.011025,-0.464355,0.410645,-0.279297
1.394138,-7.430825,6.217297,0.032097,0.004366,0.000807,-0.238281,0.533691,-0.111816,-0.103858,8.175078,5.352611,-0.003706,0.014684,0.003771,-0.254883,0.372314,0.439453,-1.007534,-7.048328,6.81011,0.014146,0.001883,-0.005223,0.630127,0.064209,0.019043,1.57711,-7.321082,6.418042,0.009208,0.002805,0.004611,0.234863,0.328613,-0.541748,3.201042,-6.382222,6.723745,0.007672,-0.005934,-0.016174,-0.462891,0.416992,-0.279297
1.37572,-7.418596,6.219583,-0.028065,-0.001211,-0.001193,-0.23291,0.528564,-0.113281,-0.177517,8.192311,5.390295,-0.008027,0.002685,0.005907,-0.260498,0.374023,0.432617,-1.003536,-6.974951,6.842884,-0.003229,0.008334,0.00343,0.634521,0.057129,0.019531,1.559315,-7.238991,6.44413,-0.004488,0.003751,0.009386,0.237305,0.324951,-0.541748,3.173365,-6.387289,6.741079,-0.006099,0.003853,0.007527,-0.457031,0.411865,-0.280762
1.417178,-7.577509,6.188259,0.002994,5.7e-05,-0.002819,-0.232666,0.530762,-0.106445,-0.10447,8.178406,5.377098,-0.013779,0.002717,0.004509,-0.262695,0.365234,0.435547,-1.022808,-7.046123,6.836196,-0.020456,-0.002274,-0.000965,0.631348,0.060303,0.021973,1.56715,-7.341337,6.438554,-0.024602,-0.005469,0.014507,0.237061,0.322754,-0.533447,3.168198,-6.408378,6.735793,3.3e-05,-0.007175,-0.008283,-0.459229,0.409668,-0.272461
1.386519,-7.412549,6.231552,0.022164,0.000713,0.002396,-0.235352,0.533936,-0.115479,-0.152496,8.168847,5.370044,-0.01119,0.012269,0.00726,-0.263916,0.364502,0.433838,-0.962439,-7.05571,6.817414,0.003618,0.002915,-4.8e-05,0.631348,0.064209,0.016357,1.607226,-7.309387,6.40279,0.016834,0.001787,0.001367,0.234619,0.329834,-0.545898,3.219067,-6.410305,6.727307,-0.005033,0.000609,-0.006503,-0.460205,0.418213,-0.281982
1.401745,-7.458896,6.217061,-0.024209,0.000126,-0.000203,-0.236816,0.526611,-0.113525,-0.133361,8.196063,5.374119,-0.002749,-0.002718,0.004258,-0.262451,0.373047,0.442627,-1.019644,-7.010816,6.832903,0.002254,0.007685,0.002608,0.626953,0.054199,0.014404,1.571986,-7.246234,6.417918,-0.015232,0.004505,0.014645,0.230225,0.320801,-0.544922,3.143345,-6.423577,6.730168,-0.000408,0.001248,0.004371,-0.4646,0.408203,-0.285889
1.401356,-7.544417,6.185382,0.002887,0.001191,0.000452,-0.240479,0.52417,-0.113037,-0.127564,8.194669,5.408335,-0.019833,0.013067,0.005491,-0.263672,0.36792,0.441162,-0.988378,-7.013691,6.816907,-0.01251,-0.002543,-0.001783,0.626953,0.053223,0.016602,1.557876,-7.347143,6.407624,-0.01841,-0.003009,0.012414,0.231201,0.320068,-0.540771,3.19161,-6.382408,6.721328,0.006549,-0.011747,-0.010611,-0.466064,0.404785,-0.2771
1.391061,-7.441351,6.209211,0.01806,0.001163,0.001011,-0.238037,0.525879,-0.104248,-0.153978,8.155475,5.347211,-0.00871,0.000305,0.005561,-0.26416,0.378662,0.436279,-0.978636,-7.074704,6.813447,-0.008488,0.009841,0.003799,0.628662,0.057861,0.023926,1.577636,-7.290182,6.415633,0.01676,0.003251,0.003799,0.229736,0.319336,-0.536865,3.193898,-6.395049,6.718667,0.000192,0.002166,0.003549,-0.463135,0.407959,-0.275146
1.39352,-7.440649,6.231417,-0.012932,0.000257,-0.002964,-0.240967,0.533936,-0.111328,-0.114592,8.208179,5.376361,0.007042,0.007702,0.003407,-0.263184,0.375488,0.441895,-1.037143,-7.02582,6.800236,0.01826,0.001924,-0.004459,0.626221,0.063477,0.021484,1.573669,-7.268788,6.436337,-0.010749,0.000814,0.011999,0.22998,0.330811,-0.539551,3.176956,-6.376349,6.761795,0.003349,-0.003596,-0.010564,-0.464844,0.41748,-0.279785
1.401395,-7.543946,6.185948,-0.007974,0.000474,-0.000655,-0.235596,0.535645,-0.107422,-0.174286,8.195899,5.409716,-0.028114,0.00523,0.006456,-0.251465,0.37793,0.431152,-0.984419,-6.981637,6.843009,-0.012454,0.001024,0.002083,0.630371,0.065186,0.022461,1.597536,-7.320861,6.461691,-0.009003,-0.002677,0.011654,0.236084,0.331543,-0.537354,3.209625,-6.412749,6.733973,-0.023625,-0.007587,0.005176,-0.461182,0.415283,-0.276611
1.395973,-7.477383,6.231265,0.024486,0.002532,0.000165,-0.241211,0.536621,-0.112549,-0.103575,8.154138,5.341374,-0.004898,0.003383,0.004165,-0.250732,0.372314,0.432861,-1.006694,-7.061628,6.824826,-0.018601,0.006203,0.003671,0.625,0.065186,0.018311,1.565991,-7.292339,6.421005,-0.003058,0.002688,0.009662,0.227295,0.33252,-0.54248,3.185342,-6.437513,6.706979,0.019118,0.004038,-0.006314,-0.468018,0.416992,-0.280518
1.378158,-7.420464,6.211328,-0.016585,0.0006,-0.001281,-0.245605,0.535156,-0.111328,-0.166428,8.210891,5.391314,-7.8e-05,0.012652,0.004654,-0.265137,0.369385,0.435059,-1.009104,-7.054577,6.818519,0.009863,-0.000579,-0.005482,0.621094,0.067139,0.021484,1.584104,-7.295989,6.410811,-0.00581,-0.003889,0.00721,0.223145,0.330078,-0.53833,3.16657,-6.356503,6.734771,0.007431,-0.001196,-0.009566,-0.469727,0.418457,-0.275879
1.416945,-7.556085,6.162489,-0.007954,-0.000275,0.000509,-0.24707,0.53125,-0.109863,-0.136438,8.189061,5.400605,-0.023224,-0.003184,0.005401,-0.251953,0.371582,0.428711,-1.001724,-6.993754,6.832773,-0.005558,0.005035,0.001302,0.620361,0.059326,0.022949,1.58549,-7.287188,6.422364,-0.009647,-0.00023,0.011469,0.224121,0.324951,-0.541016,3.199162,-6.407481,6.714794,-0.014367,-0.008691,0.009089,-0.472168,0.412354,-0.275391
1.38309,-7.436082,6.206329,0.029054,0.005193,-0.001587,-0.235352,0.536621,-0.114014,-0.137551,8.162275,5.391674,-0.003576,0.015565,0.006773,-0.259521,0.378174,0.439941,-0.991725,-7.038595,6.834699,-0.014126,0.004186,0.001848,0.63208,0.063232,0.019531,1.57569,-7.306898,6.430153,-0.003374,0.00173,0.007899,0.236328,0.330811,-0.543945,3.19888,-6.378727,6.710141,0.008168,0.002413,-0.015843,-0.460449,0.415283,-0.277832
1.385086,-7.459041,6.224413,-0.024827,-0.00097,0.000988,-0.23877,0.533691,-0.110107,-0.166297,8.194453,5.391511,-0.005793,0.000237,0.004448,-0.257568,0.373047,0.431396,-0.995328,-7.067948,6.793876,0.002193,0.005164,0.001502,0.62793,0.062744,0.021729,1.567805,-7.28809,6.422312,-0.003942,0.002761,0.012022,0.231689,0.327637,-0.539551,3.171056,-6.417941,6.749717,-0.018035,-0.000633,0.009571,-0.461182,0.415527,-0.275391
1.420994,-7.554907,6.206853,0.00759,0.002584,-0.000519,-0.237549,0.532959,-0.113525,-0.101114,8.191615,5.388383,-0.013061,0.003634,0.004179,-0.268066,0.374512,0.437744,-1.001707,-7.007468,6.812448,0.007799,0.00338,-0.003688,0.628906,0.062256,0.014404,1.586903,-7.309885,6.440691,-0.005847,-0.001948,0.009138,0.232178,0.32666,-0.543945,3.196519,-6.429033,6.707869,0.016577,-0.016161,-0.00982,-0.460205,0.413574,-0.281738
1.382081,-7.422283,6.224712,0.013612,0.003176,0.00078,-0.240234,0.5354,-0.105957,-0.173968,8.172016,5.373449,-0.011739,0.012065,0.004713,-0.266602,0.370605,0.432861,-0.997913,-7.007228,6.828387,-0.009728,0.007607,0.00326,0.626465,0.064453,0.023438,1.603954,-7.263241,6.435894,0.005797,0.003989,0.006279,0.228271,0.328857,-0.5354,3.212992,-6.355124,6.745351,0.007066,0.008583,-0.006302,-0.465576,0.416016,-0.27417
1.399813,-7.481716,6.214282,-0.018617,7.7e-05,-0.000812,-0.23584,0.528076,-0.115479,-0.119061,8.201812,5.383599,-0.003658,-0.00369,0.003717,-0.262207,0.378662,0.438232,-1.013455,-7.041712,6.819821,-0.00895,0.002982,0.000888,0.62915,0.057129,0.015869,1.563564,-7.290771,6.433613,-0.023996,0.002204,0.01511,0.23584,0.321533,-0.546875,3.140092,-6.389436,6.714217,-0.012052,-0.002912,0.006942,-0.460449,0.408936,-0.283447
1.402541,-7.521983,6.182439,0.004704,0.001393,-0.000971,-0.239258,0.530029,-0.109619,-0.128496,8.204468,5.411079,-0.015312,0.014203,0.006073,-0.264893,0.375732,0.439941,-0.966244,-7.051901,6.805195,-0.005003,-0.001499,-0.00337,0.624268,0.056641,0.020752,1.594025,-7.347936,6.401676,-0.004434,-0.005425,0.007987,0.229736,0.325439,-0.538086,3.225433,-6.398987,6.71519,0.000411,-0.011102,-0.015294,-0.467285,0.410156,-0.276123
1.399594,-7.46874,6.231505,0.006332,0.00114,0.000703,-0.237061,0.526611,-0.118408,-0.156712,8.158424,5.365148,-0.013948,-0.001684,0.005274,-0.262939,0.366211,0.437744,-1.00896,-7.047424,6.810295,-0.004662,0.010576,0.004987,0.630127,0.057129,0.012451,1.583824,-7.257225,6.419617,0.009694,0.007573,0.006274,0.234375,0.322266,-0.546875,3.178606,-6.42411,6.717039,-0.007217,0.015082,0.005644,-0.458008,0.40918,-0.2854
1.399536,-7.457949,6.218694,-0.001332,0.002162,-0.00055,-0.247559,0.537598,-0.11377,-0.114817,8.19956,5.353059,0.004844,0.008664,0.004215,-0.262695,0.366943,0.431396,-1.013731,-7.011361,6.828476,0.008242,-0.003059,-0.006751,0.618164,0.068115,0.018066,1.558853,-7.285049,6.429875,-0.021591,-0.00229,0.015406,0.221924,0.335449,-0.541748,3.150489,-6.411835,6.718247,0.008648,-0.014267,-0.010702,-0.472412,0.421631,-0.27832
1.404583,-7.511013,6.191296,-0.011089,0.000324,-0.00034,-0.234619,0.532471,-0.110107,-0.175958,8.1929,5.407145,-0.02357,0.007065,0.005543,-0.26123,0.371338,0.43457,-0.96564,-7.009461,6.795721,-0.020734,0.007634,0.004353,0.631592,0.062988,0.021729,1.61309,-7.333466,6.415735,-0.002386,0.000703,0.00935,0.236328,0.329346,-0.538574,3.241481,-6.38378,6.718243,-0.003852,-0.005289,0.000653,-0.458496,0.414062,-0.27417
1.401982,-7.497407,6.187905,0.020071,0.002435,-0.000621,-0.234863,0.534912,-0.119629,-0.121485,8.160868,5.353158,-0.00572,0.00102,0.005199,-0.263184,0.370605,0.433105,-1.020918,-7.082557,6.816685,-0.00114,0.005629,0.002202,0.631836,0.066162,0.012695,1.556182,-7.287154,6.44146,0.002022,0.007143,0.009075,0.236328,0.327881,-0.550049,3.152466,-6.412463,6.727962,0.009522,0.008007,-0.003795,-0.457031,0.417725,-0.286133
1.386689,-7.379113,6.216206,-0.001722,2.5e-05,-0.000126,-0.237793,0.532227,-0.115723,-0.163046,8.206196,5.375734,-4.4e-05,0.013346,0.003191,-0.255615,0.375,0.438721,-0.982937,-6.98253,6.82254,0.020739,0.001264,-0.007199,0.626221,0.062744,0.013184,1.598732,-7.262767,6.434794,0.000513,-0.00674,0.005569,0.230957,0.32666,-0.544678,3.185361,-6.377888,6.747022,-0.003974,-0.011973,-0.008552,-0.465332,0.414062,-0.280762
1.399135,-7.529216,6.205769,-0.02139,-0.001635,-0.001651,-0.236816,0.530273,-0.111816,-0.134682,8.218555,5.393789,-0.018753,-0.004321,0.004545,-0.261719,0.37207,0.43457,-0.999475,-6.992126,6.814947,-0.02673,0.008117,0.006051,0.630859,0.062744,0.021484,1.590195,-7.273232,6.441359,-0.019285,0.005244,0.013267,0.233887,0.325195,-0.540771,3.225627,-6.41842,6.708925,-0.012134,-0.000802,0.008089,-0.461182,0.414062,-0.274902
1.396369,-7.502936,6.21922,0.024007,0.005363,0.000543,-0.240723,0.530029,-0.110596,-0.113593,8.164009,5.375716,-0.014801,0.01435,0.006387,-0.25708,0.375488,0.428467,-0.999769,-7.087599,6.818776,-0.0175,-0.000694,0.000911,0.623779,0.05957,0.021729,1.568971,-7.363657,6.424524,-0.0112,-0.001098,0.011271,0.228027,0.32373,-0.53833,3.19731,-6.406754,6.709664,0.006054,0.004659,-0.013887,-0.46582,0.412109,-0.27417
1.380406,-7.44492,6.222089,-0.004737,0.000717,0.001528,-0.233643,0.527344,-0.109863,-0.169451,8.166102,5.377941,-0.00211,0.001149,0.005257,-0.25708,0.369385,0.444092,-0.990435,-7.054746,6.809648,0.021412,0.005946,-0.003054,0.632812,0.05542,0.023438,1.590514,-7.278039,6.417544,0.014023,2.9e-05,0.003723,0.235107,0.319336,-0.539062,3.178307,-6.429656,6.713811,-0.003272,-0.006506,0.006773,-0.460205,0.409668,-0.274414
1.413873,-7.503744,6.205088,-0.005106,0.002412,-0.00137,-0.22876,0.53418,-0.107178,-0.112797,8.221342,5.399103,-0.004756,0.007129,0.004858,-0.26416,0.370117,0.445312,-1.011711,-6.97027,6.832993,0.000579,0.005717,-0.001448,0.638184,0.062744,0.025146,1.577171,-7.257793,6.417656,-0.018041,0.001315,0.014608,0.241455,0.326904,-0.536377,3.204382,-6.385962,6.72497,0.022,-0.007103,-0.009541,-0.455078,0.416748,-0.273193
1.3799,-7.492823,6.213065,0.004972,-0.001144,0.00059,-0.240234,0.532227,-0.11499,-0.174606,8.181712,5.376606,-0.02425,0.008457,0.007263,-0.260742,0.373291,0.44043,-0.991388,-7.039394,6.81406,-0.030441,0.00142,0.004423,0.628418,0.062744,0.014893,1.587401,-7.330703,6.410381,-0.005921,-0.002431,0.009655,0.231201,0.328613,-0.546143,3.189325,-6.343464,6.723262,-0.018256,0.005975,-0.002199,-0.464111,0.415771,-0.280518
1.392958,-7.464851,6.221207,0.00695,0.002236,-0.00049,-0.240234,0.530029,-0.10498,-0.108417,8.173258,5.352636,0.003731,0.000992,0.003051,-0.264648,0.367676,0.4375,-1.000121,-7.081657,6.826782,0.007575,0.007647,0.000613,0.629395,0.058594,0.026367,1.576957,-7.299902,6.423747,0.00359,0.005086,0.006399,0.231201,0.325928,-0.534912,3.188017,-6.453413,6.728097,-0.009414,-0.00586,0.002099,-0.462158,0.412354,-0.271729
1.393235,-7.467955,6.190055,-0.011747,0.000724,-0.001477,-0.24585,0.5271,-0.10791,-0.159074,8.235179,5.406274,-0.005668,0.014271,0.004776,-0.261475,0.376465,0.441895,-0.993629,-6.983565,6.824244,0.013799,0.002901,-0.005381,0.623047,0.054688,0.02002,1.58504,-7.281599,6.42821,-0.007739,-0.001828,0.009097,0.225342,0.32251,-0.537354,3.193933,-6.402766,6.728973,0.015945,-0.00457,-0.014034,-0.469482,0.406006,-0.273682
1.407984,-7.545964,6.215007,0.003081,0.002259,0.00024,-0.23877,0.533691,-0.10376,-0.138577,8.178721,5.343589,-0.029368,-0.002342,0.00661,-0.26416,0.375488,0.438477,-0.988056,-7.008041,6.8395,-0.025457,0.004695,0.005554,0.626953,0.063721,0.025146,1.574571,-7.292574,6.421291,-0.008592,-0.000312,0.011914,0.228516,0.329834,-0.533691,3.194272,-6.385951,6.723111,-0.00338,0.000932,0.007939,-0.465088,0.418213,-0.270752
1.410814,-7.405459,6.23247,0.017364,0.003673,0.000436,-0.236816,0.523926,-0.10791,-0.115382,8.162257,5.342113,0.005342,0.013146,0.002919,-0.258057,0.370605,0.438232,-1.010999,-7.068024,6.797608,-0.003576,0.001381,-0.001085,0.62915,0.05249,0.022949,1.592909,-7.305792,6.42497,-0.005311,0.00137,0.008373,0.23291,0.319824,-0.537842,3.194547,-6.387743,6.732513,0.003741,-0.005125,-0.013069,-0.462402,0.40625,-0.273682
1.389521,-7.488958,6.195317,-0.028291,-0.000172,-0.000436,-0.24292,0.530273,-0.110107,-0.189028,8.238935,5.399829,-0.008724,0.002504,0.004724,-0.262695,0.369873,0.437744,-0.98731,-7.038265,6.813473,0.005309,0.006871,-0.000409,0.624268,0.059814,0.020264,1.571717,-7.285682,6.418458,-0.006148,0.001918,0.010225,0.228027,0.326172,-0.537109,3.190098,-6.391241,6.710721,-0.013266,0.002433,0.003551,-0.466309,0.412842,-0.276611
1.412533,-7.551183,6.196806,0.015677,0.00159,-0.000244,-0.23291,0.529785,-0.115967,-0.082262,8.189535,5.375939,-0.021108,0.001049,0.005067,-0.266113,0.374023,0.4375,-1.011908,-7.031832,6.831738,-0.006012,0.00226,-0.000538,0.632324,0.057861,0.015381,1.580227,-7.317923,6.41726,-0.008583,-0.001283,0.010952,0.237305,0.322998,-0.545654,3.178885,-6.419548,6.703372,0.005281,-0.00748,-0.00651,-0.458252,0.411377,-0.278076
1.391841,-7.393232,6.234855,0.011752,0.004469,-0.000124,-0.242188,0.529297,-0.107178,-0.166433,8.177775,5.362466,-0.001547,0.01453,0.00516,-0.26416,0.376465,0.436768,-0.975426,-7.038534,6.808298,-0.006463,0.004615,0.001456,0.620117,0.060059,0.025146,1.59829,-7.2808,6.426383,0.003757,0.000253,0.006344,0.22583,0.325684,-0.535156,3.213282,-6.398078,6.719657,0.003873,-0.002166,-0.007067,-0.469971,0.413574,-0.272705
1.394057,-7.503976,6.191141,-0.022121,-0.002209,-7.6e-05,-0.245117,0.532471,-0.11499,-0.12801,8.21762,5.386319,-0.001069,-0.003828,0.003136,-0.260742,0.37207,0.437744,-1.018531,-7.033627,6.81373,0.001776,0.007731,0.001303,0.623291,0.062012,0.018311,1.578587,-7.259583,6.434127,-0.009554,0.005536,0.013321,0.226074,0.328857,-0.54248,3.17341,-6.413521,6.714401,-0.000496,-0.000629,0.004192,-0.469238,0.416992,-0.280518
1.407131,-7.514354,6.175831,0.013415,0.002108,0.000996,-0.238037,0.532227,-0.111084,-0.121979,8.197928,5.393833,-0.024367,0.013551,0.005531,-0.259521,0.374512,0.437256,-0.991454,-7.000043,6.816533,-0.003795,-0.000525,-0.003387,0.626709,0.061768,0.019775,1.574291,-7.321706,6.414403,-0.012106,-0.005378,0.010288,0.229492,0.32666,-0.538086,3.200619,-6.38441,6.721556,0.002807,-0.00931,-0.013531,-0.465332,0.415283,-0.275391
1.396308,-7.456061,6.221683,0.002032,0.000522,-0.000471,-0.237061,0.526367,-0.112305,-0.164565,8.139654,5.359529,-0.01107,-0.000252,0.004807,-0.261963,0.374268,0.4375,-0.99022,-7.061641,6.832912,-0.018431,0.006833,0.005414,0.630371,0.05542,0.019043,1.602821,-7.315567,6.423309,0.003487,0.004124,0.007423,0.235352,0.31958,-0.542969,3.197421,-6.416754,6.70389,-0.009899,0.007364,0.005214,-0.459229,0.406494,-0.278809
1.398999,-7.468916,6.225969,-0.002287,0.000652,-0.002811,-0.235352,0.528564,-0.114502,-0.108123,8.223581,5.368749,0.008385,0.007994,0.003548,-0.25708,0.364502,0.439453,-1.013178,-7.047686,6.808929,0.012627,0.003192,-0.004806,0.630859,0.057617,0.015381,1.564888,-7.281638,6.44011,-0.005868,0.000451,0.010577,0.234619,0.322998,-0.543457,3.1688,-6.406776,6.71446,0.007732,-0.004601,-0.012257,-0.462646,0.410156,-0.279053
1.404697,-7.487656,6.189701,-0.005921,0.000248,3.5e-05,-0.23999,0.534912,-0.115967,-0.168766,8.198908,5.395751,-0.028471,0.006769,0.007582,-0.272705,0.376221,0.431885,-0.969482,-6.988304,6.824871,-0.006131,0.00235,0.00107,0.625732,0.062988,0.018799,1.60609,-7.308779,6.413925,-0.004691,-0.001084,0.008562,0.231445,0.329834,-0.542969,3.205974,-6.409141,6.70516,-0.008769,-0.006006,0.000707,-0.463867,0.414551,-0.279785
1.396573,-7.493004,6.199882,0.010528,0.000917,0.000543,-0.237061,0.534668,-0.111084,-0.096112,8.153458,5.351496,-0.009271,0.000116,0.002982,-0.255859,0.37793,0.436768,-1.017819,-7.053347,6.819929,-0.018087,0.007605,0.003348,0.626953,0.063232,0.022705,1.588093,-7.306242,6.449472,-0.008761,0.003541,0.011019,0.232178,0.327637,-0.538086,3.180932,-6.437616,6.697598,0.008811,0.00095,-0.002608,-0.465088,0.415039,-0.277588
1.381018,-7.435892,6.201554,-0.0029,0.000171,0.001268,-0.240723,0.534912,-0.112305,-0.169114,8.212206,5.382357,0.004885,0.013097,0.004855,-0.256348,0.369873,0.444092,-1.000189,-7.057211,6.807587,0.005585,0.00209,-0.001906,0.623779,0.062012,0.019531,1.575906,-7.298506,6.414725,-0.00053,-0.000412,0.008447,0.226562,0.328125,-0.541748,3.190623,-6.370136,6.722769,0.000859,-0.003568,-0.009325,-0.467041,0.416992,-0.2771
1.401427,-7.521654,6.177683,-0.005281,0.000596,6e-06,-0.239014,0.5354,-0.10791,-0.128054,8.211939,5.376985,-0.019089,-0.00216,0.004223,-0.262207,0.37915,0.433838,-0.997136,-7.016178,6.829833,0.003447,0.004568,0.001538,0.625244,0.0625,0.022461,1.592214,-7.289747,6.439572,-0.002718,0.003116,0.009987,0.228516,0.328857,-0.537354,3.187969,-6.418429,6.711386,-0.010283,-0.004704,0.006914,-0.46582,0.416504,-0.272461
1.409102,-7.465273,6.207853,0.015231,0.002309,-0.000427,-0.238037,0.529785,-0.108643,-0.109408,8.179015,5.362031,-0.012773,0.013341,0.004748,-0.265137,0.368896,0.433594,-1.00204,-7.000793,6.818531,-0.007258,0.001072,0.001675,0.627441,0.057861,0.022217,1.582015,-7.281391,6.418421,-0.007047,-0.002364,0.009238,0.230225,0.322754,-0.539307,3.21691,-6.398793,6.696644,0.011432,-0.002538,-0.01704,-0.463623,0.411133,-0.274658
1.393113,-7.466137,6.214175,-0.013677,0.001043,0.000328,-0.242676,0.532227,-0.113281,-0.171667,8.188758,5.397577,0.000266,0.002421,0.004506,-0.253906,0.376221,0.437988,-0.997185,-7.041877,6.827799,-0.011368,0.005112,0.001993,0.623047,0.060303,0.019043,1.588514,-7.292357,6.43753,-0.006077,0.003831,0.010186,0.22583,0.327148,-0.543213,3.19529,-6.398807,6.725446,-0.01018,0.001445,0.006547,-0.468506,0.416748,-0.27832
1.408468,-7.536954,6.194508,-0.000793,0.001668,-0.001917,-0.240234,0.526611,-0.116699,-0.096388,8.212564,5.401573,-0.01331,0.004404,0.00544,-0.256592,0.376953,0.446289,-1.016478,-7.060395,6.808527,-0.003682,0.004508,-0.001154,0.624023,0.055664,0.015137,1.563456,-7.342966,6.412584,-0.018907,-7.5e-05,0.014558,0.22876,0.31958,-0.543701,3.177571,-6.4168,6.699996,0.002184,-0.006768,-0.007625,-0.467041,0.408936,-0.28125
1.385026,-7.461347,6.210739,0.01564,0.003698,0.000313,-0.245117,0.534912,-0.112061,-0.15675,8.167676,5.357881,-0.018435,0.007652,0.006513,-0.256348,0.364014,0.44165,-0.979898,-7.045784,6.815373,0.006056,0.002037,-0.000581,0.620605,0.06543,0.022217,1.598329,-7.318824,6.39948,0.015915,-0.001105,0.002801,0.223389,0.330078,-0.540527,3.213048,-6.407278,6.703554,0.001296,-1.3e-05,-0.004672,-0.472412,0.417969,-0.276855
1.387302,-7.43676,6.237444,-0.006464,0.000128,-0.001486,-0.239258,0.530762,-0.116211,-0.126296,8.187453,5.360183,0.006616,0.002381,0.002628,-0.258545,0.369141,0.432373,-1.034563,-6.992693,6.84166,0.00069,0.010748,0.000795,0.627197,0.059326,0.012695,1.584759,-7.225798,6.439704,-0.004432,0.004672,0.008415,0.228027,0.323975,-0.546631,3.16351,-6.390497,6.715395,0.012248,-0.000496,-0.001545,-0.46582,0.411865,-0.283447
1.39538,-7.529929,6.178427,-0.017203,-0.000497,-9.7e-05,-0.237549,0.535156,-0.115234,-0.142118,8.226223,5.409117,-0.018469,0.009143,0.007177,-0.258545,0.373291,0.430908,-0.997109,-7.040126,6.812083,-0.023285,-0.003437,0.001055,0.62793,0.062256,0.015137,1.588142,-7.339192,6.41984,-0.031749,-0.003977,0.018933,0.232178,0.328857,-0.546631,3.206297,-6.38824,6.717104,-0.018466,-0.008484,-0.007847,-0.463623,0.41626,-0.279297
1.405343,-7.485864,6.213625,0.034893,0.003969,0.001104,-0.239258,0.536133,-0.107178,-0.123688,8.132489,5.328729,-0.019666,0.0007,0.005223,-0.262939,0.376465,0.436768,-0.977993,-7.083943,6.794452,0.009892,0.006856,0.001691,0.627441,0.064697,0.02124,1.593665,-7.331321,6.411147,0.027549,0.001914,-0.000979,0.230957,0.330566,-0.538086,3.204421,-6.450519,6.702513,0.003408,0.002018,0.006153,-0.462402,0.417236,-0.273193
1.379207,-7.360281,6.247452,-0.015418,0.001816,-0.000964,-0.242432,0.531738,-0.114258,-0.129119,8.239324,5.378458,0.017158,0.01366,0.00156,-0.25708,0.36792,0.436279,-1.024537,-6.952821,6.841925,0.01558,0.006558,-0.00514,0.625732,0.062256,0.017578,1.563286,-7.196691,6.445541,-0.007557,0.003449,0.00947,0.228271,0.328613,-0.544189,3.178736,-6.377228,6.728199,0.019223,0.000343,-0.017643,-0.467041,0.414062,-0.278076
1.422943,-7.630974,6.171354,-0.03265,-0.003128,-0.000627,-0.233887,0.537842,-0.120361,-0.162245,8.215715,5.415569,-0.035944,-0.002998,0.009044,-0.254883,0.371826,0.448486,-1.011725,-7.026684,6.81919,-0.048068,-0.002029,0.006383,0.628174,0.065918,0.011963,1.586349,-7.363871,6.409909,-0.045896,-0.004416,0.022491,0.234375,0.332031,-0.546875,3.210167,-6.39957,6.703698,-0.034045,-0.007839,0.012535,-0.460938,0.421387,-0.283936
1.410222,-7.477541,6.213203,0.063335,0.002125,0.003491,-0.237793,0.526611,-0.115967,-0.071481,8.12662,5.347813,-0.008621,0.00618,0.003186,-0.261475,0.368408,0.438232,-0.971537,-7.139004,6.783153,0.011672,0.005387,-0.001923,0.625488,0.056885,0.015869,1.594382,-7.358712,6.365743,0.037196,0.001699,-0.005223,0.233887,0.321533,-0.546387,3.202929,-6.482939,6.683959,0.014095,-0.000667,-0.012866,-0.464111,0.408936,-0.280273
1.360563,-7.310444,6.272225,-0.030275,0.002392,-0.002127,-0.248047,0.536621,-0.108398,-0.187922,8.235697,5.375931,0.017742,0.01238,0.003451,-0.263184,0.377441,0.439453,-1.013236,-6.954448,6.835317,0.028097,0.009105,-0.003329,0.620361,0.066162,0.02417,1.5764,-7.162388,6.439555,0.002153,0.006124,0.006153,0.221191,0.331055,-0.535645,3.179356,-6.351439,6.742753,0.019105,0.004068,-0.006344,-0.470703,0.418701,-0.268555
1.427974,-7.683085,6.145133,-0.033524,-0.003049,-0.002716,-0.240234,0.531006,-0.104248,-0.107999,8.217525,5.418614,-0.039205,-0.008279,0.005671,-0.263916,0.37207,0.439453,-1.006089,-7.002922,6.850521,-0.04089,-0.002794,0.00411,0.624512,0.060547,0.02417,1.58203,-7.356997,6.407435,-0.054904,-0.004243,0.028345,0.230957,0.326904,-0.533203,3.185647,-6.398211,6.692149,-0.028697,-0.013977,0.009963,-0.466309,0.41333,-0.269287
1.399647,-7.422391,6.22783,0.073999,0.006966,0.003214,-0.239258,0.537842,-0.112061,-0.104842,8.12749,5.332356,-0.005538,0.019524,0.006178,-0.261963,0.378662,0.435547,-0.957967,-7.131762,6.787975,-0.00762,0.006153,0.00259,0.630127,0.067383,0.02124,1.600816,-7.351943,6.395803,0.036936,0.002189,-0.006539,0.232422,0.331299,-0.537598,3.245841,-6.451904,6.692026,0.013335,0.000775,-0.01803,-0.462402,0.418213,-0.275635
