# sampling frequency: 40
# units are seconds/meters/radians/a.u.
seg1_acc_x,seg1_acc_y,seg1_acc_z,seg1_gyr_x,seg1_gyr_y,seg1_gyr_z,seg1_mag_x,seg1_mag_y,seg1_mag_z,seg2_acc_x,seg2_acc_y,seg2_acc_z,seg2_gyr_x,seg2_gyr_y,seg2_gyr_z,seg2_mag_x,seg2_mag_y,seg2_mag_z,seg3_acc_x,seg3_acc_y,seg3_acc_z,seg3_gyr_x,seg3_gyr_y,seg3_gyr_z,seg3_mag_x,seg3_mag_y,seg3_mag_z,seg4_acc_x,seg4_acc_y,seg4_acc_z,seg4_gyr_x,seg4_gyr_y,seg4_gyr_z,seg4_mag_x,seg4_mag_y,seg4_mag_z,seg5_acc_x,seg5_acc_y,seg5_acc_z,seg5_gyr_x,seg5_gyr_y,seg5_gyr_z,seg5_mag_x,seg5_mag_y,seg5_mag_z
0.075471,0.374422,9.966815,-0.100156,0.069292,-0.057236,0.088379,0.388916,-0.566895,0.229336,1.539062,9.54757,0.040304,0.050863,-0.000677,-0.138184,0.101318,-0.657715,0.172809,6.806581,6.817818,0.166939,0.02964,0.000407,-0.13623,-0.357666,-0.567627,0.389856,6.603016,6.558575,-0.131282,0.046622,0.0488,-0.103271,-0.431396,-0.523926,0.208242,6.568278,6.933395,-0.160373,0.036023,-0.038615,-0.028564,-0.407227,-0.587646
0.157773,-0.479992,9.629207,-0.266483,0.036053,-0.028002,0.07666,0.396973,-0.563232,0.277863,1.787101,9.599745,0.098345,-0.021129,-0.023632,-0.153076,0.102051,-0.65332,0.245135,7.361435,6.877166,0.084933,0.018931,-0.015591,-0.133057,-0.354492,-0.569824,0.317125,6.86108,6.675907,0.250967,-0.014352,0.004486,-0.100098,-0.431641,-0.522705,0.293592,6.566205,6.959951,0.181622,-0.047081,0.006445,-0.026611,-0.409424,-0.58667
0.097798,-0.751031,9.656873,-0.013954,0.077726,0.016324,0.091553,0.392822,-0.563232,0.4195,1.955498,9.717516,-0.008784,0.00256,0.005309,-0.140381,0.100098,-0.656494,0.169444,7.337718,6.862717,-0.047822,0.005035,0.017481,-0.140625,-0.353271,-0.567627,0.53337,7.699497,6.831549,0.14906,-0.053734,0.024418,-0.108887,-0.432373,-0.518555,0.495757,7.246919,7.101029,0.129484,0.009012,-0.002208,-0.037109,-0.411133,-0.584961
-0.056044,-0.387242,9.774531,0.056555,0.014097,0.002575,0.080078,0.390625,-0.560059,0.363167,1.617588,9.727148,-0.160085,-0.004012,0.016422,-0.148438,0.101074,-0.648438,0.264769,6.939489,6.826105,-0.1419,-0.004776,-0.01991,-0.142822,-0.354004,-0.564209,0.559801,7.466343,6.747601,-0.260504,0.048211,-0.031292,-0.11084,-0.433105,-0.520508,0.271588,7.073389,7.046682,-0.214388,0.028957,0.086544,-0.039062,-0.409424,-0.584229
0.095687,-0.327166,9.667593,0.148738,-0.028911,0.023182,0.087158,0.384521,-0.56543,0.440462,1.45862,9.550475,-0.016815,0.044697,-0.01004,-0.138672,0.099854,-0.65625,0.268857,6.814607,6.801898,-0.009788,-0.015702,0.018608,-0.140381,-0.359863,-0.574951,0.376726,6.79513,6.529417,-0.135082,0.020068,0.016194,-0.106445,-0.436523,-0.52832,0.354526,6.425647,6.857916,-0.122985,-0.014252,0.004384,-0.03418,-0.412598,-0.593262
0.222995,-0.198874,9.690701,0.173713,-0.01327,0.033555,0.087646,0.380615,-0.563232,0.251902,1.619092,9.635736,0.035776,0.008105,-0.013919,-0.141602,0.094482,-0.654053,0.359511,7.068403,6.841002,0.097564,0.004867,-0.028968,-0.131836,-0.365234,-0.570068,0.535322,7.084296,6.603677,0.239058,-0.054784,0.008646,-0.099365,-0.44165,-0.522461,0.371871,6.706021,6.890416,0.215346,0.00332,-0.019483,-0.024658,-0.417725,-0.587402
0.017938,-0.167887,9.735423,0.202415,-0.000507,0.021318,0.084229,0.388672,-0.564453,0.444244,1.66772,9.683978,0.016673,-0.008273,0.002673,-0.144775,0.105469,-0.6521,0.162651,7.436793,6.876446,0.059996,0.024325,0.007208,-0.132568,-0.356689,-0.569092,0.572402,7.819811,6.737684,0.111457,0.039365,0.021293,-0.100586,-0.435303,-0.521973,0.3443,7.463145,6.986293,0.154498,0.007311,-0.043982,-0.028809,-0.412598,-0.584473
-0.06881,-0.132705,9.662861,0.233403,-0.061909,-0.011161,0.086182,0.384277,-0.572266,0.316773,1.734896,9.74098,-0.027517,0.024595,0.028751,-0.13916,0.104492,-0.659668,0.210637,7.225113,6.783985,-0.132987,-0.020974,0.004009,-0.141357,-0.358398,-0.572266,0.315505,7.481868,6.699373,-0.228777,0.045128,-0.00489,-0.107422,-0.436035,-0.526611,0.324643,7.375318,7.01896,-0.164734,0.019182,0.082071,-0.036133,-0.413818,-0.590332
0.035037,-0.035431,9.591753,0.297369,-0.115214,-0.016459,0.081299,0.368652,-0.571777,0.358722,1.860574,9.679598,-0.09475,0.032512,0.024751,-0.143066,0.095215,-0.6604,0.187936,6.977198,6.828663,-0.078513,-0.008678,0.021598,-0.139648,-0.351807,-0.573975,0.425893,6.95848,6.556591,-0.157156,-0.022024,0.006799,-0.105225,-0.428223,-0.530273,0.268657,6.682964,6.873245,-0.240308,0.016187,0.021765,-0.033447,-0.404785,-0.593994
0.176082,0.045339,9.527888,0.278098,-0.136096,0.031244,0.081787,0.367432,-0.56665,0.211531,1.561936,9.504172,-0.134952,0.020598,0.014058,-0.140137,0.102783,-0.651611,0.233497,6.917339,6.843385,-0.064852,-0.017051,-0.014953,-0.139404,-0.344727,-0.565186,0.499885,6.991702,6.630399,0.032821,0.022127,0.007339,-0.104492,-0.422852,-0.52417,0.327448,6.411112,6.85563,-0.014606,0.003344,0.046749,-0.034668,-0.402588,-0.58667
0.310138,0.007017,9.823536,0.323943,-0.130717,0.080264,0.079834,0.358887,-0.568848,0.369014,1.452488,9.455158,0.030702,-0.014076,-0.032205,-0.140381,0.100342,-0.651367,0.292041,6.848896,6.804674,0.007867,-0.016879,0.031445,-0.145752,-0.355225,-0.565186,0.440785,7.190483,6.666354,0.014017,0.020581,0.006049,-0.108887,-0.434326,-0.516846,0.404978,6.731259,6.918237,0.097754,0.008346,-0.024013,-0.039551,-0.412842,-0.581787
0.125976,0.79056,10.453574,0.371926,-0.031165,0.031717,0.073975,0.355469,-0.578857,0.188193,1.556665,9.813363,-0.060137,0.009949,0.009645,-0.145264,0.102295,-0.660645,0.148371,7.088093,6.851926,0.046471,0.033622,-0.047397,-0.135498,-0.352783,-0.569092,0.339088,7.160907,6.650244,-0.048424,0.04545,0.00221,-0.098633,-0.429688,-0.523926,0.231116,6.867053,6.98869,-0.042317,0.061117,0.014204,-0.028809,-0.40625,-0.585938
0.053726,0.469815,9.844994,-0.064772,-0.078408,-0.08614,0.082764,0.362061,-0.573242,0.508964,1.19367,9.62759,-0.059153,-0.012069,0.035201,-0.135498,0.106445,-0.656494,0.193242,7.011669,6.802914,-0.062235,-0.048008,0.043657,-0.142334,-0.354492,-0.571777,0.350717,7.066202,6.541544,0.02296,-0.004368,-0.007391,-0.105957,-0.430176,-0.527588,0.216374,6.649237,6.87518,-0.006983,-0.020029,-0.007956,-0.035645,-0.4104,-0.592529
0.284779,-0.225813,9.553733,0.19297,-0.08826,-0.054648,0.078125,0.362061,-0.56665,0.220227,1.531537,9.499916,0.115473,0.110426,0.035479,-0.139648,0.107666,-0.650635,0.328544,6.724386,6.770077,-0.010215,0.018037,0.005439,-0.144775,-0.346924,-0.569824,0.484646,7.30647,6.640234,0.092728,0.008619,0.03413,-0.108643,-0.426514,-0.522217,0.361067,6.955195,6.925028,0.137162,0.020396,-0.061153,-0.037109,-0.40918,-0.587158
0.092625,0.609009,9.732997,0.36831,-0.024278,-0.047101,0.076172,0.348633,-0.57373,0.060796,1.860793,9.697358,-0.011617,-0.02382,0.008213,-0.13916,0.101074,-0.658203,0.035637,7.086232,6.850061,0.144652,0.042499,-0.000481,-0.137939,-0.357178,-0.568115,0.309311,7.363153,6.661342,-0.040518,0.074534,0.016791,-0.102051,-0.432861,-0.521973,0.144882,7.098165,6.994015,-0.029612,0.037466,-0.025655,-0.029785,-0.411377,-0.584961
0.252041,2.060217,10.962326,-0.271998,-0.118055,-0.044759,0.068604,0.355957,-0.572266,0.116252,1.566717,9.465495,-0.002404,0.021277,0.041162,-0.142334,0.104492,-0.655273,-0.014603,7.369541,6.979442,-0.018674,-0.010433,0.004923,-0.137451,-0.353271,-0.570068,0.056815,7.067352,6.605948,-0.077211,0.03363,0.016894,-0.104004,-0.430176,-0.526367,0.057504,6.736626,7.042665,-0.082136,0.012812,-0.005698,-0.030273,-0.408691,-0.590088
0.288372,0.431894,9.654005,-0.788289,0.136454,0.068122,0.078125,0.360352,-0.571045,0.364434,2.008144,10.016806,0.064722,-0.073227,-0.076716,-0.140381,0.094238,-0.656982,0.377142,7.114232,6.659571,-0.015834,0.003192,0.02404,-0.131348,-0.353027,-0.563477,0.468681,7.096446,6.659164,0.100364,-0.099789,0.006645,-0.092529,-0.43335,-0.515869,0.388949,6.71601,6.903965,0.06029,-0.050198,0.001955,-0.023682,-0.409424,-0.58252
0.174385,0.730872,10.333637,-0.814986,-0.074844,-0.127434,0.078613,0.385742,-0.568115,0.400538,1.677576,9.696329,-0.080319,0.04688,0.104907,-0.139648,0.106934,-0.662109,0.127339,7.111188,6.875838,0.000151,0.043662,-0.046437,-0.130859,-0.357422,-0.559814,0.578232,7.447389,6.681733,0.076946,0.0706,-0.01245,-0.094482,-0.431396,-0.516113,0.306273,6.962083,6.898015,0.084531,0.066225,-0.006892,-0.020752,-0.409912,-0.579102
0.059318,-0.684482,9.642586,-0.617438,0.112028,-0.070961,0.079102,0.390625,-0.563232,0.129878,1.602009,9.55953,0.028174,-0.008871,-0.099677,-0.138916,0.103271,-0.655029,0.123756,7.021857,6.803332,-0.049309,-0.016671,0.046721,-0.134277,-0.350098,-0.564209,0.120064,7.56743,6.633329,-0.025639,0.05886,0.027142,-0.097412,-0.429443,-0.515625,-0.042581,7.234891,7.025397,0.046752,0.005273,-0.037796,-0.025635,-0.408447,-0.580078
0.477191,0.345298,10.091089,-0.72583,-0.057237,0.042554,0.073975,0.393799,-0.554688,0.297377,1.681173,9.664212,-0.039399,0.014793,0.012333,-0.139893,0.09668,-0.650391,0.272455,6.997916,6.791164,0.028687,0.024286,-0.005972,-0.148682,-0.357422,-0.559326,0.354025,7.230976,6.616138,-0.155241,-0.071995,0.018536,-0.11084,-0.431885,-0.519043,0.37286,7.020078,6.979954,-0.160725,-0.053072,-0.027589,-0.038574,-0.408447,-0.576904
0.142541,-1.713255,9.532295,-0.852814,0.161147,-0.061943,0.074463,0.423584,-0.55835,0.272444,1.463748,9.610454,-0.016175,-0.050985,-8e-05,-0.145508,0.10791,-0.656738,0.15021,7.435125,6.759821,0.0705,0.035014,-0.024894,-0.141113,-0.361572,-0.569336,0.547111,6.903484,6.572593,-0.044923,0.039842,0.000709,-0.102783,-0.43457,-0.523682,0.308323,6.454629,6.944064,-0.109575,0.05337,0.009311,-0.032471,-0.413086,-0.588135
0.23627,-1.800231,9.539578,-0.080544,-0.006737,0.115947,0.079834,0.419434,-0.554443,0.525505,1.811696,9.751973,0.08948,-0.004767,0.044017,-0.138672,0.101318,-0.657959,0.305666,7.163213,6.877044,-0.181844,-0.013238,0.008126,-0.137939,-0.358398,-0.568604,0.249013,7.143347,6.600656,0.131248,0.012115,-0.010269,-0.100098,-0.436768,-0.521973,0.172762,6.67612,6.88172,0.185833,-0.034475,-0.010832,-0.028076,-0.416748,-0.585693
0.151855,-1.396585,9.703552,0.292552,0.044397,-0.005887,0.080322,0.410645,-0.558838,0.323802,1.908984,9.723967,-0.077481,0.032189,-0.035096,-0.139648,0.099854,-0.6604,0.333705,6.391987,6.687391,-0.084965,0.041612,0.02572,-0.140869,-0.353271,-0.567871,0.526258,7.498106,6.730402,0.001348,-0.087395,0.02453,-0.105713,-0.435791,-0.520996,0.406439,7.31089,7.102305,0.055319,-0.04988,-0.047569,-0.033447,-0.412598,-0.583008
0.226184,-0.269384,9.837886,0.479577,0.008282,0.006857,0.077148,0.402588,-0.564209,0.405386,1.242303,9.542494,-0.133524,0.023343,-0.004926,-0.142578,0.102051,-0.659668,0.154762,6.998236,6.788376,0.215358,0.048277,-0.061435,-0.133057,-0.352051,-0.567871,0.576487,7.065205,6.575663,-0.200511,0.059922,0.005122,-0.098145,-0.428711,-0.520752,0.371067,6.670894,6.929556,-0.308756,0.038843,-0.004048,-0.024414,-0.405762,-0.587891
0.051618,0.077951,9.802732,0.110336,0.007742,-0.05553,0.076904,0.395508,-0.559082,0.251623,1.223249,9.794104,0.018472,0.064461,0.031547,-0.140137,0.095703,-0.652588,0.150009,7.552995,6.826684,-0.054116,0.019903,0.007193,-0.142822,-0.363037,-0.568604,0.139216,6.802259,6.560095,0.003839,0.038764,0.002315,-0.108398,-0.437988,-0.524414,0.038674,6.166439,6.795336,0.038885,-0.015965,-0.050538,-0.037109,-0.415527,-0.587891
0.380239,-0.012538,9.921835,-0.050033,0.057282,-0.031619,0.071289,0.397217,-0.562988,0.179907,1.501042,9.327792,0.152725,0.010802,0.068586,-0.146484,0.094727,-0.657959,0.23404,6.565733,6.833598,-0.205921,0.021121,0.031434,-0.135742,-0.349609,-0.574951,0.360163,7.08265,6.637776,0.135834,-0.115197,0.011383,-0.102783,-0.429443,-0.522705,0.360355,6.992652,6.926335,0.326948,-0.07293,-0.049746,-0.027344,-0.4104,-0.588135
-0.016199,-0.412197,9.726416,-0.08839,0.045599,0.004343,0.07959,0.403564,-0.55542,0.366069,1.970156,9.68716,0.10875,0.009469,-0.001518,-0.141357,0.09668,-0.651855,0.176258,6.603717,6.777006,0.240194,0.060617,-0.048788,-0.141846,-0.362305,-0.57373,0.617704,7.367536,6.653877,0.085474,0.008349,0.000698,-0.110352,-0.439453,-0.526611,0.315877,7.477579,7.102879,0.011802,0.024474,0.026001,-0.035889,-0.417725,-0.593262
0.308736,-0.672118,9.701007,0.084215,0.017726,-0.019953,0.075439,0.406494,-0.551025,0.210561,1.939738,9.577137,-0.097497,0.033397,-0.028726,-0.142578,0.106445,-0.647705,0.121687,7.612879,6.983033,0.083898,0.052938,-0.033284,-0.140625,-0.36499,-0.565674,0.215819,7.37206,6.690825,-0.065441,0.040138,0.032519,-0.111084,-0.440674,-0.523193,0.174963,6.845461,6.963845,-0.227011,-0.013902,0.029832,-0.036377,-0.41748,-0.585449
0.023494,-0.495875,9.698312,0.184688,0.046776,0.064716,0.078125,0.402832,-0.560791,0.313952,1.366563,9.606426,-0.093141,-0.006313,-0.012516,-0.140381,0.104248,-0.656738,0.16545,7.098711,6.828477,-0.210242,0.027072,0.057804,-0.133301,-0.350586,-0.567139,0.382621,7.141408,6.714502,-0.065156,-0.087599,0.006662,-0.103027,-0.428467,-0.519043,0.287107,6.406895,6.950945,-0.012538,-0.047173,0.001227,-0.03125,-0.406006,-0.584229
0.185697,-0.296961,9.830099,0.04999,0.034104,-0.027062,0.083984,0.398193,-0.556641,0.297148,1.47184,9.714894,0.097039,0.016537,0.001529,-0.137451,0.097168,-0.656738,0.105691,6.770323,6.842139,0.042957,0.039551,-0.047272,-0.139893,-0.356689,-0.56665,0.582424,7.096937,6.71373,0.010961,0.007784,0.009796,-0.108154,-0.430664,-0.520752,0.353665,6.796516,6.916047,0.144487,0.002618,-0.040855,-0.035889,-0.408203,-0.581787
-0.030363,-0.572367,9.782246,0.115886,-0.006503,0.005276,0.079102,0.394043,-0.563477,0.264525,1.704607,9.623318,0.007533,0.017466,0.039541,-0.140137,0.096436,-0.657227,0.08203,7.078283,6.851308,0.047777,0.014236,0.001163,-0.142334,-0.359375,-0.570068,0.258543,7.18472,6.775972,0.027837,0.047024,-0.000826,-0.111328,-0.434814,-0.522461,0.197146,7.16566,7.078782,0.057261,-0.007789,0.024712,-0.038086,-0.414307,-0.585693
0.392406,-0.022135,9.864245,0.133103,0.037664,0.000631,0.078369,0.398926,-0.566162,0.368798,1.591932,9.612577,0.051224,0.019479,0.000167,-0.142334,0.100342,-0.65918,0.22222,7.030676,6.895001,0.044656,-0.010149,0.005125,-0.131104,-0.362793,-0.566162,0.455892,7.243163,6.646659,0.089837,-0.096391,0.01856,-0.099121,-0.441162,-0.518555,0.452742,6.939208,6.908309,-0.02701,-0.023458,0.022131,-0.025879,-0.418213,-0.582764
-0.00238,-0.104587,9.975098,-0.020117,0.012643,-0.002738,0.078613,0.39624,-0.563232,0.198292,1.846644,9.662154,0.04482,0.026507,0.010166,-0.138428,0.097412,-0.656982,0.16172,7.180993,6.883348,0.037777,0.047054,-0.011648,-0.133545,-0.358154,-0.561035,0.642758,7.479425,6.7392,0.061482,0.04483,0.004566,-0.104004,-0.435547,-0.512939,0.223171,6.923762,6.999144,0.050863,0.059765,0.023951,-0.031738,-0.411133,-0.579102
0.248539,-0.336754,9.89111,-0.043922,0.06077,-0.0009,0.085693,0.395752,-0.568604,0.339432,1.656886,9.719593,-0.072643,-0.015598,0.001498,-0.139648,0.098145,-0.66333,0.033097,7.180678,6.853607,0.006591,-0.023898,0.022912,-0.141357,-0.360107,-0.571533,0.220126,7.418914,6.700414,-0.056089,0.055762,0.024482,-0.109863,-0.436768,-0.525391,0.21991,7.036024,6.999786,0.046016,-0.036513,-0.005221,-0.036865,-0.414307,-0.590088
-0.032432,-0.544425,9.80914,0.120556,0.020239,-0.033725,0.077881,0.39917,-0.563965,0.300656,1.61842,9.722542,0.035245,0.038235,0.020632,-0.143066,0.101562,-0.65625,0.263649,7.176469,6.859422,0.001956,-0.000796,0.004892,-0.137939,-0.354492,-0.564941,0.431774,7.27106,6.66012,-0.000796,-0.069664,0.004369,-0.109375,-0.431641,-0.516846,0.376133,7.071443,6.977762,-0.022483,0.012699,0.022834,-0.032471,-0.409912,-0.581787
0.233551,-0.017775,10.007569,0.145411,0.049575,-0.006075,0.081543,0.393799,-0.567627,0.210531,1.836914,9.781572,0.00836,-0.00908,0.003513,-0.137451,0.097168,-0.659912,0.049899,7.202578,6.854166,0.013241,0.024526,0.008506,-0.131104,-0.357666,-0.567139,0.594711,7.381096,6.679846,0.035829,0.039374,0.032602,-0.10083,-0.436035,-0.520996,0.208223,6.839778,7.046363,-0.069314,0.024653,-0.04032,-0.029053,-0.412598,-0.585938
-0.009125,-0.059516,9.938741,-0.084091,0.039242,-0.018303,0.081543,0.39209,-0.558105,0.369358,1.709388,9.730675,-0.023272,0.007165,0.031904,-0.142334,0.095947,-0.651367,0.180442,7.19808,6.838537,-0.000728,-0.026516,0.010942,-0.13916,-0.367188,-0.565186,0.258375,7.341165,6.680032,-0.030771,0.050745,0.0025,-0.107666,-0.443115,-0.52002,0.28836,6.726531,6.922459,0.048645,-0.02181,-0.007992,-0.036377,-0.419678,-0.584961
0.047678,-0.571184,9.782088,-0.071136,0.012734,0.017511,0.07959,0.394043,-0.558105,0.167257,1.876514,9.768771,0.066382,0.015555,-0.006374,-0.143311,0.094971,-0.650879,0.112393,7.138523,6.859043,-0.012291,0.03245,0.000476,-0.143799,-0.363281,-0.56543,0.365526,7.196114,6.730825,-0.046737,-0.040965,0.009396,-0.111816,-0.440186,-0.519531,0.272201,7.060548,7.085212,0.090142,0.018086,-0.059416,-0.039551,-0.418701,-0.585205
0.104962,-0.477449,9.862362,0.174118,0.003341,0.065662,0.084229,0.395264,-0.562744,0.329948,2.015596,9.731424,-0.043785,-0.006658,-0.015568,-0.142334,0.098877,-0.654053,0.105812,7.141914,6.845293,-0.007229,-0.021561,-0.013415,-0.13623,-0.345215,-0.567139,0.50867,7.141855,6.681758,-0.011096,0.011926,-0.002382,-0.10376,-0.422852,-0.519043,0.298306,7.071504,7.063496,-0.089946,-0.011231,0.053006,-0.032959,-0.401611,-0.583984
-0.035096,0.254578,10.08361,0.134463,0.018945,0.043395,0.086426,0.389404,-0.56665,0.194031,1.730552,9.846274,-0.114724,0.015713,-0.004887,-0.13623,0.098633,-0.65918,0.098821,7.231694,6.851062,-0.043191,0.009928,-0.022912,-0.134521,-0.358643,-0.565186,0.277938,7.24424,6.738859,-0.034115,0.042576,-0.013077,-0.100342,-0.436768,-0.518555,0.276402,6.759855,6.984341,-0.110766,0.024317,0.043362,-0.027832,-0.412109,-0.583984
0.054091,-0.075047,9.849685,-0.072889,-0.043193,0.03375,0.08374,0.385742,-0.564453,0.445482,1.631658,9.708523,-0.031211,0.013765,-0.026372,-0.141602,0.091064,-0.656738,0.143421,7.005115,6.862488,-0.12138,-0.031518,-0.025054,-0.141357,-0.355957,-0.56543,0.367958,7.147002,6.731916,-0.09074,-0.068866,-0.031432,-0.110352,-0.431641,-0.515869,0.304053,6.696766,6.946479,-0.008705,-0.009713,0.089552,-0.040527,-0.40918,-0.581787
0.157227,-0.225371,9.75063,-0.032529,-0.035083,0.053898,0.086426,0.402588,-0.562744,0.236999,1.828625,9.665731,-0.003968,0.073471,-0.034722,-0.134033,0.108887,-0.656006,0.241775,6.857462,6.848095,0.002185,-0.013672,-0.018828,-0.132812,-0.35498,-0.568848,0.646152,7.084017,6.633312,-0.001388,0.009118,-0.025226,-0.099609,-0.43457,-0.523193,0.410094,6.861679,6.93625,0.015813,0.007124,0.048705,-0.029297,-0.412598,-0.586914
0.068723,-0.574378,9.596227,-0.009687,-0.057211,0.099712,0.087402,0.391113,-0.560791,0.151296,1.773535,9.611098,-0.095468,-0.004615,-0.066597,-0.135742,0.097412,-0.6521,0.09339,7.263499,6.912861,0.03866,0.024589,-0.076268,-0.134766,-0.353516,-0.56543,0.251755,7.33787,6.748519,0.020541,0.078294,-0.016374,-0.101318,-0.430176,-0.519775,0.277823,6.965684,7.042768,-0.031024,0.056638,0.067605,-0.030518,-0.404053,-0.585205
0.151699,-0.397299,9.648626,0.106412,-0.054184,0.110918,0.084717,0.389893,-0.572266,0.247095,1.380183,9.486666,-0.120011,0.008071,-0.035947,-0.135986,0.103271,-0.664062,0.062985,7.193076,6.871417,-0.132753,-0.043246,0.009033,-0.133789,-0.360107,-0.566895,0.255905,7.408849,6.670867,-0.062142,-0.052972,-0.038955,-0.098877,-0.437256,-0.52124,0.182244,6.941915,6.95441,-0.045642,-0.00825,0.071195,-0.031494,-0.414795,-0.582764
0.162259,-0.249766,9.788112,0.131792,-0.022451,0.059962,0.077881,0.392578,-0.565186,0.243402,1.309663,9.603133,-0.00664,-0.032552,-0.021352,-0.142822,0.104248,-0.658447,0.224412,6.813816,6.75488,-0.079639,-0.016352,-0.021325,-0.139404,-0.350586,-0.566895,0.6034,7.260921,6.629343,-0.094569,-0.015322,-0.003438,-0.106934,-0.424072,-0.517578,0.422494,6.895773,6.988237,-0.066887,0.00143,0.022202,-0.037598,-0.401611,-0.583984
0.084972,-0.128401,9.902443,0.06529,-0.032398,0.04123,0.085693,0.391113,-0.565918,0.362154,1.614621,9.598757,0.027273,0.006885,0.014025,-0.137451,0.104492,-0.653809,0.08686,6.970684,6.809031,0.02813,0.013705,-0.028621,-0.145508,-0.35376,-0.566895,0.319564,7.088937,6.640614,-0.057375,0.083156,-0.022553,-0.111328,-0.431396,-0.519043,0.27497,6.72859,6.987159,-0.055309,0.043207,0.044229,-0.044434,-0.406982,-0.586914
0.150389,-0.162522,9.840841,0.105055,-0.010167,0.035221,0.077881,0.382324,-0.570068,0.116826,1.563139,9.588019,-0.040981,0.018467,-0.002613,-0.140381,0.099609,-0.660889,0.101894,6.932123,6.903917,-0.038473,-0.023884,0.015512,-0.129883,-0.3479,-0.570801,0.195039,7.159167,6.665436,0.070808,-0.022415,0.010452,-0.095703,-0.427246,-0.521729,0.197032,6.756026,6.973807,0.068399,-0.002904,-0.028778,-0.02832,-0.403809,-0.587646
0.110391,0.076012,9.946508,0.071858,-0.013627,0.038717,0.080322,0.386475,-0.563232,0.20616,1.439987,9.533803,-0.020284,-0.016426,-0.023113,-0.144287,0.101074,-0.654541,0.068183,6.838239,6.813035,0.009113,-7.5e-05,0.009523,-0.134766,-0.356445,-0.574951,0.389858,7.429434,6.728106,0.035322,-0.022307,0.025694,-0.100098,-0.434082,-0.529785,0.248263,7.09019,7.092826,0.062147,-0.014892,-0.037603,-0.029297,-0.411865,-0.592773
0.134804,0.104924,10.026222,-0.057234,0.062602,-0.01605,0.08667,0.38501,-0.562256,0.276324,1.532883,9.650462,0.003547,0.004303,0.022045,-0.136475,0.101562,-0.652832,0.070771,7.163774,6.782985,0.067425,-0.016575,-0.002263,-0.135498,-0.349121,-0.571533,0.317784,7.216798,6.691492,-0.144474,0.040605,0.014212,-0.099365,-0.421143,-0.527344,0.331403,6.94217,7.077616,-0.127388,-0.012806,-0.011477,-0.033691,-0.401611,-0.592285
0.003429,-0.202632,9.873389,-0.095705,0.026436,-0.045591,0.086426,0.395996,-0.562988,0.186007,1.681903,9.728823,-0.001635,0.020354,0.033556,-0.139648,0.11084,-0.653564,0.081808,7.207501,6.943223,-0.06778,-0.003037,0.013893,-0.140625,-0.360352,-0.567383,0.20466,6.935495,6.637273,-0.00117,-0.008182,0.00755,-0.106201,-0.436523,-0.522705,0.205445,6.592506,6.945264,-0.013104,0.016389,0.016417,-0.037354,-0.409912,-0.586426
0.053686,-0.378001,9.711631,-0.010058,0.050687,-0.000157,0.083252,0.388916,-0.563232,0.122668,1.65963,9.615355,-0.024908,0.007342,0.005313,-0.139893,0.099609,-0.655029,0.048303,6.740457,6.864953,-0.076045,-0.016768,0.039546,-0.134033,-0.357666,-0.570801,0.307037,7.329948,6.662121,0.151261,-0.03202,0.038478,-0.098877,-0.436035,-0.52124,0.108493,6.929474,7.051061,0.134821,-0.029151,-0.069649,-0.028564,-0.413086,-0.590088
0.016125,-0.201221,9.784071,0.105292,0.024026,0.033821,0.08374,0.388184,-0.563477,0.143917,1.557974,9.66343,0.014741,-0.020822,-0.017813,-0.139893,0.101318,-0.652344,0.098078,6.943554,6.823504,0.160833,0.003187,0.000279,-0.136719,-0.356201,-0.566406,0.29258,7.484758,6.755494,-0.043007,0.004184,0.039755,-0.102295,-0.435303,-0.518311,0.305481,7.07276,7.096301,-0.026089,-0.044023,-0.031138,-0.034912,-0.413818,-0.581299
-0.008411,0.061366,9.995135,-0.062129,0.034895,0.007768,0.088867,0.387207,-0.55957,0.306483,1.737185,9.758573,0.057732,-0.023581,0.013125,-0.136719,0.099121,-0.651123,0.067659,7.658379,6.909686,0.091917,0.008241,-0.013549,-0.139648,-0.355957,-0.569824,0.275411,7.136621,6.667248,-0.086517,-0.018906,0.011165,-0.106689,-0.431641,-0.526123,0.235056,6.739257,7.011399,-0.065726,-0.002559,-0.030913,-0.033936,-0.408936,-0.590576
0.111753,-0.467072,9.760182,-0.019509,-0.005732,0.005325,0.081787,0.38208,-0.565674,0.237494,1.949434,9.729061,-0.046467,0.004451,0.035765,-0.145264,0.094727,-0.653809,0.110343,7.298144,6.937715,-0.230963,-0.028349,0.040941,-0.138672,-0.352051,-0.571289,0.377597,7.171749,6.689294,0.037571,-0.035429,0.01969,-0.108643,-0.430176,-0.526855,0.2493,6.808624,7.036899,0.048345,-0.04685,-0.032919,-0.037842,-0.405029,-0.59082
0.146078,0.032367,9.838364,0.143413,0.029702,0.046098,0.087402,0.374023,-0.559814,0.253107,1.570195,9.681092,-0.138051,-0.04003,-0.002675,-0.141846,0.090332,-0.650635,0.269768,6.482654,6.913364,-0.117332,-0.023523,0.024463,-0.137207,-0.349121,-0.569092,0.458759,7.338028,6.82544,-0.03855,-0.02804,0.008754,-0.101562,-0.428711,-0.518311,0.407968,7.054056,7.050047,-0.000458,-0.04831,-0.020673,-0.034668,-0.405029,-0.581787
0.08561,0.19841,9.980447,0.045333,0.008313,0.059482,0.084717,0.385498,-0.561035,0.38742,1.352023,9.752514,0.054309,-0.03152,-0.046408,-0.143799,0.099854,-0.651855,0.189412,6.870415,6.912183,0.181011,0.035422,-0.026484,-0.13916,-0.352295,-0.568115,0.471242,7.121442,6.721447,-0.075808,-0.00506,0.027521,-0.107666,-0.427246,-0.522949,0.380677,6.85655,7.019226,-0.086379,0.004552,-0.022706,-0.032959,-0.405273,-0.583984
-0.057405,-0.087145,9.94421,-0.119591,-0.003179,0.005801,0.09082,0.39209,-0.566895,0.346086,1.814945,9.875171,0.053539,0.017461,-0.025128,-0.140137,0.105957,-0.657227,0.073655,7.592159,6.94524,0.034584,-0.00577,0.00311,-0.13623,-0.361084,-0.569824,0.371818,7.198013,6.692965,0.062397,0.013458,0.019243,-0.104736,-0.435791,-0.523193,0.231461,6.79366,6.978285,0.030652,-0.012416,-0.026532,-0.034912,-0.414062,-0.590576
0.071262,-0.398683,9.796607,-0.007377,-0.038305,-0.035062,0.084229,0.393555,-0.573242,0.188813,1.611648,9.641051,-0.173425,0.009927,0.049199,-0.143555,0.111328,-0.660645,0.136271,7.191886,6.930629,-0.18708,-0.02941,0.043644,-0.141602,-0.354248,-0.567627,0.330087,7.484017,6.771162,0.002121,-0.010729,0.020143,-0.109619,-0.431885,-0.518066,0.287085,7.061903,6.998969,0.018576,-0.025397,-0.025278,-0.036133,-0.408447,-0.584473
0.180322,-0.061903,9.754802,0.12087,0.019415,-0.048093,0.085938,0.38916,-0.561523,0.249908,1.2531,9.574402,-0.016252,-0.043003,0.017351,-0.140869,0.10791,-0.647949,0.214761,6.71875,6.871049,-0.058133,-0.017332,0.006411,-0.138916,-0.347168,-0.577637,0.471639,7.296985,6.692296,-0.141199,-0.024071,0.00345,-0.108643,-0.426758,-0.530273,0.311823,6.926505,6.96728,-0.104346,-0.008845,-0.002973,-0.036377,-0.404785,-0.59375
0.083114,0.329789,10.032849,-0.020098,-0.019847,-0.00464,0.089844,0.384766,-0.570557,0.44454,1.699333,9.730853,0.110005,-0.009923,-0.012931,-0.136475,0.101074,-0.659668,0.258869,6.943153,6.865531,0.071439,0.005164,0.014783,-0.135498,-0.35791,-0.56665,0.520039,6.99994,6.624873,-0.053754,0.024288,0.036429,-0.10376,-0.4375,-0.52124,0.35777,6.758076,6.897045,-0.015659,-0.01042,-0.056047,-0.032471,-0.413086,-0.585205
0.112314,-0.395673,9.848904,-0.144947,0.003516,-0.039495,0.082764,0.38501,-0.562012,0.296599,1.863171,9.801196,-0.001777,-0.0118,-0.003076,-0.142334,0.098389,-0.653076,0.165259,7.257087,6.938488,-0.022197,0.008054,0.001215,-0.134766,-0.352051,-0.576904,0.364891,7.103465,6.75882,0.020327,0.023061,0.026105,-0.100342,-0.431641,-0.531982,0.37115,6.843495,7.02854,-0.020425,-0.006635,-0.007635,-0.030029,-0.40625,-0.592041
0.099874,-0.482714,9.864025,0.113991,-0.033791,0.000995,0.088379,0.385498,-0.572754,0.364719,1.588689,9.618827,-0.127936,0.009622,-0.001341,-0.138672,0.102783,-0.655762,0.177956,6.904235,6.896557,-0.138651,-0.010714,0.037489,-0.138672,-0.350342,-0.571289,0.402852,7.136627,6.733995,-0.064079,-0.007682,0.005133,-0.106689,-0.42749,-0.524414,0.309591,6.632013,6.971919,-0.1106,0.016625,-0.005799,-0.033447,-0.403076,-0.588867
0.09376,0.094623,9.875524,0.144032,0.014369,-0.021905,0.084473,0.388916,-0.571533,0.217366,1.301729,9.639402,-0.028567,-0.01062,-0.003516,-0.140381,0.109131,-0.659668,0.173181,6.706991,6.897663,-0.005548,-0.005882,-0.004652,-0.139404,-0.352295,-0.570068,0.441476,7.034692,6.699096,-0.049673,0.017485,0.020309,-0.10791,-0.430664,-0.526123,0.24114,6.53179,6.975855,0.008834,-0.003064,-0.033226,-0.03418,-0.405762,-0.5896
0.18434,0.393867,10.069664,-0.096036,0.005802,-0.056846,0.088135,0.37915,-0.563232,0.427054,1.447941,9.586746,0.041388,0.003109,0.009057,-0.135498,0.095459,-0.654541,0.224844,6.996406,6.856111,0.073573,0.00769,0.000909,-0.140137,-0.352295,-0.566406,0.401092,6.985717,6.781315,0.001363,0.019577,0.007754,-0.105225,-0.427979,-0.521729,0.3905,6.742918,7.032008,0.055161,-0.013862,-0.036412,-0.035889,-0.407227,-0.58374
0.03235,-0.521499,9.730196,-0.195936,0.030358,-0.077737,0.07959,0.387695,-0.566895,0.296024,1.74589,9.617834,0.073288,0.010599,0.027715,-0.146973,0.102539,-0.654785,0.115947,7.075546,6.876212,-0.001369,-0.01244,0.001955,-0.137939,-0.355225,-0.572754,0.400705,7.071296,6.688539,0.070663,0.003305,0.008031,-0.106445,-0.430908,-0.525391,0.303152,6.811926,6.99271,0.040723,0.039535,-0.007336,-0.034424,-0.40918,-0.590332
0.255318,-0.418914,9.78281,0.069364,0.017596,-0.007277,0.084473,0.388672,-0.568604,0.3191,1.836426,9.625041,-0.059286,0.008461,-0.003788,-0.13916,0.105957,-0.658936,0.297153,6.866282,6.863446,-0.049676,-0.023391,0.018771,-0.138184,-0.354736,-0.56543,0.417482,7.252609,6.745941,0.016279,0.005349,0.00961,-0.104004,-0.43335,-0.519531,0.227493,6.900948,7.100174,0.011173,-0.011794,-0.008102,-0.031738,-0.411865,-0.583984
-0.052039,-0.212977,9.771826,0.064923,0.041907,0.023034,0.078125,0.386963,-0.5625,0.234406,1.471279,9.559598,-0.038869,-0.012597,-0.01669,-0.150879,0.099609,-0.650879,0.140214,6.922853,6.865531,0.067804,0.022508,-0.013169,-0.142334,-0.346436,-0.564453,0.385711,7.160897,6.694637,-0.034061,0.016511,0.006618,-0.108398,-0.423584,-0.517822,0.338685,6.821601,6.973233,-0.014384,0.008565,0.018859,-0.036621,-0.400879,-0.583496
0.255924,-0.122426,9.776821,0.061487,0.0101,0.019601,0.084717,0.383789,-0.568115,0.425592,1.613819,9.621379,0.026326,-0.019072,-0.020457,-0.142822,0.099609,-0.655518,0.193273,7.207145,6.883824,-0.004827,-0.03398,0.000796,-0.142334,-0.352539,-0.56543,0.387916,7.187354,6.701732,0.005641,-0.015063,0.014959,-0.107422,-0.429199,-0.521973,0.216868,6.866437,7.04232,0.014842,0.001183,-0.016704,-0.037109,-0.407227,-0.584473
0.038828,-0.191086,9.892658,0.029113,0.045683,0.002633,0.087891,0.38501,-0.562744,0.4003,1.586345,9.737527,-0.076088,0.000565,0.015796,-0.143799,0.102783,-0.648193,0.307863,6.970971,6.850417,-0.090662,-0.020595,0.030994,-0.138916,-0.345215,-0.55957,0.533292,7.164404,6.769034,-0.057707,-0.011591,0.010168,-0.10376,-0.42627,-0.511719,0.464506,6.793685,7.035709,-0.093359,-0.032817,0.021097,-0.031982,-0.405273,-0.580566
0.111585,0.07185,9.969409,-0.058115,0.019,-0.012871,0.088623,0.38501,-0.570801,0.402417,1.449982,9.6537,-0.011634,0.017857,0.035838,-0.144043,0.102295,-0.656494,0.188339,6.844687,6.87622,0.018698,-0.000152,-0.0292,-0.13916,-0.352051,-0.568848,0.464496,6.991567,6.738407,-0.045157,0.045111,-0.009232,-0.104736,-0.428711,-0.524902,0.348729,6.493698,6.91838,-0.034168,0.055503,0.00475,-0.032959,-0.405762,-0.587891
0.079696,-0.49436,9.665176,-0.000106,0.005076,0.005459,0.087402,0.38501,-0.562744,0.266177,1.686045,9.587889,0.06953,0.018875,-0.004194,-0.143311,0.102295,-0.652832,0.215783,7.012029,6.921943,0.018446,-0.046556,0.014564,-0.141602,-0.351562,-0.570801,0.303147,7.048956,6.65119,0.070118,0.009025,0.005173,-0.101562,-0.428711,-0.523926,0.161816,6.79865,7.008064,0.164071,0.002863,-0.008501,-0.032715,-0.405762,-0.588379
0.196075,0.239722,9.948676,0.123865,0.052102,0.060288,0.087646,0.379639,-0.565918,0.327906,1.712324,9.614721,0.004299,-0.007405,-0.019135,-0.141846,0.098633,-0.653564,0.317853,6.936853,6.836402,-0.020065,-0.002782,0.002269,-0.141113,-0.353516,-0.568604,0.468866,7.330267,6.682019,0.051349,-0.028025,0.01268,-0.104004,-0.432617,-0.522217,0.375864,7.150933,7.060996,-0.003418,-0.027178,0.005933,-0.031738,-0.410156,-0.587646
-0.132415,0.099258,9.945974,-0.097767,0.046317,-0.013401,0.093506,0.382324,-0.570557,0.369831,1.633074,9.826157,-0.070405,-0.002169,-0.003746,-0.137451,0.101074,-0.657715,0.102479,7.118894,6.892807,0.036632,0.008975,-0.012542,-0.129639,-0.353516,-0.565186,0.42511,7.284515,6.74352,-0.103668,0.044528,0.007912,-0.094482,-0.430664,-0.520752,0.291941,6.707828,7.022672,-0.185559,0.053298,-0.001739,-0.021973,-0.405762,-0.586182
0.017483,-0.045126,9.883584,-0.097392,0.011557,-0.026251,0.094727,0.385742,-0.569824,0.332716,1.416453,9.687773,-0.034303,0.037387,0.025413,-0.138428,0.102539,-0.658447,0.271072,7.076315,6.907911,-0.079747,-0.039161,0.01285,-0.139404,-0.346191,-0.564697,0.241605,6.93955,6.626866,-0.089071,0.014223,-0.007399,-0.105469,-0.422363,-0.522461,0.136609,6.50617,6.939985,0.055141,-0.018461,0.015272,-0.031982,-0.400879,-0.588379
0.000223,-0.351673,9.63985,-0.029823,0.002706,-0.02549,0.092041,0.390625,-0.569092,0.214285,1.733313,9.672781,0.106144,0.01483,-0.01926,-0.138184,0.10498,-0.655518,0.250532,6.854246,6.86187,-0.020222,0.033389,-0.006682,-0.139893,-0.350342,-0.571045,0.383912,7.031462,6.632497,0.077805,-0.049078,0.013229,-0.101807,-0.42749,-0.525635,0.376097,7.021604,7.013031,0.117966,-0.035946,-0.016034,-0.033447,-0.403809,-0.585693
0.073828,-0.166177,9.767277,-0.014667,-0.005759,0.026757,0.082764,0.385498,-0.564209,0.328468,1.853407,9.740334,-0.083216,-0.004874,-0.013922,-0.147705,0.10083,-0.651855,0.170966,7.023585,6.921736,0.033662,0.021877,-0.029372,-0.131836,-0.348389,-0.573242,0.458452,7.330892,6.699815,0.037912,0.006758,-0.002034,-0.097412,-0.426025,-0.523438,0.286634,6.990592,6.976575,-0.111991,0.03121,0.048423,-0.026611,-0.403564,-0.589355
-0.167027,-0.36604,9.736675,-0.059053,-0.040396,0.024702,0.086426,0.384521,-0.569824,0.360322,1.359215,9.690787,-0.07785,0.023607,-0.00883,-0.145508,0.100342,-0.658936,0.203613,7.056677,6.854176,-0.037035,0.016928,0.009427,-0.139648,-0.357422,-0.568604,0.328764,7.216984,6.733212,-0.109054,0.023601,0.009881,-0.104736,-0.432617,-0.524658,0.212143,6.539373,6.967448,-0.087821,-0.00903,0.003268,-0.032959,-0.406982,-0.5896
0.121101,-0.383851,9.639977,0.070079,-0.093782,0.006076,0.091553,0.387695,-0.56543,0.27221,1.573945,9.645557,0.093633,0.045572,0.007588,-0.139648,0.103516,-0.653076,0.139218,6.998223,6.910293,0.010889,0.027585,-0.036115,-0.137939,-0.347656,-0.562988,0.312534,6.950325,6.696862,-0.01948,-0.019562,-0.014716,-0.101562,-0.425781,-0.518555,0.313147,6.657532,6.967504,0.106758,-0.008089,0.02891,-0.029297,-0.400391,-0.583984
0.066227,0.067938,9.790578,0.148806,-0.056369,0.009307,0.081543,0.384521,-0.568359,0.246083,1.835659,9.599191,-0.020761,0.00929,0.025644,-0.144043,0.101807,-0.658203,0.157081,7.166811,6.886811,0.03962,0.008364,-0.011789,-0.130371,-0.347412,-0.574463,0.447104,7.222367,6.746835,0.137861,-0.008818,-0.003425,-0.091553,-0.42334,-0.526611,0.282978,7.048036,7.095495,0.084578,0.01314,-0.005804,-0.023193,-0.402832,-0.5896
0.062964,0.232405,10.006356,-0.022107,-0.056464,-0.002789,0.07666,0.37915,-0.562744,0.254105,1.615544,9.52739,-0.067116,0.007901,0.018915,-0.147705,0.095947,-0.650635,0.13873,7.013063,6.950512,-0.100396,0.015632,-0.014879,-0.13916,-0.351562,-0.575684,0.32257,7.512587,6.795728,-0.003424,0.030588,-0.005639,-0.105225,-0.429688,-0.531982,0.231589,6.974399,7.053141,-0.072535,0.014005,0.032847,-0.033936,-0.404785,-0.593018
0.25011,-0.160158,9.79245,-0.035037,-0.043483,0.034218,0.077637,0.376465,-0.564453,0.249381,1.597765,9.572033,0.001815,-0.01194,-0.040082,-0.150391,0.09375,-0.655273,0.188437,6.709373,6.908723,-0.032418,-0.027339,0.031814,-0.148682,-0.347412,-0.566895,0.36826,7.249765,6.770866,-0.124848,-0.022463,0.008462,-0.109863,-0.426514,-0.523926,0.244845,6.764431,7.080583,-0.029305,-0.017629,-0.034624,-0.039062,-0.402588,-0.585449
0.135658,-0.080515,9.903827,0.002449,0.017148,0.030064,0.082275,0.385986,-0.554688,0.350792,1.507182,9.652378,-0.0561,-0.012444,-0.026508,-0.146729,0.10083,-0.644287,0.30714,6.989129,6.922667,0.073753,0.022504,-0.017645,-0.143799,-0.354248,-0.573242,0.506547,6.999036,6.765117,-0.046982,0.009252,0.030337,-0.109375,-0.429443,-0.528564,0.410566,6.916986,7.125652,0.032354,-0.005722,-0.036695,-0.038574,-0.407959,-0.590088
0.005357,-0.129926,9.964804,-0.059705,-0.011633,-0.028715,0.085449,0.383545,-0.561279,0.34547,1.329192,9.737258,0.009786,-0.020294,0.01196,-0.140625,0.097412,-0.651123,0.056058,7.182029,6.917665,0.002819,0.013468,0.012017,-0.141602,-0.354004,-0.566406,0.294872,7.044657,6.781251,0.033805,0.046357,0.007413,-0.106201,-0.431152,-0.523682,0.256472,6.833511,7.11606,-0.057576,0.020688,0.016632,-0.034912,-0.404541,-0.587646
0.157354,-0.40732,9.893071,-0.104574,-0.025785,-0.043902,0.085693,0.386475,-0.568604,0.376448,1.7358,9.747148,0.043686,0.021977,0.027831,-0.140381,0.100342,-0.659668,0.246112,7.048399,6.956043,-0.084352,-0.047646,0.005542,-0.138672,-0.351562,-0.573975,0.29833,7.277022,6.780594,0.034257,-0.052254,0.007712,-0.101074,-0.433105,-0.5271,0.264511,6.752374,7.08948,-0.012604,-0.019247,0.02156,-0.031982,-0.407227,-0.593506
0.283305,-0.433027,9.821902,0.100467,-0.003668,0.002191,0.076416,0.38623,-0.568359,0.317547,1.655012,9.639038,-0.101801,-0.010145,0.016849,-0.14917,0.10498,-0.6604,0.343645,6.712761,6.885247,-0.068667,0.017905,0.021143,-0.137451,-0.349121,-0.570312,0.606661,7.209957,6.757671,-0.0814,-0.025992,0.009131,-0.10083,-0.428711,-0.524902,0.402778,6.820371,7.01418,0.010795,-0.018649,0.004529,-0.032227,-0.404297,-0.588379
0.159769,0.239019,10.005852,0.074264,0.016635,0.016749,0.083008,0.382812,-0.563965,0.475102,1.438733,9.602694,-0.021918,0.010081,-0.013053,-0.143311,0.100586,-0.651367,0.163442,6.838295,6.901804,0.070885,-0.003907,-0.010823,-0.138672,-0.350586,-0.573486,0.451015,6.972476,6.747692,-0.068633,0.062282,0.022665,-0.102783,-0.423584,-0.528564,0.414052,6.812747,7.022125,-0.031072,0.015424,-0.002909,-0.031494,-0.404053,-0.591553
0.160348,0.014315,9.879447,-0.083747,0.017403,-0.026143,0.074951,0.380371,-0.561035,0.243199,1.504483,9.647507,0.037392,0.020607,0.012018,-0.150146,0.095703,-0.649414,0.287504,7.141072,6.901264,0.043447,-0.01017,0.010132,-0.146973,-0.358398,-0.566162,0.2702,6.978579,6.686403,0.066797,-0.004408,0.011276,-0.111572,-0.43457,-0.521729,0.282211,6.646388,6.997402,-0.021346,0.011706,0.030201,-0.040283,-0.411133,-0.585449
0.155975,-0.194685,9.878338,-0.086544,0.026868,-0.035735,0.084229,0.387939,-0.566895,0.360689,1.755325,9.629568,0.044213,-0.013171,0.014115,-0.141357,0.10083,-0.657227,0.167017,7.099756,6.862954,-0.006008,0.005607,-0.000458,-0.141113,-0.344238,-0.565186,0.469009,7.306633,6.68832,0.103118,-0.040112,0.012986,-0.105225,-0.418945,-0.519531,0.297757,6.671081,7.019986,0.055247,-0.01182,-0.020228,-0.0354,-0.39502,-0.584473
0.069262,-0.142525,9.894804,-0.016463,0.053126,-0.01559,0.084717,0.385742,-0.573486,0.324293,1.860416,9.726845,-0.035403,0.023473,0.025237,-0.141357,0.099609,-0.6604,0.241459,7.033293,6.861124,-0.04541,-0.01396,-0.001017,-0.147949,-0.35376,-0.572754,0.453754,7.346733,6.733008,-0.089278,0.03879,0.000337,-0.109619,-0.430908,-0.528564,0.333755,6.826763,7.029604,0.003933,-8.1e-05,-0.008407,-0.038818,-0.404785,-0.593018
-0.005176,-0.140605,9.766926,-0.046943,-0.008102,0.012409,0.08374,0.385742,-0.572754,0.249063,1.710031,9.640889,-0.07499,0.005691,-0.023049,-0.142822,0.102539,-0.663574,0.130607,6.843866,6.89128,-0.067458,0.010521,0.008263,-0.144043,-0.34082,-0.573486,0.232256,6.958557,6.658236,-0.124806,0.024576,0.003323,-0.105225,-0.41748,-0.529053,0.193477,6.789611,6.960476,-0.025833,0.008535,-0.02883,-0.03418,-0.396973,-0.593018
0.197679,-0.284864,9.620406,0.003362,0.011612,0.037615,0.085693,0.388428,-0.570801,0.320608,1.473682,9.509809,-0.065064,0.011792,-0.028795,-0.144287,0.103027,-0.659424,0.207289,6.82155,6.910123,0.018349,-0.023099,-0.003786,-0.136719,-0.350098,-0.566895,0.384086,6.927144,6.724425,0.056789,-0.055496,0.01413,-0.099854,-0.427246,-0.522461,0.326631,6.829769,7.044626,0.010007,-0.036998,0.003734,-0.028076,-0.404297,-0.585449
0.059885,-0.207031,9.701439,-0.01754,0.011389,0.02275,0.08374,0.384277,-0.568115,0.291761,1.441907,9.604196,0.029103,-0.019354,-0.013549,-0.144531,0.099609,-0.654541,0.219699,7.11941,6.901692,0.063327,0.000662,-0.010805,-0.146729,-0.364014,-0.569824,0.489452,7.264122,6.779976,0.059874,0.014822,0.005326,-0.108398,-0.438721,-0.525391,0.401548,6.866446,7.046992,-0.008996,0.017159,0.022032,-0.040527,-0.41333,-0.590332
0.104142,-0.447443,9.714324,-0.054524,-0.012101,0.018521,0.084229,0.394287,-0.560791,0.413554,1.706861,9.704608,0.015913,0.005012,0.017983,-0.144043,0.103271,-0.651611,0.179052,7.220542,6.915966,-0.051334,-0.010034,-0.020984,-0.13916,-0.353271,-0.574219,0.30375,7.243397,6.738654,-0.074493,0.020759,-0.011734,-0.100586,-0.428711,-0.531738,0.263503,6.732398,7.026997,-0.052428,0.011781,0.059193,-0.031982,-0.403809,-0.594971
0.073123,-0.566662,9.689023,0.108136,-0.032532,0.0482,0.081787,0.383789,-0.56665,0.260825,1.660726,9.605654,-0.089379,0.008252,0.012045,-0.147949,0.100098,-0.656006,0.22473,6.758535,6.905865,-0.128053,-0.029998,0.032855,-0.142334,-0.345703,-0.568848,0.370618,7.08618,6.663494,-0.024269,-0.034449,-0.004235,-0.106201,-0.422607,-0.522461,0.2605,6.750313,7.031804,0.035224,-0.012644,0.009969,-0.035645,-0.398682,-0.588867
0.182955,-0.0163,9.824537,0.208604,-0.010574,0.068753,0.085205,0.393311,-0.569092,0.312201,1.302826,9.526414,-0.111018,-0.002272,-0.013076,-0.141357,0.11377,-0.656738,0.242558,6.612205,6.926351,0.005282,0.000891,-0.012061,-0.138428,-0.350342,-0.571045,0.453696,7.137463,6.827014,-0.013722,0.013556,0.030306,-0.103027,-0.429443,-0.523682,0.341059,6.882602,7.124013,-0.027214,-0.007177,-0.015404,-0.032227,-0.404785,-0.590576
0.107908,0.189913,10.038035,0.020175,0.017995,0.024005,0.090088,0.38916,-0.568359,0.273516,1.133337,9.518535,0.012209,-0.003159,0.00083,-0.136963,0.109131,-0.655273,0.142846,6.861635,6.957042,0.054753,-0.015368,0.018707,-0.139648,-0.357178,-0.56958,0.306902,6.98549,6.822982,-0.079098,0.025002,0.012242,-0.099854,-0.432373,-0.524658,0.304688,6.614891,7.044785,-0.073873,0.002997,0.016148,-0.032227,-0.407715,-0.588623
0.029902,0.073376,10.035716,-0.039313,0.06251,-0.057464,0.077393,0.38916,-0.558105,0.377488,1.516038,9.732065,0.05439,0.009702,0.025965,-0.1521,0.105225,-0.647461,0.203753,7.021254,6.933805,0.004589,-0.033011,0.005715,-0.150635,-0.354736,-0.57251,0.320826,6.917613,6.754671,0.03588,-0.017431,0.020481,-0.110352,-0.431396,-0.530518,0.288122,6.648227,7.030392,0.076873,0.007137,0.010531,-0.042969,-0.406982,-0.593018
0.063859,-0.111837,9.828055,-0.083915,0.030536,-0.09015,0.082764,0.375,-0.564697,0.177771,1.665014,9.655988,-0.056038,0.032171,0.043393,-0.146484,0.095703,-0.650635,0.188115,6.897132,6.976868,-0.047758,-0.025177,0.030977,-0.145264,-0.344727,-0.577881,0.377031,7.234716,6.762035,0.096145,0.000874,0.019874,-0.106689,-0.425781,-0.528564,0.231006,6.984692,7.091667,0.067069,-0.006327,0.029224,-0.03833,-0.402588,-0.596924
0.238163,-0.210404,9.821435,0.011599,0.093604,-0.033488,0.081055,0.393066,-0.561279,0.303588,1.478566,9.559166,-0.039719,-0.026254,-0.011792,-0.148193,0.109375,-0.648193,0.325817,6.780527,6.978764,-0.008318,-0.047444,0.035835,-0.142334,-0.341064,-0.573975,0.436407,7.338024,6.808613,-0.046938,-0.010596,0.036053,-0.102051,-0.416748,-0.529053,0.390519,6.943749,7.029516,-0.059475,-0.016764,0.015031,-0.035156,-0.395996,-0.593506
-0.071941,-0.059172,9.951223,-0.054271,0.093576,-0.017311,0.088867,0.389893,-0.572998,0.31243,1.464803,9.777794,0.021535,-0.002765,-0.025639,-0.143066,0.107178,-0.6604,0.279362,6.922508,6.966125,0.048158,0.015962,0.027303,-0.137939,-0.35083,-0.566406,0.44376,7.070893,6.749492,-0.084633,0.030379,0.036651,-0.09668,-0.429932,-0.525391,0.31918,6.731337,7.047788,-0.031693,0.033961,0.018991,-0.026855,-0.404053,-0.588379
0.032734,-0.480289,9.849161,-0.086336,0.047826,-0.046252,0.091553,0.38916,-0.558838,0.391799,1.505544,9.823043,0.016853,-0.01518,-0.000806,-0.143311,0.102539,-0.647949,0.219283,7.139025,6.963372,0.056283,-0.039226,0.032716,-0.146729,-0.345703,-0.572021,0.329549,6.984082,6.746133,0.032332,0.01101,0.045306,-0.105225,-0.426514,-0.528076,0.292744,6.69617,7.082729,0.00221,-0.024183,0.003609,-0.035156,-0.400391,-0.591553
0.073799,-0.27287,9.896139,0.106287,0.06346,-0.06655,0.088623,0.380615,-0.567383,0.424867,1.629466,9.778253,0.009899,0.01947,0.03297,-0.146973,0.0979,-0.656982,0.416118,7.297134,6.910082,0.01272,-0.013419,0.014319,-0.154053,-0.345459,-0.570801,0.4652,7.217572,6.754275,0.066648,-0.033742,0.013937,-0.114014,-0.425537,-0.529785,0.503449,6.625625,7.011657,-0.011438,-0.000594,0.028515,-0.045898,-0.39917,-0.595459
-0.00476,-0.004649,9.915167,0.009386,0.045808,-0.078138,0.089111,0.389404,-0.563232,0.316672,1.72073,9.77885,-0.075371,0.014415,0.0412,-0.14502,0.110352,-0.647705,0.240778,7.069644,6.961064,-0.139591,0.016905,0.007559,-0.152344,-0.35083,-0.570801,0.487688,7.317143,6.789164,-0.061809,0.036977,0.007143,-0.112305,-0.428955,-0.528809,0.286746,6.715346,7.086463,0.016878,0.035382,-0.016027,-0.042236,-0.402588,-0.587891
-0.01424,-0.350708,9.773943,0.052464,0.029324,-0.026768,0.081787,0.387451,-0.572754,0.370118,1.530905,9.655164,0.036525,0.01576,0.015096,-0.151367,0.107178,-0.659912,0.277201,6.564752,6.844899,0.003556,-0.041479,0.040532,-0.1521,-0.347412,-0.559082,0.314237,6.95891,6.708373,-0.068781,0.021458,0.017313,-0.109375,-0.426025,-0.513672,0.327512,6.761789,7.033214,0.034569,-0.036941,-0.00111,-0.040039,-0.404053,-0.579102
0.113557,0.03267,9.91146,0.166825,0.014977,0.02657,0.091309,0.378174,-0.563721,0.302726,1.944562,9.874353,0.084943,0.010712,-0.039053,-0.144287,0.097656,-0.648438,0.394258,7.188372,6.9905,0.177182,0.01607,-0.053792,-0.143799,-0.346436,-0.562744,0.448309,7.073997,6.71076,0.112679,-0.035997,0.007026,-0.101318,-0.423584,-0.518799,0.450873,6.850652,7.061747,0.029027,0.013345,-0.012811,-0.032715,-0.39917,-0.585693
-0.198835,0.145125,10.012251,-0.062805,0.016238,0.028849,0.092041,0.381104,-0.564209,0.370254,1.588469,9.857555,-0.162785,0.002797,-0.012958,-0.145752,0.103027,-0.650879,0.206445,7.322087,7.045741,-0.095591,0.026014,0.035969,-0.1521,-0.342773,-0.568115,0.487417,7.427942,6.772736,0.061863,0.029713,0.022483,-0.109619,-0.42041,-0.525146,0.225232,6.856244,7.000766,-0.004937,0.022406,-0.021961,-0.038574,-0.395508,-0.590088
-0.024629,-0.402539,9.88993,-0.055758,-0.024961,-0.01274,0.081543,0.385498,-0.56958,0.160769,1.112694,9.709393,-0.019088,0.035258,-0.011094,-0.152588,0.105225,-0.658691,0.202769,6.850608,7.00835,-0.080806,-0.009802,0.011773,-0.147217,-0.351074,-0.569824,0.236514,7.352604,6.838984,-0.120333,0.046624,0.005845,-0.104248,-0.428223,-0.526367,0.25169,6.862962,7.063712,-0.01606,-0.01227,-0.020818,-0.037109,-0.405762,-0.589844
-0.091505,-0.17646,9.821983,0.117489,0.03944,-0.031173,0.096436,0.388184,-0.562256,0.133239,1.306421,9.683537,0.10749,-0.029433,0.007223,-0.13916,0.108643,-0.648926,0.28093,6.920042,7.020368,0.083975,0.051068,-0.012951,-0.136719,-0.352539,-0.569336,0.281696,6.891493,6.743617,-0.076019,-0.012704,0.004424,-0.093994,-0.42627,-0.527832,0.280899,6.72384,7.066388,-0.030674,0.022326,-0.015539,-0.026123,-0.404297,-0.589844
0.01287,0.274543,10.002427,0.010941,0.03246,-0.063535,0.085449,0.379883,-0.573975,0.2214,1.262781,9.756935,0.173627,-0.059016,0.035607,-0.153076,0.098877,-0.661133,0.094754,7.268758,6.996867,0.128502,0.039782,-0.015633,-0.140137,-0.352295,-0.567627,0.365123,7.032957,6.740554,0.185101,0.013936,0.01734,-0.099609,-0.428955,-0.522705,0.158684,6.672074,7.056961,0.073775,0.008201,-0.041447,-0.032959,-0.405273,-0.587158
-0.278312,0.184785,10.242771,-0.174696,0.065155,-0.10534,0.098389,0.387939,-0.569336,0.439147,2.017197,10.115188,0.376562,-0.043154,0.049801,-0.140381,0.093994,-0.660645,0.301314,7.691376,6.977119,0.087602,0.037246,-0.05785,-0.138428,-0.354492,-0.575684,0.285183,7.557762,6.866349,0.086163,0.013003,-0.023736,-0.099365,-0.431641,-0.532959,0.376537,6.925703,7.100632,0.064023,-0.007869,-0.0008,-0.03125,-0.40625,-0.596924
-0.200435,-0.467387,10.019739,-0.198221,-0.067663,-0.109702,0.078369,0.385742,-0.568115,0.290975,2.588891,10.177693,0.051278,-0.000207,0.087555,-0.156982,0.092773,-0.653564,0.069616,7.255282,6.971447,-0.298353,0.064405,-0.031249,-0.14917,-0.353027,-0.568115,0.304609,7.362032,6.707406,-0.187053,0.003698,-0.065408,-0.108643,-0.433594,-0.524902,0.176444,6.930835,7.053971,-0.058116,0.05879,0.045708,-0.040039,-0.407959,-0.589355
-0.114443,-0.385463,9.849115,0.170847,-0.103513,0.048815,0.084717,0.390869,-0.566406,0.696927,2.366314,9.812611,-0.006539,0.053408,-0.065768,-0.14917,0.100342,-0.653809,0.30502,6.270091,6.698207,-0.047201,-0.027161,0.013855,-0.141846,-0.345703,-0.576172,0.473994,6.95544,6.749478,-0.050967,-0.016454,-0.00515,-0.099854,-0.42334,-0.531738,0.270888,6.814825,7.058146,-0.050877,-0.045021,-0.040493,-0.03125,-0.400391,-0.592773
0.076072,0.369096,10.236625,0.171442,-0.161438,0.107984,0.078857,0.393066,-0.565918,-0.131538,2.341082,9.926583,-0.084708,0.118496,-0.050383,-0.150391,0.103271,-0.652832,0.100226,7.551111,7.061632,0.303043,0.138602,-0.185773,-0.145996,-0.358154,-0.567383,0.218985,7.156605,6.809642,0.019287,0.080759,-0.04729,-0.108154,-0.430664,-0.523926,0.385089,6.693293,7.024605,-0.090868,0.067409,0.031422,-0.040283,-0.407715,-0.587402
0.075184,0.261555,9.948053,-0.046263,-0.108322,0.14554,0.085205,0.38501,-0.565918,0.58588,1.668795,9.462062,-0.174162,-0.05965,-0.14311,-0.145264,0.098877,-0.654785,0.081625,7.684773,7.010758,-0.286316,-0.03427,-0.000257,-0.14502,-0.359863,-0.570068,0.201523,7.203361,6.714241,-0.058976,-0.053617,-0.077956,-0.10498,-0.43457,-0.526611,0.11875,6.59746,7.013044,0.001156,0.00435,0.034813,-0.037354,-0.411621,-0.591309
0.304865,-0.467736,9.681832,-0.043418,-0.086482,0.084048,0.090576,0.38208,-0.563477,0.261573,1.413851,9.498122,-0.035246,0.13032,-0.030008,-0.13501,0.096436,-0.651855,0.399269,6.334069,6.7509,-0.309169,0.019322,-0.048003,-0.140137,-0.349121,-0.571777,0.582054,7.125652,6.82675,-0.119694,-0.030586,-0.054665,-0.100586,-0.428223,-0.523438,0.537252,6.924769,7.163696,-0.028063,-0.029993,0.025593,-0.036621,-0.405762,-0.587402
-0.000527,-0.273854,9.837561,-0.009788,-0.057553,0.117775,0.084229,0.392822,-0.563721,0.311294,1.34407,9.449025,-0.054371,-0.045304,-0.106251,-0.144775,0.107178,-0.6521,0.085073,6.380817,6.82691,0.161028,0.100544,-0.128379,-0.135742,-0.344727,-0.572021,0.343887,6.860808,6.700316,-0.077671,0.100488,-0.083384,-0.097656,-0.421875,-0.530029,0.330755,6.617618,7.063176,-0.135966,0.098424,0.063004,-0.031494,-0.397949,-0.591064
0.228773,-1.020899,9.539331,0.063611,-0.070921,0.045453,0.081543,0.383789,-0.564941,0.480518,1.226513,9.411709,-0.004188,0.118092,0.016245,-0.143555,0.098145,-0.653809,0.104609,7.22204,6.920099,0.07671,-0.048075,-0.0348,-0.141357,-0.351807,-0.575439,0.121635,7.110984,6.712345,0.13977,-0.038729,-0.009205,-0.103271,-0.426514,-0.528564,0.10143,6.650473,7.060528,0.10453,-0.025595,-0.043955,-0.038086,-0.400391,-0.594238
0.171175,-0.076915,9.756361,0.277487,-0.026728,0.059041,0.079834,0.381592,-0.575928,0.12099,1.358604,9.379947,-0.005873,0.037778,-0.009935,-0.143066,0.099854,-0.666016,0.3329,6.815042,6.892565,-0.178426,0.038238,-0.016297,-0.130371,-0.349365,-0.578369,0.516631,7.393896,6.814167,-0.014135,-0.056047,-0.036627,-0.09668,-0.423828,-0.534912,0.530398,7.012485,7.096428,0.036103,-0.039208,-0.013324,-0.026855,-0.402344,-0.598389
0.172725,-0.204211,9.578182,0.056063,0.008725,-0.002356,0.080322,0.378418,-0.566406,0.335557,1.32257,9.311651,-0.077452,0.058319,0.049247,-0.145752,0.096924,-0.656982,-0.042299,6.302676,6.88568,-0.07947,0.019374,-0.001254,-0.135254,-0.348633,-0.577148,0.34566,7.023956,6.760117,-0.204022,0.103022,-0.003189,-0.09668,-0.424805,-0.530273,0.209579,6.875914,7.154402,-0.101726,0.076342,-0.034346,-0.030273,-0.401855,-0.594727
0.320059,0.193558,9.756561,0.220471,0.035196,-0.012173,0.078613,0.385498,-0.568359,0.245354,1.022148,9.361147,0.019446,0.029049,0.02638,-0.142578,0.105957,-0.655273,0.361145,6.468648,6.846114,0.175647,-0.04196,-0.000514,-0.137451,-0.350342,-0.580811,0.138407,6.51485,6.709533,-0.012929,-0.04213,0.022366,-0.099854,-0.428955,-0.533936,0.319239,6.541861,7.049345,-0.028193,-0.080678,0.01049,-0.033203,-0.404541,-0.600342
-0.004876,0.781234,10.09389,0.035081,0.097579,-0.087525,0.089111,0.377197,-0.569824,0.297039,1.497472,9.709025,0.260315,0.037127,0.05114,-0.135254,0.097412,-0.658447,0.101702,7.345433,7.10306,0.134894,0.082712,-0.046447,-0.127686,-0.351807,-0.57666,0.494528,7.027946,6.770622,0.250954,-0.052815,0.004403,-0.093506,-0.427734,-0.530762,0.502895,6.666736,7.076213,0.110654,0.028298,0.013749,-0.027344,-0.401367,-0.596191
0.181104,0.796461,10.022936,-0.22561,0.058329,-0.167847,0.090332,0.383789,-0.566406,0.232766,1.942382,9.755955,0.121679,0.046109,0.044204,-0.134766,0.094482,-0.65625,0.06871,6.893981,6.949074,-0.16029,-0.027286,0.057601,-0.137695,-0.351318,-0.569336,0.288446,7.502362,6.818904,0.047734,0.056476,0.031544,-0.099609,-0.431641,-0.520996,0.108346,6.889637,7.111156,0.061567,0.017949,-0.001294,-0.034424,-0.405273,-0.587402
0.044748,-0.260291,9.69132,-0.327669,0.069861,-0.158453,0.087402,0.38916,-0.568604,0.272971,1.89571,9.610042,0.107,0.041835,0.011236,-0.136475,0.093018,-0.658447,0.258011,6.764319,6.893466,0.09374,0.019329,-0.012307,-0.133789,-0.355713,-0.576416,0.210361,7.320238,6.772482,-0.137252,-0.040169,0.007228,-0.098877,-0.428711,-0.531494,0.403725,6.973175,7.033666,-0.022438,-0.08098,0.007429,-0.031494,-0.404785,-0.595947
0.076691,-0.460766,9.762898,0.06835,0.067536,-0.081543,0.083984,0.379639,-0.565186,-0.038118,2.250324,9.746916,0.103908,0.02779,-0.036209,-0.141602,0.087891,-0.655273,0.016064,7.293569,7.139331,-0.019734,0.093325,-0.039855,-0.135742,-0.347168,-0.569336,0.377108,6.853772,6.723481,-0.148028,0.005111,0.020224,-0.097412,-0.420166,-0.523438,0.333187,6.705501,7.05788,-0.142569,0.067941,0.01236,-0.031738,-0.394287,-0.590088
-0.00708,0.011389,9.856648,-0.026898,0.065595,-0.039961,0.08252,0.385742,-0.564697,0.28549,1.697793,9.697963,-0.181748,-0.043747,-0.052271,-0.142578,0.093018,-0.656494,0.066273,6.759699,6.928956,-0.142097,-0.023694,0.076029,-0.141357,-0.338135,-0.580322,0.203682,6.830362,6.668067,0.10869,0.016574,0.014236,-0.104248,-0.41748,-0.530029,0.090941,6.45502,6.955328,0.032185,-0.040666,0.034365,-0.038574,-0.389648,-0.596924
-0.210689,-0.171385,10.015026,-0.118713,0.066117,-0.115989,0.084229,0.385498,-0.569336,0.154682,1.088426,9.758279,0.020338,0.051106,0.013753,-0.14209,0.091797,-0.659424,0.113774,6.800777,6.875379,0.104395,0.130923,-0.08257,-0.132568,-0.352051,-0.567871,0.18291,7.372891,6.894246,0.08162,-0.026131,0.027155,-0.099854,-0.430664,-0.522949,0.409959,6.901546,7.121287,0.112677,-0.015228,-0.000389,-0.034668,-0.401855,-0.588379
-0.122663,-0.523613,9.799331,-0.106841,-0.011128,-0.18542,0.090576,0.391846,-0.567627,0.254408,1.821886,9.681204,0.239411,0.023277,0.02666,-0.130371,0.090576,-0.658447,-0.210236,7.224807,6.963902,0.06666,0.021145,0.013127,-0.138428,-0.348877,-0.573486,0.260927,7.115183,6.753011,-0.129438,-0.01123,-0.013488,-0.103516,-0.421631,-0.528564,0.16793,6.781462,7.115707,-0.108654,0.034561,0.091364,-0.037109,-0.396729,-0.593506
0.291592,-0.207546,9.764708,0.209654,0.037395,-0.150539,0.082031,0.382812,-0.568848,0.146429,2.316913,9.556441,0.058036,0.071956,0.067745,-0.140381,0.085938,-0.661133,0.288479,7.092124,6.979904,-0.046834,0.000608,-0.023126,-0.133057,-0.353271,-0.580078,0.332272,6.859703,6.705328,0.058804,-0.022027,0.002951,-0.098145,-0.427734,-0.532959,0.334364,6.344444,6.939377,-0.013648,-0.059618,0.010977,-0.033936,-0.399902,-0.596924
0.019084,0.420216,9.947466,0.018074,0.061842,-0.04144,0.09082,0.384766,-0.570801,0.143124,2.039605,9.535164,-0.014356,-0.036107,-0.048464,-0.131836,0.089355,-0.664795,0.068661,6.739804,7.029012,-0.073013,0.110586,-0.003193,-0.13501,-0.348633,-0.574951,0.417986,7.319297,6.867489,0.132756,-0.02058,0.005381,-0.102295,-0.429199,-0.527588,0.492153,6.755201,7.050721,0.185308,0.018459,-0.011451,-0.037109,-0.40332,-0.592041
0.030807,-0.259094,9.802761,-0.26469,0.029794,0.005105,0.083984,0.393799,-0.566162,0.344612,1.761239,9.63812,-0.028961,0.024422,-0.067516,-0.141357,0.092285,-0.656982,-0.003272,6.722445,6.957247,0.043923,-0.004824,-0.008826,-0.13916,-0.358643,-0.573975,0.385258,7.333525,6.89258,-0.110888,0.033143,0.013968,-0.107178,-0.43335,-0.528564,0.289244,7.110722,7.165008,-0.016944,0.00661,-0.034869,-0.041504,-0.40625,-0.591553
0.10953,-1.074031,9.594318,-0.097835,0.029729,-0.014802,0.091797,0.387451,-0.558838,0.23934,1.365681,9.681949,-0.034351,0.001162,-0.040981,-0.132568,0.084717,-0.652588,0.285216,7.093147,7.010202,0.064,0.04773,0.000469,-0.125244,-0.355225,-0.570557,0.357275,6.919504,6.804437,-0.078886,0.002104,0.014612,-0.094238,-0.430664,-0.523682,0.520004,6.676499,7.06829,-0.137612,-0.030268,0.017048,-0.028564,-0.401367,-0.588867
-0.004992,-0.540729,9.830195,0.126538,0.033271,-0.052011,0.08374,0.386963,-0.562744,0.298541,1.335339,9.801819,0.084633,0.016493,0.0437,-0.141113,0.081787,-0.656006,-0.020347,7.28967,7.171614,0.022817,0.070634,-0.017225,-0.128418,-0.348633,-0.577637,0.443411,7.132061,6.821336,0.159502,0.00899,0.015796,-0.101318,-0.425537,-0.530029,0.40205,6.460467,7.029077,0.022389,0.05543,-0.069183,-0.034424,-0.398193,-0.593994
0.004888,-0.198966,9.879484,-0.10357,0.005743,-0.101771,0.087891,0.381104,-0.568604,0.211709,1.753796,9.786211,0.094828,-0.00478,0.079836,-0.13623,0.075928,-0.660889,0.188267,7.074659,7.24013,-0.07881,-2e-06,0.03448,-0.131836,-0.345703,-0.578125,0.405077,7.633431,6.897508,0.103392,0.036475,0.00983,-0.098145,-0.425537,-0.529297,0.300179,6.871092,7.083948,0.196844,-0.012377,-0.094792,-0.031982,-0.399658,-0.592285
0.226682,-0.920013,9.867244,0.007349,0.02207,-0.0593,0.085693,0.390625,-0.56665,0.17521,1.616332,9.960196,-0.062813,-0.033144,0.032005,-0.140625,0.087891,-0.660889,0.31091,6.584512,7.385514,-0.081773,0.087284,0.052451,-0.131592,-0.35498,-0.572021,0.479096,7.542288,6.877107,-0.110763,0.0327,0.049876,-0.10083,-0.431396,-0.523193,0.458543,7.418802,7.127433,0.08929,-0.009872,-0.1743,-0.035156,-0.408936,-0.585205
-0.067178,-0.750983,10.122411,0.102532,0.010079,0.046725,0.086914,0.384033,-0.563721,0.424795,1.202215,10.05212,-0.01104,-0.082398,-0.060795,-0.140869,0.079834,-0.655518,0.283278,6.743138,7.274488,0.022341,0.13175,0.041631,-0.139893,-0.347656,-0.574707,0.540836,7.036355,6.826855,-0.181498,0.059887,0.08981,-0.109863,-0.422607,-0.527832,0.463874,7.182385,7.17031,-0.224203,0.022847,-0.158821,-0.041992,-0.400635,-0.59082
0.184862,-1.010172,9.969721,0.034706,-0.050529,-0.027347,0.083496,0.383789,-0.566406,0.519946,1.038418,9.690391,0.031526,0.038463,0.005473,-0.142822,0.084717,-0.658447,0.204301,6.859021,7.129608,-0.068842,0.163123,0.092405,-0.123047,-0.34668,-0.581299,0.463843,6.800847,6.78734,-0.033649,0.090879,0.092594,-0.096924,-0.422363,-0.528809,0.378766,6.425982,6.9828,-0.164774,0.019164,-0.130148,-0.026123,-0.398926,-0.593018
0.228705,-0.722297,9.709054,0.185479,0.049795,-0.049046,0.086426,0.388916,-0.569092,0.073039,0.788484,9.529619,0.03542,-0.025346,0.06358,-0.141846,0.089355,-0.657471,0.169552,6.421161,7.201492,-0.139312,0.166629,0.103144,-0.125244,-0.350342,-0.569336,0.35364,6.964211,6.885223,0.038731,0.060694,0.129704,-0.096436,-0.427979,-0.518555,0.265043,6.555896,7.070136,0.131884,0.020536,-0.194843,-0.025146,-0.404053,-0.583496
-0.060029,-0.668804,9.851527,-0.029131,0.068128,-0.09692,0.087402,0.385742,-0.572021,0.581386,0.881785,9.558816,0.167845,-0.021448,0.128855,-0.138916,0.081055,-0.665771,0.087445,6.25943,6.888398,0.097737,0.213281,0.124058,-0.126221,-0.3479,-0.579102,0.438283,6.993412,6.824938,0.03457,0.053363,0.139622,-0.102783,-0.427002,-0.530273,0.244922,7.073127,7.17218,0.141439,-0.001778,-0.149617,-0.030518,-0.40625,-0.592285
-0.048489,-0.718678,9.892316,-0.030265,0.016457,-0.123942,0.088379,0.385498,-0.573242,0.196538,1.525857,9.789692,0.277511,0.104055,0.17779,-0.138184,0.078613,-0.663574,-0.059123,6.683815,7.09219,0.18526,0.187671,0.109842,-0.117188,-0.349609,-0.57959,0.335998,6.8938,6.722122,0.051778,0.099459,0.180272,-0.094971,-0.424072,-0.529541,0.139837,6.951845,7.068049,-0.017421,0.037037,-0.142407,-0.018555,-0.406494,-0.593506
-0.108898,-1.161367,9.923444,-0.257618,0.039298,-0.119316,0.0896,0.383545,-0.566895,-0.021175,1.667765,10.605171,-0.024733,0.016826,0.135816,-0.135742,0.073975,-0.660156,0.314932,7.064228,8.001951,0.027842,0.236043,0.166488,-0.121094,-0.356934,-0.578857,0.242007,7.029775,6.687881,0.11937,0.044533,0.179599,-0.101562,-0.433105,-0.529053,-0.005935,6.785181,6.894155,0.079841,0.020379,-0.07314,-0.020508,-0.411865,-0.590088
-0.025867,-2.319112,10.463596,-0.308168,-0.096779,0.128919,0.087402,0.390381,-0.568115,0.194926,0.56675,10.201414,-0.301972,-0.067222,0.094405,-0.136719,0.080566,-0.66333,0.449745,6.498266,8.19019,-0.323018,0.455021,0.182067,-0.116455,-0.338867,-0.576904,0.497287,7.400692,6.74237,0.035033,0.022755,0.249046,-0.104736,-0.418213,-0.524658,-0.0698,7.250718,7.061892,0.124384,-0.035034,-0.163492,-0.023926,-0.4021,-0.58374
0.429831,-3.564086,9.912641,-0.085164,0.0096,0.013553,0.087891,0.39209,-0.568359,0.850458,0.127964,10.378396,-0.110691,0.003837,-0.024064,-0.138428,0.081055,-0.663086,0.540948,4.770817,7.494091,-0.273229,0.56914,0.369995,-0.114258,-0.345215,-0.581055,0.805615,6.878256,6.725429,-0.175503,0.062405,0.367772,-0.109863,-0.425781,-0.523438,0.285886,7.052246,7.082048,-0.104349,-0.060775,-0.218392,-0.027344,-0.4104,-0.584473
-0.225207,-2.47014,10.401165,0.264479,-0.055483,0.075992,0.091309,0.381592,-0.576416,0.561532,-0.313108,10.934207,-0.198985,0.166926,0.306874,-0.130127,0.078369,-0.670166,-0.106518,5.986554,6.358895,1.023499,0.784625,0.174136,-0.102783,-0.354004,-0.580078,0.507014,6.271543,6.648856,0.268811,0.182693,0.440985,-0.113281,-0.428467,-0.527588,0.076476,6.122754,6.871667,0.080704,0.063782,-0.311447,-0.02124,-0.406738,-0.591553
-0.018878,-1.643991,10.543906,-0.018312,-0.268949,-0.313471,0.079102,0.386963,-0.573975,1.136354,-0.493575,10.800306,0.335833,0.217256,0.386667,-0.13208,0.075439,-0.674805,-0.345256,9.628163,7.350677,0.472496,0.592736,0.108382,-0.09082,-0.364258,-0.576172,0.324609,7.290726,6.810025,0.491016,-0.014349,0.343468,-0.108887,-0.433594,-0.517822,0.081967,6.543359,7.035325,0.392208,-0.089731,-0.197518,-0.016602,-0.415527,-0.581787
0.753647,-0.717531,9.998869,-0.086777,-0.426867,-0.276903,0.077393,0.397705,-0.568848,0.69588,1.574086,10.230982,0.571902,0.613271,0.756384,-0.11499,0.080322,-0.668945,0.309834,7.198714,6.94857,-0.813826,0.533476,0.489786,-0.095947,-0.352051,-0.588379,1.100961,7.561513,6.704887,0.033933,-0.032309,0.306427,-0.121582,-0.431396,-0.524414,0.412318,7.076288,6.992643,0.185554,-0.011373,-0.178281,-0.022217,-0.42041,-0.586914
1.00729,0.037318,10.50645,-0.433834,-0.254847,-0.343157,0.066895,0.395996,-0.565186,0.138766,2.695732,9.707587,0.018883,0.295643,0.628823,-0.111816,0.074219,-0.672119,-0.097796,5.278273,6.998635,0.064868,0.794399,0.0612,-0.076172,-0.355225,-0.586914,0.964625,6.93195,6.654396,-0.074362,0.208903,0.300251,-0.109131,-0.43335,-0.524658,0.052896,6.789783,6.850423,-0.04446,0.077183,-0.177392,-0.010254,-0.420166,-0.585205
0.271666,-1.197097,10.636146,-0.735403,-0.14685,-0.175223,0.062744,0.407959,-0.572266,0.102347,1.866697,8.550695,0.096205,0.527275,0.558998,-0.105713,0.072266,-0.68335,-0.549318,6.416107,7.37456,0.446267,0.742192,0.29986,-0.070557,-0.366943,-0.580566,0.166202,6.468764,6.627178,0.142065,0.192924,0.366828,-0.115234,-0.435791,-0.518555,-0.506958,6.271377,6.818978,0.172635,0.054721,-0.248397,-0.011475,-0.425293,-0.578857
1.111085,-3.574811,9.254996,0.15652,0.037058,0.111727,0.066895,0.39917,-0.564941,-0.854265,3.023635,10.191219,0.382123,0.091464,0.186318,-0.097656,0.062744,-0.677246,-0.353161,7.18384,6.858675,0.258705,0.744192,0.211056,-0.063232,-0.363037,-0.588135,0.433808,6.771735,6.717405,0.495154,-0.106549,0.392022,-0.123291,-0.43457,-0.520752,-0.254353,6.861321,6.761175,0.532074,-0.056938,-0.223298,-0.011719,-0.428467,-0.583008
0.513736,0.22967,10.05855,1.334531,-0.045661,0.168302,0.060303,0.381592,-0.570068,2.421795,0.891653,9.230374,-0.823423,0.193615,0.683662,-0.101074,0.080811,-0.675049,-0.560411,7.623832,5.448183,0.272178,0.743973,0.230736,-0.049561,-0.37085,-0.58374,1.722041,7.88437,6.393855,0.508081,-0.07902,0.328199,-0.120605,-0.445801,-0.513184,0.65925,7.443285,7.001665,0.216104,-0.089099,-0.165504,-0.006836,-0.43335,-0.573486
0.260471,2.43643,8.596576,0.056877,-0.081271,-0.387979,0.058594,0.382568,-0.572998,-0.373429,1.085735,7.762529,1.433739,0.932619,0.616165,-0.082764,0.05957,-0.678955,-0.678386,7.816503,5.988712,0.15448,0.514696,0.218311,-0.053711,-0.371582,-0.576172,1.234139,7.805064,6.683205,-0.077354,0.352282,0.299972,-0.129639,-0.443604,-0.51001,0.339521,6.862193,6.777187,-0.048013,0.237272,-0.134307,-0.010986,-0.433105,-0.570557
0.251562,-0.215101,8.24415,0.487275,-0.200485,0.230671,0.061523,0.365479,-0.579102,-1.42227,7.935521,8.518321,1.323848,0.138742,0.498164,-0.075684,0.025879,-0.687012,-1.181043,7.977318,6.630502,0.344748,0.567928,0.067339,-0.046387,-0.375977,-0.578613,-0.127371,6.423679,6.518371,-0.029778,0.173646,0.119273,-0.125244,-0.441406,-0.515137,-0.570405,5.936551,6.687663,0.08408,0.107109,0.055957,-0.010254,-0.433838,-0.574707
0.153366,3.216041,10.618866,1.254284,0.480963,0.400382,0.062744,0.35376,-0.595215,0.326905,6.651655,9.08181,-1.079734,-0.073557,0.392664,-0.08374,0.053223,-0.693604,-1.128552,8.181806,5.359273,0.26477,0.312135,0.097351,-0.024658,-0.380859,-0.583984,0.972318,7.096675,5.968886,0.888421,-0.306741,0.082656,-0.114014,-0.45459,-0.510498,-0.110189,6.675965,6.379181,0.774858,0.013298,-0.026739,0.007324,-0.446045,-0.57251
-0.79775,3.715304,10.234659,0.439807,-0.352991,0.407749,0.064209,0.344238,-0.593262,0.615,2.096967,8.177774,-0.157636,0.298697,0.273296,-0.071533,0.050781,-0.689697,-0.923658,7.98203,5.536694,-0.222724,0.254639,0.031993,-0.028809,-0.38623,-0.585693,1.891632,9.515124,6.667156,0.442773,0.157204,0.112449,-0.120361,-0.46582,-0.506836,-0.139138,8.848164,6.848956,0.38669,0.128824,-0.123796,0.005859,-0.459961,-0.568848
0.068842,3.255193,8.878438,-0.062969,0.182138,0.507572,0.072754,0.343262,-0.593262,-1.03286,5.514205,8.118855,0.943925,0.40167,-0.090708,-0.064209,0.034424,-0.690918,-1.300994,7.395097,6.087937,-0.024127,0.074149,0.034168,-0.025879,-0.378906,-0.57959,0.304909,7.954131,6.566279,-1.076833,0.407661,0.011012,-0.112305,-0.446289,-0.515137,-0.07103,7.639882,6.840168,-0.844091,0.049723,0.160363,0.005615,-0.44165,-0.57373
0.518398,0.499264,8.667436,0.162277,-0.18571,0.417758,0.070557,0.355469,-0.593018,-0.909111,5.478818,8.78242,-1.057993,-0.17402,0.123108,-0.067627,0.061768,-0.6875,-0.993686,8.02576,6.066526,-0.028239,0.029925,-0.122913,-0.027832,-0.376465,-0.589111,0.401689,5.433426,5.879031,-0.305397,-0.115024,-0.084932,-0.11499,-0.438232,-0.526123,-0.243419,5.404988,6.302157,-0.335279,0.170352,0.18908,0.003906,-0.433105,-0.586182
0.365266,3.014403,9.675559,0.691914,0.552015,0.744502,0.086182,0.342773,-0.59375,0.449651,0.938381,8.671469,-0.595999,-0.017497,-0.062671,-0.063965,0.072266,-0.685547,-1.266597,7.439063,5.973076,-0.35291,-0.065143,0.018018,-0.028564,-0.381592,-0.588623,1.208917,7.432671,6.271406,0.855843,0.008045,-0.016269,-0.114746,-0.459717,-0.513184,-0.626342,6.935138,6.725403,0.60807,0.046186,0.03468,0.004639,-0.448242,-0.575928
-0.151273,1.93459,9.250586,-0.504247,0.137265,0.629377,0.088135,0.354736,-0.594971,-0.965559,3.040799,8.709307,0.726439,0.182696,-0.133953,-0.066162,0.056885,-0.685303,-0.69023,6.786633,6.586186,-0.054176,-0.169486,-0.086854,-0.032471,-0.373047,-0.584961,0.63907,9.207182,6.796524,-0.165298,0.183437,-0.084598,-0.115723,-0.45166,-0.512695,0.091683,8.437621,6.96865,-0.057783,-0.00916,0.200287,-0.000732,-0.441162,-0.577148
-0.45836,-0.89336,8.358009,-0.223098,0.078416,0.59101,0.086426,0.355225,-0.599609,-0.505334,3.840538,10.157638,-0.750066,-0.294375,-0.182034,-0.074707,0.067383,-0.690918,-1.014134,7.162397,6.290964,-0.093403,0.060886,-0.081405,-0.030762,-0.368652,-0.581787,0.524999,7.063538,6.109352,-0.882884,0.045982,-0.102553,-0.110596,-0.433838,-0.517578,-0.592815,7.164992,6.635503,-0.566619,0.280089,0.195702,0.00415,-0.427246,-0.575439
0.541016,0.093595,9.870222,0.80223,0.091541,0.55012,0.09375,0.339111,-0.599854,-0.052299,-0.172742,8.298625,-0.663279,0.141403,0.032346,-0.070801,0.077637,-0.689453,-1.397956,7.215876,6.605278,-0.087114,-0.179651,-0.011118,-0.027832,-0.37915,-0.579102,0.631556,6.297489,6.042521,0.165654,0.076601,0.019053,-0.104736,-0.450439,-0.509521,-0.933193,6.617636,6.635966,-0.041578,-0.055326,0.13176,0.005127,-0.439697,-0.573242
-0.24463,2.407789,10.801664,0.601,0.250465,0.231229,0.103027,0.338379,-0.604248,-1.342068,1.108857,9.681723,0.588947,-0.189043,-0.069383,-0.070801,0.072021,-0.688721,-0.907036,7.228931,6.352127,-0.05944,-0.072373,-0.035153,-0.036133,-0.380859,-0.585449,0.173863,8.058751,6.649179,0.38951,0.091087,-0.050682,-0.109131,-0.459961,-0.513184,0.013507,7.006093,6.907318,-0.007917,0.022389,0.167289,0.0,-0.443115,-0.579102
0.004679,2.436778,10.148439,-0.537636,0.181475,0.111006,0.10791,0.349121,-0.601318,0.72926,2.97102,9.824273,0.035107,-0.024777,0.097377,-0.070557,0.07251,-0.687012,-1.107175,6.747744,6.415784,-0.010425,-0.136616,0.038047,-0.036621,-0.368408,-0.585693,0.650448,8.162711,6.328195,-0.150685,-0.149928,-0.051529,-0.108398,-0.44751,-0.517822,-0.770482,7.047869,6.609053,0.160352,0.191514,0.083584,0.000488,-0.43335,-0.578369
0.166621,-0.681037,8.739295,-0.761198,0.155437,0.004133,0.11084,0.356689,-0.599854,-0.763281,1.39197,9.198802,-0.282949,0.073787,0.128109,-0.067627,0.074219,-0.685303,-0.356569,7.16541,6.668912,0.199768,-0.194683,0.043733,-0.052979,-0.369385,-0.588379,1.380916,7.467639,6.146924,-0.089771,0.043211,0.061514,-0.12207,-0.44458,-0.520996,-0.298156,7.800117,6.869699,0.17941,-0.1696,-0.091686,-0.010742,-0.434082,-0.582031
-0.144863,-1.36326,8.464065,0.353509,0.117317,0.051181,0.108643,0.347656,-0.603271,0.086438,1.497718,9.340746,0.235433,-0.111621,0.041059,-0.073975,0.064941,-0.68335,-0.762474,7.568249,6.803927,-0.068533,0.042656,0.038536,-0.039062,-0.370361,-0.576172,0.500826,7.374235,6.554562,-0.041045,0.245212,0.044825,-0.106201,-0.445557,-0.507324,0.29831,7.321682,6.940588,-0.368766,0.111001,-0.007505,0.002197,-0.432129,-0.570801
0.088019,1.171868,9.457338,0.880275,0.013592,0.022104,0.103027,0.333984,-0.610107,-0.426605,2.088582,9.536082,0.193348,0.036832,0.202903,-0.081055,0.060547,-0.694092,-0.949653,6.620286,6.361459,0.003487,-0.192546,0.151437,-0.045898,-0.379639,-0.585449,0.369159,7.056795,6.357619,0.066475,-0.128719,0.034714,-0.108887,-0.452881,-0.518311,-0.72158,6.001418,6.608936,-0.034298,0.103882,-0.085128,0.003174,-0.438232,-0.582275
0.080279,1.978157,10.186505,0.389504,0.17702,-0.114796,0.106689,0.330566,-0.610352,-0.270283,2.303736,9.481135,0.191557,-0.123657,0.13153,-0.079102,0.061035,-0.689941,-0.535092,7.315291,6.910138,0.327573,-0.034276,-0.018222,-0.046143,-0.372559,-0.577393,1.083323,7.443758,6.413864,0.262393,-0.003416,0.043849,-0.11377,-0.446045,-0.511475,-0.230792,7.093023,6.842968,0.582862,-0.116254,-0.121948,0.000244,-0.437988,-0.572998
-0.589516,2.618098,10.743758,0.211782,0.20871,-0.039549,0.122559,0.321533,-0.611572,-0.414396,3.206987,9.4612,0.432851,-0.033015,0.125017,-0.070557,0.053223,-0.689453,-0.972784,7.651478,6.72254,0.087648,-0.009065,0.099108,-0.037598,-0.38623,-0.581543,0.41475,7.647391,6.606145,0.111872,0.14103,0.038013,-0.100342,-0.459473,-0.513672,-0.115116,7.991887,6.911028,0.111086,0.082266,-0.052333,0.011963,-0.450928,-0.575195
-0.098412,2.218558,10.353656,-0.374005,0.064021,-0.070173,0.123779,0.332764,-0.609131,0.092877,4.064059,9.695653,0.212036,-0.141977,-0.086167,-0.071289,0.049561,-0.689697,-0.916177,7.134212,5.944745,0.122563,-0.15957,0.072841,-0.048828,-0.393066,-0.584961,0.480336,7.418632,6.341403,0.044129,-0.107267,0.029041,-0.109619,-0.465088,-0.519531,-0.583369,7.063611,6.788731,-0.201987,0.051816,-0.010459,0.005127,-0.452637,-0.584961
-0.657445,0.441628,9.760091,-0.396661,0.161287,0.064932,0.122314,0.336182,-0.609619,-0.430606,4.153794,9.876253,-0.131479,0.113161,0.003017,-0.074951,0.050049,-0.691162,-0.94718,8.505379,6.515524,0.303644,-0.054805,-0.122507,-0.040771,-0.382324,-0.572266,0.856863,7.566643,6.441048,0.012224,0.029016,-0.026937,-0.104248,-0.45166,-0.508545,-0.13597,6.768856,6.634714,0.031952,-0.058361,0.071132,0.009033,-0.437744,-0.571045
-0.542033,0.157923,9.47147,0.103345,0.009634,0.197301,0.119385,0.331055,-0.606201,-0.774842,2.561639,9.201105,-0.423754,-0.137742,-0.103502,-0.078613,0.054443,-0.685303,-1.256882,7.788405,6.707884,-0.543787,-0.195031,0.044309,-0.046387,-0.371338,-0.578369,0.034642,7.305699,6.413769,-0.222846,0.168905,-0.09642,-0.10083,-0.442871,-0.512451,-0.613479,7.109923,6.758525,0.02352,0.160524,0.148975,0.011963,-0.431885,-0.57251
-0.100868,1.336743,9.831565,0.369439,0.092252,0.097963,0.119385,0.332031,-0.613525,-0.078623,1.906991,9.629357,-0.075724,-0.077632,-0.107509,-0.080078,0.061279,-0.691895,-0.469472,6.250418,6.710468,-0.168087,-0.269609,-0.042245,-0.046875,-0.376953,-0.57666,0.312272,7.142282,6.285615,-0.022952,-0.233515,-0.072825,-0.102051,-0.45459,-0.512207,-0.582138,7.32703,6.816115,-0.07951,-0.111528,0.186545,0.00708,-0.44165,-0.571777
-0.064984,1.053048,9.842938,-0.255236,0.03937,0.204975,0.118896,0.331543,-0.607178,-0.06531,1.888772,9.377996,-0.026953,-0.12913,-0.164314,-0.086914,0.054443,-0.688721,-0.194984,6.823076,6.584461,0.239773,-0.003543,-0.100686,-0.047119,-0.381836,-0.572021,1.44159,7.524296,6.287115,0.128116,-0.082718,-0.058323,-0.103516,-0.456299,-0.508301,0.227511,6.965021,6.578925,-0.094036,-0.017246,0.147332,0.00415,-0.438477,-0.571777
0.395849,-0.55394,9.660854,0.261762,0.201945,0.115687,0.127686,0.323975,-0.607666,0.255063,2.08547,9.906131,0.042768,-0.091255,-0.122396,-0.085693,0.052734,-0.684326,-0.65328,8.082397,6.799161,0.251018,-0.099246,-0.044144,-0.054688,-0.387207,-0.57251,0.826051,7.875815,6.388212,0.051795,0.161383,-0.005928,-0.108154,-0.461426,-0.507812,-0.142653,7.057081,6.604195,0.113535,0.100449,0.020768,0.000488,-0.443604,-0.571045
-0.803323,1.744167,11.260282,0.299846,0.132773,0.102729,0.137451,0.325195,-0.606934,-0.070004,1.883083,10.247615,-0.062113,-0.070435,-0.04445,-0.079102,0.059082,-0.681885,-0.261741,7.616278,6.758312,-0.345511,-0.0541,0.001471,-0.056152,-0.368164,-0.580811,0.4368,7.68745,6.32265,-0.13622,-0.034346,-0.074544,-0.106689,-0.444092,-0.514893,-0.309306,7.422703,6.770271,0.03435,-0.025549,0.065822,-0.002441,-0.429688,-0.575928
-0.080424,1.193364,10.768125,-0.272366,0.047208,-0.076848,0.123535,0.330078,-0.609619,0.242545,2.095575,9.975911,0.079879,0.049693,-0.062963,-0.091309,0.054199,-0.685791,-1.064854,6.592739,6.218095,0.017582,0.007579,0.004242,-0.049072,-0.375732,-0.572754,0.817706,7.363281,6.285087,-0.036246,-0.030209,0.009634,-0.102539,-0.448975,-0.509521,-0.178365,7.1607,6.679521,-0.139865,0.02644,-0.050727,0.008301,-0.43335,-0.571777
-0.360401,1.109966,9.964056,-0.394592,0.153879,-0.123199,0.133301,0.344971,-0.614502,-0.360725,2.402661,9.524334,0.033691,0.108222,0.041592,-0.081299,0.063477,-0.693359,-0.423743,7.621018,6.792056,0.203964,-0.17821,-0.124429,-0.055176,-0.382324,-0.57666,0.555772,7.331711,6.483282,-0.052586,0.069557,-0.058412,-0.102783,-0.454346,-0.512451,-0.238911,6.732372,6.668117,-0.088625,-0.014342,0.029715,0.004395,-0.437012,-0.575684
-0.150337,0.218564,9.223332,-0.330292,0.1315,-0.069121,0.123047,0.344482,-0.610107,-0.088609,2.626737,9.17136,-0.033145,-0.018135,-0.045184,-0.094482,0.060303,-0.690918,-0.475363,7.642923,6.86863,-0.246543,0.025023,0.035311,-0.047363,-0.376465,-0.579102,0.604636,7.29003,6.415079,-0.065916,-0.053587,-0.042738,-0.094238,-0.452148,-0.518066,0.007066,6.985648,6.704687,0.114382,-0.013546,-0.017448,0.010742,-0.435791,-0.576172
-0.362678,0.903045,9.512999,0.145228,0.228786,-0.049951,0.134521,0.337891,-0.606934,-0.414122,2.425225,9.256055,-0.069148,-0.000971,-0.073435,-0.088135,0.056152,-0.687256,-0.664219,6.318285,6.68255,-0.219953,-0.05686,-0.06633,-0.050537,-0.382324,-0.578369,0.788445,7.199707,6.422049,-0.026578,0.014025,-0.044159,-0.099854,-0.460938,-0.514893,-0.180769,7.392948,6.826255,-0.004471,0.056857,0.040844,0.004883,-0.445557,-0.577393
-0.56804,1.217582,9.916359,-0.219357,0.182005,0.061121,0.142822,0.350586,-0.604736,0.007263,2.566093,9.72417,0.14133,-0.145862,-0.168861,-0.085938,0.061279,-0.683105,-0.558885,7.100735,6.378419,0.488383,-0.012482,-0.043343,-0.056641,-0.381592,-0.57666,0.479649,7.303047,6.40236,0.093757,0.052426,-0.04014,-0.10083,-0.451172,-0.516846,-0.168643,6.978304,6.717345,-0.091393,-0.01014,0.069453,0.002441,-0.436768,-0.579102
-0.606564,0.196464,9.982439,-0.117199,0.079702,-0.001886,0.134277,0.352295,-0.609863,0.165566,3.066517,9.97228,0.02227,0.032503,-0.106962,-0.095215,0.062256,-0.690186,-0.769932,8.693677,6.568219,0.11322,-0.002235,-0.199694,-0.046631,-0.392578,-0.573975,0.564504,7.711335,6.501537,0.116737,-0.093911,-0.076265,-0.095215,-0.462646,-0.511719,-0.048925,7.03186,6.683824,0.107325,0.027885,0.099053,0.009521,-0.446289,-0.572754
-0.610139,0.9945,9.717984,-0.060815,-0.007201,0.007409,0.134766,0.349365,-0.60376,0.148383,2.896704,9.841994,-0.076802,0.015543,-0.048884,-0.093994,0.056152,-0.687256,-0.797108,7.868086,6.116225,-0.297677,-0.201851,0.048265,-0.062744,-0.389648,-0.581055,0.968056,7.85736,6.527621,-0.107645,-0.012963,-0.120256,-0.105957,-0.464111,-0.51709,0.037652,7.459436,6.837496,-0.012496,0.006177,0.116855,-0.003662,-0.449707,-0.578613
-0.383338,0.493807,9.455163,0.063676,-0.113504,0.017347,0.150146,0.348145,-0.605957,0.110994,3.398386,9.660689,0.008792,0.141857,-0.027792,-0.075195,0.05835,-0.685547,-0.361171,7.573906,6.825026,-0.126958,-0.19066,-0.292391,-0.05542,-0.38208,-0.572754,0.626651,7.540312,6.580682,-0.302934,0.078556,-0.190821,-0.094971,-0.453369,-0.508789,0.194081,7.270657,6.862686,-0.298008,0.052015,0.249883,0.001709,-0.437744,-0.572754
-0.237116,1.001156,9.706177,0.371332,-0.135772,0.186278,0.134033,0.343994,-0.605713,-0.333957,3.457558,9.268503,-0.231743,0.019871,-0.186413,-0.089844,0.060059,-0.682129,-0.477283,7.172094,6.738998,-0.270454,-0.133918,-0.049379,-0.053711,-0.372803,-0.587158,0.599304,7.09446,6.458703,-0.203989,-0.034859,-0.187474,-0.091553,-0.445801,-0.525635,-0.092491,6.694087,6.754451,-0.231978,0.088047,0.185801,0.005127,-0.428711,-0.588623
-0.055424,1.227497,9.70745,0.207311,-0.057113,0.362633,0.14502,0.331787,-0.605469,-0.12888,2.493027,9.04488,-0.363124,-0.00833,-0.271121,-0.078857,0.058838,-0.686523,-0.726654,6.905321,6.594453,-0.022916,-0.171024,-0.254832,-0.062988,-0.37207,-0.581787,0.607541,7.299297,6.514142,-0.001378,0.035621,-0.159425,-0.099365,-0.447998,-0.517822,-0.079097,6.840168,6.82995,-0.019937,0.036391,0.150131,-0.005371,-0.429199,-0.582764
-0.372423,1.669562,10.079924,0.115271,0.099138,0.234083,0.140137,0.328125,-0.606201,-0.489893,1.406246,9.413105,-0.270156,-0.124378,-0.2259,-0.090088,0.061279,-0.682129,-0.588713,7.434778,6.864943,-0.046197,-0.153048,-0.146982,-0.059082,-0.376709,-0.579834,0.24553,7.519232,6.586492,-0.128157,0.04691,-0.217803,-0.090576,-0.453125,-0.519531,-0.03271,7.072514,6.837647,-0.080951,0.061896,0.196108,-0.001465,-0.431396,-0.580566
-0.848727,0.851902,9.976129,-0.588044,-0.000954,0.151258,0.141602,0.3396,-0.606201,0.07526,1.204622,9.535776,-0.06694,-0.022657,-0.265176,-0.09082,0.060791,-0.686279,-0.770851,6.595468,6.86145,-0.34916,-0.16345,-0.10589,-0.064941,-0.37793,-0.591553,0.319082,7.313273,6.415924,-0.134118,-0.023121,-0.141167,-0.094238,-0.454346,-0.531738,-0.39357,7.200448,6.786255,-0.023989,0.106227,0.114708,-0.006348,-0.435059,-0.594482
-0.186549,-1.020262,9.053169,-0.232202,0.010161,0.033129,0.147705,0.346436,-0.598389,-0.601431,1.110865,9.459872,-0.095876,-0.047307,-0.152731,-0.080322,0.068848,-0.677734,-0.528654,6.23461,6.516839,0.110527,-0.145547,-0.102272,-0.061768,-0.364746,-0.585693,0.357173,7.269515,6.3984,-0.057171,0.01215,-0.103353,-0.09082,-0.437744,-0.527832,-0.162311,7.280955,6.873946,-0.118525,-0.052369,0.120748,-0.004883,-0.417969,-0.585938
-0.692468,0.160977,9.806606,0.272906,0.094678,-0.075961,0.14209,0.34668,-0.598633,0.443788,1.354344,9.679514,0.163053,-0.10615,-0.078242,-0.096191,0.067627,-0.676758,-0.592987,7.701627,6.489765,0.330207,-0.100797,-0.162489,-0.063721,-0.38208,-0.578857,0.396174,7.365088,6.408226,0.031582,-0.022177,-0.115907,-0.088623,-0.453613,-0.52002,0.276399,6.842676,6.662321,-0.118784,0.055255,0.141928,-0.005371,-0.429688,-0.583496
-0.653723,0.76888,10.431019,0.208597,-0.121249,-0.093071,0.144531,0.342285,-0.594971,-0.259518,2.886014,10.070522,0.301666,0.187131,-0.012311,-0.087158,0.064941,-0.672363,-0.776801,7.836038,6.746299,-0.256792,-0.130267,-0.058108,-0.066406,-0.373291,-0.584717,0.285886,7.639403,6.428509,0.003673,0.048451,-0.102295,-0.0896,-0.449707,-0.522461,-0.416055,6.985079,6.802149,0.072214,0.127997,0.06416,-0.008057,-0.425537,-0.586914
-0.370659,1.562098,9.899197,0.004135,-0.055762,-0.097194,0.145264,0.352051,-0.597656,-0.312439,3.097824,9.636126,-0.344231,0.009576,-0.072544,-0.083984,0.080811,-0.676025,-0.624298,6.595187,6.714618,-0.2792,-0.188835,-0.047064,-0.059082,-0.361816,-0.588623,0.101847,7.489835,6.500837,-0.240892,-0.002951,-0.110241,-0.082275,-0.440674,-0.530762,-0.057518,7.229315,7.041096,-0.164675,-0.108007,0.101317,-0.001221,-0.417236,-0.593506
-0.10478,0.778073,9.357476,-0.242251,-0.074373,-0.005413,0.140137,0.337402,-0.602783,-0.428359,1.662615,8.88586,-0.272892,0.065565,-0.095574,-0.088623,0.065674,-0.683594,-0.398707,6.809143,6.899258,0.100782,-0.054137,-0.166743,-0.072266,-0.371338,-0.584473,0.370985,6.864959,6.537458,-0.227393,-0.04784,-0.118759,-0.090088,-0.444092,-0.525146,0.283352,6.472804,6.837239,-0.296063,0.075638,0.082236,-0.009033,-0.417969,-0.588135
-0.151841,0.245609,9.472821,-0.162512,0.134448,0.099901,0.138672,0.342529,-0.604248,-0.401729,1.651556,9.26336,0.085076,-0.170285,-0.253675,-0.091309,0.063721,-0.685547,-0.62145,7.014546,7.16438,-0.135766,-0.079075,-0.050873,-0.072754,-0.366699,-0.587158,0.378985,6.874403,6.565768,0.102873,0.028158,-0.086782,-0.090576,-0.44458,-0.526367,-0.282665,6.418343,6.872199,0.148592,0.043819,-0.001328,-0.011475,-0.420654,-0.591309
-0.646037,-0.646989,9.892137,-0.032821,0.013583,0.069124,0.137695,0.34668,-0.599609,0.049703,1.662561,9.563573,-0.102191,-0.041542,-0.169543,-0.098877,0.068115,-0.678223,-0.585274,6.388443,6.472438,0.004281,-0.04081,-0.050078,-0.06665,-0.368896,-0.578613,0.145252,7.451486,6.644443,0.136614,0.011477,-0.042676,-0.08374,-0.450684,-0.517334,0.139057,7.35766,7.034168,0.241647,-0.076323,-0.009706,-0.006104,-0.425537,-0.579834
-0.352116,1.000112,10.032733,0.290233,0.156314,-0.091886,0.149414,0.341064,-0.608643,-0.157084,0.880821,9.691166,-0.10819,-0.103256,-0.056637,-0.089111,0.069824,-0.688232,-0.625605,7.082848,6.763683,0.184893,-0.087041,-0.113198,-0.067139,-0.371094,-0.58374,0.297399,7.426813,6.602302,-0.110157,-0.081884,-0.083151,-0.087402,-0.444092,-0.525391,0.175108,7.410163,7.076753,-0.151509,0.058814,0.087537,-0.006836,-0.421631,-0.5896
-0.625156,0.104163,9.490624,-0.405217,-0.006589,-0.185788,0.141357,0.347168,-0.598633,0.070916,1.408241,9.190193,0.349545,0.070002,-0.060171,-0.095703,0.064697,-0.677734,-0.35457,7.135906,6.97823,-0.073581,-0.065938,0.028357,-0.06543,-0.371338,-0.585205,0.463716,7.087233,6.447964,0.011664,0.017192,-0.020162,-0.079102,-0.450195,-0.525391,-0.139505,6.700184,6.787676,-0.077708,0.011975,0.03737,-0.003174,-0.424316,-0.589844
-0.207861,-0.049384,9.161039,0.231133,0.140198,-0.133728,0.150879,0.342529,-0.600098,-0.675659,2.600466,9.185351,0.081591,-0.090132,-0.026725,-0.089355,0.060303,-0.678711,-0.838927,6.55722,6.428182,-0.029714,0.001087,-0.031046,-0.061279,-0.367432,-0.584961,-0.012433,7.384945,6.59843,0.151406,0.043341,0.002479,-0.07666,-0.445312,-0.52417,0.014374,6.972161,6.891139,0.213435,-0.038923,-0.006262,-0.000732,-0.422852,-0.588135
-0.495123,0.870491,9.281183,0.010081,0.077171,-0.156235,0.147949,0.347412,-0.598145,0.194422,1.711667,8.824484,-0.17907,-0.081214,-0.015967,-0.095703,0.067383,-0.67627,-0.612854,6.72515,6.553325,0.180078,-0.178793,0.053559,-0.074463,-0.367188,-0.576172,0.209083,7.531555,6.581983,0.030401,-0.116526,0.008658,-0.08667,-0.445068,-0.516846,0.014755,7.443544,7.003204,0.104305,-0.012356,0.006613,-0.009033,-0.422119,-0.582031
-0.402589,0.191737,9.531215,-0.124182,0.211877,-0.074641,0.147461,0.351807,-0.602539,-0.461388,1.886496,9.321742,0.262484,-0.060105,-0.018239,-0.099854,0.068359,-0.682129,-0.428463,7.579116,6.869165,0.168988,-0.054171,-0.005119,-0.074707,-0.380371,-0.578857,0.50431,7.429423,6.50345,0.014213,0.005104,0.047742,-0.084473,-0.451904,-0.519043,0.061668,7.120568,6.836132,-0.129765,-0.021387,-0.017285,-0.007812,-0.427002,-0.585693
-0.904157,-0.144706,9.495155,0.083736,0.073499,-0.080763,0.144287,0.352295,-0.603027,-0.100256,2.712071,9.539983,-0.075764,-0.137983,-0.063395,-0.10498,0.071777,-0.682617,-0.844086,7.0903,6.685249,-0.287325,-0.080548,0.100617,-0.072266,-0.370361,-0.581543,-0.025474,7.468064,6.52771,-0.033917,0.10081,0.042572,-0.08374,-0.448975,-0.522217,-0.218007,6.804129,6.822016,-0.012266,0.016173,-0.043581,-0.002686,-0.421875,-0.584717
-0.459582,0.294568,9.353927,0.151702,0.155006,-0.068197,0.157959,0.345215,-0.598877,-0.276974,1.218596,9.254198,-0.33463,-0.100276,0.050517,-0.095703,0.070801,-0.676758,-0.521267,6.456475,6.652335,0.056491,-0.207918,0.112227,-0.07666,-0.367676,-0.587158,0.032441,7.298852,6.513818,-0.066344,-0.125323,0.084985,-0.083984,-0.44165,-0.530029,-0.078333,6.991354,6.916145,0.052605,-0.106505,-0.107461,-0.00708,-0.423096,-0.59375
-0.834275,0.053518,9.611767,0.138189,0.109476,-0.102047,0.154297,0.343018,-0.598877,-0.062694,1.257598,9.466354,0.374514,-0.176168,-0.009157,-0.101318,0.063232,-0.676025,-0.279419,7.208994,6.762532,0.212858,-0.00465,0.005301,-0.081055,-0.369385,-0.577393,0.544759,7.019167,6.47412,-0.004864,-0.01861,0.042982,-0.090576,-0.446533,-0.522705,0.1666,6.850609,6.831838,-0.028505,-0.019454,-0.042311,-0.01001,-0.421143,-0.585205
-0.746635,-0.152873,9.930422,0.292775,0.071446,-0.05356,0.154541,0.337646,-0.604736,0.190935,3.117954,9.944681,0.327624,-0.076309,0.045887,-0.105225,0.055176,-0.677979,-0.79874,7.464907,6.61697,0.050372,-0.112583,0.124186,-0.077148,-0.373047,-0.579346,0.103339,7.23426,6.453917,0.200289,0.062603,0.101178,-0.086182,-0.447998,-0.523438,-0.168159,6.777184,6.796288,0.13391,-0.013915,-0.112939,-0.00415,-0.424072,-0.588379
-0.459557,0.761018,10.316828,0.579245,0.001113,-0.013733,0.15332,0.326416,-0.604492,0.136838,2.782971,9.687142,-0.31733,-0.074606,0.078261,-0.109375,0.061768,-0.677734,-0.104977,7.306963,6.529013,-0.034068,-0.18331,0.045272,-0.083984,-0.364746,-0.575439,0.280523,7.709094,6.560755,0.055282,-0.161187,0.036022,-0.087158,-0.443359,-0.517822,0.204664,7.248037,6.862451,0.097447,-0.140325,-0.036557,-0.009033,-0.416748,-0.58374
-0.423394,2.236331,10.439083,0.189324,0.198278,-0.023216,0.161377,0.322266,-0.612061,0.100466,1.618163,9.382601,-0.05621,-0.045956,0.068898,-0.105469,0.062256,-0.684814,-0.324894,7.197054,6.864045,-0.080161,-0.023983,0.069558,-0.085449,-0.374512,-0.577637,0.796235,7.418022,6.558832,-0.212274,0.001495,0.043985,-0.089355,-0.449951,-0.519775,0.273057,7.134368,6.826804,-0.146832,0.027543,-0.048458,-0.007568,-0.428467,-0.584961
-0.808887,1.378957,10.205961,-0.263409,0.113342,-0.005295,0.162354,0.32666,-0.602051,0.033997,2.652737,9.684978,0.331211,-0.055832,-0.025805,-0.109375,0.051758,-0.677002,-0.495097,6.98288,6.674907,-0.023642,-0.149272,0.03751,-0.0896,-0.375,-0.580811,0.089698,6.897477,6.472025,-0.092426,0.1153,0.051454,-0.089355,-0.449707,-0.525391,-0.175985,6.616454,6.779664,-0.112608,-0.018306,-0.030236,-0.008789,-0.42749,-0.587646
-0.611062,0.57934,9.76432,-0.302622,0.179326,0.011875,0.164307,0.338623,-0.605957,0.154876,3.17661,9.781692,-0.125506,-0.055899,0.002235,-0.109131,0.063232,-0.679932,-0.138725,7.333308,6.767658,0.087024,-0.128381,0.038389,-0.091064,-0.369629,-0.575439,0.220846,7.108398,6.591251,0.102234,-0.16256,0.013419,-0.094482,-0.443848,-0.522705,0.282677,6.656642,6.858572,0.059428,-0.117361,-0.018108,-0.013184,-0.420166,-0.588623
-0.502421,0.318266,9.575533,0.070535,0.129861,0.0898,0.159668,0.327881,-0.5979,0.203518,1.85171,9.646988,-0.285872,-0.107118,-0.019136,-0.116455,0.061523,-0.67334,-0.071286,7.40613,6.916292,-0.085236,-0.082672,-0.014463,-0.092529,-0.362549,-0.577637,0.953191,7.408321,6.641141,0.016688,-0.070491,0.003346,-0.095947,-0.440186,-0.525146,0.390054,6.886662,6.887493,0.029624,0.019603,-0.022864,-0.01123,-0.417236,-0.585938
-1.15242,1.173436,10.183797,0.110454,0.173651,0.092231,0.162598,0.326172,-0.605957,0.29133,2.067012,9.824797,0.293264,-0.040244,-0.067535,-0.120361,0.056885,-0.680908,-0.327977,7.021394,6.642425,-0.020918,-0.074036,0.030708,-0.087891,-0.373535,-0.575684,0.309825,7.23897,6.557308,-0.099347,0.169569,-0.012424,-0.084473,-0.44873,-0.522705,-0.021893,6.912959,6.895485,0.009373,0.019685,0.002324,-0.00293,-0.425537,-0.584229
-0.920952,0.888131,9.955727,-0.158818,-0.025945,0.088882,0.170166,0.330811,-0.608398,0.202141,3.059184,10.10633,-0.054635,0.003529,-0.044082,-0.112549,0.057129,-0.682373,-0.219549,7.209469,6.807251,0.039844,-0.105308,-0.079704,-0.09375,-0.369873,-0.571289,-0.003402,7.048518,6.544649,-0.007569,-0.117581,-0.035868,-0.094238,-0.444824,-0.514893,0.131867,7.048986,6.842699,0.055545,-0.058712,0.079804,-0.013916,-0.421875,-0.580811
-0.842488,0.340998,9.668956,-0.020203,0.060998,0.067492,0.166504,0.333496,-0.602539,-0.206211,1.321726,9.433682,-0.412937,0.015779,-0.015724,-0.116943,0.066406,-0.673096,-0.248732,7.145055,7.036285,-0.062246,-0.040909,0.033298,-0.096436,-0.376953,-0.577637,0.681066,7.358422,6.534658,0.13066,-0.080596,-0.018745,-0.092773,-0.454834,-0.52417,0.023794,7.178116,6.83373,0.011788,0.054829,0.06357,-0.012695,-0.431396,-0.588135
-0.875154,1.032725,9.822101,0.119541,0.066582,0.055868,0.170898,0.337402,-0.594482,-0.048725,0.77072,9.392006,0.439732,-0.125815,-0.077131,-0.116455,0.064209,-0.66748,-0.384766,6.801814,6.775432,0.036497,-0.050306,-0.044988,-0.094238,-0.372803,-0.578125,0.159435,7.512912,6.633952,0.000829,0.120208,0.002108,-0.089844,-0.448486,-0.522705,-0.145451,6.943867,6.869669,-0.038832,-0.022166,0.089295,-0.01123,-0.42334,-0.584717
-0.992579,0.759052,10.215396,-0.140123,0.077648,-0.03446,0.169678,0.337158,-0.606689,0.635008,3.209374,10.179727,0.698964,-0.014802,-0.040401,-0.118652,0.049072,-0.677979,-0.06816,7.544483,6.743134,0.232263,-0.081049,-0.021743,-0.093018,-0.370117,-0.574951,0.225233,7.333345,6.594921,-0.037447,-0.168171,-0.027498,-0.090088,-0.441162,-0.520996,0.369233,6.931906,6.845048,0.07252,-0.083312,0.085216,-0.011475,-0.418701,-0.58374
-1.063194,0.197148,10.061233,-0.037048,-0.069207,0.005879,0.177979,0.329834,-0.606934,0.134058,3.945474,10.208117,-0.343946,0.087613,0.011431,-0.106689,0.04834,-0.67749,-0.136083,7.872143,6.839404,-0.143945,0.027892,-0.061808,-0.101562,-0.378906,-0.568848,0.881514,7.427907,6.357435,0.043179,-0.017147,-0.032335,-0.099854,-0.455078,-0.515869,0.247229,7.171812,6.752837,0.004192,0.100381,0.078232,-0.017822,-0.428711,-0.580811
-0.73447,0.798247,9.69171,0.291217,-0.030354,0.061464,0.161377,0.326416,-0.612305,-0.088883,1.565979,9.344926,-0.507131,0.004589,-0.020081,-0.122559,0.056152,-0.680908,-0.470413,6.962489,6.736972,-0.264435,-0.038673,0.028011,-0.095703,-0.376709,-0.579102,0.032946,7.810138,6.59498,-0.036548,0.156202,-0.005613,-0.0896,-0.453369,-0.522217,-0.30447,7.314048,6.964551,-0.060864,-0.024051,0.051065,-0.01416,-0.427734,-0.584229
-0.707452,1.133827,9.81147,-0.029465,-0.033462,0.09784,0.164062,0.329834,-0.604736,0.178708,1.84876,9.446199,0.267768,-0.001219,-0.096619,-0.121094,0.055176,-0.676514,-0.009742,7.06711,6.811213,0.055921,-0.049542,-0.083801,-0.089355,-0.369873,-0.573486,0.115841,7.412264,6.589891,-0.300268,-0.1947,-0.037988,-0.085449,-0.443115,-0.519287,0.494561,7.037184,6.872268,-0.200441,-0.109994,0.102723,-0.009277,-0.418701,-0.586914
-0.605335,0.299475,10.058581,0.000499,0.004867,0.1161,0.161621,0.328613,-0.605225,0.320743,2.833058,9.760318,-0.065914,-0.038752,-0.054235,-0.123291,0.05542,-0.67627,-0.102387,7.299048,6.741755,-0.060585,0.063988,-0.014736,-0.091553,-0.368164,-0.575928,1.056602,6.891101,6.371533,0.004263,-0.055163,-0.031476,-0.089111,-0.438965,-0.521729,0.259475,6.69033,6.76495,-0.014938,0.084425,0.05894,-0.011963,-0.416016,-0.587402
-1.012642,0.891704,10.0145,-0.063857,0.010487,0.072243,0.178711,0.332275,-0.610107,0.431274,1.814713,9.704121,-0.314384,0.058509,0.010988,-0.107178,0.0625,-0.677246,-0.281388,7.188025,6.806865,-0.081855,-0.047797,-0.024141,-0.091797,-0.371582,-0.574463,0.293726,7.668338,6.697223,0.161117,0.149701,0.040761,-0.089111,-0.450684,-0.52002,0.143013,7.18852,6.982308,0.089808,-0.074995,-0.039008,-0.015137,-0.424316,-0.581543
-0.759362,0.233959,9.494867,-0.100325,-0.085499,0.064975,0.175293,0.334717,-0.598389,-0.080827,1.575524,9.376934,0.014912,0.077612,-0.009796,-0.106689,0.063477,-0.668701,-0.074107,6.841854,6.921708,-0.211429,0.014802,-0.00605,-0.094971,-0.371338,-0.580078,0.089255,7.488781,6.78275,-0.378983,-0.092291,-0.057507,-0.092041,-0.447998,-0.524902,0.448949,7.126115,7.045559,-0.228704,-0.00502,0.121144,-0.016357,-0.42334,-0.587646
-0.557247,0.270673,9.33566,0.014391,-0.001121,0.096176,0.164795,0.327881,-0.602539,0.143905,2.126148,9.422978,0.025359,-0.017084,-0.013363,-0.119629,0.057617,-0.672119,-0.230766,6.614038,6.88525,0.034361,-0.002765,-0.015942,-0.087646,-0.367188,-0.57666,0.779798,6.459699,6.375084,-0.139646,-0.081623,0.00933,-0.085205,-0.441406,-0.523438,0.113563,6.454111,6.794464,-0.12306,0.030815,0.026194,-0.012207,-0.415527,-0.588623
-0.944065,0.393196,9.683348,0.195941,-0.016063,0.115596,0.166016,0.330322,-0.601318,0.100229,1.771529,9.558736,-0.128898,9e-06,0.015288,-0.120361,0.0625,-0.668945,-0.110836,7.140811,6.832775,0.112183,0.046042,-0.034467,-0.092285,-0.370117,-0.574463,0.362014,7.198248,6.646956,0.378768,0.112117,0.026343,-0.09082,-0.447754,-0.520264,0.249532,6.780331,6.91824,0.212439,-0.064839,0.022355,-0.018066,-0.421631,-0.584961
-1.008708,1.497961,9.852732,0.188318,-0.0682,0.011981,0.168213,0.325195,-0.606934,0.270306,1.803586,9.429894,0.186668,0.012723,0.03665,-0.115479,0.05542,-0.676514,-0.503028,7.187961,6.657738,-0.00585,0.016814,0.031299,-0.089355,-0.365234,-0.571777,0.094398,8.005303,6.808248,0.063474,-0.073344,0.01706,-0.086914,-0.444336,-0.519287,0.28375,7.361502,6.964373,0.129068,0.029953,-0.009398,-0.012207,-0.419678,-0.58374
-0.60236,1.398303,9.578706,-0.18375,-0.096554,-0.028582,0.167725,0.322021,-0.601318,0.028728,2.642072,9.428885,0.038182,0.116265,0.059512,-0.111816,0.051758,-0.670654,-0.151514,7.018625,6.843061,-0.066387,-0.071299,0.011971,-0.092041,-0.36377,-0.56958,0.647645,7.35706,6.585219,-0.305835,-0.058251,0.01268,-0.087646,-0.439453,-0.514893,0.117635,7.285879,6.967044,-0.138954,-0.016062,0.04798,-0.013916,-0.416992,-0.578613
-0.812595,0.710368,9.337419,-0.075759,0.004178,-0.046032,0.16748,0.327637,-0.603516,-0.270145,2.014649,9.265391,-0.123577,-0.049533,0.053036,-0.11499,0.054199,-0.674561,-0.354609,6.83617,6.734192,0.060015,0.059319,0.04109,-0.095215,-0.367432,-0.579102,0.262816,6.669055,6.476761,-0.026678,0.147329,0.039444,-0.092041,-0.443115,-0.524902,0.228726,6.566894,6.848546,-0.128562,0.001547,0.034805,-0.019531,-0.41626,-0.590576
-0.880786,0.975776,9.611738,0.180862,-0.065552,0.004376,0.164307,0.334961,-0.61084,0.174473,2.389601,9.512826,0.332486,-0.019683,-0.008616,-0.115479,0.061523,-0.681396,-0.531026,7.37111,6.7877,0.220179,-0.037268,-0.047995,-0.103516,-0.377441,-0.580566,-0.110384,7.144554,6.65967,0.296337,-0.074599,0.019071,-0.100586,-0.451172,-0.529053,0.067038,6.531147,6.88559,0.17707,0.026056,0.039465,-0.025879,-0.42627,-0.593994
-0.837534,1.578065,10.046179,0.053999,-0.095428,0.012721,0.161133,0.333252,-0.612305,-0.018236,3.353918,9.755062,0.056113,-0.026632,-0.010906,-0.116211,0.059814,-0.680908,-0.17374,7.582664,6.761927,-0.034765,-0.056666,0.046187,-0.102783,-0.374268,-0.57373,0.622452,7.85006,6.613849,0.157205,-0.131938,-0.016259,-0.101074,-0.451416,-0.519287,0.18068,7.238032,6.915604,0.242577,-0.053331,0.049698,-0.026855,-0.426758,-0.587158
-0.502486,1.005669,9.809157,-0.175256,-0.062447,0.015015,0.163818,0.324951,-0.601807,0.205221,2.379687,9.365703,-0.328172,-0.008879,-0.014241,-0.116211,0.055176,-0.669922,-0.336468,7.062121,6.590062,-0.089947,0.00288,-0.012362,-0.09375,-0.366211,-0.578369,0.497524,7.71527,6.595222,-0.181493,0.130425,0.031108,-0.091553,-0.444336,-0.522949,0.344586,7.509585,6.982306,-0.104008,0.023177,0.007173,-0.019043,-0.417725,-0.585449
-0.906834,0.595426,9.780426,-0.031096,-0.027495,0.05129,0.165527,0.328125,-0.608398,-0.175634,1.953225,9.409937,0.068789,-0.028406,-0.018958,-0.110352,0.056396,-0.678467,-0.45289,7.303334,6.76437,0.053813,-0.069189,-0.017884,-0.090332,-0.370605,-0.576416,-0.084948,7.047424,6.588014,-0.220756,0.020503,-0.037205,-0.085449,-0.442871,-0.52124,0.055988,6.644077,6.841037,-0.315114,0.032988,0.088599,-0.011719,-0.417236,-0.588379
-0.652349,0.654542,9.928296,0.011595,-0.04948,0.07457,0.157715,0.324951,-0.608154,0.284952,2.840684,9.722709,0.043569,-0.044317,-0.058898,-0.119629,0.05127,-0.675781,-0.163637,7.316974,6.868553,-0.143897,-0.080567,0.004414,-0.100342,-0.371094,-0.583496,0.475872,6.984062,6.503421,0.079204,-0.124745,-0.007365,-0.092285,-0.447754,-0.531006,0.208956,6.314364,6.742304,0.07657,-0.036089,-0.010486,-0.021729,-0.419922,-0.593506
-0.807576,0.602262,9.90842,0.054893,-0.019766,0.106624,0.158203,0.328613,-0.598145,-0.198163,1.941713,9.407178,-0.396944,0.013942,-0.011017,-0.119873,0.063721,-0.66748,-0.361814,6.537613,6.726293,-0.179318,-0.004067,0.020785,-0.099609,-0.364502,-0.565918,0.416248,7.473828,6.657105,0.034257,0.115877,0.004606,-0.093506,-0.443115,-0.514648,0.16179,7.131789,6.967305,0.147904,0.038876,-0.032724,-0.021729,-0.418701,-0.576416
-0.711579,0.647414,9.791197,-0.088087,0.027334,0.069352,0.166992,0.327148,-0.605957,0.094096,1.084506,9.396215,0.05202,-0.085093,-0.032821,-0.111572,0.062256,-0.677979,-0.357836,6.722997,6.698504,0.195249,-0.087054,-0.029531,-0.103516,-0.367432,-0.580322,-0.101693,7.102537,6.574832,-0.208484,0.033484,-0.01379,-0.096191,-0.439209,-0.530762,0.121654,6.94328,6.938341,-0.198824,-0.010613,0.016548,-0.023926,-0.41626,-0.592285
-0.922284,0.206104,9.864598,0.030599,-0.002652,0.06009,0.160645,0.328857,-0.60498,0.170529,2.354425,9.816119,0.289208,0.024042,0.008896,-0.116211,0.057617,-0.672607,-0.044563,7.52821,6.951232,0.074063,-0.018062,-0.029571,-0.098877,-0.366211,-0.580078,0.39459,6.721588,6.403472,0.069009,-0.121555,-0.021272,-0.092529,-0.44043,-0.526123,0.244447,6.381017,6.68578,0.017015,0.005312,0.039205,-0.022949,-0.412842,-0.593018
-0.708897,0.917758,9.858866,0.247721,-0.020424,0.041303,0.164795,0.322754,-0.609131,0.095351,2.381727,9.696615,-0.224269,-0.025702,0.002296,-0.115723,0.060303,-0.678223,-0.283621,6.797969,6.741176,-0.226094,0.011821,0.05691,-0.098389,-0.361084,-0.575684,0.554987,7.471336,6.53831,0.271202,0.060373,0.028391,-0.088867,-0.441895,-0.519775,0.122715,7.144872,6.877679,0.324009,0.009029,-0.061122,-0.018311,-0.41626,-0.586182
-0.57591,1.302691,9.949604,0.005616,0.004291,-0.013717,0.160889,0.327393,-0.598877,0.255407,1.374899,9.292419,-0.056609,0.027974,0.046897,-0.118652,0.06665,-0.665771,-0.195964,6.622128,6.542637,0.189498,-0.041931,-0.007241,-0.10376,-0.365723,-0.571533,0.101732,7.799107,6.658733,-0.073962,0.02737,0.02786,-0.095459,-0.443848,-0.514648,0.335793,7.648199,7.050686,-0.053728,-0.041727,0.032519,-0.0271,-0.416992,-0.580078
-0.72759,1.066188,9.986114,-0.088425,0.057573,-0.049081,0.165283,0.326904,-0.599121,0.096131,2.352997,9.672852,0.324546,0.027802,0.025782,-0.11499,0.055176,-0.669189,-0.091752,7.795541,6.933148,0.176479,0.038106,-0.034655,-0.098633,-0.369385,-0.576904,0.430375,7.099572,6.499322,-0.176294,-0.068521,-0.006387,-0.092285,-0.443115,-0.525391,0.28228,6.635414,6.769318,-0.287312,0.050141,0.037221,-0.020264,-0.415039,-0.588379
-0.67972,1.094599,9.861512,-0.054217,-0.009808,-0.059561,0.16626,0.333496,-0.603271,0.179002,2.914889,9.698863,-0.132011,0.038814,0.026889,-0.115479,0.061768,-0.673828,-0.272654,7.135906,6.852772,-0.323644,-0.017041,0.093623,-0.094727,-0.370361,-0.578857,0.440545,7.022451,6.437341,0.118317,0.057299,0.05421,-0.086182,-0.447021,-0.52124,0.023722,6.389547,6.826148,0.168739,-0.010322,-0.070215,-0.015869,-0.422119,-0.585938
-0.65367,1.001978,9.682442,-0.122843,0.096807,-0.057878,0.162598,0.323975,-0.604492,-0.078973,1.638994,9.252796,-0.234587,0.025996,0.02369,-0.117432,0.056641,-0.673096,-0.140294,6.30595,6.556463,0.065668,0.019861,0.019557,-0.101562,-0.370361,-0.575195,0.107522,7.466568,6.680342,0.059253,0.00696,0.038178,-0.094238,-0.447266,-0.519775,0.314901,7.297115,7.056747,0.183252,-0.078183,-0.063464,-0.021973,-0.424561,-0.585693
-0.838121,0.567211,9.692638,-0.147397,0.047469,-0.0757,0.165527,0.335449,-0.602295,0.084807,1.92489,9.488401,0.295617,-0.044035,-0.003,-0.118164,0.059814,-0.672363,-0.338169,7.565421,6.843958,0.314804,0.064693,-0.079097,-0.101318,-0.368408,-0.572754,0.307862,7.160909,6.588474,-0.129893,-0.063911,-2e-05,-0.093018,-0.441406,-0.522705,0.275325,7.029942,6.985976,-0.176362,0.043224,0.039863,-0.021484,-0.41626,-0.584717
-0.778363,0.450281,9.811177,0.098282,0.053895,-0.047806,0.165771,0.333252,-0.60376,0.276284,3.019834,9.771569,0.12306,0.040955,0.019708,-0.115967,0.052246,-0.67334,-0.23166,7.542843,6.708256,-0.177968,-0.030785,0.071645,-0.0979,-0.371582,-0.576904,0.412875,6.969874,6.473697,0.126578,-0.005962,0.020352,-0.091553,-0.448242,-0.522217,0.05788,6.504032,6.781781,0.057804,-0.03946,0.01678,-0.020752,-0.421631,-0.587402
-0.807267,1.345834,10.064323,0.126138,0.012233,-0.027839,0.159912,0.329102,-0.598877,0.0193,2.467083,9.619915,-0.178878,0.034477,0.032694,-0.122803,0.056396,-0.666016,-0.213214,6.709975,6.616136,-0.014379,0.019565,-0.012671,-0.10083,-0.372314,-0.579346,0.234353,7.590311,6.696704,0.174596,-0.022166,0.021621,-0.094482,-0.451416,-0.522949,0.382415,7.187202,6.962177,0.238359,-0.056947,-0.000266,-0.020508,-0.429443,-0.588867
-0.647395,1.134938,10.136104,-0.090848,0.046464,-0.015911,0.172607,0.327881,-0.60791,0.11107,2.387972,9.540944,0.146459,0.025216,-0.016102,-0.111084,0.053955,-0.679932,-0.333692,7.542933,6.875857,0.267296,0.01309,-0.081006,-0.099121,-0.373291,-0.573242,0.364323,7.601008,6.658972,-0.109659,-0.063002,-0.030441,-0.094238,-0.44751,-0.521729,0.260688,7.27369,6.955372,-0.113781,0.023455,0.087512,-0.022949,-0.424805,-0.587402
-0.724241,1.185377,10.014621,-0.065517,0.050291,0.03846,0.16333,0.320068,-0.605225,0.096084,3.045112,9.876021,0.006106,0.006829,-0.04833,-0.11792,0.047607,-0.674072,-0.123364,7.860789,6.968056,-0.134093,-0.052601,-0.001246,-0.105225,-0.374512,-0.579102,0.503682,7.207366,6.529131,-0.043821,-0.019531,-0.020363,-0.098877,-0.44873,-0.525146,0.244078,6.712399,6.81461,-0.081669,-0.038941,0.04826,-0.026855,-0.422852,-0.589844
-0.667616,0.964527,10.048041,-0.166414,0.067438,0.006717,0.167725,0.335449,-0.597656,0.31257,2.310306,9.768469,-0.269254,-0.002376,-0.03134,-0.116211,0.063232,-0.669189,-0.07079,6.968489,6.62435,-0.180567,0.021881,-0.019888,-0.095459,-0.368164,-0.572266,0.453135,7.483787,6.612766,0.063925,-0.019657,-0.01684,-0.090576,-0.446777,-0.51416,0.504166,6.932044,6.871326,0.07778,-0.028729,0.008195,-0.021729,-0.421387,-0.582764
-0.995876,0.906539,10.097816,-0.095986,0.041257,0.015616,0.173096,0.33252,-0.608154,0.156462,2.029474,9.812158,0.089903,0.072689,-0.036494,-0.110596,0.054443,-0.677002,-0.373355,7.189658,6.806497,0.137191,0.020327,-0.103113,-0.107422,-0.380127,-0.577881,0.39229,7.510042,6.706601,-0.109551,0.005644,-0.059557,-0.100342,-0.455322,-0.524414,0.325295,7.051654,6.975799,-0.072118,0.045783,0.032469,-0.033203,-0.427979,-0.59082
-0.860071,0.94389,9.871708,-0.162207,-0.037673,-0.004245,0.16333,0.34375,-0.598145,0.091816,2.954319,9.838799,0.126758,0.060171,-0.067616,-0.118896,0.059326,-0.667725,-0.23153,7.678964,6.921413,-0.01082,-0.047022,-0.058033,-0.092529,-0.376709,-0.573486,0.3139,7.201626,6.555621,-0.049843,-0.010069,-0.058055,-0.088867,-0.447998,-0.521484,0.193543,6.8568,6.862963,-0.017192,-0.021026,0.045686,-0.016602,-0.421631,-0.586182
-0.570031,0.401829,9.581026,-0.119379,-0.0194,0.045016,0.167236,0.341064,-0.601074,-0.028607,2.69947,9.489978,-0.325087,0.070348,-0.054306,-0.115967,0.058105,-0.671875,-0.170342,7.334955,6.873918,-0.210472,0.013277,-0.063572,-0.095703,-0.365479,-0.577637,0.37876,7.512185,6.64058,0.026552,-0.039421,-0.054258,-0.092285,-0.445068,-0.521729,0.418288,7.161854,6.878697,-0.001629,-0.016023,0.001919,-0.02417,-0.41626,-0.585693
-0.707863,0.772869,9.761232,0.015908,0.03464,0.084566,0.173096,0.341797,-0.60083,-0.101364,1.585714,9.22486,-0.23103,-0.04619,-0.087144,-0.111816,0.068359,-0.672607,-0.331728,6.772209,6.798238,-0.178802,-0.008939,-0.064795,-0.096436,-0.36792,-0.572266,0.378995,7.526072,6.646182,-0.196495,0.01316,-0.071763,-0.091797,-0.448975,-0.518311,0.275655,7.117865,6.969422,-0.163219,0.034941,0.057546,-0.023193,-0.420898,-0.584229
-0.720694,0.704941,9.925725,-0.068997,0.063863,0.034967,0.161865,0.343018,-0.604248,0.327427,1.888092,9.504618,0.118128,0.006853,-0.104899,-0.121826,0.062988,-0.676025,-0.129112,6.862446,6.721607,0.030389,-0.021968,-0.05876,-0.099365,-0.366211,-0.576416,0.338346,7.014169,6.549304,-0.166179,-0.000721,-0.045361,-0.094482,-0.440918,-0.523193,0.332973,6.753806,6.837212,-0.111506,-0.024168,0.018143,-0.027344,-0.415039,-0.586914
-0.975931,0.667706,9.986091,-0.124285,0.060991,0.006596,0.164551,0.34375,-0.597412,-0.035241,2.235861,9.693195,-0.156454,0.048436,-0.04897,-0.121094,0.062744,-0.671631,-0.310686,7.100959,6.860702,-0.081555,0.034404,-0.076224,-0.10083,-0.371826,-0.577393,0.314809,7.059577,6.594968,-0.000474,-0.000414,-0.040355,-0.093994,-0.446533,-0.521729,0.366762,6.877337,6.906151,-0.008872,0.02527,0.028233,-0.030273,-0.419189,-0.587891
-0.712276,0.543028,9.932251,-0.165082,0.070964,-0.076497,0.16626,0.344727,-0.605713,0.099324,1.397575,9.408378,-0.167217,0.015336,-0.016591,-0.118652,0.06665,-0.67749,-0.304381,6.756089,6.789816,-0.097027,-0.050203,-0.004784,-0.100586,-0.366943,-0.583496,0.28104,7.156752,6.639769,-0.048031,-0.007597,-0.035826,-0.095459,-0.447266,-0.527344,0.29081,6.801677,6.999911,-0.11219,-0.004031,0.047783,-0.029785,-0.417725,-0.593506
-0.911194,0.610409,9.774737,-0.154794,0.109637,-0.079359,0.173584,0.357666,-0.604004,0.041933,1.977654,9.35842,0.261151,0.064977,-0.044795,-0.11499,0.070801,-0.677002,-0.176522,6.866201,6.73401,0.058896,0.028855,-0.095624,-0.093994,-0.364258,-0.574463,0.318462,7.105353,6.575197,-0.004962,-0.019204,-0.050387,-0.085938,-0.443848,-0.520996,0.370831,6.565876,6.820514,8.1e-05,0.002558,0.048225,-0.022217,-0.413086,-0.588623
-0.530115,0.244359,9.540358,-0.12164,0.089208,-0.069882,0.175781,0.350342,-0.594238,0.039321,2.625706,9.464748,-0.057808,0.020252,-0.041812,-0.112793,0.060059,-0.668213,-0.325762,6.998115,6.811163,0.008106,-0.011524,-0.008949,-0.099854,-0.358643,-0.580811,0.38708,7.254718,6.607416,0.061545,-0.020558,-0.010179,-0.091797,-0.437256,-0.523682,0.348566,6.984714,6.953234,0.166027,-0.00773,-0.027681,-0.028809,-0.4104,-0.591309
-0.908871,0.407068,9.881593,0.003454,0.213194,-0.042522,0.176025,0.351074,-0.596191,-0.048781,1.770924,9.323696,-0.143093,-6.3e-05,-0.012524,-0.113037,0.064209,-0.669678,-0.222024,7.183138,6.733934,0.089468,-0.008051,-0.056948,-0.099609,-0.367188,-0.575684,0.297576,7.371288,6.647626,0.012703,0.007077,-0.029641,-0.093262,-0.440918,-0.520508,0.433949,7.240017,6.988488,-0.02558,-0.009214,0.053441,-0.028076,-0.415771,-0.586182
-0.890859,0.934359,10.074161,-0.078749,0.137267,-0.062564,0.177002,0.361084,-0.589844,0.317689,2.226786,9.53072,0.181978,-0.020868,-0.047393,-0.11499,0.06543,-0.666748,-0.303726,7.289318,6.732103,-0.101665,-0.006356,-0.039677,-0.0979,-0.366943,-0.574707,0.31819,7.391863,6.575728,-0.015221,-0.037919,-0.038223,-0.093506,-0.443604,-0.519043,0.365559,6.897542,6.878403,-0.090867,0.003704,0.045124,-0.028809,-0.414795,-0.585693
-0.71238,0.645978,9.781895,-0.332252,0.179665,-0.087064,0.187744,0.363037,-0.601562,0.131368,2.475041,9.496277,-0.211477,0.124865,-0.019889,-0.106934,0.065674,-0.678955,-0.129882,6.630528,6.774521,-0.161695,-0.079753,0.049966,-0.094971,-0.369141,-0.57959,0.518037,7.404565,6.645632,-0.071051,-0.032971,0.020721,-0.088623,-0.446289,-0.525635,0.462304,6.948256,6.931879,0.020866,-0.033388,-0.035857,-0.026367,-0.417969,-0.59082
-0.886191,-0.02583,9.612943,-0.235667,0.279045,-0.087487,0.193848,0.358887,-0.593262,-0.369548,1.288456,9.338458,-0.201946,-0.050019,-0.000395,-0.104492,0.060547,-0.67041,-0.236794,6.898886,6.926609,0.154642,0.054953,-0.08188,-0.092041,-0.365479,-0.585693,0.263196,7.031046,6.661462,-0.172221,0.075449,-0.017114,-0.087158,-0.438721,-0.533447,0.443568,6.879538,6.992334,-0.141572,0.017032,0.031428,-0.024414,-0.412354,-0.597656
-1.385794,-0.148136,9.487718,-0.070751,0.21749,-0.097126,0.192139,0.361816,-0.598145,0.444784,1.953847,9.678831,0.321969,-0.035795,-0.056137,-0.112061,0.059814,-0.674316,-0.360387,7.424025,6.946926,-0.024847,-0.043452,-0.002615,-0.096924,-0.36377,-0.58252,0.174656,6.868314,6.575747,0.057483,-0.064788,-0.015518,-0.091064,-0.437988,-0.530273,0.324983,6.466674,6.881914,-0.025512,-0.02496,0.024699,-0.029785,-0.411133,-0.594971
-0.928299,-0.197394,9.863696,0.29332,0.140316,-0.064311,0.193848,0.361328,-0.594238,-0.119755,2.877521,9.754724,-0.05288,0.087912,-0.013949,-0.109863,0.064209,-0.667236,-0.133489,6.772657,6.776544,-0.154658,-0.013675,0.023098,-0.101562,-0.371338,-0.585938,0.538652,7.4171,6.722859,0.158334,-0.057199,0.015389,-0.095459,-0.452393,-0.527832,0.499986,6.876052,6.944607,0.171131,-0.026499,-0.047931,-0.031006,-0.422119,-0.595459
-1.158105,1.548715,10.315526,0.161126,0.27477,-0.104908,0.188232,0.366455,-0.598877,0.003964,1.475916,9.410311,-0.401862,-0.051382,-0.001367,-0.121582,0.078613,-0.673096,-0.43196,6.741456,6.882079,0.066016,0.038211,-0.057266,-0.09375,-0.358887,-0.57666,0.275754,7.476259,6.780993,-0.167532,0.092487,-0.013977,-0.087402,-0.435547,-0.520508,0.365298,7.196468,7.082801,-0.064368,0.023235,0.01569,-0.022217,-0.407227,-0.589111
-1.26488,0.957574,10.104528,-0.470706,0.26174,-0.183499,0.203125,0.372559,-0.591309,-0.029895,1.389539,9.436179,0.309648,0.062291,-0.004822,-0.112549,0.072021,-0.667969,-0.377874,7.254221,6.892709,0.089172,-0.056243,0.000438,-0.094727,-0.368896,-0.580811,0.035138,6.755547,6.641897,-0.149264,-0.021719,-0.009609,-0.086914,-0.442139,-0.528076,0.338707,6.572024,6.91702,-0.176235,-0.007065,0.042091,-0.022217,-0.415771,-0.592529
-1.415454,0.139892,9.598226,-0.420242,0.316593,-0.161488,0.203613,0.36792,-0.595703,-0.063735,3.1507,9.681209,0.267645,-0.004343,-0.039151,-0.113281,0.054932,-0.674561,-0.278574,7.04822,6.795327,-0.08518,0.007327,-0.016213,-0.095459,-0.363525,-0.576416,0.368621,6.942512,6.587337,0.243505,-0.058244,-0.019162,-0.08667,-0.440674,-0.525635,0.333244,6.495402,6.849471,0.171549,0.010312,0.019405,-0.024414,-0.409912,-0.589355
-1.318564,-0.326644,9.413886,-0.340759,0.222793,-0.100948,0.205566,0.376221,-0.600098,-0.047672,2.533343,9.562072,-0.314621,0.034721,-0.006034,-0.112793,0.060303,-0.683105,-0.509582,6.868192,6.768022,0.121044,-0.027131,-0.007243,-0.098877,-0.366943,-0.584229,0.24132,7.764246,6.717116,0.177747,0.048494,0.010355,-0.091553,-0.444092,-0.529541,0.298007,7.235079,7.016107,0.195547,-0.00413,-0.021291,-0.029785,-0.412354,-0.594727
-1.531962,-0.472388,9.427654,-0.142315,0.255539,-0.016091,0.212402,0.379639,-0.58667,-0.06563,1.665286,9.452101,0.000875,-0.045973,-0.051128,-0.11084,0.060791,-0.667725,-0.178543,7.577047,6.827746,0.081391,-0.063525,-0.066666,-0.097412,-0.374756,-0.578369,0.141714,7.514605,6.695092,-0.248094,-0.028021,-0.044509,-0.089111,-0.447998,-0.526367,0.48121,7.204951,7.021736,-0.170907,-0.01894,0.073333,-0.027588,-0.418701,-0.593018
-1.397774,-0.358576,9.428742,0.005209,0.163836,0.001758,0.218994,0.385742,-0.587158,0.306399,2.392938,9.627181,0.141979,0.032399,-0.031378,-0.109619,0.064453,-0.67041,-0.17159,7.185525,6.825017,-0.183069,-0.006009,0.020659,-0.093994,-0.372559,-0.579346,0.535513,6.752768,6.442419,-0.095737,-0.049055,-0.032186,-0.086914,-0.445801,-0.529053,0.496444,6.476899,6.796128,-0.112783,0.027831,0.043421,-0.026855,-0.41748,-0.592773
-1.529447,0.269581,9.679281,0.120867,0.180796,-0.028046,0.212891,0.386719,-0.584961,-0.017964,2.101389,9.698806,-0.242254,0.003472,0.0075,-0.115234,0.073486,-0.668457,-0.185625,6.596194,6.826666,-0.051786,-0.058796,-0.037032,-0.097168,-0.364014,-0.580078,0.412958,7.207209,6.65935,0.212703,0.040746,-0.005738,-0.091064,-0.442139,-0.523438,0.469917,6.788513,6.97352,0.178052,-0.016467,-0.005865,-0.029541,-0.415771,-0.588623
-1.664037,0.495541,9.764464,-0.206193,0.139647,-0.031148,0.221436,0.391357,-0.584961,0.080501,1.426061,9.568425,0.097985,0.044491,-0.02044,-0.110107,0.06958,-0.668213,-0.222601,6.944039,6.845264,0.214991,0.036449,-0.023227,-0.091064,-0.37085,-0.570312,0.167448,7.594527,6.782813,0.028482,0.021003,-0.017786,-0.083008,-0.445557,-0.519287,0.456794,7.137586,7.047315,0.037194,0.029535,0.013188,-0.021729,-0.419434,-0.582764
-1.932545,-0.327934,9.528144,-0.230317,0.101965,-0.030093,0.217041,0.392578,-0.5896,-0.242211,2.666385,9.882721,0.389341,0.029936,-0.022992,-0.118164,0.05835,-0.674316,-0.597803,7.695298,6.904078,0.191454,-0.009836,-0.08587,-0.092529,-0.363281,-0.576172,0.12315,7.160305,6.586331,-0.083929,-0.006575,-0.027444,-0.084961,-0.4375,-0.524414,0.225548,6.718805,6.946272,-0.082526,0.035801,0.019221,-0.022949,-0.406494,-0.590576
-1.699613,-0.235504,9.62291,0.060651,-0.012678,0.004242,0.220703,0.378418,-0.579346,0.129375,3.329749,9.902458,-0.062482,0.008618,-0.012098,-0.111572,0.050049,-0.664307,-0.212944,7.685737,6.860751,-0.106759,-0.065307,-0.007926,-0.10083,-0.371582,-0.575928,0.233988,7.198905,6.536855,0.142656,-0.031939,-0.068477,-0.091553,-0.446777,-0.523682,0.378734,6.703718,6.835231,0.138592,-0.043008,0.043929,-0.030762,-0.418457,-0.588867
-1.644939,0.304519,9.594562,0.129736,-0.035686,0.103564,0.221924,0.38623,-0.585449,-0.163472,2.394173,9.499323,-0.239821,0.050571,-0.059671,-0.110596,0.064941,-0.66748,-0.308985,6.930693,6.799851,-0.167076,0.024927,-0.064005,-0.095703,-0.368164,-0.580322,0.296471,7.75946,6.691223,0.080851,-0.014571,-0.035717,-0.087646,-0.449219,-0.523926,0.492417,7.373039,6.954865,0.132143,0.026619,-0.021761,-0.026611,-0.415527,-0.59082
-1.243651,0.430036,9.686738,0.03554,-0.045915,0.109347,0.216553,0.379883,-0.586426,0.037308,1.831388,9.531419,-0.101239,-0.033889,-0.110971,-0.116455,0.060547,-0.669189,-0.341724,6.949586,6.773626,0.074037,-0.042148,-0.059149,-0.095215,-0.369629,-0.580078,0.284886,7.53105,6.657894,-0.224862,0.009233,-0.063107,-0.085205,-0.446777,-0.526611,0.419188,7.325665,7.009756,-0.192473,0.00599,0.059873,-0.027832,-0.417969,-0.592529
-1.832313,0.022955,9.82702,-0.202234,0.075614,0.062226,0.225098,0.391357,-0.59082,-0.041228,1.797367,9.503267,0.047596,0.027338,-0.025073,-0.109375,0.069092,-0.67334,-0.22183,7.495509,6.927247,0.044017,0.011753,-0.078805,-0.091064,-0.369629,-0.577148,0.240381,6.895284,6.561214,-0.11295,0.027577,-0.052531,-0.083496,-0.442871,-0.523926,0.495889,6.46786,6.866397,-0.200266,0.030265,0.042331,-0.028076,-0.412598,-0.591064
-1.773885,-0.626776,9.621772,0.020248,-0.082304,0.04504,0.212158,0.390381,-0.585449,-0.012264,2.347782,9.79232,0.089997,-0.024712,-0.076715,-0.122314,0.061768,-0.668457,-0.542734,7.060419,6.793756,-0.152713,0.013243,-0.020051,-0.096436,-0.375244,-0.578613,0.109144,7.336379,6.540845,0.271831,0.010001,-0.043787,-0.086426,-0.453369,-0.522217,0.17456,6.665568,6.861729,0.24369,0.046274,-0.043003,-0.027832,-0.422607,-0.587891
-1.730371,0.263284,9.86494,0.199831,-0.007883,0.022385,0.22583,0.37793,-0.600342,-0.139369,2.159864,9.528985,-0.183547,0.101743,0.007541,-0.106689,0.055176,-0.685547,-0.433788,6.75482,6.75059,0.000167,-0.06143,-0.017567,-0.095947,-0.368652,-0.574951,0.119707,7.999025,6.80012,-0.026467,0.005281,-0.006375,-0.084229,-0.447754,-0.520264,0.281998,7.52539,7.116744,0.068779,-0.041399,-0.115668,-0.026123,-0.418457,-0.585449
-1.448843,0.578495,9.941671,-0.090595,-0.006859,-0.010162,0.227295,0.387207,-0.590576,-0.3451,1.55481,9.444868,-0.046444,-0.048013,-0.028252,-0.105713,0.06543,-0.671631,-0.350459,7.199626,6.941437,0.05332,0.021498,-0.067682,-0.091309,-0.363037,-0.581543,0.09273,7.059728,6.596264,-0.408532,0.035569,-0.055525,-0.081055,-0.436768,-0.527588,0.416292,6.901713,6.953177,-0.327311,0.034938,0.001473,-0.020508,-0.405029,-0.592529
-1.842321,-0.119342,9.763523,-0.228427,0.070516,-0.032909,0.218506,0.391846,-0.587158,0.083419,2.148384,9.601398,0.169014,0.062519,-0.035757,-0.112549,0.059326,-0.671631,-0.486338,6.956039,6.845124,-0.135097,-0.009859,0.009657,-0.096191,-0.358154,-0.584229,0.032476,6.421312,6.396597,0.043531,0.020626,-0.016948,-0.084717,-0.433838,-0.528076,0.117363,6.255641,6.793346,0.021345,0.030684,-0.063216,-0.026855,-0.405762,-0.595215
-1.723878,-0.358887,9.5853,-0.047252,0.00605,-0.010112,0.226074,0.390625,-0.592529,-0.432401,2.299627,9.637713,-0.074793,0.019262,-0.02274,-0.104736,0.062012,-0.677979,-0.400624,6.576478,6.602085,0.042106,0.014984,-0.029412,-0.095459,-0.368164,-0.584229,-0.022859,7.342576,6.641157,0.330819,-0.022258,0.008233,-0.084473,-0.446777,-0.529297,0.238009,7.073177,7.030019,0.278468,-0.051075,-0.052641,-0.025391,-0.416748,-0.593506
-1.735964,-0.15144,9.508876,-0.024493,-0.004832,-0.044451,0.22168,0.395508,-0.599609,0.228416,1.906088,9.405358,0.016374,-0.000813,-0.008318,-0.10791,0.065186,-0.685547,-0.43703,7.289325,6.715185,0.213329,0.010297,-0.079986,-0.101807,-0.369385,-0.576172,0.1611,7.600094,6.762802,-0.133131,-0.054628,-0.044342,-0.093018,-0.443115,-0.519287,0.500996,7.19913,7.086243,-0.13877,-0.014319,0.040179,-0.034424,-0.41333,-0.584961
-1.460492,-0.166306,9.575557,0.081141,-0.048935,-0.003061,0.223633,0.397461,-0.594971,-0.102309,2.419546,9.582861,0.211739,0.086467,-0.004939,-0.107666,0.060303,-0.680664,-0.260381,7.421635,6.772704,-0.079781,-0.020654,-0.031888,-0.099854,-0.373047,-0.573242,0.323612,6.760524,6.465137,-0.156875,-0.00081,-0.055908,-0.087402,-0.446289,-0.523682,0.413003,6.388482,6.814782,-0.109178,0.029014,0.07766,-0.029785,-0.415771,-0.587402
-1.478636,0.246297,9.635093,0.14831,-0.072856,0.040285,0.222656,0.392822,-0.59668,0.187935,2.667526,9.475225,0.05542,0.016316,-0.037227,-0.105713,0.05835,-0.682129,-0.252899,6.645718,6.628968,-0.051591,-0.003601,-0.039814,-0.092529,-0.369385,-0.575928,0.189238,6.811393,6.607828,0.200359,-0.018004,-0.036777,-0.081055,-0.446045,-0.518799,0.514512,6.598051,6.945123,0.223493,-0.042047,0.034764,-0.02417,-0.419189,-0.584961
-1.241726,0.349776,9.679458,0.060376,-0.07908,0.075453,0.221436,0.386475,-0.594727,-0.090386,2.390101,9.460583,0.036393,0.094581,-0.052844,-0.105957,0.055664,-0.678223,-0.252805,6.951852,6.835019,0.25995,-0.000544,-0.118273,-0.09668,-0.377441,-0.567627,0.305789,7.391053,6.661214,0.226718,-0.072306,-0.078945,-0.087646,-0.452637,-0.512695,0.686621,7.123862,6.875009,0.172912,0.007194,0.139207,-0.030518,-0.422852,-0.578369
-1.499311,0.430277,9.693255,-0.042378,-0.027374,0.067841,0.224121,0.391602,-0.596191,-0.047963,1.965174,9.485427,-0.132332,-0.01627,-0.09259,-0.101318,0.061279,-0.683594,-0.272575,7.428831,6.99417,-0.026446,-0.001974,-0.052351,-0.099121,-0.371582,-0.581787,0.387981,7.708075,6.679583,0.018027,0.006605,-0.041537,-0.088623,-0.447754,-0.526855,0.409461,7.257487,6.88086,0.005492,0.041693,0.06494,-0.033691,-0.415527,-0.593994
-1.450965,-0.323174,9.48372,-0.237844,-0.02644,-0.02756,0.219971,0.397461,-0.588867,-0.028571,1.436105,9.202178,0.037331,0.067968,-0.019057,-0.108398,0.064697,-0.674072,-0.439462,6.82058,6.700495,-0.06508,-0.006269,-0.013998,-0.09375,-0.373291,-0.581787,0.106136,7.267661,6.648849,-0.152073,0.039963,-0.036851,-0.084229,-0.448486,-0.527832,0.563048,6.885768,6.866901,-0.107863,-0.003131,0.105047,-0.029785,-0.414062,-0.592529
-1.671463,-0.4678,9.438568,0.047644,-0.008558,-0.036997,0.211914,0.388428,-0.582031,-0.345898,2.029101,9.481589,0.172525,-0.008262,-0.025875,-0.110596,0.051514,-0.666504,-0.422741,6.826909,6.8086,0.057065,-0.025215,-0.071946,-0.100586,-0.380127,-0.572754,0.0843,6.901033,6.522642,0.026952,-0.001516,-0.061829,-0.090576,-0.454834,-0.519043,0.394634,6.661185,6.731708,0.086395,0.073541,0.094822,-0.0354,-0.421387,-0.587402
-1.48093,-0.029846,9.557907,-0.011877,-0.007607,-0.060441,0.209473,0.387695,-0.588623,0.000952,1.231449,9.36896,0.049318,0.015634,0.036387,-0.115723,0.048828,-0.674316,-0.424698,6.984455,6.721258,0.166954,-0.0184,0.025905,-0.089844,-0.37207,-0.580078,0.128992,7.477657,6.49055,0.34949,-0.001301,0.02716,-0.079346,-0.45166,-0.522461,0.296332,7.329978,6.865206,0.318606,0.001247,0.01959,-0.02417,-0.420166,-0.587402
-1.791226,-0.621232,9.568899,-0.078771,-0.022165,-0.07565,0.219971,0.39624,-0.588867,-0.280373,2.516299,9.547081,0.755656,0.047277,-0.023193,-0.104004,0.044189,-0.679443,-0.435359,7.491496,6.910279,-0.008678,-0.006465,-0.053406,-0.097412,-0.381104,-0.578369,0.100851,8.084053,6.797424,-0.08284,0.024736,-0.001225,-0.085938,-0.45874,-0.52417,0.592769,7.619365,7.073361,-0.188099,-0.001366,0.076757,-0.033447,-0.424072,-0.592041
