# sampling frequency: 40
# units are seconds/meters/radians/a.u.
seg1_acc_x,seg1_acc_y,seg1_acc_z,seg1_gyr_x,seg1_gyr_y,seg1_gyr_z,seg1_mag_x,seg1_mag_y,seg1_mag_z,seg2_acc_x,seg2_acc_y,seg2_acc_z,seg2_gyr_x,seg2_gyr_y,seg2_gyr_z,seg2_mag_x,seg2_mag_y,seg2_mag_z,seg3_acc_x,seg3_acc_y,seg3_acc_z,seg3_gyr_x,seg3_gyr_y,seg3_gyr_z,seg3_mag_x,seg3_mag_y,seg3_mag_z,seg4_acc_x,seg4_acc_y,seg4_acc_z,seg4_gyr_x,seg4_gyr_y,seg4_gyr_z,seg4_mag_x,seg4_mag_y,seg4_mag_z,seg5_acc_x,seg5_acc_y,seg5_acc_z,seg5_gyr_x,seg5_gyr_y,seg5_gyr_z,seg5_mag_x,seg5_mag_y,seg5_mag_z
0.024465,-1.05438,9.800439,0.007466,0.003013,0.0007,-0.114746,0.409912,-0.552979,-0.27825,3.261216,9.245894,0.001057,0.001271,0.005665,-0.817383,0.093994,-0.176758,-0.590521,3.554089,9.185203,-0.005045,-0.002198,-0.001431,0.106689,0.435059,0.862793,-0.192414,3.202921,9.31603,-0.006155,0.006202,0.010116,0.531494,-0.197266,-0.271729,-0.803831,2.426756,9.470932,-0.00632,-0.005843,8.3e-05,0.365234,-0.05249,-0.623779
0.064211,-1.078718,9.791515,-0.005285,-0.000412,-0.002601,-0.125488,0.407227,-0.556885,-0.251881,3.241528,9.263891,-0.019012,0.008106,0.007661,-0.814941,0.094971,-0.18042,-0.588555,3.524846,9.15509,-0.00795,0.006211,0.004127,0.104492,0.427246,0.858887,-0.20545,3.197251,9.317505,-0.008266,-0.000835,0.008999,0.522461,-0.201904,-0.2771,-0.818729,2.412606,9.457735,-0.001847,0.006087,-0.00299,0.359619,-0.053467,-0.628174
0.044592,-1.088435,9.773702,0.00036,0.00503,-0.000694,-0.127197,0.397461,-0.561279,-0.282094,3.196611,9.235471,-0.013573,0.005605,0.007404,-0.817139,0.092529,-0.170898,-0.62084,3.547432,9.175566,0.004507,0.005755,-0.00127,0.105957,0.431396,0.871826,-0.181566,3.191527,9.321508,-0.00439,0.002175,0.010279,0.521729,-0.210205,-0.283203,-0.825014,2.425392,9.459333,0.006614,-0.005764,-0.002936,0.356934,-0.063965,-0.63501
0.05289,-1.070713,9.7872,0.000871,0.001293,-0.001172,-0.124512,0.402588,-0.552246,-0.242145,3.247442,9.258851,0.004258,0.004105,0.005881,-0.813477,0.097412,-0.174072,-0.594488,3.55589,9.169633,-0.009046,0.002131,0.00209,0.099609,0.438721,0.862549,-0.187793,3.216429,9.340843,0.000706,0.003216,0.010038,0.523193,-0.205566,-0.272217,-0.800781,2.467505,9.470998,0.003099,-0.001316,-0.004747,0.359863,-0.05835,-0.62207
0.032956,-1.070997,9.78712,0.002614,0.002192,0.000408,-0.130859,0.4104,-0.561035,-0.296982,3.261118,9.265007,-0.020854,0.01128,0.007889,-0.813965,0.095459,-0.176758,-0.625202,3.509487,9.173839,-0.012917,0.003635,0.00427,0.103027,0.435303,0.867432,-0.196693,3.21654,9.321484,-0.012563,0.00234,0.009655,0.515869,-0.195312,-0.279297,-0.831847,2.418807,9.481094,-0.01048,0.00057,-0.001242,0.355469,-0.050781,-0.631836
0.06205,-1.073927,9.778528,-0.000901,0.001009,-0.000235,-0.128906,0.404541,-0.554688,-0.257418,3.201174,9.245975,-0.016961,0.001094,0.005744,-0.820068,0.093018,-0.180908,-0.583462,3.547081,9.167825,0.012416,0.002682,-0.000986,0.108887,0.438232,0.866943,-0.197518,3.187742,9.296889,-0.010673,0.002279,0.008302,0.516846,-0.201172,-0.275146,-0.812197,2.402426,9.439368,0.002579,-0.002101,-0.003756,0.354248,-0.053467,-0.625977
0.051231,-1.065432,9.774262,0.001245,0.005486,-0.001676,-0.117676,0.411865,-0.554199,-0.251361,3.230047,9.249168,0.007704,0.014068,0.00953,-0.813477,0.0979,-0.171143,-0.627871,3.562706,9.187522,-0.014567,0.009933,-0.000694,0.098145,0.436523,0.859863,-0.181585,3.194139,9.338404,0.011278,-6.4e-05,0.011369,0.526123,-0.196289,-0.273438,-0.816396,2.442671,9.484224,0.016913,-0.000905,-0.007767,0.363281,-0.051514,-0.624023
0.050717,-1.069827,9.787309,0.000442,-0.000614,0.00147,-0.133301,0.405273,-0.560059,-0.289386,3.27495,9.260645,-0.018944,0.000525,0.007791,-0.80957,0.098145,-0.175537,-0.600284,3.516337,9.168435,-0.00175,-0.006133,0.005952,0.107666,0.424561,0.867432,-0.194067,3.211146,9.336084,-0.016321,0.005122,0.010233,0.517334,-0.198975,-0.275635,-0.788446,2.433365,9.477601,-0.019273,-0.008489,0.000585,0.351562,-0.053711,-0.630859
0.07973,-1.072865,9.778711,0.00038,0.004618,-0.002371,-0.124268,0.397461,-0.553711,-0.229838,3.206295,9.247016,-0.021602,0.008008,0.008533,-0.818604,0.099609,-0.175293,-0.583379,3.548795,9.205009,-0.009086,0.016233,-0.003662,0.104492,0.432129,0.860596,-0.173231,3.180318,9.301474,-0.007098,-0.000311,0.009468,0.525879,-0.208496,-0.269043,-0.825716,2.396477,9.432689,0.005417,0.008718,-0.004418,0.360107,-0.064209,-0.623047
0.029552,-1.06121,9.783027,0.00305,0.002838,-0.000177,-0.124023,0.403809,-0.560059,-0.301837,3.248373,9.269326,0.007899,0.010767,0.007307,-0.817627,0.09375,-0.171631,-0.636594,3.531927,9.153501,-0.00083,-0.003143,0.007165,0.104248,0.427246,0.857422,-0.18823,3.189202,9.333509,-0.000657,0.00454,0.00956,0.525146,-0.202881,-0.279785,-0.828747,2.452236,9.474546,0.005,-0.011206,-0.003716,0.35791,-0.057373,-0.632324
0.058561,-1.06036,9.783208,-0.004845,-0.000396,-0.00216,-0.129395,0.398926,-0.564209,-0.239004,3.262161,9.257585,-0.01484,-0.000447,0.005795,-0.813232,0.088867,-0.180176,-0.560541,3.578754,9.169954,0.003917,0.00356,-0.003821,0.104736,0.436035,0.868164,-0.189408,3.212636,9.316744,-0.003611,0.001917,0.009474,0.52002,-0.208252,-0.285889,-0.787871,2.435452,9.460993,-0.003212,0.005498,-0.000766,0.357178,-0.062012,-0.634521
0.059787,-1.105152,9.804175,-0.001366,0.002663,-0.001056,-0.123779,0.40625,-0.553467,-0.263468,3.227788,9.241084,-0.01523,0.016417,0.010557,-0.820068,0.090576,-0.179199,-0.650889,3.533089,9.196979,-0.024418,0.013294,0.00543,0.093994,0.432617,0.865479,-0.181039,3.212746,9.323324,-0.003058,-0.003622,0.009547,0.523926,-0.198975,-0.275146,-0.851135,2.432417,9.48282,0.003008,-0.000334,-0.005923,0.360596,-0.054688,-0.624756
0.038319,-1.069946,9.787279,0.007014,0.003832,7.1e-05,-0.137695,0.404785,-0.555664,-0.292089,3.233145,9.264698,-0.004636,-0.001157,0.004605,-0.817871,0.095215,-0.170166,-0.598679,3.530627,9.146186,0.006348,-0.014476,0.001964,0.106445,0.430176,0.866699,-0.184189,3.1977,9.329548,-0.020303,0.010427,0.009413,0.510742,-0.201416,-0.274658,-0.775318,2.409975,9.457768,-0.009635,-0.011159,0.001157,0.346436,-0.056641,-0.627441
0.067191,-1.068771,9.7875,-0.006172,-0.000239,-0.002649,-0.12207,0.399902,-0.555664,-0.219791,3.246692,9.255999,-0.009881,0.011198,0.009893,-0.814697,0.098633,-0.17749,-0.581516,3.564283,9.182336,-0.006366,0.021296,-0.002182,0.108398,0.425781,0.861084,-0.212771,3.168842,9.321768,0.006,-0.002745,0.009984,0.523682,-0.206299,-0.276611,-0.836301,2.436042,9.44947,0.014385,0.013519,-0.005795,0.360352,-0.060059,-0.626465
0.047807,-1.079066,9.813363,0.003079,0.000537,0.00123,-0.12207,0.397461,-0.560791,-0.310762,3.237744,9.251379,-0.012047,0.006749,0.008384,-0.819092,0.088379,-0.174316,-0.664101,3.525815,9.157288,-0.006043,-0.005739,0.006399,0.105469,0.442383,0.862549,-0.17359,3.216296,9.346506,-0.005105,-0.000721,0.010506,0.526855,-0.209717,-0.280762,-0.814795,2.442162,9.484493,-0.008596,-0.017651,-0.000913,0.363281,-0.064453,-0.631592
0.056095,-1.051578,9.779008,-0.000521,0.005626,-0.002606,-0.126709,0.4104,-0.560547,-0.23749,3.240371,9.243039,-0.012493,0.000704,0.005073,-0.818604,0.098633,-0.170654,-0.546965,3.570427,9.181667,0.003345,0.002744,-0.003381,0.097412,0.433838,0.867676,-0.196895,3.185733,9.302703,-0.012197,0.008275,0.010799,0.523926,-0.196045,-0.279541,-0.774463,2.412467,9.44108,-0.000432,0.009762,-0.001462,0.359131,-0.048828,-0.630371
0.026937,-1.078902,9.769573,-0.001363,0.002033,-2.9e-05,-0.138672,0.403564,-0.557129,-0.299128,3.254301,9.236865,0.000352,0.016467,0.010176,-0.822021,0.10083,-0.168213,-0.659064,3.509787,9.183284,-0.022632,0.014674,0.004199,0.099121,0.438965,0.86377,-0.200612,3.200531,9.32047,0.000816,-0.000621,0.010833,0.512207,-0.203125,-0.273682,-0.870062,2.4481,9.467928,0.008104,-0.002159,-0.006469,0.348389,-0.057617,-0.625732
0.055774,-1.069151,9.787438,0.003568,-0.002157,0.001402,-0.130371,0.412598,-0.559326,-0.286659,3.253225,9.261642,-0.016553,-0.003809,0.003904,-0.81543,0.097168,-0.178955,-0.578552,3.526506,9.145849,0.013563,-0.014388,0.000209,0.103027,0.432617,0.859131,-0.191472,3.192896,9.31192,-0.014928,0.001322,0.008751,0.517822,-0.193604,-0.2771,-0.766342,2.424333,9.442693,-0.010189,-0.012473,0.000917,0.354004,-0.047852,-0.630127
0.055737,-1.077691,9.791679,-0.001395,0.004963,-0.002463,-0.127197,0.404785,-0.560791,-0.229654,3.214465,9.247954,-0.017449,0.014687,0.010653,-0.822021,0.092529,-0.177246,-0.596268,3.561426,9.203024,-0.014111,0.025455,-0.001624,0.101318,0.427734,0.868408,-0.185066,3.195039,9.30508,0.005736,0.000591,0.012331,0.519775,-0.201416,-0.279297,-0.835533,2.436241,9.449487,0.012084,0.017577,-0.007234,0.356689,-0.05542,-0.633789
0.035,-1.069342,9.787357,0.003489,0.002854,0.000266,-0.129639,0.39917,-0.553223,-0.317213,3.245949,9.255334,0.004347,0.006798,0.006307,-0.8125,0.101807,-0.172363,-0.660875,3.50962,9.144279,-0.006437,-0.012979,0.006378,0.101318,0.43335,0.866455,-0.194599,3.207005,9.32994,-0.014231,0.007704,0.010155,0.515625,-0.204834,-0.271484,-0.828114,2.438233,9.461195,-0.010151,-0.022307,0.000158,0.354248,-0.061035,-0.622559
0.054363,-1.068681,9.787497,-0.003944,-0.001405,-0.001926,-0.12915,0.402832,-0.557617,-0.212375,3.261667,9.276252,-0.016724,-0.001053,0.006669,-0.819092,0.089111,-0.16748,-0.543382,3.554071,9.168814,0.002652,0.006595,-0.00391,0.103271,0.435303,0.85791,-0.192946,3.168841,9.303445,-0.010891,-0.001991,0.008827,0.518799,-0.203125,-0.2771,-0.767427,2.40231,9.422746,0.000477,0.014084,-0.00395,0.356201,-0.05542,-0.628418
0.04547,-1.100207,9.791186,-0.000502,0.00353,-0.000361,-0.125244,0.405518,-0.563721,-0.282771,3.213857,9.246224,-0.018341,0.015738,0.011303,-0.826172,0.091309,-0.180908,-0.662012,3.544426,9.171224,-0.008657,0.019405,0.002581,0.098877,0.44043,0.863525,-0.169264,3.192525,9.319146,0.007697,0.000842,0.011982,0.521729,-0.204102,-0.280518,-0.890272,2.452199,9.479637,0.013775,-0.002406,-0.006158,0.357666,-0.05542,-0.634033
0.053208,-1.059063,9.761505,0.008354,0.00284,0.00075,-0.132568,0.4104,-0.559082,-0.275748,3.232493,9.249619,0.005067,-0.002432,0.003266,-0.819824,0.084229,-0.184082,-0.591691,3.550472,9.149203,0.004599,-0.020145,0.002585,0.102539,0.424316,0.864502,-0.218551,3.210573,9.314032,-0.008127,0.007619,0.008746,0.513672,-0.195068,-0.280273,-0.772004,2.434992,9.461009,-0.012501,-0.014447,0.00068,0.350342,-0.050781,-0.629395
0.052982,-1.068227,9.809429,-0.004842,-0.001026,-0.001134,-0.128418,0.396973,-0.55957,-0.247375,3.272404,9.279951,-0.014221,0.014772,0.009304,-0.813721,0.088623,-0.177002,-0.581955,3.543266,9.171013,-0.020951,0.022564,-0.000311,0.106201,0.433105,0.866455,-0.190987,3.209524,9.297574,-0.010609,-0.002522,0.00948,0.519043,-0.210205,-0.278076,-0.835973,2.419309,9.452915,0.004365,0.018677,-0.006069,0.354004,-0.063477,-0.629883
0.053159,-1.081742,9.826652,0.003938,0.002664,-0.00013,-0.124268,0.403076,-0.556885,-0.310974,3.215563,9.261715,-0.018141,0.003735,0.006003,-0.811035,0.109863,-0.169922,-0.639411,3.500443,9.160556,0.00027,-0.006112,0.00261,0.11084,0.428467,0.85498,-0.176892,3.194221,9.329766,-0.00862,0.002204,0.010365,0.523438,-0.200928,-0.275879,-0.820513,2.442436,9.456231,0.000115,-0.021436,-0.002188,0.358643,-0.059082,-0.625
0.042193,-1.058631,9.761522,-7.6e-05,0.00438,-0.000108,-0.12207,0.402588,-0.564697,-0.226505,3.229272,9.246755,-0.001812,0.005495,0.007733,-0.813477,0.094727,-0.181396,-0.558541,3.578195,9.196324,0.005063,0.004039,-0.000878,0.10083,0.433105,0.866455,-0.19927,3.191111,9.311057,0.002192,0.005839,0.009042,0.524658,-0.205566,-0.286621,-0.772492,2.423147,9.430884,0.003793,0.011337,-0.005111,0.361328,-0.057373,-0.636475
0.041925,-1.072641,9.778693,-0.004878,0.000849,-0.000674,-0.13208,0.403076,-0.558594,-0.291498,3.252958,9.249941,-0.008772,0.012271,0.009043,-0.819092,0.086914,-0.17627,-0.653435,3.546805,9.17355,-0.011067,0.013296,0.002086,0.104736,0.42627,0.87085,-0.200649,3.22581,9.338765,-0.007438,-0.000758,0.009216,0.518555,-0.204834,-0.276123,-0.869653,2.441227,9.461232,-0.003968,0.000116,-0.002161,0.35376,-0.055664,-0.625977
0.071076,-1.081094,9.804929,0.002188,0.00134,0.000156,-0.125977,0.399902,-0.553223,-0.251564,3.243201,9.252271,-0.016014,-1e-05,0.003936,-0.821045,0.087158,-0.172363,-0.596593,3.554641,9.194824,-0.003793,-0.007072,0.000966,0.101074,0.430176,0.866699,-0.178589,3.171687,9.320751,-0.01044,0.00244,0.007598,0.523682,-0.210693,-0.271729,-0.794111,2.41702,9.452721,0.002354,-0.010158,-0.002422,0.359619,-0.061768,-0.623535
0.041114,-1.080926,9.782967,0.004766,0.005406,0.001026,-0.12793,0.401367,-0.560303,-0.278132,3.21862,9.275748,-0.009864,0.014398,0.009824,-0.817871,0.098633,-0.172852,-0.591258,3.533573,9.160644,-0.010352,0.011978,0.0018,0.115967,0.429443,0.861328,-0.201624,3.196363,9.314341,-0.001562,0.006962,0.01139,0.520264,-0.202881,-0.277588,-0.827808,2.436602,9.47776,0.005513,0.011471,-0.006346,0.355469,-0.060791,-0.630615
0.05004,-1.071717,9.778839,-0.004403,-0.00101,-0.000692,-0.116943,0.400635,-0.561523,-0.275418,3.237079,9.257749,-0.0046,0.00207,0.004496,-0.819824,0.092773,-0.180664,-0.633991,3.531279,9.193264,0.005278,0.000839,-0.000656,0.109131,0.428223,0.85791,-0.206779,3.21367,9.318572,-0.008367,-0.001135,0.008021,0.533203,-0.205566,-0.279541,-0.813809,2.435466,9.477796,-0.006826,-0.014697,0.000992,0.36792,-0.059814,-0.631348
0.060913,-1.102358,9.782699,0.001321,0.001103,-0.001567,-0.12085,0.398438,-0.560791,-0.247909,3.237156,9.266515,-0.011209,0.00786,0.009886,-0.818359,0.097168,-0.179443,-0.56581,3.554602,9.158534,-0.01182,0.002041,0.002723,0.099121,0.432617,0.865967,-0.166407,3.202531,9.319802,-0.004122,-0.003498,0.011112,0.529297,-0.206299,-0.280273,-0.785972,2.418996,9.464491,0.002917,0.002946,-0.005197,0.361816,-0.059082,-0.63208
0.039489,-1.072095,9.800638,0.004789,0.004366,0.000377,-0.130859,0.400146,-0.554199,-0.275609,3.232351,9.290109,-0.012132,0.005038,0.005775,-0.817871,0.09668,-0.168945,-0.648709,3.512038,9.173773,-0.008575,0.011515,0.00288,0.100342,0.427979,0.85498,-0.183545,3.191509,9.341915,-0.009521,0.007965,0.008657,0.518311,-0.203369,-0.275635,-0.826224,2.439158,9.461122,0.00481,-0.004908,-0.002877,0.352051,-0.056641,-0.626465
0.038198,-1.057991,9.761608,-0.002272,0.004928,-0.003349,-0.130127,0.39917,-0.563965,-0.263543,3.221859,9.213118,-0.010707,0.008417,0.010039,-0.824219,0.095215,-0.171387,-0.599911,3.552712,9.156457,0.008307,-0.005187,0.001323,0.101562,0.433105,0.858887,-0.204082,3.178494,9.321505,-0.003346,0.006525,0.01001,0.518311,-0.207031,-0.284912,-0.799642,2.420331,9.464435,-0.007936,0.002529,-0.002418,0.351318,-0.05835,-0.63501
0.038027,-1.0714,9.778845,0.002214,-0.00033,0.000536,-0.130371,0.404785,-0.561768,-0.268023,3.249383,9.254077,0.000883,0.005547,0.00571,-0.818604,0.09375,-0.171143,-0.595387,3.569648,9.172367,-0.012252,0.008442,0.002286,0.106201,0.42627,0.859375,-0.198813,3.188337,9.329815,0.001662,-0.004052,0.009422,0.516602,-0.205078,-0.285156,-0.834876,2.422251,9.492997,0.006488,0.00276,-0.005257,0.354004,-0.056885,-0.633545
0.07703,-1.066358,9.809779,-0.003938,-0.002664,0.000129,-0.124756,0.396973,-0.560791,-0.241956,3.248057,9.303359,-0.02302,0.002988,0.005888,-0.818848,0.090332,-0.178711,-0.630586,3.514388,9.180543,-0.015285,0.005117,0.001329,0.10376,0.429932,0.862305,-0.172825,3.225632,9.327172,-0.013696,-0.002959,0.01039,0.52124,-0.20874,-0.278564,-0.803645,2.457293,9.469403,0.005503,-0.016705,-0.004118,0.358643,-0.061768,-0.633057
0.05808,-1.097914,9.791552,-0.001018,0.008521,-0.00194,-0.126221,0.40332,-0.556885,-0.268333,3.164405,9.233961,-0.016765,0.013592,0.011249,-0.820312,0.091797,-0.173584,-0.612822,3.523285,9.170196,0.004424,0.004976,0.000989,0.098633,0.432129,0.868896,-0.18772,3.171076,9.306782,-0.012705,0.009689,0.010553,0.521973,-0.202881,-0.278809,-0.810709,2.443414,9.42766,-0.007853,0.007311,-0.003057,0.357178,-0.056885,-0.628174
-0.002951,-1.062359,9.708871,0.01183,0.006526,0.000832,-0.130371,0.399414,-0.554688,-0.301324,3.270264,9.248478,0.020894,0.005251,0.005816,-0.814941,0.088379,-0.173584,-0.610269,3.559955,9.172422,0.010471,0.000899,0.000929,0.100342,0.43042,0.860107,-0.22646,3.177335,9.319931,0.002402,0.008454,0.01032,0.518555,-0.205566,-0.275635,-0.849582,2.398837,9.432962,-0.008242,0.003774,-0.001559,0.351074,-0.056885,-0.626465
0.074337,-1.042453,9.810401,-0.000685,-0.011924,0.000928,-0.130859,0.399658,-0.562012,-0.254036,3.321441,9.284463,-0.025834,0.000207,0.007507,-0.824707,0.092529,-0.177979,-0.559639,3.582394,9.168249,-0.016198,0.002816,0.001604,0.100586,0.418945,0.866943,-0.198522,3.208219,9.314401,0.009697,-0.010039,0.008169,0.516846,-0.205078,-0.282227,-0.813919,2.416944,9.497781,0.023991,-0.003477,-0.004735,0.353027,-0.05957,-0.631836
0.095288,-1.082855,9.862171,-0.006782,0.008913,-0.001635,-0.129395,0.390137,-0.557617,-0.223128,3.149929,9.250067,-0.041648,0.010938,0.008917,-0.82373,0.093262,-0.177979,-0.656069,3.507639,9.160343,-0.027216,0.014354,0.002286,0.108398,0.431885,0.865967,-0.131164,3.234292,9.32568,-0.013166,-0.003351,0.010311,0.518555,-0.217041,-0.273682,-0.806445,2.520054,9.4772,0.008635,-0.00713,-0.005641,0.354248,-0.071289,-0.625977
0.01565,-1.070571,9.713236,0.002058,0.009686,-0.001736,-0.121582,0.403076,-0.558594,-0.289093,3.183568,9.253302,0.031618,0.010038,0.008488,-0.818115,0.093262,-0.178467,-0.624313,3.505446,9.163864,0.011524,-0.008969,0.00031,0.106201,0.436768,0.86084,-0.214108,3.186344,9.322452,-0.032209,0.023102,0.010559,0.525635,-0.203613,-0.273682,-0.770415,2.416537,9.424249,-0.043344,-0.004057,0.00416,0.361328,-0.058105,-0.627441
0.015042,-1.06194,9.730879,-0.00029,-0.008144,-0.001254,-0.124756,0.408447,-0.561768,-0.273745,3.364991,9.26249,0.004956,0.001344,0.003816,-0.810791,0.091797,-0.173584,-0.541409,3.570998,9.171746,0.012968,0.007784,-0.0008,0.107666,0.429932,0.866211,-0.246006,3.141322,9.333782,0.003908,-0.00268,0.007959,0.522461,-0.196289,-0.277832,-0.826042,2.318949,9.456628,0.01175,0.012806,-0.005181,0.358643,-0.05249,-0.62915
0.124231,-1.103708,9.862033,0.00224,-0.001999,0.000915,-0.123291,0.398193,-0.558838,-0.236025,3.21346,9.271126,-0.067342,0.006194,0.011531,-0.81958,0.086426,-0.171875,-0.653417,3.579352,9.165272,-0.005833,0.019576,-0.001749,0.108887,0.428467,0.865479,-0.156666,3.215006,9.313566,0.029115,-0.016821,0.010406,0.525635,-0.207031,-0.277344,-0.83654,2.492426,9.50751,0.048006,-0.008979,-0.010753,0.36084,-0.063232,-0.627197
0.033191,-1.055314,9.78379,0.016053,0.018589,-9.8e-05,-0.121094,0.4021,-0.557129,-0.289763,3.117087,9.193642,0.015398,0.010458,0.007702,-0.816406,0.097412,-0.179932,-0.631827,3.536667,9.178332,-0.031519,-0.013302,0.005772,0.092041,0.432129,0.858887,-0.176482,3.295288,9.357265,-0.011064,0.021594,0.013038,0.526123,-0.20459,-0.2771,-0.804066,2.547372,9.463624,-0.028293,-0.006057,0.000217,0.361328,-0.060791,-0.628906
-0.008126,-1.024043,9.714217,-0.008328,-0.004506,-0.000377,-0.139893,0.403809,-0.564941,-0.281649,3.356965,9.283838,0.033803,0.003568,0.004819,-0.825195,0.093018,-0.168945,-0.548723,3.483745,9.124938,-0.003088,-0.000199,0.003465,0.102295,0.430908,0.861816,-0.261466,3.173537,9.349247,-0.054318,0.007849,0.007685,0.507568,-0.202881,-0.284424,-0.825681,2.3146,9.433161,-0.046996,0.005427,0.003751,0.344971,-0.054932,-0.635986
0.103423,-1.126059,9.86153,-0.016198,-0.008781,-0.003015,-0.126221,0.400391,-0.560059,-0.243578,3.287301,9.27368,-0.067625,0.001834,0.009646,-0.8125,0.102051,-0.177246,-0.613975,3.558472,9.171695,0.022679,0.022738,-0.008277,0.101318,0.426514,0.860596,-0.163494,3.097394,9.277523,0.01354,-0.021825,0.008475,0.520752,-0.207031,-0.278564,-0.836252,2.368328,9.463328,0.055853,-0.004492,-0.010727,0.356201,-0.059326,-0.630127
0.062653,-1.104601,9.817954,0.018682,0.019316,0.001533,-0.127686,0.395752,-0.562256,-0.25274,3.083294,9.206407,-0.009096,0.01435,0.008194,-0.814697,0.094482,-0.180664,-0.65208,3.578741,9.179112,-0.010837,-0.004704,0.00653,0.106445,0.434326,0.858643,-0.141288,3.265103,9.322884,0.040835,0.01368,0.013345,0.518799,-0.211914,-0.280762,-0.795132,2.564329,9.488597,0.02052,-0.00886,-0.007298,0.356201,-0.062744,-0.631836
-0.010038,-1.019373,9.701198,0.004001,-0.000881,-0.000208,-0.124512,0.404541,-0.563477,-0.290447,3.299038,9.283356,0.043902,0.003413,0.004279,-0.821045,0.095215,-0.168457,-0.572222,3.825226,9.074154,-0.018028,0.035872,-0.013994,0.10376,0.439209,0.861328,-0.245309,3.271989,9.350189,-0.043733,0.016482,0.006953,0.524902,-0.203613,-0.281982,-0.777231,2.409905,9.559751,-0.06908,0.010789,0.006503,0.361816,-0.055908,-0.632812
0.011478,-1.090215,9.756854,-0.010177,0.002528,-0.005531,-0.126709,0.408447,-0.563721,-0.313816,3.306295,9.287697,-0.053006,0.013226,0.011428,-0.810547,0.097412,-0.172363,-0.723851,3.815777,9.192534,-0.242825,-0.014261,-0.004112,0.10083,0.424561,0.862793,-0.414963,3.543152,9.589635,0.004994,0.019665,0.0271,0.52002,-0.199219,-0.282227,-1.677417,2.243942,10.07772,0.047536,0.017931,-0.075888,0.356445,-0.049805,-0.63208
0.122286,-1.089227,9.779316,-0.011328,-0.030679,-0.009517,-0.12915,0.397217,-0.560303,-0.266267,3.132862,9.268776,-0.038656,-0.006675,0.015035,-0.822754,0.097656,-0.176758,-0.531957,2.992576,9.546868,-0.375697,-0.049794,0.061975,0.099854,0.427002,0.860107,-0.092854,3.584649,8.942218,-0.237687,-0.203209,0.037808,0.515869,-0.20459,-0.281982,-0.433759,3.304023,9.213837,0.008258,-0.471055,0.025418,0.347168,-0.060303,-0.631592
0.038722,-1.174075,9.873521,0.03598,0.015628,0.004725,-0.12915,0.410645,-0.562988,-0.122625,3.258276,9.090156,0.082626,0.040566,0.00706,-0.814697,0.0896,-0.177734,-0.458919,2.514438,8.842621,0.179103,-0.000912,-0.016625,0.103027,0.427002,0.856445,0.247872,2.354013,9.699668,-0.497035,0.138043,-0.032893,0.515625,-0.188477,-0.282715,0.343477,1.698238,8.716942,-0.448979,0.135884,0.019109,0.348145,-0.042236,-0.633545
0.154981,-0.959907,9.865831,0.032978,0.009014,0.007529,-0.128174,0.40625,-0.570068,-0.390779,3.373712,9.382473,-0.076416,-0.022867,0.004175,-0.826904,0.091309,-0.171143,-0.614487,3.597748,9.260107,0.482812,0.111216,-0.049833,0.102295,0.435547,0.869629,-0.491133,2.062607,8.836097,0.356272,0.06859,0.048087,0.520996,-0.19751,-0.289551,-1.371749,1.866071,9.20567,0.269645,0.209699,0.042105,0.354004,-0.051758,-0.638184
-0.041045,-0.994712,9.758949,-0.022744,0.014555,-0.010149,-0.128662,0.404541,-0.551514,-0.110819,3.059173,9.193152,-0.037508,0.021256,0.005089,-0.812744,0.098145,-0.172852,-0.772259,4.343574,9.168961,0.176548,-0.030754,-0.005334,0.100342,0.437012,0.85791,-0.195927,3.49769,9.682511,0.469534,-0.118005,-0.021281,0.52124,-0.202393,-0.270996,-0.156545,2.149741,9.489178,0.124061,-0.159867,-0.087218,0.351318,-0.054199,-0.621826
0.06792,-1.046782,9.727655,-0.047706,-0.011134,0.010962,-0.129639,0.404297,-0.562988,-0.478998,3.25368,9.254251,0.074744,-0.005164,-0.000301,-0.810791,0.092041,-0.168457,-0.559818,4.094601,9.232682,-0.314078,0.001236,0.028556,0.099121,0.430908,0.858398,0.029979,4.096717,9.200572,0.120891,0.056542,0.013115,0.519287,-0.203369,-0.281982,-1.312778,3.224888,9.912424,0.32172,0.476074,-0.003291,0.355713,-0.060059,-0.632812
-0.023966,-1.169613,9.518462,-0.03063,0.014248,-0.018101,-0.129395,0.404541,-0.561768,-0.083528,3.401579,9.301838,-0.028355,0.004474,0.01144,-0.82251,0.085449,-0.170166,-0.77196,3.216041,9.100871,-0.285804,-0.008203,0.017586,0.09668,0.422607,0.869385,-0.497649,3.601834,9.416733,-0.37841,0.077453,0.023654,0.518311,-0.202637,-0.281006,-1.69599,3.093165,10.191425,-0.312506,-0.402293,0.011293,0.351074,-0.054688,-0.634033
-0.278343,-1.206264,9.397537,0.007013,-0.073173,0.004669,-0.135498,0.402832,-0.555664,-0.530869,3.145618,9.228953,-0.085849,0.051308,0.014348,-0.814209,0.094971,-0.183838,-0.477249,2.977219,9.280867,-0.126816,-0.052549,0.001264,0.106201,0.421143,0.86499,-0.29917,2.95717,9.261938,-0.170813,-0.104092,-0.003338,0.512695,-0.203857,-0.275879,-0.072569,2.018601,9.289758,-0.195765,-0.020384,0.069216,0.342285,-0.057373,-0.626953
0.279324,-1.360307,9.351727,0.103718,-0.124867,-0.012959,-0.128418,0.400146,-0.559082,-0.066192,3.169813,9.276431,0.040747,-0.045618,0.015501,-0.81958,0.092529,-0.177246,-0.452903,3.231143,9.03722,0.206275,0.059014,-0.005909,0.099609,0.426758,0.868408,0.064788,2.659166,9.33345,-0.168181,-0.039175,0.04007,0.523682,-0.200195,-0.280273,-0.95058,1.872526,9.025675,-0.013237,-0.067628,-0.016801,0.353271,-0.054443,-0.628906
0.085236,-1.361262,10.814275,0.235255,-0.152732,0.012813,-0.137451,0.398438,-0.554688,-0.285311,3.2279,9.274475,-0.010162,0.069806,0.007632,-0.817627,0.093994,-0.172607,-0.690157,4.036281,9.333125,0.083787,0.027173,-0.059208,0.105713,0.428467,0.872314,-0.085178,2.880651,9.242213,0.205647,0.060302,-0.015332,0.516113,-0.202881,-0.277588,-0.365168,2.499007,9.439387,0.266498,-0.017757,-0.009273,0.349365,-0.056641,-0.624512
1.336598,-0.8258,11.196511,0.420264,0.161094,0.020047,-0.124756,0.390381,-0.556641,-0.261621,3.288717,9.182316,-0.000613,-0.057895,0.023954,-0.819336,0.100098,-0.173096,-0.444652,3.785721,9.281239,-0.319343,-0.042386,0.089248,0.110107,0.41626,0.862549,-0.351448,3.693224,9.505555,0.096391,-0.045434,0.064819,0.525146,-0.200684,-0.274414,-1.102795,3.261644,9.95396,-0.012017,0.040969,0.03092,0.35791,-0.057861,-0.623535
-0.303705,0.847907,9.676704,-0.105652,0.324329,0.030463,-0.12207,0.387207,-0.564453,-0.13762,3.282238,9.391432,-0.005019,0.03982,-0.028644,-0.822266,0.088867,-0.173828,-0.76428,3.00214,9.026851,-0.291679,0.069275,-0.030715,0.104004,0.418945,0.874023,0.144346,3.594693,9.423037,-0.306639,-0.043225,-0.032979,0.523438,-0.204834,-0.281006,-0.836911,2.51757,9.453542,-0.32795,-0.175903,0.089678,0.352783,-0.058838,-0.631592
-0.576302,-0.091193,9.855235,-0.920101,-0.024032,-0.014104,-0.123535,0.408447,-0.550293,-0.439028,3.312629,9.073498,-0.042903,0.009247,0.010358,-0.825684,0.089111,-0.172363,-0.880441,3.047666,9.326391,0.104559,-0.034607,0.014046,0.103027,0.422363,0.873779,-0.256139,2.583579,9.366891,-0.390668,0.136403,0.060079,0.518799,-0.195557,-0.271729,-0.441307,2.205079,9.478909,0.13119,-0.068282,0.100029,0.349121,-0.053223,-0.624268
0.504004,-1.778741,10.202553,-0.567214,0.32027,-0.137798,-0.121582,0.421631,-0.553223,-0.443606,2.908383,9.313733,-0.026157,-0.011888,0.033182,-0.815186,0.098389,-0.175049,-0.263406,3.948118,9.214887,0.051308,-0.018695,-0.028702,0.106934,0.410645,0.870361,-0.859111,2.527747,9.11084,0.181231,-0.069502,-0.004937,0.520996,-0.195557,-0.277588,-1.092098,4.466066,9.201742,0.691593,-0.032432,0.429723,0.346191,-0.068359,-0.624268
-0.28845,-0.582256,10.200248,-0.177819,0.241019,-0.223702,-0.114746,0.411865,-0.554199,-0.090034,3.507043,9.148454,0.159491,-0.019745,-0.03967,-0.812256,0.092529,-0.173828,-0.791672,3.504017,9.353483,-0.374327,0.110127,0.021381,0.103271,0.40918,0.871338,0.433558,3.797309,9.569614,0.139057,-0.287744,0.04896,0.520752,-0.206543,-0.278076,0.00291,5.031781,9.246063,-0.521507,-0.218104,0.860539,0.344482,-0.074951,-0.627686
0.394602,-4.950485,10.064924,0.801211,0.505655,-0.367401,-0.109375,0.398438,-0.56543,-0.319741,3.784505,9.230744,-0.075556,0.050658,0.01309,-0.82251,0.091064,-0.178711,-0.743374,2.613516,9.195413,-0.133069,-0.148021,0.042014,0.10791,0.408936,0.866211,0.353933,3.149755,9.313562,-0.520823,0.287879,-0.023105,0.519775,-0.200684,-0.276367,-0.101292,0.288363,9.330551,-1.567012,0.438817,0.967537,0.3479,-0.053711,-0.625732
-0.099854,-2.162488,11.345643,2.549593,0.608994,-0.028487,-0.098389,0.360596,-0.587158,-0.424206,3.250094,9.208738,-0.088582,-0.072791,-0.091224,-0.824219,0.094971,-0.174316,-0.362987,3.028455,9.044424,0.277332,0.065322,-0.066394,0.097168,0.419434,0.86084,-1.049216,2.051589,9.427535,-0.15409,0.124339,0.043468,0.522949,-0.192139,-0.28418,-2.145485,-2.260569,9.143335,0.521467,0.016372,0.127974,0.35083,-0.058594,-0.632812
0.543247,-0.960793,10.731149,1.905105,0.945501,-0.129874,-0.09082,0.324463,-0.604248,-0.238719,3.282925,8.98246,-0.020101,-0.041318,-0.039371,-0.820557,0.092529,-0.176514,-0.416747,4.185145,9.338872,0.138179,0.088022,-0.018142,0.094238,0.419922,0.867188,-0.192718,2.586343,9.138153,0.423707,-0.390143,-0.000911,0.510498,-0.193604,-0.288086,0.187891,4.762078,9.826018,2.009792,-0.387655,0.212638,0.335205,-0.0896,-0.634277
-0.254512,-1.345073,9.997488,3.367161,1.05281,0.054523,-0.072266,0.264648,-0.611572,-0.065322,3.024153,9.480324,-0.020949,-0.070099,-0.081478,-0.825684,0.092529,-0.17041,-1.119595,4.100946,9.363334,-0.386459,0.054194,-0.001247,0.101074,0.41333,0.865479,0.887618,4.335787,9.383376,0.236394,0.048446,0.027953,0.513916,-0.196289,-0.280029,-0.151007,6.388057,10.265472,-1.053148,0.250446,0.556944,0.339844,-0.076416,-0.628174
-1.217613,7.660535,11.090191,2.104613,1.276449,-0.324592,-0.043213,0.222412,-0.624023,-0.335588,3.219975,9.384571,-0.087186,0.043892,-0.025421,-0.818604,0.092285,-0.177246,-0.544348,2.753469,9.496688,-0.62653,-0.225686,0.069703,0.106201,0.405273,0.866699,-0.760646,3.877036,9.814952,-0.733427,0.309443,0.037643,0.520996,-0.19043,-0.283936,-1.500383,0.130525,8.904475,-1.506553,-0.019589,0.669957,0.343018,-0.057861,-0.631592
-1.060244,4.226496,10.878043,-0.988636,0.963198,-0.507683,-0.022461,0.241943,-0.627197,-0.181678,2.587902,9.426285,-0.040738,-0.068002,0.052003,-0.815186,0.092773,-0.179688,-0.490862,1.54205,9.023569,0.092628,0.074268,0.047858,0.0979,0.407715,0.868896,-0.428407,1.47695,9.36041,-0.690723,-0.25468,-0.08635,0.518311,-0.180176,-0.286377,0.280301,0.004675,8.548311,0.935619,-0.374995,0.442971,0.336914,-0.070557,-0.633545
-0.31102,1.674565,10.919977,-1.986103,1.388872,-0.140855,-0.009521,0.278076,-0.627686,-0.492666,3.49226,8.471527,0.242079,0.102549,-0.041606,-0.817627,0.085938,-0.17334,-0.288176,3.400709,8.901576,0.842454,-0.010685,-0.101641,0.097656,0.421143,0.868164,0.441723,1.43837,9.197303,0.590251,0.059514,0.050214,0.514648,-0.183838,-0.285889,-0.047264,4.721369,10.073249,0.720498,0.385303,0.386915,0.339111,-0.083252,-0.628174
-1.636625,-1.828357,10.252063,-2.295997,1.443635,0.061033,0.016846,0.317139,-0.622803,-0.122078,4.806611,9.80739,0.13835,-0.308446,-0.167519,-0.821289,0.088379,-0.177979,-1.013711,6.012313,9.775482,0.223789,0.244147,-0.081879,0.091553,0.423828,0.868164,-0.355228,4.307062,9.472579,0.755103,0.010762,0.048658,0.512695,-0.196533,-0.276367,-0.92514,3.496269,9.941927,-0.837775,-0.043413,0.796111,0.334717,-0.080078,-0.624512
-1.454558,-5.529643,8.955037,-0.552092,1.657966,0.095992,0.045166,0.32251,-0.626709,0.183699,2.23897,9.569337,-1.025989,0.182483,0.134744,-0.821289,0.100586,-0.173584,-1.196419,4.16365,9.420734,-1.165415,-0.325159,0.142491,0.098389,0.407715,0.861084,-0.209475,4.861951,9.849192,-0.538081,-0.014414,-0.048209,0.511719,-0.19458,-0.280029,-0.472288,1.154316,9.014074,-0.21652,0.05944,0.564666,0.33252,-0.083984,-0.625244
-2.18746,-2.221391,8.248296,1.884078,1.542528,-0.051001,0.074463,0.289551,-0.638672,-0.683033,1.068107,8.868228,0.550462,-0.060129,-0.025127,-0.817627,0.097168,-0.166504,-0.110347,1.92827,9.193844,-0.550922,-0.232543,0.062029,0.109131,0.39624,0.858643,-0.021485,2.321039,9.678209,-0.910737,0.074648,-0.060323,0.507812,-0.176758,-0.281738,-0.71313,3.196972,10.092044,0.43341,-0.140929,0.71565,0.331299,-0.090576,-0.626709
-2.853986,0.873237,10.757964,2.177848,1.774209,-0.082587,0.11084,0.248291,-0.643799,0.419649,5.040738,9.368629,0.679021,0.146722,0.282726,-0.821289,0.093506,-0.180908,-0.794201,3.039767,9.574522,-0.130445,0.096118,-0.194893,0.095459,0.390869,0.850342,-0.173439,2.185147,9.316498,0.214867,0.050198,-0.034825,0.518066,-0.179688,-0.279541,-0.086577,4.206003,9.900109,-0.474569,-0.014696,0.728978,0.335693,-0.08667,-0.624512
-2.664178,2.895365,11.124555,1.437169,1.792743,-0.075039,0.136475,0.208984,-0.647461,-1.315519,4.865117,9.036401,-0.585372,0.012052,-0.106549,-0.817383,0.091309,-0.180176,-0.99512,3.539142,9.388817,-0.611033,-0.329824,0.175698,0.104736,0.379395,0.845947,-0.221984,4.489426,9.952199,-0.292668,0.088837,0.010696,0.508545,-0.181396,-0.284424,-0.949076,2.373151,9.396173,-1.068942,-0.025645,0.950124,0.326172,-0.080811,-0.62793
-3.38676,1.983976,8.489529,0.697292,2.09432,-0.246712,0.173096,0.196533,-0.647217,0.137151,1.877237,9.207603,-0.657925,-0.164261,0.114371,-0.812256,0.096924,-0.180908,0.087869,3.209852,9.509956,-0.755691,-0.197977,-0.086807,0.106934,0.366699,0.84668,-0.290448,2.789352,9.721798,-1.43533,0.187341,-0.064141,0.506348,-0.166016,-0.286133,-0.193371,1.296906,9.226699,-0.460257,-0.262802,0.870904,0.323242,-0.078369,-0.628418
-3.258643,1.744882,8.771047,0.91141,2.028301,-0.039217,0.21167,0.178223,-0.640869,-0.301087,2.10877,8.318439,0.619869,0.096341,-0.105515,-0.816162,0.098145,-0.18335,-1.078882,1.858376,9.738742,-0.725479,-0.043747,0.139302,0.114746,0.356934,0.837891,-0.380754,1.000004,9.155105,-0.555772,0.110246,-0.029005,0.508545,-0.157227,-0.279541,0.187933,2.17584,9.820933,-0.390014,0.013339,0.906559,0.325928,-0.072754,-0.624268
-4.424829,1.419879,7.804946,0.723335,2.012894,-0.38462,0.248779,0.166016,-0.63916,-0.347298,5.319846,10.694545,0.157113,-0.135369,0.151513,-0.827148,0.106934,-0.174805,-0.443727,2.044557,9.161067,-0.16788,-0.34738,-0.108577,0.103027,0.349609,0.837158,-0.464261,2.285026,9.839349,-0.010006,0.095154,-0.008783,0.513916,-0.154053,-0.282959,-0.416795,1.564096,10.066721,-0.776633,-0.041935,0.868627,0.329346,-0.064697,-0.628418
-5.067788,1.905737,7.488859,1.006366,2.073887,-0.240215,0.274658,0.138916,-0.626465,-0.245437,2.32508,8.590647,-1.056194,0.10843,0.034245,-0.822266,0.115723,-0.185059,-0.083712,2.719291,9.826712,-0.169296,-0.174939,0.070425,0.10791,0.351807,0.82373,-0.683471,2.799554,10.350071,-0.528724,0.113436,-0.04806,0.500732,-0.152588,-0.275879,0.054036,0.739201,9.77006,-0.284632,-0.010026,0.956788,0.318604,-0.070557,-0.619385
-5.075288,2.19561,7.455382,0.494562,1.912213,-0.460042,0.310059,0.134521,-0.621826,-0.458185,1.771393,9.263222,0.645831,-0.124919,0.092945,-0.825684,0.106689,-0.18457,-0.42367,2.201894,9.952879,-0.307367,-0.250871,0.022267,0.10498,0.34082,0.81958,-0.3116,1.555311,9.934746,-0.623728,-0.09477,-0.055103,0.502686,-0.137451,-0.281738,-0.046872,1.568457,10.292209,-0.089587,-0.024534,0.814911,0.321289,-0.06958,-0.623291
-5.804369,0.772325,6.841828,0.986702,1.648399,-0.416028,0.330078,0.115234,-0.607666,0.747295,4.71951,9.674611,0.045853,0.154106,-0.022512,-0.818115,0.105469,-0.18457,0.951007,1.926737,8.933106,-0.244919,-0.425841,0.094617,0.111816,0.335205,0.809814,-0.052482,1.227381,9.621948,0.101432,0.05019,-0.003612,0.494141,-0.143555,-0.272217,0.343122,1.224318,10.28734,-0.250567,0.101347,0.83516,0.318604,-0.070557,-0.614258
-4.844099,4.486535,7.703884,1.000392,2.089573,-0.606423,0.36792,0.099609,-0.59668,-0.302446,2.668629,9.477546,-0.615761,-0.103107,0.164528,-0.814941,0.112549,-0.176514,-0.339006,2.171521,9.8525,0.070304,0.174999,0.03152,0.106201,0.342773,0.799316,0.051493,2.775631,9.903354,0.274533,-0.174486,0.036318,0.488037,-0.143799,-0.2771,0.010298,1.225361,10.636042,0.044483,-0.066092,0.627478,0.317383,-0.078125,-0.613525
-7.658774,3.538195,6.859635,-0.399379,1.412733,-0.655749,0.384766,0.118164,-0.595947,0.18303,1.957067,9.092699,0.257506,0.169779,-0.137568,-0.819824,0.117432,-0.198486,-1.212925,2.821603,10.176164,-0.142194,-0.437113,0.054686,0.110596,0.324951,0.79126,-0.20589,3.118963,10.578249,-0.438264,0.096366,0.053569,0.482178,-0.130859,-0.281494,-0.091795,1.894064,11.019059,-0.063892,-0.031626,0.492499,0.312744,-0.070557,-0.616455
-6.606613,2.873696,6.937134,-0.744505,2.01278,-0.550288,0.411865,0.119873,-0.57666,-0.876775,3.866262,9.76118,0.49519,-0.013666,-0.041669,-0.824707,0.10791,-0.192139,0.973424,2.757135,9.163469,-0.406268,-0.432961,0.265495,0.111572,0.328613,0.781006,-1.389165,1.586237,9.896268,-0.672948,-0.054837,0.068453,0.473877,-0.133545,-0.278809,-0.528905,1.632901,10.747902,-0.183598,-0.198842,0.598166,0.303711,-0.079834,-0.609619
-8.662701,0.006023,5.566044,-0.8363,1.212153,-0.72727,0.425049,0.149902,-0.570068,0.79255,4.553135,10.385412,-0.142408,0.18467,-0.196592,-0.819824,0.105225,-0.194336,-0.197456,2.263554,9.226099,-0.433494,-0.178092,0.03101,0.124023,0.314209,0.776855,-0.124238,1.586252,9.804222,0.179998,-0.586191,0.059471,0.459717,-0.122803,-0.281982,0.03417,1.223442,9.743675,-0.298894,-0.293124,0.46552,0.29541,-0.061768,-0.609375
-8.541352,0.850682,6.119875,-0.046154,1.76504,-0.368973,0.457275,0.145264,-0.553955,0.134696,2.567795,10.278995,-0.275561,0.32217,-0.099177,-0.814941,0.101807,-0.191406,0.668584,1.439009,10.279641,-0.376845,-0.827798,0.458628,0.13501,0.313477,0.751465,1.39842,3.906199,10.303474,0.120971,-0.158275,0.14063,0.46167,-0.129395,-0.277588,0.575633,0.518911,10.311336,-0.431825,-0.300527,0.02089,0.297119,-0.062988,-0.603027
-8.752885,-0.678415,5.443751,0.36949,0.655819,-0.540108,0.463623,0.149658,-0.552734,0.272522,2.77663,9.938386,0.448259,0.62568,-0.207328,-0.803955,0.098145,-0.205566,0.227398,1.711733,10.073505,0.071227,0.370216,0.032517,0.135254,0.316406,0.74707,-0.687578,2.419123,10.022241,-1.040478,0.319101,0.171672,0.44873,-0.112793,-0.283691,-0.104611,0.60084,10.110174,0.368568,-0.055546,-0.24494,0.291016,-0.059082,-0.611816
-8.445125,1.310721,4.561113,1.234036,1.11837,-0.259356,0.489502,0.133789,-0.534424,-2.325998,3.704048,9.38929,0.191358,0.510539,-0.040399,-0.792725,0.100098,-0.219238,-0.612694,2.877458,10.638897,0.595346,-0.416227,0.147721,0.129639,0.323242,0.726807,-1.68593,0.482545,9.588715,-0.391516,-0.320855,0.253803,0.445312,-0.106445,-0.282959,-1.095542,3.270616,12.060531,0.254756,-0.474517,-0.252971,0.285156,-0.055908,-0.605469
-7.860574,3.534441,3.878029,-0.304112,0.659299,-0.454473,0.489258,0.145264,-0.5271,-1.455689,4.439963,10.563159,0.369236,0.299091,-0.073643,-0.776123,0.092773,-0.22583,0.584215,5.350802,9.69346,0.463483,0.609913,-0.31049,0.111816,0.327881,0.700928,-0.649495,0.165084,8.381817,-0.072666,-0.610451,0.180949,0.425537,-0.101074,-0.28418,1.700512,-0.357766,9.764638,-1.261768,-0.643765,0.155894,0.263916,-0.032715,-0.602539
-9.502982,0.82329,4.738939,-1.081577,1.141204,-0.536194,0.509277,0.160645,-0.518799,-2.428284,5.339103,9.080733,0.175867,0.021732,0.331308,-0.76123,0.092285,-0.230225,-2.168346,3.063085,9.445249,-1.581068,0.106658,-0.103263,0.094971,0.310791,0.684326,-0.844414,1.540879,10.631989,0.799209,-0.412541,-0.023892,0.425049,-0.111816,-0.2854,-0.433387,-2.571184,8.883904,0.811184,-0.011812,0.137462,0.264648,-0.050293,-0.600098
-8.729981,-1.517528,3.02968,-0.240706,0.466749,-0.309232,0.512695,0.173096,-0.510742,0.538675,4.825807,8.259452,-0.359166,0.170154,0.018743,-0.739014,0.095215,-0.249512,0.73598,-1.888914,8.504201,-1.174445,-0.750259,0.163873,0.093506,0.290771,0.679443,-0.286005,2.761159,9.441517,-0.419592,-0.657752,-0.076196,0.406738,-0.093994,-0.288818,0.371234,3.100989,10.860554,1.395472,-0.906402,-0.084248,0.242188,-0.061035,-0.602051
-8.757059,-0.511657,3.039825,1.256909,0.792996,0.268669,0.524658,0.147949,-0.490479,-2.994045,4.280475,8.443075,0.222793,0.454437,-0.223103,-0.7229,0.098877,-0.269775,1.460705,-0.026598,9.229006,1.330736,0.84825,-0.681073,0.075928,0.311035,0.651611,-0.326208,-0.450593,9.355343,-1.164505,-0.418808,-0.140672,0.398926,-0.084473,-0.282715,1.450904,3.164561,10.698131,-0.869363,-0.319166,0.78396,0.229492,-0.05249,-0.591064
-7.536491,2.845632,3.734045,1.250443,0.624505,0.42847,0.542725,0.126709,-0.494141,0.101973,4.745841,8.779554,-0.249486,-0.220304,-0.496932,-0.705811,0.095947,-0.271484,-1.066185,3.88816,11.057914,0.678788,0.296321,-0.250317,0.049316,0.32373,0.646973,-0.238032,-0.742883,9.453429,0.5844,-0.883605,-0.055476,0.398682,-0.089111,-0.295898,-0.146188,-1.425733,9.683363,-0.678457,-0.585658,0.562956,0.22168,-0.041992,-0.604004
-8.730049,2.101088,4.274965,0.532949,0.688623,0.350724,0.542725,0.118164,-0.480469,-1.190345,2.419241,9.630598,-0.474671,0.22746,-0.377082,-0.687988,0.092285,-0.29126,1.437979,1.512806,9.817952,-1.179868,-0.38386,0.089105,0.054932,0.312256,0.633545,1.633199,2.253185,9.727665,0.799169,-1.118308,-0.106648,0.374268,-0.091553,-0.292969,2.327611,-0.954552,9.167612,1.272566,-0.938481,0.451861,0.188721,-0.060059,-0.596924
-9.139848,2.865619,5.47323,0.043023,0.565081,0.431253,0.562744,0.125977,-0.474365,0.255636,0.453645,9.694858,0.228799,-0.292132,-0.60988,-0.678223,0.079102,-0.298828,0.830775,-1.767152,10.680495,0.359315,0.434213,-0.035809,0.039551,0.306152,0.613525,2.085438,1.862409,10.887595,-0.274176,-0.525916,-0.007799,0.378418,-0.079102,-0.294189,2.08043,2.946606,10.165847,1.159895,-0.288302,0.150931,0.189697,-0.065918,-0.595703
-8.830114,-0.390616,4.09642,-0.593501,-0.093854,-0.028448,0.558838,0.135986,-0.471924,-0.163027,1.443554,10.858253,0.469602,0.467825,-0.424083,-0.664307,0.061523,-0.306152,-0.215325,3.40032,11.087457,2.043878,0.247355,-0.35269,0.025146,0.322754,0.574951,1.571754,0.576483,10.492494,0.626991,-0.69616,0.030947,0.364258,-0.085205,-0.29541,1.810978,2.553023,9.629702,0.211933,-0.532823,0.378964,0.173828,-0.069092,-0.594482
-8.287067,0.397496,4.54539,0.404608,0.210702,-0.566454,0.563232,0.132324,-0.474365,-1.53678,1.000402,10.424534,-0.428886,-0.087871,0.173859,-0.644043,0.067139,-0.314209,-0.905391,6.816082,11.685888,-0.318586,0.240134,-0.056776,0.018311,0.296143,0.545898,2.663246,4.255624,11.023719,0.980402,-0.611225,0.164223,0.348389,-0.095459,-0.304932,1.947779,2.464703,9.825972,0.182411,-0.431822,-0.205227,0.158691,-0.069336,-0.602295
-9.699757,2.079427,4.788241,-0.198605,-0.217949,-0.982125,0.566406,0.133301,-0.47168,-1.16558,1.902304,9.627241,0.614566,0.26232,0.329932,-0.627197,0.058838,-0.322266,-0.885931,2.145803,10.025321,-1.880332,-0.505733,0.113292,0.012451,0.268555,0.51709,0.932838,3.386784,11.108951,-1.515327,0.208683,0.026341,0.340088,-0.091064,-0.299561,2.130172,1.691251,9.812844,-0.4952,-0.320233,0.212491,0.151367,-0.07251,-0.598877
-10.849624,-0.102626,4.056134,-0.331052,0.067269,-0.771326,0.568604,0.155518,-0.464355,-1.777991,7.892974,9.99443,1.023698,-0.023373,0.316289,-0.610596,0.059082,-0.332031,1.070437,-1.008322,10.082834,-0.638082,-0.091811,-0.152262,0.010254,0.252197,0.48291,0.247302,-1.38129,9.626879,-0.949595,-0.5189,-0.192547,0.32373,-0.066895,-0.299805,1.629134,0.949658,9.596347,0.152496,-0.37136,0.287594,0.136963,-0.061035,-0.595215
-10.445673,-0.028191,3.703987,0.690404,-0.401283,-0.018683,0.573486,0.151611,-0.459961,-0.894217,8.398577,10.506738,-1.158571,0.184006,-0.15845,-0.589355,0.050049,-0.341064,-0.452513,0.349625,10.211257,0.829879,0.531805,-0.339425,-0.01123,0.24585,0.436768,2.317375,0.619427,9.882324,0.919511,-0.638277,0.013312,0.31543,-0.074219,-0.297119,2.24433,2.657753,10.042538,-0.027009,-0.366843,0.215617,0.130859,-0.056152,-0.591064
-9.716492,1.715286,4.328212,0.710525,-0.036642,0.425178,0.572998,0.139893,-0.465576,-2.537781,2.629794,8.595309,-0.764551,-0.043604,-0.368671,-0.567383,0.053223,-0.354736,-0.756292,3.504384,9.786465,0.616965,0.003162,-0.471499,-0.020996,0.235596,0.395264,1.391633,2.540075,10.518912,-0.406055,0.112999,-0.084885,0.299805,-0.071289,-0.304688,2.406841,0.460543,9.432956,-0.856592,-0.249575,0.649278,0.116455,-0.040527,-0.601074
-8.497447,0.808566,4.348325,0.808619,-0.14302,0.761041,0.576172,0.125,-0.456543,-0.214086,3.956564,8.974826,0.982314,-0.204175,-0.751486,-0.549316,0.030029,-0.346924,1.50069,2.097045,10.456192,-0.726013,-0.241399,-0.182441,-0.030518,0.207031,0.363525,0.624097,-0.869355,9.940124,-1.291002,-0.427462,-0.228396,0.285889,-0.053467,-0.304688,2.623889,-0.76684,9.8355,0.20486,-0.268731,0.569338,0.108398,-0.041016,-0.600586
-8.468564,2.897548,5.105868,1.188006,-0.007885,0.817751,0.573486,0.100342,-0.449707,-0.532907,4.25576,10.543809,-0.181027,0.008399,-0.5713,-0.519043,0.031982,-0.362793,2.051284,-1.379809,9.740063,0.237736,0.370088,-0.274937,-0.033936,0.188721,0.3125,2.482224,-2.987601,8.353832,0.809562,-0.79359,-0.377183,0.266357,-0.067383,-0.306641,3.637532,0.026215,9.517665,0.756897,-0.283941,1.080669,0.093018,-0.05542,-0.595215
-8.179109,2.920001,5.3903,0.512906,-0.163463,0.570282,0.580566,0.082764,-0.458252,-0.072091,0.862981,9.952587,0.475438,-0.293269,-0.678111,-0.505371,0.01001,-0.372314,0.241824,2.569467,9.99953,2.742825,1.159096,-0.953771,-0.052002,0.187744,0.271973,3.389468,1.512133,8.857833,2.179691,-0.554634,-0.27086,0.258057,-0.093262,-0.320068,2.976326,1.269882,9.461282,0.986184,-0.088375,0.80913,0.089111,-0.07373,-0.610352
-10.296559,1.334253,4.791513,0.540763,-0.102046,0.543695,0.575439,0.077637,-0.451904,-0.869754,4.619509,10.831107,1.526973,-0.040709,-0.4847,-0.480469,-0.014404,-0.374756,-1.576246,6.040134,10.213207,1.550605,0.490698,-0.381227,-0.050293,0.180176,0.237793,2.016083,4.630672,10.900949,0.653846,-0.343113,-0.389873,0.236328,-0.10376,-0.320312,3.236194,1.042635,9.597234,0.256674,-0.289996,1.057283,0.069824,-0.075439,-0.605469
-10.358598,1.586332,4.753222,0.838523,-0.523509,0.479667,0.57666,0.064941,-0.438477,0.140434,6.678276,10.702466,0.136054,-0.273799,-0.311623,-0.457031,-0.017822,-0.379639,-0.075454,3.634338,8.473955,0.226249,-0.16849,-0.273274,-0.053955,0.160645,0.195312,2.515109,0.780263,9.856253,-0.121648,-0.685043,-0.845657,0.225342,-0.102051,-0.315918,3.192676,-0.273003,9.135727,1.529933,-0.029691,1.149342,0.065186,-0.098389,-0.597168
-9.842346,1.911627,4.822885,1.138522,-0.75817,0.58308,0.56543,0.045166,-0.439941,0.880343,5.561968,9.21474,-1.117337,0.630446,-0.355317,-0.432129,-0.00708,-0.402832,0.147982,2.487025,10.408318,0.62478,0.335983,-0.553406,-0.054688,0.145996,0.156982,3.385348,1.306847,8.360815,2.567212,-0.570197,-0.465498,0.204834,-0.128174,-0.321533,2.328502,4.504942,9.682629,2.535159,-0.144184,0.80696,0.050537,-0.138428,-0.593506
-8.405483,3.510439,5.319665,1.298067,-1.035533,0.615487,0.554199,0.024414,-0.442139,-2.137354,3.272248,10.787033,-1.656555,0.664463,-0.273229,-0.389404,0.003906,-0.408203,-0.506262,4.849292,10.82099,0.834242,0.671674,-0.65693,-0.060547,0.141846,0.112305,1.998608,7.88337,9.411373,1.622614,-0.258017,-0.462668,0.192139,-0.149414,-0.32666,2.630532,6.762701,9.692708,0.024393,-0.313718,0.915606,0.038818,-0.137207,-0.60083
-9.375042,3.806847,4.743172,0.783007,-0.927888,0.405281,0.543213,0.022705,-0.447266,-2.303693,2.755399,10.81303,-0.608351,0.282392,-0.412735,-0.365967,0.012207,-0.411865,-1.801273,6.054439,10.088452,-0.302016,0.854062,-0.654002,-0.056885,0.120117,0.072998,1.648628,6.156653,9.518136,-1.829784,-0.554277,-0.273131,0.169678,-0.12085,-0.340088,1.829074,2.979671,8.857082,-1.135981,-0.075573,0.702506,0.02417,-0.105957,-0.605957
-7.909552,2.985466,4.416293,0.899794,-0.931674,0.516785,0.536377,0.004395,-0.448975,-2.21869,4.439767,10.883919,-0.552039,0.14187,-0.4547,-0.337891,0.009277,-0.431641,-1.057449,3.950683,8.576602,-1.115553,0.148333,-0.3005,-0.056396,0.107422,0.0354,2.484431,1.100954,8.426972,-0.838421,-0.481151,-0.351148,0.153076,-0.119141,-0.3479,1.987181,2.104833,9.120718,0.125278,-0.596155,0.521817,0.01001,-0.111084,-0.604492
-8.29855,4.654858,5.111554,0.902452,-1.037936,1.12588,0.519043,-0.008057,-0.445312,-0.781265,-1.861939,8.250371,-0.351726,-0.037818,-0.246937,-0.31665,0.005371,-0.434326,-0.24021,1.407587,8.845085,-1.151591,0.928653,-0.433024,-0.054443,0.090088,0.003174,2.141844,4.076378,8.520256,1.205211,-0.460615,0.003455,0.13501,-0.124023,-0.347168,3.302445,4.984796,9.790971,0.352562,-0.479084,0.024278,-0.006592,-0.108887,-0.601318
-6.889802,4.113691,5.389949,0.638339,-1.065481,0.935451,0.505371,-0.027588,-0.446777,-0.653546,1.324539,8.548737,3.588437,0.57246,-0.820813,-0.293701,-0.038574,-0.446045,-2.274313,1.607654,9.878811,-0.279682,0.691794,-0.482993,-0.036621,0.075195,-0.036621,2.520504,6.77255,10.00858,-0.789496,-0.743842,0.007008,0.113037,-0.123047,-0.354248,2.681555,4.594085,9.581301,-1.213432,-0.409732,0.229931,-0.021484,-0.091309,-0.598877
-7.258692,4.87136,6.69644,0.198679,-1.308096,1.049222,0.49707,-0.0354,-0.460205,-2.728748,6.233505,10.10192,1.674497,0.379263,-0.266743,-0.256836,-0.057861,-0.446533,-0.271769,4.10551,10.209073,-0.597187,0.806873,-0.426129,-0.038818,0.072754,-0.069336,3.294464,2.825641,8.341819,-2.329267,-0.385894,0.259344,0.108398,-0.102539,-0.364014,2.851977,2.555752,8.928028,-0.91697,-0.651589,-0.284171,-0.024414,-0.075684,-0.603516
-5.333727,3.366861,5.662068,0.654394,-0.866983,0.283663,0.478516,-0.035156,-0.461182,-1.214209,7.938514,9.799564,-0.176584,0.185781,-0.647216,-0.242676,-0.0625,-0.455322,-2.678444,3.203527,8.264392,-0.644738,1.379386,-0.320224,-0.029297,0.064209,-0.09668,1.570706,0.074278,8.281327,-0.843552,-0.273951,0.409198,0.084473,-0.084229,-0.367432,2.768493,3.062443,9.114427,-0.942629,-0.51345,-0.077581,-0.050537,-0.05249,-0.601318
-6.827938,5.693424,6.339357,0.267707,-1.434368,0.388645,0.461914,-0.044434,-0.462646,-2.347196,5.008837,8.140087,-2.993785,0.288438,0.315995,-0.218018,-0.036133,-0.471191,-3.491306,3.498402,9.538341,-0.689721,0.680548,-0.615434,-0.029785,0.06958,-0.135986,2.830399,2.678437,9.208981,0.5493,-1.122016,0.21124,0.063477,-0.091064,-0.365234,3.250094,0.552428,8.884752,-1.197515,-0.891208,-0.170233,-0.066895,-0.033936,-0.593994
-5.953245,3.919593,5.366655,-0.27594,-0.782739,-0.109807,0.450684,-0.0271,-0.479492,-1.087332,1.320149,8.828021,-2.384609,0.291841,-0.258101,-0.195801,-0.004883,-0.478271,-2.875997,0.951687,9.835823,-1.490977,0.46193,0.016852,-0.013916,0.060791,-0.144043,4.841898,4.441526,10.621007,-0.847111,-0.622552,0.225256,0.036865,-0.069092,-0.383545,4.775457,0.198035,8.610246,-0.225105,-0.580905,-0.278839,-0.088867,-0.018066,-0.606445
-7.523005,4.905057,6.156086,0.321143,-1.288561,0.273825,0.442627,-0.039307,-0.46875,-3.644224,-1.072885,7.576859,-1.181832,0.787175,0.222063,-0.170654,0.014648,-0.493652,-3.492244,-0.791807,8.622226,0.167994,0.590167,-0.365122,-0.010498,0.053467,-0.182861,3.332675,0.509205,9.89652,-1.762194,0.050836,-0.010393,0.031982,-0.05957,-0.368896,3.542191,2.421732,9.258602,0.174493,-0.434366,-0.073543,-0.092529,-0.027344,-0.585449
-6.587502,4.950687,6.179897,-0.32986,-1.107521,0.102116,0.424561,-0.036377,-0.484619,-2.544631,3.018525,10.220471,0.465266,0.013392,-0.268845,-0.157959,0.007324,-0.49707,-3.774039,4.232677,9.966154,1.620369,0.714948,-0.490967,0.008789,0.049072,-0.211182,3.027217,-0.765423,9.464962,0.383432,-0.660049,0.224036,0.008545,-0.065186,-0.383057,4.781286,2.109516,8.88822,-0.887464,-0.562634,-0.078939,-0.112305,-0.013428,-0.591553
-6.735268,4.050076,5.81607,-0.232616,-1.409687,0.058357,0.42041,-0.023193,-0.493408,-2.555146,4.681618,11.08004,-0.579858,0.961067,0.184523,-0.13208,0.010254,-0.515625,-2.764327,6.328145,10.449587,-0.568014,0.149442,-0.257912,0.003906,0.0354,-0.231689,4.383935,3.760067,10.189591,1.02879,-0.382696,-0.118736,0.004883,-0.065674,-0.38916,4.125818,-0.685627,8.289762,-0.654568,0.036527,0.102153,-0.10791,0.007324,-0.590088
-5.334878,4.927221,5.219649,-0.115966,-1.178558,0.740606,0.394531,-0.031738,-0.494141,-3.57708,-0.827086,5.698947,0.956874,-0.01275,-0.078702,-0.123047,0.00708,-0.51123,-2.80056,-2.612336,8.760077,-3.26885,0.186704,0.384512,0.008301,0.054199,-0.25,3.6172,3.761874,9.427733,-1.046539,-0.011134,-0.198728,-0.017334,-0.062744,-0.385498,3.682745,-0.06818,8.294273,0.591266,-0.382462,-0.089397,-0.126465,-0.010498,-0.584473
-3.253805,3.075958,6.33349,0.343322,-1.399531,0.663612,0.368652,-0.037354,-0.498047,-1.026937,10.009626,10.286932,1.826311,0.721109,-0.789408,-0.097412,-0.027588,-0.519287,-2.428992,-3.920654,7.660278,2.164904,0.449771,-0.396974,0.020996,0.04248,-0.2771,3.238544,-1.639165,7.860437,-1.345327,-0.077873,-0.207694,-0.033936,-0.047852,-0.388428,4.316576,2.749438,8.311477,0.653785,-0.07356,0.002308,-0.138916,-0.016602,-0.584473
-5.592849,7.322639,7.860251,-0.054662,-0.791554,0.70253,0.364014,-0.029297,-0.50415,-5.132102,6.542215,10.79358,-5.137467,0.192412,-0.228024,-0.08374,0.040527,-0.520996,-2.320341,8.014431,10.252547,2.690984,1.659466,-1.347198,0.0354,0.023682,-0.299072,2.696553,-0.639606,7.961041,1.349991,-0.161894,0.284726,-0.039062,-0.055908,-0.397461,2.645841,3.148493,8.785882,-0.695929,-0.049817,-0.122936,-0.137207,-0.002197,-0.585693
-4.018572,3.086229,6.128353,-0.743865,-1.077652,0.397465,0.345215,-0.015869,-0.514648,-0.243569,-5.562664,6.060742,-1.409577,-0.029064,-0.339834,-0.077637,0.062256,-0.531738,-6.751073,6.487748,10.186538,-2.539339,0.31512,0.069591,0.047363,0.037598,-0.31543,3.884293,4.474102,10.680063,0.292932,-0.647589,-0.146084,-0.060059,-0.054932,-0.401367,5.039186,-0.138356,8.293264,-1.073647,-0.629288,0.514452,-0.152832,0.020752,-0.581543
-5.466462,3.941143,6.669569,0.475182,-1.330541,0.866383,0.330566,-0.027832,-0.513428,-3.823397,4.069654,11.266145,0.689592,0.797241,-0.403387,-0.064941,0.055176,-0.54126,-1.845323,-2.858257,8.578121,-2.550299,-0.984371,0.03757,0.037842,0.059814,-0.329346,5.825542,1.954106,9.199632,-1.887444,-0.086511,-0.117542,-0.064941,-0.035889,-0.400635,5.95932,-0.448416,8.248979,-0.092689,0.164678,0.210527,-0.151123,0.026367,-0.58252
-3.713573,3.692632,6.582736,0.116895,-1.586912,1.038206,0.295654,-0.029053,-0.511963,-2.036095,2.230319,9.425788,-1.91905,0.15279,-0.439988,-0.04248,0.083252,-0.539062,-2.174314,-2.859372,7.876223,2.231687,1.522821,-0.445982,0.057129,0.03125,-0.356201,4.003196,-1.469412,8.385476,-0.121215,0.376899,-0.361533,-0.077637,-0.031494,-0.401855,4.144569,0.762812,7.896958,0.239956,0.159073,0.56146,-0.161621,0.028564,-0.578369
-3.205825,4.600296,6.529386,0.901708,-1.551544,0.781966,0.274414,-0.048584,-0.522217,-4.192258,-2.356781,8.135567,-0.689778,0.761066,-0.075528,-0.022461,0.096436,-0.54541,-6.003275,6.402352,9.93429,2.511565,0.952427,-1.097182,0.06665,0.019531,-0.361816,3.224155,2.361641,8.855543,1.540135,-0.054602,-0.17436,-0.088135,-0.05542,-0.420654,4.278018,2.033138,7.811486,0.28906,0.032139,0.109089,-0.1604,0.02124,-0.591797
-3.117394,5.670134,6.605773,0.3844,-1.698362,0.945458,0.241943,-0.044434,-0.512207,-3.00011,2.39836,9.172581,0.85699,-0.134624,-0.452179,-0.021729,0.095215,-0.552002,-3.978758,5.569378,9.130658,-2.248283,-0.443624,0.455386,0.07251,0.029785,-0.383057,4.217526,4.874767,9.697257,-0.497083,-0.135467,-0.194148,-0.100098,-0.040771,-0.411621,4.533832,2.053301,8.069471,-0.619289,0.328391,0.404662,-0.159424,0.04248,-0.582275
-1.932822,5.182131,6.978193,-0.393951,-1.786204,1.104044,0.212402,-0.043213,-0.517578,-2.371218,2.88843,9.112155,-1.481508,0.789173,-0.136864,-0.009277,0.102783,-0.550049,-2.569474,-2.24865,7.931952,-1.839856,0.084116,-0.205209,0.080078,0.057129,-0.394531,4.71071,0.679523,8.074013,-1.535811,0.520852,-0.333727,-0.103516,-0.031494,-0.421143,4.031404,-0.477799,7.423304,-0.554328,0.233711,0.234414,-0.158691,0.046631,-0.58374
-1.160394,2.588235,6.087715,0.231903,-1.7278,1.012626,0.184814,-0.033936,-0.515625,-4.677133,-2.127171,6.617901,-0.795049,0.020866,-0.51282,0.008057,0.116211,-0.551758,-4.249906,-1.103822,8.183912,1.379074,1.057167,-0.445299,0.078125,0.035645,-0.407959,2.864644,-0.23554,7.901476,0.638451,0.460326,0.111242,-0.101807,-0.025391,-0.428955,4.223232,0.89491,7.279293,0.742908,0.395643,-0.261545,-0.155762,0.045654,-0.589111
-2.783827,5.101183,7.465706,0.500822,-1.352861,0.967782,0.146729,-0.047363,-0.510742,-2.991646,1.132813,8.766388,0.187171,0.196294,-0.121168,0.00708,0.12085,-0.562988,-6.310383,2.962434,9.549555,0.732301,0.103951,-0.102872,0.091553,0.020264,-0.428955,3.791638,3.81065,10.141776,0.583281,-0.008518,-0.199719,-0.124512,-0.039795,-0.432617,4.03342,3.0024,8.30127,-0.505023,0.266092,-0.05734,-0.164062,0.049805,-0.589355
-1.156925,2.14082,6.100761,0.522746,-1.973966,0.944235,0.117432,-0.05957,-0.51416,-4.558785,-2.054079,8.384705,-1.684603,0.032613,-0.356854,0.012207,0.144043,-0.561279,-3.165586,2.087074,8.843913,-0.730601,-0.624378,0.434225,0.090576,0.031738,-0.445068,5.609513,2.340247,9.651915,-1.101429,0.579851,-0.083524,-0.118896,-0.033203,-0.448486,5.600819,-1.749809,7.112875,-1.148963,0.600718,-0.055248,-0.152832,0.061279,-0.603516
-0.587455,4.783219,6.907419,2.178699,-1.566695,1.061019,0.089844,-0.084229,-0.496582,-2.70139,-7.899154,5.561823,1.542645,-0.013119,-0.130924,0.012451,0.124756,-0.567383,-3.543137,-0.632958,7.415894,-0.043755,0.260364,0.153462,0.099121,0.025146,-0.444092,3.776939,-0.998659,8.203139,-0.194598,1.261086,-0.178536,-0.112305,-0.023438,-0.46167,3.509064,-1.537796,7.354526,1.30857,0.986473,-0.419314,-0.141602,0.043701,-0.61499
-0.981902,7.52871,7.762629,0.450635,-1.517339,0.741378,0.068604,-0.09082,-0.479004,-4.218398,-4.084201,5.797964,4.654209,0.003717,-0.084079,0.024658,0.052734,-0.581299,-4.688796,1.402837,9.294257,1.807777,-0.296594,0.092116,0.091797,0.01001,-0.462158,2.28497,0.894143,9.08603,1.407193,0.697962,-0.098886,-0.103271,-0.046387,-0.45752,3.553866,2.703359,8.677968,0.81696,0.599949,-0.469237,-0.128662,0.024658,-0.608398
-0.829584,2.147103,6.286776,0.290682,-1.71846,0.388034,0.0354,-0.087891,-0.472656,-3.083174,-0.402217,5.077606,6.139792,-0.61384,0.519923,0.016113,-0.036621,-0.583008,-2.525302,3.207864,8.123139,-0.195432,-0.262984,0.19594,0.098633,0.00708,-0.47583,3.674958,2.969721,9.134314,0.4462,0.635923,-0.476769,-0.112793,-0.045654,-0.471191,3.876065,0.684256,8.122294,-0.322257,1.02922,0.116793,-0.120361,0.03833,-0.619141
0.566386,3.928784,7.238064,1.601534,-1.426525,0.266403,0.022705,-0.108398,-0.459473,-1.913577,7.592448,9.07028,4.90252,-0.234843,0.3759,0.009033,-0.098145,-0.574951,-5.405717,-1.83427,7.928362,-0.14958,-0.378537,0.945234,0.09375,0.004395,-0.485352,3.429603,0.772146,9.358093,-0.418314,1.161733,-0.29338,-0.094727,-0.045654,-0.483887,2.672026,-0.766303,8.354198,0.49631,0.962406,-0.174271,-0.098633,0.027832,-0.627441
0.104015,4.789221,6.748598,1.809158,-1.871472,0.238482,-0.009277,-0.135254,-0.43042,-3.29847,3.459662,7.729573,0.40532,-0.151209,0.712969,0.004639,-0.11084,-0.579102,-1.861067,0.746171,8.876557,2.855819,-1.033143,0.21522,0.083252,-0.022949,-0.500732,2.017491,-0.379395,8.78904,1.507295,1.098567,-0.492665,-0.091309,-0.066406,-0.493164,3.168862,0.672728,8.200495,1.681376,0.879654,0.054187,-0.093506,-0.00293,-0.63623
0.442257,8.000113,6.979413,1.503145,-1.563296,-0.183862,-0.028076,-0.145752,-0.413818,-2.276696,-1.048128,4.933345,3.224475,-0.334679,0.792985,0.003906,-0.152344,-0.567383,-2.841559,7.567744,9.410195,2.336234,0.994146,0.076555,0.114014,-0.060547,-0.491943,2.248054,3.637164,8.667176,2.111618,0.825615,-0.242626,-0.085449,-0.085205,-0.503906,2.264303,3.146594,9.012294,1.27203,1.162973,-0.57929,-0.072021,-0.017822,-0.648193
1.000763,6.587978,6.110432,0.849778,-1.667187,-0.515856,-0.030273,-0.170654,-0.388916,-2.599341,11.082532,8.181987,3.587572,-0.173504,1.275563,-0.000488,-0.205811,-0.542236,-8.154124,3.843808,8.682981,-1.330391,-1.032888,0.80667,0.082275,-0.041016,-0.516113,2.177366,4.949072,10.597747,0.517937,1.093817,-0.431318,-0.059814,-0.102539,-0.501465,2.062968,2.590974,8.99875,0.506628,0.88307,-0.021322,-0.04248,-0.035156,-0.640625
2.021046,8.916799,6.832687,1.141868,-1.459673,-0.572656,-0.059082,-0.178955,-0.375732,-2.776555,7.851751,7.470933,-2.015627,-0.427355,1.28536,-0.020264,-0.182861,-0.563721,-0.579425,-2.207244,7.052116,-0.255983,-2.39002,1.245743,0.056885,-0.051758,-0.525391,2.201191,1.812409,9.769139,0.11895,1.220974,-0.45472,-0.065674,-0.097168,-0.518555,2.758171,0.896764,8.473164,0.92692,1.110312,-0.489409,-0.041992,-0.044922,-0.657959
1.859854,7.986674,5.775454,0.210559,-1.214822,-0.316404,-0.06543,-0.191895,-0.362305,-1.8227,-2.287625,4.094935,0.6782,-0.275061,0.753518,-0.024658,-0.19458,-0.553223,-0.290886,0.431836,7.819927,2.592346,0.531321,0.076845,0.062988,-0.073242,-0.529053,1.173266,1.941137,7.911004,1.958099,1.49317,-0.038822,-0.044434,-0.134033,-0.525146,0.592587,3.32878,8.576139,2.171435,1.485141,-0.861977,-0.013184,-0.089844,-0.65625
1.207448,8.068297,6.037521,0.257661,-0.819168,-0.420358,-0.074707,-0.189941,-0.358887,-2.499592,5.572933,5.008844,4.546505,-0.537573,0.670793,-0.041748,-0.248779,-0.525391,-4.971363,8.313548,9.518404,2.583131,-0.132915,0.369219,0.066406,-0.116455,-0.532715,-0.485977,5.697016,8.740671,1.355558,1.350586,0.07392,-0.032471,-0.142578,-0.529785,-0.453052,6.303027,9.4989,0.897035,0.857689,-1.134371,-0.000244,-0.099121,-0.663818
2.021687,8.060003,6.50158,-0.332701,-0.58017,-0.705099,-0.066406,-0.194824,-0.360596,-0.824835,11.875581,7.080216,1.920814,-0.881327,0.983795,-0.048096,-0.271729,-0.508301,-3.540666,9.734892,9.262196,-2.212544,-1.148887,0.466863,0.047119,-0.094482,-0.541504,0.66771,4.876175,9.825563,-0.687876,0.792786,0.162275,-0.016846,-0.141602,-0.540039,1.68764,4.383009,9.280237,-0.606416,0.841862,-0.803792,0.022705,-0.095215,-0.670898
1.666958,7.802057,6.475309,-0.119418,-0.317927,-0.527091,-0.068604,-0.200439,-0.35083,-1.607447,9.089353,7.035559,-0.483803,-0.414767,0.975539,-0.064453,-0.270752,-0.520996,-3.749948,0.745168,7.332361,-4.035515,-1.58873,0.810249,0.018799,-0.042236,-0.558105,1.238024,2.81285,9.71549,-1.043156,1.531702,0.12172,-0.005371,-0.130371,-0.541016,0.099614,3.276555,9.232373,-0.817756,1.453202,-0.809557,0.044434,-0.084473,-0.668457
1.272391,8.404209,6.542847,0.114743,-0.4568,-0.431951,-0.077881,-0.203369,-0.350342,-1.826516,4.501086,5.544141,0.078383,-0.642601,0.579927,-0.075928,-0.274658,-0.514893,-0.64635,-1.62911,7.801369,-0.70429,-1.476559,0.148706,0.002686,-0.033447,-0.554932,-1.630219,2.979152,8.991337,-0.823778,1.712118,0.266308,0.009277,-0.119629,-0.552002,-1.105861,3.051508,9.070139,-1.135912,1.050064,-0.580847,0.057129,-0.063477,-0.673828
0.893588,9.400899,6.816588,-0.105533,0.031907,-0.57683,-0.063721,-0.20459,-0.345947,-1.12093,5.328781,4.679666,1.701414,-0.508452,0.652646,-0.082764,-0.294678,-0.504883,-1.506516,3.349948,8.701202,0.445426,-0.188676,-0.17043,0.003418,-0.037598,-0.563232,-1.329607,2.881572,9.226917,-1.853477,0.903822,0.021114,0.028564,-0.087402,-0.550293,-0.216187,2.41644,9.320735,-1.691513,1.050678,-0.297282,0.078857,-0.032959,-0.662842
1.581443,11.391353,7.59106,-0.915711,0.244743,-1.190895,-0.047363,-0.200928,-0.360596,-1.466682,7.547139,4.662899,0.78183,-0.920215,0.840839,-0.112061,-0.306152,-0.497559,-4.242636,5.154532,9.29445,-1.206126,-1.464878,0.412969,-0.015869,-0.017334,-0.564453,0.011127,0.13674,9.312394,-1.914096,1.333902,0.055791,0.045654,-0.058594,-0.559814,-0.602435,0.374341,9.245665,-1.907252,1.228898,0.198757,0.10376,0.001221,-0.668945
1.849913,10.175758,7.419366,-2.400682,1.127242,-1.738414,-0.014404,-0.179932,-0.390137,-0.085488,4.765407,4.206936,0.132356,-1.004793,0.945402,-0.123291,-0.307861,-0.489502,-0.653766,1.367659,7.050788,-2.576807,-2.273416,0.4341,-0.05249,0.010498,-0.580078,-1.892423,0.061015,9.773703,-0.555782,1.601901,-0.194649,0.069336,-0.046143,-0.560059,-0.780964,-0.468158,8.591793,-0.921644,1.231076,0.581582,0.128906,0.021729,-0.665283
2.586291,8.131418,7.262234,-2.515964,1.532213,-1.84422,0.016602,-0.169922,-0.433594,-0.672218,4.076357,2.59425,1.373794,-1.024627,0.959473,-0.151123,-0.319824,-0.476807,0.208707,-2.646929,8.272225,-0.573004,-1.215458,0.387735,-0.06665,0.031982,-0.578857,-2.376099,2.114708,8.395033,-0.615585,1.128871,-0.296977,0.08252,-0.045654,-0.57251,-1.773126,1.18616,9.04042,-0.713324,1.591063,0.711708,0.154053,0.024902,-0.673096
2.676724,7.961467,7.232014,-2.869524,2.515222,-1.981966,0.067139,-0.121826,-0.467529,0.685754,6.569775,4.325536,2.363102,-1.293589,0.864237,-0.175293,-0.339844,-0.449219,-1.719372,0.985006,8.041192,1.894964,-0.950672,-0.314634,-0.084473,-0.000732,-0.572998,-1.516643,0.2651,8.072136,-0.934636,1.238102,-0.363669,0.099609,-0.014404,-0.573242,-2.688029,-0.161862,7.99505,-0.730417,1.329623,1.064923,0.181885,0.050293,-0.667236
0.642252,6.903124,8.370035,-3.061922,2.742833,-1.791182,0.118164,-0.0896,-0.489258,0.307634,10.511782,4.873621,2.566503,-1.138405,1.10689,-0.197998,-0.353027,-0.41748,-0.947784,4.388068,8.944615,0.788688,-1.57891,0.378063,-0.111084,-0.008545,-0.571045,-3.124805,-0.053184,8.263981,0.270273,1.621804,-0.113936,0.119385,-0.026855,-0.561035,-2.724233,-0.079767,8.563982,0.241272,1.391892,0.618446,0.205566,0.035156,-0.655273
-0.63682,7.156297,8.668694,-2.983868,3.066053,-1.50859,0.169922,-0.046387,-0.512939,1.336107,12.17774,5.469622,0.663174,-1.073614,0.688788,-0.218262,-0.355713,-0.40332,0.428985,1.33118,8.292013,-0.109249,-1.479102,0.087901,-0.132324,-0.015137,-0.575439,-3.711518,0.359759,7.882818,0.614244,0.967274,-0.229728,0.127441,-0.032227,-0.562988,-3.097875,0.012246,8.604571,0.486338,1.354505,0.931459,0.227539,0.030029,-0.648438
-2.479335,6.775432,8.261194,-4.044,2.888503,-1.234673,0.218018,0.010742,-0.540771,0.660247,9.523455,4.99777,0.215808,-0.785958,0.741096,-0.233398,-0.352783,-0.398682,0.630008,0.625102,8.099044,1.838625,-0.853962,-0.135469,-0.146973,-0.036621,-0.572021,-1.951895,0.337073,6.723265,1.344933,0.995896,-0.112877,0.14209,-0.060059,-0.568604,-3.148004,-0.214193,8.185641,1.317633,1.082807,0.473694,0.247803,-0.00293,-0.646729
-3.039075,3.157191,7.044537,-4.624049,2.820513,-0.740479,0.263428,0.090332,-0.548584,1.395496,9.844081,4.66473,0.865894,-0.847058,0.42823,-0.250488,-0.356445,-0.382324,0.796981,4.723295,8.679454,2.638008,-0.636589,-0.464999,-0.158936,-0.069824,-0.560547,-3.350467,2.25792,7.388369,1.716063,1.381912,0.055305,0.159424,-0.078857,-0.5625,-2.69259,1.648193,8.925601,1.672756,1.035248,0.322758,0.262695,-0.026123,-0.63916
-3.553843,1.632947,6.99104,-4.033875,2.609553,-0.436368,0.303223,0.162598,-0.542236,1.532378,10.703755,5.206343,0.433495,-0.549243,0.576548,-0.260986,-0.362549,-0.370605,0.750351,6.543668,8.985019,0.890656,-0.38327,-0.220317,-0.156006,-0.089355,-0.565918,-3.336844,2.765031,7.207464,1.287809,0.65044,-0.157134,0.16626,-0.093262,-0.553223,-2.687536,2.045167,8.844442,1.338753,0.794758,0.248948,0.276123,-0.04541,-0.625488
-4.954725,-0.154081,6.94139,-2.820795,2.733906,-0.222927,0.353516,0.203369,-0.541992,1.284991,9.932367,4.955075,0.06671,-0.620244,0.502608,-0.272949,-0.348633,-0.368896,-0.054013,3.866136,8.028456,-0.197665,-0.665064,-0.124582,-0.17041,-0.089355,-0.562744,-2.172765,3.400191,7.23311,1.460822,0.820369,0.003619,0.188721,-0.12085,-0.558105,-2.414887,2.480964,8.37875,1.335064,0.833679,-0.051579,0.30127,-0.075439,-0.626465
-7.046422,1.715687,7.835022,-2.194076,2.320536,-0.154119,0.384766,0.237305,-0.52417,1.959286,9.718626,5.603932,-0.188915,-0.468246,0.333839,-0.275879,-0.347168,-0.370361,1.908043,2.969008,7.692292,0.666044,-0.568831,-0.331273,-0.186768,-0.100586,-0.560791,-3.933793,4.244052,8.162946,0.721008,1.126799,-0.217202,0.200195,-0.134277,-0.547607,-3.364383,3.180336,8.983481,0.964529,0.776022,0.023118,0.308838,-0.094482,-0.611328
-7.238083,0.86088,7.166863,-3.158886,2.053491,-0.024303,0.407959,0.287842,-0.507324,2.040768,9.134569,4.684718,0.16151,-0.238512,0.186631,-0.281738,-0.355713,-0.363037,1.114005,4.924236,8.700674,0.909108,0.164016,-0.407453,-0.170166,-0.106201,-0.563477,-3.86024,3.481364,7.560915,0.499788,0.304526,-0.235728,0.196533,-0.142822,-0.54834,-2.487618,3.832578,9.763944,0.870501,0.444809,0.046657,0.309082,-0.105469,-0.608887
-7.629477,-0.969136,6.579573,-2.722894,1.738787,0.142486,0.447754,0.335205,-0.491943,1.693305,9.99938,4.812612,0.433276,-0.126741,-0.018962,-0.281738,-0.347656,-0.361572,0.301479,4.82562,8.442054,0.21879,-0.257668,-0.361652,-0.174805,-0.107178,-0.559326,-2.478916,3.773326,7.463827,0.515321,0.387797,-0.276527,0.216797,-0.137207,-0.548096,-2.640106,3.753795,9.810353,0.171614,0.584135,0.042808,0.33252,-0.102295,-0.604492
-7.090558,-0.810142,6.550011,-2.582313,1.657115,0.348049,0.46875,0.37085,-0.470703,1.59944,10.269067,4.491549,-0.138479,-0.143856,-0.00852,-0.277588,-0.349365,-0.369873,1.488142,3.669726,7.746194,0.058263,-0.064282,-0.219981,-0.182129,-0.109131,-0.55249,-3.888273,3.452748,7.406536,0.580116,0.655021,-0.087576,0.22168,-0.145508,-0.53833,-3.465804,1.904455,9.342316,0.481316,0.2458,-0.204671,0.333496,-0.108887,-0.598389
-8.448404,-2.671929,5.928732,-2.023205,1.55159,0.726578,0.491211,0.392822,-0.439941,1.363241,8.994586,3.711619,-0.227658,-0.157771,-0.220761,-0.283691,-0.348145,-0.365234,0.378013,3.296646,8.008819,0.4932,0.306006,-0.471061,-0.173828,-0.114014,-0.545654,-4.505588,4.189591,7.919667,0.830396,-0.044794,-0.108829,0.216064,-0.15625,-0.527832,-2.953882,4.01308,9.762377,1.410749,-0.015622,-0.404203,0.329834,-0.125488,-0.587646
-9.179459,-1.004662,6.224191,-1.148539,1.283672,0.876427,0.514648,0.40625,-0.419189,1.653727,9.987941,4.367375,0.291556,-0.152305,-0.48088,-0.28833,-0.354248,-0.36499,0.739051,4.459884,8.272937,0.832324,0.140497,-0.444068,-0.17627,-0.122559,-0.554932,-3.200155,4.048472,7.395449,0.064576,-0.203551,-0.130205,0.215332,-0.151611,-0.526855,-3.078897,5.536864,10.383935,0.158557,-0.045618,-0.226793,0.333252,-0.121582,-0.580322
-8.231734,0.288181,5.993524,-1.703804,0.96028,1.022779,0.525146,0.425781,-0.411377,1.207238,10.918058,4.55928,-0.266182,-0.057971,-0.534178,-0.275879,-0.351318,-0.371582,0.708949,5.016234,8.043024,0.509186,0.527444,-0.624813,-0.167725,-0.142334,-0.557617,-3.731517,2.070113,7.213126,0.174182,0.018961,-0.024032,0.210449,-0.151367,-0.532959,-3.285282,1.988231,9.369658,-0.370248,-0.289681,-0.047569,0.322998,-0.11377,-0.592285
-7.645764,-0.741231,5.283191,-2.130686,0.988165,1.136877,0.543457,0.432617,-0.391357,1.574132,8.941115,4.138398,-1.040047,-0.218139,-0.578286,-0.265869,-0.356201,-0.379395,0.173965,4.929342,7.883239,0.426481,0.297021,-0.520904,-0.161865,-0.147217,-0.558594,-4.591332,2.644277,7.641904,1.282133,-0.457899,-0.041955,0.204102,-0.177979,-0.530273,-3.490809,1.756401,9.212489,1.343138,-0.445998,-0.254093,0.318848,-0.142334,-0.594238
-9.41599,-3.243661,5.14251,-1.823958,0.652332,1.240416,0.564941,0.445312,-0.375488,1.775202,7.701794,4.190844,-0.117587,-0.015277,-0.715454,-0.260254,-0.355957,-0.37793,0.916834,5.502795,7.963223,0.108948,0.462012,-0.595385,-0.154297,-0.139404,-0.549316,-3.454064,5.526943,7.935244,1.262085,-0.910055,-0.081414,0.193604,-0.192627,-0.534912,-2.956805,5.638289,10.150811,1.152965,-0.780237,-0.042529,0.307861,-0.158203,-0.600586
-7.998494,-2.732133,5.043994,-1.084813,0.369857,1.565353,0.574707,0.456787,-0.356934,1.424521,10.410403,5.097219,0.164951,0.045631,-0.892974,-0.260986,-0.358643,-0.37793,-0.138222,5.306105,8.179588,-0.270487,0.695878,-0.620735,-0.139893,-0.142822,-0.556641,-3.021704,5.675997,7.91413,-0.3471,-0.580924,-0.265753,0.182617,-0.174805,-0.52832,-2.516555,4.785116,9.786089,-0.682205,-0.587347,0.115555,0.293457,-0.13916,-0.595703
-7.51973,-2.563348,4.193634,-1.458667,0.150108,1.676515,0.593994,0.450928,-0.347656,1.131359,10.108559,5.145873,-1.333792,0.055526,-0.784074,-0.247559,-0.35083,-0.392822,0.157256,4.995625,8.42958,-0.423411,0.426037,-0.630391,-0.13916,-0.139404,-0.558838,-4.247759,3.00405,7.50212,-0.608273,-0.76382,-0.318814,0.175537,-0.170654,-0.533203,-3.766589,1.936318,9.209701,-0.419661,-0.737146,0.193079,0.287598,-0.138672,-0.603516
-7.901773,-4.071499,3.483624,-1.081539,-0.061602,2.118462,0.601318,0.442627,-0.344482,1.588882,7.981412,4.699501,-1.337509,0.095373,-0.830247,-0.244141,-0.350342,-0.414062,-0.020255,4.023604,7.956782,-0.461996,0.726821,-0.675426,-0.119385,-0.133301,-0.562012,-3.554794,2.861439,8.076115,0.346851,-1.34151,-0.406178,0.149414,-0.171631,-0.537354,-2.865696,3.143482,9.60018,0.466852,-1.177975,0.022983,0.258057,-0.145508,-0.609375
-10.029219,-3.312555,4.315247,-0.116912,-0.411546,2.075795,0.618896,0.421875,-0.348389,1.523649,8.10075,6.643534,-1.098582,0.34367,-0.864816,-0.233887,-0.330566,-0.428467,-0.701427,4.610662,9.065543,0.178611,0.510565,-0.691707,-0.116211,-0.133789,-0.568604,-2.852082,4.996463,8.668024,0.636174,-1.087284,-0.300924,0.14624,-0.179199,-0.540039,-2.573721,5.323954,9.970647,0.216989,-0.926728,0.140861,0.252686,-0.151611,-0.614746
-8.268746,-1.074638,5.047344,0.384619,-0.843804,1.961339,0.613281,0.397217,-0.363525,1.200431,7.280091,6.22855,-0.886423,0.65788,-0.84427,-0.217041,-0.331787,-0.44043,0.061172,6.438461,9.028043,-0.214049,0.766849,-0.761161,-0.104492,-0.14209,-0.560547,-3.79769,6.131817,8.765682,-0.250132,-1.149869,-0.313771,0.122314,-0.173828,-0.549072,-3.03801,5.259105,9.987569,-0.661981,-1.160434,0.08649,0.224365,-0.141846,-0.628418
-6.502256,0.77186,5.166272,-0.159292,-0.84451,1.798097,0.618164,0.371338,-0.36084,0.764111,8.729378,7.276291,-0.603588,0.72356,-0.61746,-0.19751,-0.331055,-0.453613,-1.555243,5.151583,9.550185,-1.139042,0.788223,-0.590743,-0.094971,-0.114014,-0.572266,-2.989909,4.546253,8.710516,-0.878866,-1.536983,-0.399015,0.101562,-0.167969,-0.541992,-2.20641,3.800812,9.68688,-0.758417,-1.230966,0.0634,0.203857,-0.136963,-0.624268
-6.974328,-0.408594,4.869254,-0.829338,-0.903359,1.981303,0.61499,0.37085,-0.37207,0.059451,9.745545,5.136495,-1.56166,0.960871,-0.643532,-0.176025,-0.318604,-0.469727,-1.199867,2.705193,8.532172,-1.106656,0.405626,-0.406194,-0.094482,-0.104736,-0.575195,-2.414626,3.965327,8.686327,-0.050836,-1.328043,-0.289827,0.077637,-0.152588,-0.547119,-2.456705,3.94702,9.552545,-0.320269,-1.21849,-0.218002,0.178467,-0.121582,-0.632812
-7.864012,-2.500246,4.853799,0.297021,-1.395603,2.197958,0.604004,0.340332,-0.387939,-0.797646,7.703092,6.734876,-2.046196,0.453122,-0.695913,-0.161377,-0.295898,-0.497559,-1.09448,2.358435,8.902742,0.268577,0.855332,-0.518658,-0.07373,-0.0979,-0.572998,-3.05316,5.639431,9.326161,-0.108576,-1.264405,-0.184295,0.053711,-0.153809,-0.550293,-2.111293,5.087521,9.739084,-0.397682,-1.376281,-0.475301,0.148438,-0.11792,-0.640381
-6.739496,1.286616,5.769585,2.001011,-1.588216,2.235018,0.603271,0.301758,-0.40918,1.057292,6.653367,6.559126,-1.202464,0.984813,-0.802229,-0.143311,-0.280029,-0.514648,-1.960529,5.945689,9.688819,0.795002,0.866818,-0.634621,-0.066406,-0.112305,-0.56958,-2.278514,4.725412,9.235545,-0.619435,-1.607617,0.000769,0.035156,-0.135742,-0.54541,-1.688054,4.511933,9.740277,-0.626801,-1.419213,-0.720545,0.131104,-0.096924,-0.638916
-4.210546,4.369172,6.170762,1.430812,-1.705613,2.039683,0.581299,0.261963,-0.423828,-1.75702,7.374109,6.985906,-1.323666,0.951776,-0.642987,-0.132324,-0.267578,-0.526367,-1.803733,6.383131,10.440948,-1.156893,0.467027,-0.317924,-0.056152,-0.094238,-0.567627,-1.306852,4.223732,9.400698,-0.189202,-1.352123,-0.052858,0.010498,-0.136719,-0.546143,-1.384705,3.737847,9.570359,-0.622098,-1.390572,-0.821603,0.098877,-0.089111,-0.643066
-3.750338,4.189089,5.761343,0.252932,-1.601821,1.989726,0.567383,0.240723,-0.437012,-0.436934,6.516781,6.17767,-1.575906,0.657789,-0.538559,-0.111572,-0.240234,-0.532471,-1.308439,1.962191,8.654911,-1.51196,0.667772,-0.180263,-0.053711,-0.071289,-0.588379,-1.616098,4.401523,9.238297,-0.53699,-1.259446,0.049361,-0.007568,-0.122803,-0.545898,-1.191339,3.33244,9.613329,-0.616772,-1.405415,-0.982879,0.077637,-0.074219,-0.636719
-4.134551,1.955802,5.375324,0.297214,-1.64054,2.023605,0.540039,0.218018,-0.465088,-1.943293,6.81847,7.200226,-1.182796,0.665153,-0.49223,-0.096191,-0.231201,-0.544922,-2.897568,1.145551,8.92732,0.33555,0.987293,-0.436604,-0.03125,-0.072266,-0.573486,-1.072282,3.366713,9.38619,-0.370151,-1.45069,0.023979,-0.041016,-0.116211,-0.553223,-1.058302,3.264081,9.444162,-0.173174,-1.462568,-1.069358,0.041504,-0.071777,-0.651855
-4.304929,4.584362,6.30315,1.650226,-2.018689,2.007578,0.522461,0.181885,-0.467529,-1.216185,6.671876,7.09753,-1.728372,0.472395,-0.572389,-0.094971,-0.208008,-0.557861,-2.212232,4.54848,9.722281,0.842598,0.472512,-0.299542,-0.0271,-0.087891,-0.579834,-0.659619,3.976144,10.02724,0.012212,-1.254749,0.209401,-0.049072,-0.112793,-0.53833,-0.803995,4.215836,9.803832,-0.201684,-1.467425,-1.275293,0.021973,-0.066406,-0.637695
-2.804716,7.188638,6.595763,0.641384,-2.017794,1.663681,0.489014,0.157715,-0.489502,-1.793875,4.820016,7.070175,-1.565467,0.509685,-0.528896,-0.086182,-0.184326,-0.568604,-1.6021,5.755835,9.103863,-0.364533,0.726169,-0.217838,-0.021729,-0.083252,-0.57959,-0.226011,3.784146,9.725466,-0.361506,-1.368052,0.135703,-0.074707,-0.108887,-0.540039,0.202474,3.057799,9.457817,-0.627354,-1.526049,-1.036676,-0.008057,-0.061523,-0.639893
-1.976692,5.378202,5.946431,-0.283896,-2.141562,1.717393,0.455566,0.148682,-0.501709,-0.656274,5.342179,6.933835,-1.125674,0.386355,-0.508051,-0.075928,-0.169434,-0.583984,-2.842708,3.732946,9.62535,-1.358997,0.470046,-0.287141,-0.010254,-0.05835,-0.58667,1.096514,3.309684,9.340317,-0.146065,-1.319529,0.165612,-0.098633,-0.102783,-0.538818,0.683604,2.660037,9.121803,0.139793,-1.32614,-1.273488,-0.038574,-0.06543,-0.636719
-2.204762,2.887412,5.59079,-0.087318,-2.118449,1.334242,0.424805,0.147217,-0.521973,-2.446796,4.72462,7.718826,-1.429772,0.382014,-0.349039,-0.05957,-0.147705,-0.580811,-1.978196,1.055236,8.703264,-0.875438,0.354263,0.024634,-0.002441,-0.041992,-0.585693,0.532205,4.222975,9.634936,-0.440365,-0.998554,0.236452,-0.111084,-0.091553,-0.539551,0.330284,4.365603,9.970289,-0.60816,-1.36614,-1.163313,-0.056885,-0.055908,-0.637451
-2.590784,4.453914,6.334204,1.197204,-2.199968,1.330786,0.393311,0.122314,-0.523682,-1.163612,3.730754,7.840228,-1.355436,0.102847,-0.342682,-0.056396,-0.130127,-0.598145,-2.746157,1.087229,8.553558,0.475795,0.737066,-0.262987,0.012451,-0.058838,-0.576172,0.945247,2.405889,9.76393,-1.029427,-1.272564,0.04997,-0.128174,-0.074463,-0.533691,1.341222,1.077083,8.480768,-1.074641,-1.47124,-1.095367,-0.08252,-0.037109,-0.628662
-1.80851,6.773779,7.168954,0.691038,-2.602582,1.031406,0.350586,0.10083,-0.520508,-2.220506,3.196214,7.984459,-1.020921,0.410656,-0.284834,-0.046631,-0.106445,-0.593994,-3.021122,4.383804,9.738342,0.839229,0.381283,-0.059751,0.005615,-0.065674,-0.594971,2.044148,1.904915,9.406692,0.447605,-1.188801,0.358827,-0.144287,-0.087891,-0.51709,0.957753,1.095486,8.892371,0.846035,-1.086263,-1.697765,-0.101807,-0.067139,-0.61084
-0.565524,5.071118,6.584874,0.166453,-2.492015,0.938168,0.301514,0.098633,-0.545898,-1.883621,3.527807,7.878157,-0.275454,0.154206,-0.350046,-0.046387,-0.10498,-0.599121,-3.11344,4.933489,9.754523,-0.675185,0.355953,-0.106757,0.012695,-0.047607,-0.590088,1.731636,4.240232,9.938995,0.347311,-0.87854,0.271087,-0.171631,-0.085205,-0.534424,1.393421,4.721669,9.515132,0.541027,-1.511378,-1.534002,-0.140869,-0.079834,-0.618896
-0.195539,5.293904,6.668068,0.559888,-2.592642,0.831565,0.261719,0.096191,-0.541748,-2.67123,4.989082,8.113837,-0.781088,0.251558,-0.17168,-0.044678,-0.091064,-0.603516,-3.407836,1.670158,9.314359,-1.067809,0.035867,0.209491,0.013672,-0.041992,-0.588623,1.799728,3.241474,9.926995,-0.856986,-0.99009,0.222479,-0.182617,-0.065674,-0.520996,2.645513,2.797944,8.809578,-0.897599,-1.10967,-1.302026,-0.15625,-0.064209,-0.609375
-0.506474,5.431707,7.906461,0.20598,-2.375409,0.642255,0.223633,0.082031,-0.539307,-2.427748,2.852482,7.883116,-1.519035,-0.093164,-0.120643,-0.041016,-0.066895,-0.604736,-2.659236,0.659045,8.446628,0.211897,0.140351,0.060289,0.012939,-0.041504,-0.591064,2.560925,1.545823,9.229098,-0.066604,-0.911925,0.219334,-0.196777,-0.074219,-0.512451,1.066981,0.418488,8.153572,0.109936,-0.819089,-1.637851,-0.169678,-0.087402,-0.595459
-0.00111,4.953876,7.08811,0.763263,-2.779743,0.353497,0.17627,0.074951,-0.540283,-2.3252,1.363827,8.380958,-0.666476,0.014605,-0.04987,-0.040039,-0.062744,-0.614014,-3.76742,2.943149,9.598878,0.929149,0.34987,0.084594,0.022461,-0.050537,-0.594971,2.394316,3.100792,10.13036,0.659536,-0.708586,0.340461,-0.215576,-0.075195,-0.518066,1.78277,2.852021,9.086718,1.164267,-1.330188,-1.951692,-0.19458,-0.111084,-0.591797
0.728358,8.211955,7.923539,0.52704,-2.368269,0.234538,0.14209,0.072021,-0.536377,-2.658968,2.562347,8.424597,-0.172359,0.025737,-0.046503,-0.044678,-0.046875,-0.609131,-3.631226,4.081,9.838126,0.080813,-0.21842,0.298583,0.019531,-0.053955,-0.592529,2.750522,3.595582,10.062467,-0.086475,-0.858152,0.221897,-0.222656,-0.069336,-0.513184,3.480649,4.465123,8.752495,0.275134,-0.882777,-1.705166,-0.202881,-0.125488,-0.584473
0.616315,4.822051,7.263269,-0.522601,-2.67502,-0.142267,0.10083,0.075439,-0.523193,-3.067264,2.846717,8.151621,-0.565059,-0.181156,0.113473,-0.053467,-0.049561,-0.610107,-2.9989,2.178145,9.202208,-0.576433,-0.08255,0.377617,0.016357,-0.045166,-0.58667,2.952437,1.68261,9.293119,-0.237614,-0.454357,0.2016,-0.229004,-0.065186,-0.502686,1.65167,1.762008,7.921872,-0.324174,-0.41687,-1.732959,-0.206299,-0.13501,-0.574951
1.352623,3.594256,7.279348,0.61534,-2.30366,-0.195411,0.065186,0.067383,-0.508789,-2.558944,2.073885,8.442057,-0.614277,-0.418339,0.148252,-0.047119,-0.035889,-0.607666,-3.546127,0.195128,8.746686,0.185769,-0.240744,0.462216,0.010254,-0.048096,-0.59668,2.438785,1.602081,9.425761,0.699722,-0.553563,0.237527,-0.242676,-0.071533,-0.502441,2.043287,0.95541,7.608735,0.871853,-0.881016,-1.956514,-0.217529,-0.161133,-0.55835
2.93432,5.334546,7.425087,1.096498,-2.544753,-0.18461,0.024902,0.053223,-0.502197,-1.999606,1.86239,8.460421,-0.300318,-0.327368,0.117145,-0.063965,-0.023193,-0.601318,-2.536862,1.461702,8.728209,1.450483,-0.326237,0.497643,0.003174,-0.06665,-0.588623,3.639162,2.890478,9.942332,0.733742,-0.665021,0.142033,-0.251465,-0.078857,-0.50415,3.535192,2.809512,7.921698,0.922782,-0.434675,-2.299411,-0.218262,-0.186768,-0.557861
2.184131,6.628868,7.406675,0.874924,-2.184054,-0.32906,-0.004883,0.039795,-0.476562,-2.346241,1.576001,8.047737,-0.078194,-0.310912,0.085288,-0.066406,-0.031738,-0.605957,-3.196168,3.797807,9.366218,1.423553,0.04592,0.379851,0.002686,-0.088379,-0.586426,3.411528,1.664166,9.441619,0.210624,-0.054037,0.090479,-0.25708,-0.081055,-0.493408,2.841871,2.349473,7.528415,0.66234,-0.017697,-2.192411,-0.213135,-0.212891,-0.545166
2.200342,5.417887,6.931023,0.702479,-2.333251,-0.427276,-0.037109,0.025635,-0.45874,-2.696847,1.895541,7.971191,0.465478,-0.504175,0.212401,-0.069336,-0.040039,-0.610107,-4.245009,3.486479,8.835966,0.644822,-0.404314,0.585215,-0.002441,-0.098145,-0.592773,1.853654,0.24655,9.085543,0.937265,-0.184697,-0.091504,-0.26416,-0.096924,-0.494629,2.859661,3.12452,7.228612,1.532643,-0.052566,-1.95741,-0.210205,-0.251465,-0.534424
2.012486,6.648072,6.886842,1.241702,-2.086493,-0.651405,-0.061279,0.002197,-0.444092,-2.370214,2.610897,8.464945,0.242785,-0.600302,0.348224,-0.079102,-0.044678,-0.605469,-3.193166,2.14443,8.098567,0.75315,-0.800998,0.519221,-0.016602,-0.12207,-0.5896,2.863467,1.996363,9.307123,1.837142,-0.59649,-0.160501,-0.269287,-0.123535,-0.49292,2.657367,5.349712,7.33077,1.184565,0.346493,-1.595487,-0.19043,-0.28125,-0.534668
2.53836,7.216285,6.501007,1.230905,-2.326547,-0.829327,-0.083252,-0.028809,-0.41626,-2.014936,1.316289,8.015872,0.2178,-0.593385,0.439511,-0.087891,-0.036621,-0.605957,-2.476872,2.727577,8.065328,1.697062,-0.535153,0.432105,-0.025635,-0.136719,-0.586426,3.86594,3.806667,9.430457,1.120201,0.015372,-0.242681,-0.269775,-0.150146,-0.48877,2.318457,3.9475,7.106415,0.086317,0.398474,-1.396977,-0.17334,-0.301514,-0.53125
2.882543,7.334615,6.535889,1.008401,-2.193746,-1.076628,-0.103027,-0.040527,-0.395752,-1.78442,1.327065,7.351033,0.936563,-0.49,0.593175,-0.099609,-0.060303,-0.601318,-3.393456,4.147011,8.583473,1.594068,-0.5387,0.430795,-0.032471,-0.160645,-0.580811,1.98153,2.270529,8.744537,0.550307,0.456098,-0.343956,-0.264893,-0.151611,-0.496338,2.183263,2.53475,6.323059,1.067575,0.816781,-1.31304,-0.155029,-0.312988,-0.529541
3.487343,7.744103,6.211423,0.614863,-2.055433,-1.209812,-0.119873,-0.057861,-0.374756,-2.378889,2.637573,7.273247,1.30671,-0.686535,0.676315,-0.10791,-0.072021,-0.598877,-3.175999,3.645214,8.410184,1.263422,-0.96725,0.683466,-0.05835,-0.181396,-0.581787,1.702016,1.647636,8.583165,1.621285,-0.108912,-0.408644,-0.266113,-0.175537,-0.490967,0.558255,5.669007,7.317368,1.61545,0.932101,-1.149165,-0.131104,-0.342529,-0.521484
3.074926,7.581669,5.507014,-0.019709,-1.844011,-1.360469,-0.140869,-0.068359,-0.363525,-1.750643,2.372286,7.044078,1.293281,-0.854854,0.767574,-0.127686,-0.094238,-0.58667,-2.138008,4.137723,7.473809,1.972044,-0.921276,0.40634,-0.067871,-0.201904,-0.564453,2.846848,3.8742,8.829678,2.13794,0.124222,-0.401404,-0.271973,-0.208252,-0.487793,1.164356,5.857196,6.909591,0.421713,0.957082,-0.826457,-0.119141,-0.352051,-0.526123
4.38356,6.61406,4.833616,0.221243,-1.819281,-1.572162,-0.143555,-0.076172,-0.333496,-0.993993,2.636328,6.622727,2.581999,-0.972487,0.867686,-0.148926,-0.125732,-0.573486,-2.260504,5.591726,8.045623,1.695551,-0.888898,0.441534,-0.091309,-0.227783,-0.55835,2.31855,4.793172,8.736205,1.295162,0.56977,-0.455968,-0.26001,-0.220947,-0.479004,0.71979,4.128625,6.31434,0.601624,1.380943,-0.641652,-0.088135,-0.355713,-0.515869
4.631997,8.006302,5.488802,0.648617,-1.557582,-1.60789,-0.154541,-0.104736,-0.320557,-0.2901,7.166817,7.374364,2.63769,-0.842014,0.815024,-0.162598,-0.160156,-0.564697,-2.201079,4.566085,7.826775,1.197761,-1.287423,0.719996,-0.102051,-0.24585,-0.552002,1.753597,3.65151,7.983207,1.149745,0.569363,-0.546448,-0.25708,-0.243896,-0.483398,-0.718161,5.591016,6.526911,1.175248,1.494977,-0.5337,-0.070068,-0.377197,-0.516357
3.92695,8.672577,5.282362,0.229762,-1.311733,-1.758755,-0.140625,-0.121826,-0.307129,-1.20909,6.14842,6.652242,0.800825,-0.952759,0.865537,-0.181641,-0.175781,-0.557129,-1.101646,4.194908,7.214802,1.600455,-1.137056,0.455452,-0.132568,-0.259033,-0.537598,1.63031,4.084643,7.591219,2.044889,0.663842,-0.376991,-0.235352,-0.275391,-0.478027,-1.499969,6.474515,6.654799,0.67006,1.598475,-0.408851,-0.030029,-0.385254,-0.518311
4.043946,8.473511,5.209756,0.093604,-1.034515,-1.97803,-0.144775,-0.13501,-0.292725,-0.536421,3.401362,5.691149,1.474042,-1.271919,0.75405,-0.198242,-0.187256,-0.536377,-1.744407,5.754916,6.974458,1.657306,-0.977291,0.446066,-0.137695,-0.279053,-0.524902,0.993712,5.880868,7.450931,1.683968,0.927369,-0.333536,-0.232666,-0.292725,-0.475586,-2.108759,5.661062,6.463326,0.262891,1.63506,-0.237907,-0.016602,-0.380859,-0.513916
4.590283,8.778452,5.10867,-0.233188,-0.791404,-1.961483,-0.127441,-0.147949,-0.290771,0.389309,5.046376,6.6422,2.592262,-1.328047,0.649428,-0.222656,-0.22168,-0.509033,-0.617037,7.239158,6.965362,0.954257,-1.514199,0.458779,-0.175293,-0.29126,-0.502686,0.801915,5.627083,7.133698,0.765389,0.905878,-0.27005,-0.211914,-0.306885,-0.478027,-2.684921,5.689498,6.339721,0.327043,1.448912,-0.051039,0.011719,-0.384277,-0.512207
4.308016,8.352584,5.789367,-0.317444,-0.599805,-1.791496,-0.125,-0.160645,-0.277588,1.359656,7.745321,6.233375,3.212335,-1.208903,0.509476,-0.239502,-0.254883,-0.485596,0.097577,8.02464,7.161419,0.238261,-1.032308,0.316696,-0.195557,-0.301758,-0.5,1.362484,5.320648,6.195528,0.783862,1.090132,-0.189417,-0.209717,-0.317139,-0.462646,-2.554723,6.516835,6.682014,-0.131933,1.303426,-0.051871,0.019287,-0.379639,-0.506104
3.727857,9.195529,5.99461,-0.10951,-0.364648,-1.694312,-0.118652,-0.181152,-0.278076,1.025016,10.369917,6.311909,2.327671,-1.111792,0.490098,-0.265137,-0.285889,-0.453125,-1.363872,7.197766,7.36379,-0.931362,-1.162908,0.247546,-0.201172,-0.287109,-0.504639,0.692707,7.039369,6.662479,0.53632,1.472244,-0.206445,-0.193359,-0.333008,-0.473877,-2.587163,6.813641,6.824884,-0.792278,1.10251,0.313053,0.030029,-0.374268,-0.519775
2.814952,9.449989,6.027569,-0.41498,-0.10444,-1.760353,-0.092529,-0.188965,-0.2854,0.459675,8.60261,5.696473,1.110104,-1.336409,0.413282,-0.281006,-0.294434,-0.441895,-0.314421,5.398799,6.633314,-1.07226,-1.520548,0.46841,-0.226318,-0.268311,-0.498779,-0.477099,7.359239,7.164093,-0.891057,1.564439,-0.321614,-0.163086,-0.318115,-0.487549,-3.075222,6.72336,7.177221,-1.341509,1.015498,0.722067,0.048828,-0.353027,-0.530518
2.518114,8.984723,5.839805,-0.533763,0.086858,-1.734467,-0.074463,-0.186523,-0.286865,1.350791,7.047302,6.375831,1.095151,-1.38441,0.246956,-0.297119,-0.302734,-0.421143,0.518334,5.909089,6.624993,-0.207383,-1.158164,0.136028,-0.241699,-0.269775,-0.498779,-1.011473,5.290067,7.184334,-1.226153,1.505711,-0.296788,-0.144287,-0.297119,-0.49585,-3.435517,6.276197,7.815003,-1.586243,0.93551,1.314775,0.046631,-0.31958,-0.537109
2.593844,9.194011,6.455922,-0.431344,0.301746,-1.785356,-0.05127,-0.199463,-0.301514,2.255895,7.086934,5.695942,1.310428,-1.200826,0.386789,-0.305908,-0.310303,-0.396973,0.715729,7.666633,7.395953,-0.381744,-1.225299,0.196187,-0.260742,-0.262207,-0.487549,-1.128682,5.014656,7.634207,-0.575523,1.260261,-0.328307,-0.122314,-0.294678,-0.508545,-2.264775,5.266634,8.407944,-1.70615,0.725806,1.831931,0.048096,-0.293945,-0.55542
1.6888,10.898021,7.954377,-1.01064,0.258267,-2.320023,-0.024658,-0.202393,-0.306641,2.264575,7.955901,5.309015,1.291364,-1.115153,0.521447,-0.327148,-0.322021,-0.369873,0.898771,6.477545,6.665113,-1.161859,-1.285683,0.133808,-0.277832,-0.249756,-0.492432,-0.682709,5.438822,7.906398,-0.772229,1.11676,-0.514872,-0.109131,-0.282471,-0.512207,-1.686057,4.377832,8.482887,-1.315677,1.191812,2.403356,0.049561,-0.270752,-0.557129
2.8389,9.725922,7.049768,-1.361965,0.594549,-2.459359,0.003418,-0.19873,-0.333252,3.241977,6.91663,5.605445,1.580838,-1.006119,0.709268,-0.34668,-0.327148,-0.349854,1.773767,4.444664,6.416343,-0.732384,-1.236489,0.029804,-0.297119,-0.24707,-0.483398,-1.243654,4.162601,7.71691,-0.925325,1.130061,-0.513499,-0.09375,-0.27124,-0.523682,-3.071522,4.181581,8.884053,-0.937674,1.174089,2.721727,0.049316,-0.252197,-0.569824
-0.430179,9.019141,7.841246,-1.555253,0.599881,-2.462759,0.031982,-0.197754,-0.346924,2.645014,10.729708,4.406783,2.661282,-0.645906,0.425749,-0.353271,-0.345703,-0.319336,2.440237,5.793737,6.629155,0.206557,-0.798379,-0.240146,-0.308594,-0.255371,-0.475342,-1.490847,3.626114,6.751824,-0.117324,0.616097,-0.607311,-0.085449,-0.273438,-0.518799,-2.51465,4.653639,8.749152,-0.30172,1.028769,3.140123,0.043457,-0.246826,-0.565674
0.387441,8.526153,7.8013,-1.009345,0.780257,-2.062985,0.062012,-0.199707,-0.360107,3.221427,13.7153,4.739155,1.345544,-0.819634,0.305243,-0.361816,-0.365723,-0.29541,2.236869,7.524788,7.133221,-0.35144,-0.632332,-0.242945,-0.313721,-0.244141,-0.468994,-0.416006,6.155427,7.08115,0.347399,0.325391,-0.534368,-0.083496,-0.285156,-0.514404,-2.886789,6.295819,9.334074,-0.47251,1.013403,3.27076,0.039062,-0.244873,-0.564941
-1.601795,9.887042,8.53182,-1.289405,0.748766,-1.862595,0.088623,-0.177979,-0.374268,3.511592,12.643538,4.297053,-0.171868,-0.573106,-0.068692,-0.375488,-0.358398,-0.291016,2.870413,6.341713,7.145221,-0.975833,-0.632695,-0.143456,-0.314941,-0.238525,-0.469482,-0.350941,6.505531,7.283091,-0.864858,0.395046,-0.618559,-0.07373,-0.262695,-0.518555,-2.057623,4.671146,8.845095,-1.176837,0.695322,3.461448,0.035156,-0.208252,-0.566406
-0.809231,8.192705,8.479994,-1.85909,1.041481,-1.452609,0.119873,-0.161865,-0.396729,2.971335,8.831518,3.729179,-0.100573,-0.711296,-0.17087,-0.37207,-0.365723,-0.289551,3.620973,4.715525,7.024743,-0.695894,-0.05144,-0.319771,-0.312988,-0.240723,-0.467285,-0.542753,4.695604,5.976963,-0.485745,0.127317,-0.500138,-0.069092,-0.262207,-0.517578,-1.901006,3.852564,8.576502,0.071653,0.635153,3.131501,0.033203,-0.207275,-0.566162
-1.795031,7.269863,8.939467,-1.533276,1.121932,-1.278666,0.145508,-0.149902,-0.406494,3.897741,9.965442,4.037802,1.345781,-0.714498,-0.49338,-0.373047,-0.37207,-0.273193,2.705881,3.638008,6.399535,0.530854,0.309832,-0.397319,-0.318848,-0.243408,-0.471924,0.097006,5.452537,6.852804,0.209157,-0.24937,-0.325883,-0.071289,-0.269775,-0.504395,-0.561875,5.610378,9.088457,-0.043548,0.152717,2.756995,0.024658,-0.210938,-0.559326
-2.397748,6.572251,9.192995,-1.745787,1.24876,-1.068302,0.163574,-0.118164,-0.429932,4.095633,12.050104,5.066306,0.489385,-0.574852,-0.472208,-0.374512,-0.383057,-0.25415,2.784204,6.509805,6.884586,1.84358,0.479638,-0.675678,-0.304443,-0.269775,-0.460205,0.543736,5.076622,6.658388,0.320466,-0.044356,-0.115349,-0.079102,-0.264404,-0.510986,0.274454,3.598179,8.47417,0.042109,0.259117,2.473491,0.01123,-0.196289,-0.561768
-3.475347,5.18983,8.776046,-1.53152,0.967439,-1.01996,0.187256,-0.101074,-0.438232,4.231808,9.742712,4.819384,-0.186293,-0.258601,-0.578857,-0.36377,-0.391113,-0.26001,1.833332,8.886309,7.212304,1.197087,0.601116,-0.390744,-0.298828,-0.289795,-0.451172,-0.6752,5.982784,7.411493,1.53355,0.019019,0.188526,-0.078369,-0.284912,-0.49585,-0.404066,4.116581,8.956283,1.415772,-0.014494,1.688963,0.006836,-0.2146,-0.552002
-3.399978,6.108137,8.899154,-1.080648,0.781791,-1.01878,0.205078,-0.086182,-0.444336,4.041228,9.27341,4.22794,0.493735,0.06776,-0.719255,-0.356201,-0.400879,-0.252686,2.051059,8.517728,7.270651,0.369322,0.195144,-0.420305,-0.290527,-0.297852,-0.451416,-0.961062,8.454246,7.853595,1.340611,-0.380622,0.045031,-0.084961,-0.306641,-0.484375,0.781211,6.500278,9.899853,1.156018,-0.33715,1.617749,-0.008789,-0.228027,-0.539307
-2.589955,6.892184,8.702902,-1.430256,0.612634,-1.074579,0.22168,-0.063721,-0.455322,3.080941,10.777064,3.890219,0.481519,0.215572,-0.661179,-0.344727,-0.40918,-0.248779,2.605208,7.620417,6.333508,0.160521,0.802926,-0.383546,-0.281494,-0.304932,-0.454102,0.14174,7.67953,6.975084,0.278014,-0.444626,0.046689,-0.092285,-0.307861,-0.477051,0.920948,5.568707,8.426444,0.317177,-0.193384,1.354737,-0.018555,-0.226807,-0.537109
-2.894636,6.186724,8.643185,-2.242785,0.816228,-1.088704,0.240723,-0.03418,-0.466553,3.20855,10.954094,3.908361,-0.523052,0.167995,-0.673921,-0.335938,-0.416748,-0.256348,1.083901,7.14698,6.831148,0.203431,0.749759,-0.452482,-0.271729,-0.303711,-0.463623,-0.453859,6.970145,6.659416,0.508711,-0.231541,-0.046485,-0.095459,-0.313721,-0.470459,0.666837,5.070521,8.931875,0.409101,-0.419309,1.170154,-0.029297,-0.230225,-0.530518
-2.822108,4.17581,9.211914,-2.509154,0.77,-0.995527,0.253174,0.011719,-0.487305,3.179117,8.43527,3.843722,-0.987326,0.299694,-0.58997,-0.329346,-0.421631,-0.269775,2.447599,7.747476,6.533425,0.155294,0.539096,-0.186252,-0.266846,-0.313965,-0.466064,-1.055481,8.077981,7.335151,0.750908,-0.719813,0.023663,-0.11084,-0.316895,-0.471924,1.527778,5.684348,9.675594,0.360369,-0.731247,0.716156,-0.050537,-0.224365,-0.532715
-3.505161,3.189885,9.606738,-2.376571,0.899394,-0.935929,0.268066,0.04541,-0.496094,3.717088,7.78811,3.851475,0.020218,0.409826,-0.789503,-0.311768,-0.416748,-0.276611,1.241196,7.616684,6.550348,-0.003827,1.090723,-0.337219,-0.25708,-0.307617,-0.471436,0.494092,9.322829,7.981266,0.186746,-1.011746,0.092083,-0.128906,-0.321533,-0.464844,2.264619,5.892662,9.59575,-0.203353,-0.717881,0.102896,-0.062744,-0.225098,-0.529053
-2.825978,2.245855,8.980474,-2.298977,0.840558,-0.920549,0.280029,0.085693,-0.503418,2.880342,9.674664,3.922447,0.397629,0.847039,-0.626667,-0.30835,-0.426758,-0.26001,0.471731,7.487221,6.833689,0.08215,0.73958,-0.355707,-0.24585,-0.312012,-0.484375,0.277587,7.399337,7.04549,-0.883814,-0.496084,0.117875,-0.138916,-0.30542,-0.465332,1.157206,5.010732,8.988332,-0.387679,-0.618765,-0.234662,-0.075684,-0.214844,-0.524414
-3.677004,3.067158,9.399767,-1.919871,1.071462,-1.025065,0.296143,0.118164,-0.514648,2.054227,10.28371,3.99399,-0.253577,0.704051,-0.568605,-0.293457,-0.438477,-0.279297,1.309666,6.647035,6.599603,0.06973,0.894799,-0.293447,-0.237061,-0.32959,-0.471191,-1.399525,4.693666,6.497242,-0.237593,-0.839964,0.063875,-0.152588,-0.301758,-0.471924,0.408242,4.824588,8.581433,0.096576,-1.153216,-0.375205,-0.091064,-0.217041,-0.528564
-4.433972,3.389888,9.646381,-2.451156,1.16752,-1.054241,0.314941,0.144287,-0.5,2.7564,9.688321,3.366437,-0.396898,0.975852,-0.495309,-0.282227,-0.433594,-0.296875,-0.030339,6.090379,6.682323,0.861324,1.146194,-0.41898,-0.212646,-0.330811,-0.472412,0.226211,5.616728,7.194822,1.272242,-1.494943,0.138782,-0.174316,-0.327637,-0.441406,1.766714,5.791865,8.492127,0.543283,-1.331716,-0.436434,-0.111816,-0.239258,-0.502441
-5.090824,1.154491,8.123572,-2.685859,1.032829,-0.759224,0.338623,0.199707,-0.502441,1.041479,9.920328,3.086593,-0.223482,0.971338,-0.695573,-0.263184,-0.438477,-0.308105,0.261218,8.907239,6.936983,1.096763,0.953001,-0.445691,-0.199219,-0.350098,-0.468262,0.731896,8.422816,7.40576,1.298753,-0.885565,0.170974,-0.179688,-0.334473,-0.430908,1.112528,6.825702,8.507899,0.637211,-1.146452,-0.379069,-0.116455,-0.236328,-0.493652
-4.042918,-0.556934,7.040914,-2.679108,1.094852,-0.369852,0.352051,0.237305,-0.498047,1.496934,9.797219,3.013014,-0.626444,0.719808,-0.651841,-0.241455,-0.44043,-0.323486,-0.339103,9.224795,7.112713,-0.61381,1.251795,-0.328168,-0.180176,-0.341553,-0.47583,-1.020576,9.230855,7.24599,0.015473,-1.054686,0.168972,-0.193359,-0.334473,-0.424072,1.194121,7.873745,8.331122,0.081432,-1.458978,-0.401786,-0.139648,-0.242676,-0.48291
-5.819817,-2.214877,7.148024,-1.785364,1.100535,0.03229,0.369141,0.264648,-0.487793,1.062636,8.627991,3.39915,-0.542697,0.748647,-0.665182,-0.23999,-0.447021,-0.336914,-0.988848,6.170652,6.477361,-0.790417,0.653552,-0.247755,-0.174561,-0.330566,-0.486572,0.441305,7.035664,7.116216,-0.878092,-1.723792,0.07148,-0.216309,-0.323486,-0.413818,1.994922,7.105572,8.108541,-0.732156,-1.352487,-0.309108,-0.155029,-0.23291,-0.477295
-5.783357,-0.408185,7.559413,-0.903087,0.791862,0.101558,0.380615,0.283203,-0.484619,1.553142,10.568908,3.831291,-0.017598,0.750468,-0.738968,-0.219482,-0.449219,-0.331543,0.493423,5.966537,7.104487,0.514516,0.932538,-0.377331,-0.158936,-0.35083,-0.48999,1.819192,5.514401,7.022197,0.12925,-1.230506,0.249495,-0.234131,-0.320068,-0.405762,1.638227,5.182709,7.925471,-0.654663,-1.322991,-0.543925,-0.177002,-0.225342,-0.468994
-5.491644,-0.158508,6.740893,-1.049746,0.603935,0.134246,0.385498,0.287598,-0.484619,1.270528,10.458369,4.69003,-1.546381,0.918613,-0.66023,-0.205811,-0.439941,-0.355713,-1.447361,6.840865,7.389667,1.077359,1.201202,-0.370109,-0.135742,-0.35083,-0.482666,0.971275,6.811373,8.195918,0.631048,-1.298053,0.179578,-0.253906,-0.335938,-0.398682,2.389052,4.210335,7.705731,-0.038204,-1.592166,-0.570779,-0.19458,-0.237061,-0.465332
-5.225191,-0.233017,6.662867,-1.360025,0.480564,0.348799,0.400879,0.320557,-0.476074,0.371664,6.745792,3.160978,-1.377832,0.895266,-0.537273,-0.183105,-0.427246,-0.381104,-1.487896,7.975218,7.430973,1.174994,0.597171,-0.24373,-0.140137,-0.373779,-0.468994,2.326798,6.489591,7.86283,0.445321,-1.491774,-0.040034,-0.262939,-0.327393,-0.383057,2.791281,4.451131,7.596511,0.83855,-1.334097,-0.490164,-0.20459,-0.239014,-0.445312
-6.131032,-2.215852,5.68112,-1.586359,0.243052,0.750494,0.396729,0.332275,-0.467041,-0.331336,8.304054,3.61918,0.091909,0.704608,-0.596142,-0.174805,-0.434326,-0.377197,-1.112571,7.676946,7.029479,0.606237,0.930733,-0.342405,-0.126465,-0.383789,-0.472412,2.030108,5.751995,7.389436,0.834456,-0.947609,-0.060765,-0.285645,-0.347412,-0.367188,2.184863,6.74732,7.705159,1.259569,-1.354614,-0.237489,-0.232178,-0.263184,-0.423096
-5.238287,-3.573649,5.161229,-0.915206,-0.014369,1.154341,0.402832,0.338379,-0.469238,-0.424895,10.867534,4.772154,-0.927684,0.512068,-0.501658,-0.159912,-0.426758,-0.396484,-2.514686,6.307643,6.293907,1.103535,0.688738,-0.185977,-0.109375,-0.40332,-0.460449,1.057352,6.485201,7.411228,1.226654,-1.317992,-0.216629,-0.29834,-0.358887,-0.351318,3.016326,6.734612,7.403949,0.218653,-1.446659,0.335673,-0.252686,-0.26416,-0.413574
-5.950009,-3.53468,5.28583,0.02985,-0.146634,1.410302,0.413086,0.327148,-0.469727,-0.416417,7.795696,4.744781,-1.861426,0.429332,-0.409426,-0.15332,-0.411377,-0.420898,-1.640322,8.012789,6.064396,1.715608,0.546452,-0.428643,-0.096436,-0.419678,-0.454102,2.872447,7.193905,7.041184,1.235537,-1.540747,-0.321861,-0.304932,-0.377197,-0.327148,3.276527,4.190206,6.264541,0.485731,-1.135393,0.358087,-0.265381,-0.271973,-0.39502
-5.459285,-1.617795,6.004746,0.693221,-0.470043,1.491056,0.413574,0.312256,-0.478516,-0.199259,6.242644,5.054443,-0.882867,0.576391,-0.384839,-0.137207,-0.39917,-0.428711,-2.874601,8.414557,6.019979,1.152198,0.625598,-0.209085,-0.088135,-0.437012,-0.440674,3.047579,7.62187,7.00001,0.926282,-0.918687,-0.362231,-0.309326,-0.389404,-0.317871,3.375376,5.567074,6.401177,1.342145,-1.274759,0.353414,-0.277832,-0.281738,-0.380859
-5.145354,-1.28039,5.751917,0.594337,-0.572434,1.527838,0.411865,0.29248,-0.483154,-1.30375,8.084281,5.511993,-0.74362,0.717662,-0.254423,-0.135986,-0.39624,-0.44043,-2.965268,7.282389,5.190731,1.358411,0.127247,-0.093609,-0.089111,-0.449707,-0.420654,1.717568,6.806607,6.199925,0.823633,-0.927667,-0.549712,-0.313477,-0.403564,-0.296875,3.906366,6.447302,6.154703,0.644005,-0.981528,0.662325,-0.294189,-0.282715,-0.363037
-4.405072,-0.925323,5.36712,1.076907,-0.580768,1.533775,0.405029,0.271729,-0.48291,-1.73707,7.26965,4.652742,-1.472254,0.524778,-0.056035,-0.134277,-0.381592,-0.457031,-2.014132,7.819375,4.678981,2.267527,0.331822,-0.215151,-0.083984,-0.468506,-0.411377,1.861132,6.659689,5.661369,1.539018,-1.093067,-0.725089,-0.323486,-0.419189,-0.27002,2.524647,4.542156,5.540343,0.530953,-0.904627,0.81145,-0.315674,-0.282227,-0.345947
-4.254015,0.92936,5.625474,1.299705,-0.582961,1.521121,0.401123,0.24707,-0.501465,-1.143867,6.420915,5.183368,-1.160585,0.424426,0.176352,-0.122314,-0.360596,-0.469482,-2.166344,9.100983,4.98345,2.792044,0.272922,0.090984,-0.083008,-0.490967,-0.380615,2.806355,8.296901,5.026847,2.126155,-1.137547,-0.792072,-0.323242,-0.438721,-0.251465,4.32919,3.630014,4.365822,1.342721,-1.46842,0.578632,-0.333252,-0.28125,-0.33252
-3.837141,1.633601,5.698186,1.102455,-0.530663,1.824182,0.394775,0.227295,-0.507568,-1.395009,7.607642,4.731099,-0.896611,0.431302,0.208582,-0.120117,-0.354492,-0.486816,-2.025467,9.177684,3.623928,2.648956,0.436078,0.202897,-0.076172,-0.529785,-0.340332,3.176347,8.982954,3.858358,2.01206,-0.67789,-1.156052,-0.321045,-0.458984,-0.229492,4.978832,5.145176,3.401423,2.320182,-0.836637,0.579817,-0.344482,-0.292969,-0.307861
-4.45963,1.508151,5.459173,0.918443,-0.66988,1.946888,0.392578,0.191162,-0.503418,-2.049616,7.585316,5.80164,-1.282964,-0.024241,0.278191,-0.129639,-0.339355,-0.49292,-2.916143,8.141353,2.570161,2.934745,0.375266,0.28385,-0.078613,-0.547363,-0.307373,1.518846,8.06421,3.199535,2.187571,-0.272624,-1.254711,-0.305176,-0.495605,-0.194092,3.089707,6.816861,3.276651,2.23592,-1.121146,0.748645,-0.356445,-0.310303,-0.270264
-4.678505,2.049689,6.044516,1.467092,-0.78243,2.121987,0.38208,0.162842,-0.510986,-1.199701,7.125626,6.010473,-1.086765,-0.032059,0.180905,-0.123047,-0.31958,-0.498291,-1.9642,9.699649,1.931487,3.508196,0.278371,0.24434,-0.074463,-0.564209,-0.256348,0.642168,8.144583,2.456932,3.071885,-0.594065,-1.347822,-0.295898,-0.518799,-0.158691,4.664944,5.999725,2.509081,2.059244,-1.527752,0.831998,-0.373291,-0.311523,-0.234619
-3.881167,3.167116,6.31428,1.263197,-0.979082,2.110925,0.372559,0.13916,-0.507324,-1.200696,7.659013,6.506998,-1.357039,-0.070299,0.216808,-0.119385,-0.300293,-0.516357,-2.512339,11.438732,1.828717,2.843413,0.521273,0.207809,-0.088623,-0.581055,-0.217529,2.22967,11.25194,2.256478,3.587721,-0.781666,-1.248834,-0.279785,-0.538574,-0.101318,6.594999,6.465405,1.186346,2.694685,-1.483132,0.253198,-0.376953,-0.32251,-0.193115
-3.204672,1.880918,5.577585,1.215299,-1.164504,2.186617,0.340088,0.108398,-0.508545,-1.402413,6.715558,6.495722,-1.656563,-0.012766,0.245803,-0.123779,-0.276367,-0.52002,-3.176891,10.898838,1.802947,1.450921,0.190545,0.123152,-0.086426,-0.5896,-0.194824,1.41281,12.531386,2.42911,1.846839,0.172097,-1.072738,-0.280029,-0.554443,-0.08374,6.266009,9.931444,1.495314,2.681415,-0.890397,0.026026,-0.393799,-0.332031,-0.1604
-2.626969,1.627252,5.50505,1.893527,-1.040674,2.582191,0.319092,0.072754,-0.505859,-2.237678,6.381243,6.762519,-1.283026,-0.267163,0.246621,-0.128418,-0.259521,-0.539062,-2.177939,8.291532,1.081045,0.974496,0.02867,0.272458,-0.09375,-0.599121,-0.18335,-0.980455,9.298195,1.874148,0.518083,-0.09942,-0.969192,-0.269043,-0.565918,-0.077148,4.964555,9.526705,1.751688,0.38424,-0.838218,0.141741,-0.399658,-0.331055,-0.147705
-3.017334,4.019565,6.439847,3.021094,-1.25959,2.678618,0.289795,0.016357,-0.497803,-1.049722,5.950218,8.614886,-1.451954,-0.381295,0.076928,-0.135254,-0.244629,-0.537354,-1.639656,8.161884,0.901556,1.920944,0.399206,0.061174,-0.091797,-0.607422,-0.15332,1.005495,7.715511,0.372479,2.016862,-0.60062,-0.937015,-0.260986,-0.578369,-0.043701,6.180804,5.024199,-0.475636,0.792008,-1.020015,-0.092888,-0.405762,-0.334961,-0.124268
-2.72919,7.433657,6.478855,3.138067,-1.254952,2.69236,0.256592,-0.04126,-0.479248,-0.540306,4.581157,9.031883,-1.239425,-0.087025,-0.018525,-0.131592,-0.232178,-0.554932,-2.135274,10.753169,0.477474,1.866857,0.596583,-0.124437,-0.076904,-0.612061,-0.130859,1.225203,11.923659,1.11959,2.505863,0.265543,-0.576718,-0.251709,-0.5896,-0.01001,6.957589,8.237904,-0.15716,2.626337,-0.732504,-0.733328,-0.400879,-0.356445,-0.094238
-2.260956,9.308653,5.922429,2.184858,-1.837925,2.420795,0.228027,-0.068359,-0.474854,-0.822854,4.272836,9.449018,-0.974508,0.057773,0.003445,-0.131104,-0.214111,-0.563721,-2.170935,11.016551,0.459442,0.580961,0.311175,0.001052,-0.080566,-0.615234,-0.117676,-0.697769,11.729881,1.336737,-0.124641,0.203208,-0.561272,-0.23584,-0.589844,-0.02124,5.481474,10.81821,1.044443,0.503636,-0.143458,-0.613392,-0.385254,-0.35498,-0.092529
-1.305997,8.323238,5.092554,1.245798,-1.971135,2.135839,0.182617,-0.093018,-0.457764,-0.355006,3.96689,8.47627,-0.477909,0.084641,0.100031,-0.132812,-0.214355,-0.559326,-1.966721,8.645052,-0.724153,0.125183,0.343366,-0.106895,-0.081787,-0.620117,-0.111572,0.646074,6.821129,-0.136821,-0.215284,-0.098678,-0.723139,-0.229492,-0.59668,-0.012207,4.964125,6.204731,-0.359261,-0.402079,-0.424712,-0.268596,-0.389404,-0.357422,-0.081543
-0.620837,7.501982,5.119248,1.299105,-2.573016,1.952503,0.131592,-0.111572,-0.440674,-0.465721,5.284828,8.435482,-0.291998,0.322524,0.23352,-0.129395,-0.207031,-0.575439,-2.565242,8.225111,-1.172824,1.242738,0.308992,-0.086746,-0.074219,-0.621826,-0.098633,0.864015,8.348136,-0.060296,2.090703,0.294054,-0.411507,-0.230225,-0.602783,0.016602,6.24149,6.022963,-0.92356,1.599731,-0.243479,-0.744619,-0.386719,-0.37085,-0.059326
0.810575,8.882555,5.229151,1.601831,-2.790364,1.613735,0.089844,-0.129639,-0.421143,-0.692322,5.355877,7.922648,-0.403378,0.394416,0.385527,-0.125244,-0.192627,-0.567383,-2.26594,10.318717,-1.027567,1.396877,0.238034,-0.148153,-0.078369,-0.628418,-0.070801,0.017881,12.698434,0.986479,1.282077,0.368967,-0.671308,-0.215576,-0.610596,0.029297,5.639996,9.916149,-0.131896,1.429052,0.006615,-0.533929,-0.375244,-0.376465,-0.052002
2.342582,9.40893,4.91819,1.065846,-2.897446,1.432937,0.037354,-0.141113,-0.397949,-1.431537,6.889798,7.365059,-1.007025,0.610813,0.468279,-0.118652,-0.180664,-0.584473,-2.406112,10.586384,-0.0834,0.342358,0.259895,-0.063536,-0.072021,-0.627197,-0.072754,-0.138188,10.378288,-0.124704,-0.687191,0.663664,-0.62796,-0.213867,-0.61499,0.020996,5.221765,8.853832,-0.476006,0.168365,0.183864,-0.478151,-0.379395,-0.382568,-0.04834
3.123683,8.325537,4.288372,0.884814,-2.66688,1.158145,0.000244,-0.144775,-0.384033,-2.731896,3.71325,5.91908,-1.412089,-0.037593,0.407279,-0.114502,-0.159912,-0.588867,-1.929773,8.48422,-0.558832,-0.183865,0.26431,0.047494,-0.070801,-0.630127,-0.075195,-1.437874,7.60758,-1.287537,0.497927,0.726996,-0.567223,-0.202393,-0.617432,0.018066,4.805451,7.675462,-1.211414,0.924732,0.156402,-0.647362,-0.369873,-0.385498,-0.046387
4.049534,8.289361,3.39844,1.23249,-2.317881,1.230749,-0.034912,-0.154541,-0.356445,-0.703574,2.913388,6.981139,-0.201946,-0.254353,-0.004497,-0.11377,-0.158936,-0.591309,-1.438731,7.361354,-1.441707,0.616407,0.587882,0.072244,-0.064209,-0.631836,-0.05835,-0.779519,10.68865,-0.958643,1.707139,0.356545,-0.360421,-0.196045,-0.619873,0.041992,5.533547,9.391836,-0.724462,1.219824,0.1108,-0.912822,-0.358887,-0.395752,-0.033203
2.96475,10.823796,4.21161,1.001308,-2.166604,1.194301,-0.058838,-0.159424,-0.324951,-1.239626,4.202435,9.146022,0.192806,-0.084066,0.006788,-0.127686,-0.161377,-0.591064,-2.218774,9.266689,-1.367321,1.12867,0.812799,-0.130535,-0.068604,-0.633545,-0.04834,-0.410648,11.770466,-0.306771,0.107215,0.855289,-0.372429,-0.18335,-0.624512,0.047119,4.454581,9.038544,-0.647523,0.476134,0.39593,-1.077011,-0.343018,-0.408203,-0.025635
3.007424,10.724773,5.731001,-0.244538,-2.528023,0.809909,-0.098145,-0.15332,-0.311768,-0.430847,4.819669,7.604803,0.367321,-0.229262,-0.090796,-0.125,-0.175293,-0.577148,-2.775599,10.36087,-1.526313,0.080209,0.527025,0.070901,-0.067139,-0.645752,-0.048096,-0.932317,8.670371,-0.254212,-0.375569,0.917932,-0.26657,-0.190186,-0.625244,0.03125,4.654557,8.134904,-0.471061,0.87111,0.07492,-1.228099,-0.339111,-0.419189,-0.028076
3.609663,9.102251,4.828166,-0.088745,-2.755503,0.442147,-0.123047,-0.158936,-0.290039,-0.118821,4.219284,8.467196,-0.425088,0.19604,0.16008,-0.121094,-0.165527,-0.583252,-2.46824,8.696593,-2.37517,-0.413075,0.038521,0.154866,-0.066895,-0.640137,-0.056641,-0.406909,8.543368,-0.355295,0.76719,0.615166,-0.045578,-0.186523,-0.635254,0.039307,4.62566,9.294787,-0.212124,0.823247,0.623057,-1.466272,-0.321533,-0.44043,-0.023438
3.062088,10.449753,4.734374,-0.540434,-2.970418,-0.386065,-0.141357,-0.148682,-0.273438,-1.316433,2.63453,6.322363,0.109918,0.176679,0.571294,-0.132568,-0.169434,-0.589355,-1.64701,7.817795,-1.999084,0.27999,0.203258,0.115374,-0.064453,-0.645752,-0.038818,-0.115994,10.542712,0.117742,0.521888,1.013922,-0.230925,-0.180908,-0.631836,0.039062,2.848647,8.910649,-0.04297,0.241587,0.625124,-1.203034,-0.307129,-0.443115,-0.029297
4.676827,8.775318,3.710469,-0.616646,-2.911418,-0.996716,-0.154785,-0.15918,-0.236816,-0.877558,4.777212,6.68425,0.452743,0.02373,0.727186,-0.125244,-0.179688,-0.586182,-1.602015,8.552092,-1.67595,0.866632,0.354123,0.278397,-0.073975,-0.643066,-0.020508,-1.452668,9.615535,-1.167157,-0.269119,1.134767,-0.199878,-0.17627,-0.637939,0.044189,3.039413,7.970477,-1.226301,0.686441,0.448508,-1.257932,-0.288086,-0.454346,-0.018311
5.144373,8.962433,3.67071,-0.933043,-2.621362,-1.238267,-0.166016,-0.157471,-0.216553,-1.102581,5.529276,6.719127,0.023484,-0.111421,0.643533,-0.134766,-0.175537,-0.584961,-1.591163,8.980591,-1.610867,0.535868,0.519051,0.358788,-0.078613,-0.648926,-0.015625,-1.391236,8.279765,-2.360467,0.738368,0.887661,-0.315941,-0.179199,-0.638184,0.056885,2.487324,9.246571,-1.183652,1.495243,0.53484,-1.378334,-0.28125,-0.464111,0.000977
5.018663,7.317593,3.518858,-0.70265,-2.16976,-1.206539,-0.174072,-0.166748,-0.205566,-0.592587,4.17178,5.731665,0.555558,-0.264492,0.414202,-0.136719,-0.182129,-0.578369,-2.224377,9.030057,-2.460006,0.566746,0.39954,0.438198,-0.082275,-0.640137,-0.008057,-0.774082,10.505886,-1.041389,1.591816,0.934031,0.011407,-0.179199,-0.640625,0.070801,2.89351,10.79881,-0.839304,1.299397,0.112751,-1.647359,-0.26416,-0.481689,0.011475
3.86108,9.050346,4.162117,0.011821,-1.695347,-1.291756,-0.165039,-0.176514,-0.192139,-1.006201,6.769109,6.14276,1.190657,-0.32193,0.176928,-0.141357,-0.200928,-0.580566,-2.113315,10.467852,-1.805577,0.191355,0.269522,0.329031,-0.091553,-0.639404,-0.010742,-0.692447,11.938795,-0.217863,0.51001,1.062129,-0.002113,-0.175293,-0.636719,0.071533,3.307616,11.051381,-0.670799,0.820426,0.627153,-1.759744,-0.243408,-0.488037,0.01001
4.040281,10.971656,5.009333,-0.686368,-1.60042,-1.704577,-0.163574,-0.185303,-0.187256,-0.700465,6.647218,7.125586,-0.074329,-0.664199,0.397031,-0.155762,-0.192627,-0.567383,-1.891687,9.823792,-1.683333,-0.970733,-0.149542,0.590559,-0.100586,-0.648193,-0.019287,-0.594047,10.81635,-0.425471,-0.367205,1.121549,0.191453,-0.18457,-0.635254,0.060791,1.706269,10.966155,-0.355958,0.146609,0.659755,-1.955991,-0.223633,-0.498047,0.002441
5.248728,10.110165,5.436979,-1.571308,-1.224043,-1.886823,-0.149414,-0.198975,-0.189697,0.3242,4.083958,6.334335,0.506979,-0.588602,0.258753,-0.163574,-0.212402,-0.566406,-0.021469,8.244865,-2.496509,-0.496291,-0.223759,0.698079,-0.107178,-0.645508,-0.02124,-0.474059,9.928123,-1.401084,-0.239825,1.079955,0.406209,-0.190674,-0.639893,0.055664,1.664888,9.388829,-1.119826,-0.389613,0.703213,-2.380594,-0.197754,-0.52002,-0.003906
5.072832,8.043491,5.362419,-1.577273,-0.723321,-2.033313,-0.129639,-0.203369,-0.194092,0.384778,7.952875,7.946809,0.857362,-0.603236,0.143904,-0.175049,-0.232178,-0.552002,-0.656943,9.199822,-2.04723,0.248575,0.494931,0.364577,-0.114258,-0.639404,-0.021729,-0.032558,9.735469,-1.833362,-0.157583,1.191656,0.338118,-0.192871,-0.642334,0.050293,-0.030228,9.134206,-1.446035,0.402146,0.923119,-2.477968,-0.16626,-0.533936,0.000244
5.032831,9.412576,6.092048,-0.83965,-0.230495,-2.09892,-0.111816,-0.208008,-0.204102,0.589089,5.316703,7.332282,-0.285381,-0.851946,0.224739,-0.177734,-0.219727,-0.554199,-2.253018,9.746101,-2.317083,-0.056753,0.03658,0.662252,-0.121094,-0.642334,-0.012695,-0.573008,9.264077,-1.262458,-0.203775,1.267397,0.370263,-0.202637,-0.635742,0.040527,-0.502605,10.867075,-0.177597,0.295778,0.495849,-2.219555,-0.145996,-0.541016,-0.003662
4.68355,10.76914,6.65717,-1.439859,-0.08639,-2.231579,-0.084473,-0.215332,-0.213867,1.208056,5.182788,8.153233,1.359532,-0.48854,0.054999,-0.190186,-0.245361,-0.537354,-1.586056,10.863418,-1.86406,-0.518152,-0.375916,0.347418,-0.126465,-0.641846,-0.031006,-0.555543,8.847944,-0.767326,0.103972,1.092118,0.256529,-0.201416,-0.640381,0.041748,-0.359763,9.810033,-0.59683,-0.29615,0.8106,-2.03281,-0.116455,-0.549561,-0.002197
3.922909,10.018439,6.705198,-2.161658,0.030534,-2.220911,-0.063721,-0.211182,-0.246094,0.249276,8.917805,8.430738,1.300356,-0.316041,0.288695,-0.187012,-0.253418,-0.532227,-1.085333,11.061765,-1.459046,-1.766942,-0.507156,0.311987,-0.134033,-0.647705,-0.054199,-0.11262,10.838278,0.208391,-0.153502,1.103086,0.419821,-0.207031,-0.636475,0.021484,-1.572614,11.139075,-0.282022,-0.078975,0.740453,-2.060338,-0.095459,-0.558105,-0.020996
2.806169,8.953628,7.117365,-2.417836,0.326279,-2.094341,-0.041748,-0.210938,-0.27002,0.833999,9.349254,8.116666,-0.114206,-0.350002,0.056038,-0.194092,-0.260254,-0.535645,-0.499939,8.964507,-1.654625,-2.316146,-0.728883,0.381204,-0.134766,-0.645752,-0.075195,-0.157962,10.483464,-0.663726,-2.189729,1.351351,0.170898,-0.211426,-0.643555,-0.01416,-0.815024,12.252178,-0.007955,-1.753515,0.688177,-1.261314,-0.081299,-0.567139,-0.043701
2.07359,7.584458,7.639304,-2.586113,0.69745,-1.648087,-0.008057,-0.195801,-0.289062,0.861547,6.20923,6.636774,0.168999,-0.296548,-0.111631,-0.19043,-0.262207,-0.523926,-0.267576,8.500331,-1.609527,-1.309577,-0.284446,0.080875,-0.139404,-0.644287,-0.093262,-0.293934,7.490601,-1.464347,-2.120927,1.213752,0.169463,-0.204102,-0.641846,-0.033203,-1.366722,9.025323,-0.020079,-2.583194,0.941312,-0.825683,-0.060547,-0.568359,-0.068848
1.788963,6.052251,7.793801,-2.152463,1.002421,-1.245724,0.008545,-0.182617,-0.312256,0.774446,7.521524,7.1061,1.292436,-0.27409,-0.51474,-0.193848,-0.282227,-0.517578,-1.212222,11.095118,-0.618295,-0.674455,-0.374642,0.054315,-0.138916,-0.644531,-0.105957,-0.264586,8.497317,-0.472614,-0.736742,1.073071,0.195416,-0.209961,-0.644043,-0.052002,-1.891454,8.231992,0.060411,-1.301958,0.714731,-0.652094,-0.055176,-0.571289,-0.090332
1.963013,5.78266,8.04537,-1.752998,1.353554,-1.04074,0.030273,-0.16626,-0.337646,0.697034,8.70425,7.315253,0.502288,-0.411441,-0.290289,-0.195312,-0.290527,-0.508789,-0.643863,12.634757,-0.78539,-1.991601,-0.72142,0.014905,-0.139648,-0.629883,-0.143311,-0.064395,11.318009,0.878284,-1.325048,1.05375,-0.053014,-0.205078,-0.643066,-0.078369,-1.129241,11.47825,1.637694,-0.93753,0.568165,-0.098542,-0.054932,-0.564697,-0.108643
1.395033,6.718047,8.659752,-1.463511,1.635174,-0.845847,0.055908,-0.141846,-0.366699,1.231688,7.159413,6.935266,-0.008908,-0.431349,-0.364228,-0.198242,-0.292725,-0.51123,-0.92788,11.31841,-0.423538,-3.349709,-0.749098,0.11958,-0.143555,-0.62915,-0.186768,-0.047727,10.614972,0.562914,-2.580448,0.953567,-0.114969,-0.203125,-0.624268,-0.129883,-1.011761,12.627329,2.582833,-2.382135,0.870043,0.502477,-0.060303,-0.544434,-0.148926
0.593482,7.546691,8.677862,-1.756755,1.869802,-0.686769,0.08374,-0.133301,-0.380859,1.103775,6.831988,6.84487,1.072669,-0.296561,-0.314097,-0.196045,-0.306396,-0.496094,-0.557249,10.319199,-0.161696,-3.165886,-0.971786,-0.023802,-0.14502,-0.605957,-0.228516,-0.173548,10.331401,0.777755,-2.392598,0.960011,-0.245427,-0.192871,-0.628906,-0.159668,-2.170643,10.866603,2.037821,-3.375324,0.687595,0.98762,-0.069824,-0.540039,-0.189941
0.405956,7.096469,8.629186,-2.083423,1.843849,-0.584393,0.112549,-0.101807,-0.402832,1.132145,8.545112,7.183203,0.901465,-0.237043,-0.359595,-0.204346,-0.330322,-0.488281,0.193074,9.999795,1.143591,-3.052375,-0.798367,0.041972,-0.149414,-0.595703,-0.270264,-0.62187,11.904931,1.864219,-3.014573,0.711502,-0.180393,-0.184082,-0.608887,-0.203857,-1.372185,8.841622,3.113502,-3.66592,0.400862,0.87435,-0.078369,-0.510254,-0.239746
0.467129,5.365735,7.965959,-2.318638,2.074509,-0.463286,0.138428,-0.081787,-0.420654,1.110037,7.584777,6.073434,0.530643,-0.263742,-0.246415,-0.199707,-0.337158,-0.47876,-0.337892,9.885023,1.897617,-2.736195,-0.738142,-0.176979,-0.150879,-0.570801,-0.303467,-0.094612,9.188715,2.3795,-4.160923,0.48569,-0.516544,-0.174316,-0.593262,-0.262451,-0.432647,8.297987,4.046258,-2.595471,0.521708,1.278018,-0.092529,-0.499023,-0.270508
0.054687,4.419783,7.975566,-1.815841,2.287332,-0.214716,0.170654,-0.049561,-0.432617,1.21487,7.763133,5.616613,0.874535,-0.401091,-0.208633,-0.195312,-0.34375,-0.467529,-0.031252,10.261457,2.864332,-2.674198,-0.890307,-0.074177,-0.157959,-0.557617,-0.338135,-0.05796,7.038475,3.458457,-2.588437,0.41112,-0.397933,-0.163818,-0.568359,-0.290039,-0.517638,10.534335,5.127879,-2.323224,0.497998,1.536355,-0.103027,-0.467041,-0.293945
-1.094575,4.756939,8.592498,-1.704917,2.530111,0.083863,0.200195,-0.032471,-0.44458,1.226738,8.95533,6.090953,0.858167,-0.43233,-0.269126,-0.202637,-0.356689,-0.458984,-0.136489,10.104653,3.356849,-2.804759,-0.801461,-0.128458,-0.161133,-0.543457,-0.363525,-0.704144,10.547678,4.308142,-1.567951,0.179801,-0.520538,-0.159668,-0.566162,-0.314209,-0.156498,10.15702,5.272363,-3.365953,0.647378,1.909258,-0.12085,-0.437256,-0.333496
-2.059519,4.136384,8.839007,-1.809564,2.341497,0.476437,0.22583,-0.018555,-0.442871,1.415779,9.59093,6.999016,0.475781,-0.502781,-0.293313,-0.197021,-0.364014,-0.449707,0.437599,9.414053,3.992865,-2.993932,-0.897373,-0.03822,-0.17041,-0.506836,-0.409424,-0.358073,12.071245,4.743184,-3.018933,-0.07088,-0.539818,-0.152344,-0.549805,-0.340576,-0.517348,7.096102,5.16629,-3.352209,0.628778,1.642536,-0.130859,-0.408447,-0.362305
-1.803028,3.265998,8.872302,-1.701983,2.247134,0.748435,0.250732,0.013672,-0.462891,1.842076,8.580373,6.885012,0.06644,-0.360261,-0.409173,-0.200928,-0.364258,-0.450928,0.598977,7.770812,4.789132,-2.684461,-0.628542,-0.000524,-0.168945,-0.481445,-0.431641,0.082613,8.8614,4.109373,-3.701884,-0.011799,-0.558431,-0.145752,-0.510986,-0.39624,0.658288,6.923631,5.897979,-2.255179,0.308468,1.227503,-0.138184,-0.375,-0.397705
-1.973377,2.794433,8.522216,-1.245031,2.111716,0.940759,0.280273,0.026611,-0.459473,1.342392,7.450413,6.753686,-0.002142,-0.277422,-0.316584,-0.200439,-0.370361,-0.445557,0.167881,7.595552,4.864425,-1.383839,-0.390744,-0.226829,-0.179199,-0.467773,-0.445801,-0.375168,6.395827,4.815567,-2.315766,0.039927,-0.433045,-0.134033,-0.486816,-0.413086,1.137891,7.455248,6.580574,-2.132808,0.527411,0.87201,-0.137695,-0.348389,-0.413086
-2.738316,3.566556,9.042866,-1.151565,2.206287,0.897525,0.299805,0.040771,-0.461426,1.180428,7.858065,6.971617,0.445363,-0.279926,-0.214904,-0.197266,-0.371582,-0.438477,0.239254,9.601412,5.545373,-1.39238,-0.271162,-0.281049,-0.173828,-0.454102,-0.469238,-1.148658,7.994503,5.414084,-0.963841,-0.185423,-0.365045,-0.137939,-0.480713,-0.425049,0.152888,7.015683,7.099528,-1.835301,0.389279,0.743033,-0.147217,-0.330322,-0.43042
-3.932226,3.139397,9.170268,-1.340081,1.939676,0.890244,0.324219,0.05835,-0.469238,1.459404,9.026186,7.877493,-0.128148,-0.137845,-0.072824,-0.197021,-0.375488,-0.44043,0.135716,8.457441,5.772318,-2.652747,-0.36188,-0.142172,-0.181885,-0.422607,-0.486572,-0.732992,9.49823,6.120615,-1.843549,-0.485556,-0.443032,-0.138672,-0.461182,-0.449707,0.855832,7.217544,7.553911,-1.648714,0.042024,0.681399,-0.151367,-0.30835,-0.453125
-3.563075,2.495433,8.613666,-1.483345,1.82248,0.830412,0.34082,0.077393,-0.458496,1.789915,7.695722,7.98047,-0.38097,0.096739,-0.138784,-0.19751,-0.369141,-0.446533,1.234798,6.099757,6.125937,-2.33028,-0.192667,-0.200944,-0.171143,-0.394531,-0.512695,-0.352908,7.237002,5.465255,-2.592713,-0.448682,-0.405633,-0.143311,-0.43335,-0.466064,1.30395,7.355548,7.957572,-1.826648,0.102532,0.594451,-0.158447,-0.28418,-0.459473
-5.572276,1.673122,8.217761,-1.48698,1.674333,0.827835,0.370361,0.091309,-0.463867,0.982187,7.167229,7.09178,-0.370709,0.324216,0.012716,-0.186768,-0.36377,-0.448975,-0.016733,5.120864,6.803581,-1.273426,0.513048,-0.367094,-0.164307,-0.38623,-0.522949,-0.758696,5.668894,6.151766,-1.696316,-0.585677,-0.28668,-0.13623,-0.412842,-0.483398,0.977512,6.645961,7.918766,-2.111143,-0.043754,0.429235,-0.149414,-0.258789,-0.474365
