# sampling frequency: 40
# units are seconds/meters/radians/a.u.
seg1_acc_x,seg1_acc_y,seg1_acc_z,seg1_gyr_x,seg1_gyr_y,seg1_gyr_z,seg1_mag_x,seg1_mag_y,seg1_mag_z,seg2_acc_x,seg2_acc_y,seg2_acc_z,seg2_gyr_x,seg2_gyr_y,seg2_gyr_z,seg2_mag_x,seg2_mag_y,seg2_mag_z,seg3_acc_x,seg3_acc_y,seg3_acc_z,seg3_gyr_x,seg3_gyr_y,seg3_gyr_z,seg3_mag_x,seg3_mag_y,seg3_mag_z,seg4_acc_x,seg4_acc_y,seg4_acc_z,seg4_gyr_x,seg4_gyr_y,seg4_gyr_z,seg4_mag_x,seg4_mag_y,seg4_mag_z,seg5_acc_x,seg5_acc_y,seg5_acc_z,seg5_gyr_x,seg5_gyr_y,seg5_gyr_z,seg5_mag_x,seg5_mag_y,seg5_mag_z
0.5630158316589264,0.12831105680271948,9.727736175929198,-0.001483633654876939,0.001056063689296618,0.010548498123537099,-0.441361400961157,0.05945377046504013,-0.5283968196545994,0.1879223402724286,2.443145585012675,9.513170737547213,-0.010318662655914794,-0.004438885135944569,-0.011127140232032661,-1.0096367359388727,0.2798050748118224,0.2943833486701473,-0.023644403714139728,1.4798261406166147,9.619782307608927,-0.004313529956275746,0.0045854898922554335,0.0032986857631994927,0.6367106717766234,0.27746393141179243,1.018789269571128,0.4247483926785032,1.4579354277253322,9.78894167393209,-0.0031533024211845844,0.0037130503165440296,0.005428272118028325,0.35745139308683616,0.013651211911859638,-0.6084721052329495,-0.6694053017228122,1.2149749064961342,9.715700689183468,-0.0051688895827779755,0.003282870046243464,-0.006955658828646411,0.30286763879498446,0.06885140700012529,-0.7131757196048207
0.5805900601815684,0.1335375982349241,9.759120569080752,-0.004109274505120596,0.0005835350389016714,0.01246960660566082,-0.4387168118997715,0.059939149348594026,-0.5311222787050713,0.20866557924952364,2.4320091798392647,9.504841662055133,-0.009972789112744365,-0.0041738748857584555,-0.010649145400019771,-1.0182798634342487,0.275681454828533,0.2904121105342392,-0.03772470756359275,1.4700891005377534,9.602050921904201,-0.006212033887736557,0.0021572813545505773,0.0028701590783301663,0.6299577003893845,0.2767330695839484,1.0106184940613172,0.4402613238809384,1.4710945813624545,9.785434224850047,-0.003956290839171581,0.00414473751241371,0.0055426826310981964,0.34984434485708926,0.010005111192281008,-0.6094793171138329,-0.6787841526325814,1.205472851236941,9.744430639156684,-0.006008930999315883,0.0033946099782489942,-0.005721985611746415,0.29669165540870457,0.06662896196006411,-0.7169520178261352
0.5758942122165065,0.11162631927394501,9.753443374158683,-0.005098557569778224,0.002538777540656227,0.010626848136052228,-0.44030956119557685,0.05843782612362379,-0.5232926281218795,0.20733584438897137,2.4280549905239854,9.52482424589856,-0.009884484126676231,-0.003137557165538033,-0.010170676161517804,-1.019632280792499,0.2692633274729818,0.2859104550013238,-0.02822228772519436,1.4874674875971696,9.607148468512909,-0.005116716155582907,0.0036247021463201366,0.002749348128858743,0.6258908896219888,0.26892306891329015,1.0058653047418693,0.43285522782374075,1.4658285794928922,9.79123676175224,-0.00328852517074604,0.0033699586568804543,0.006937031847432027,0.34646583002341413,-0.0010329325182245408,-0.6163830895292306,-0.6545389734667684,1.2188082242298077,9.722865760665055,-0.007197705471576763,0.003330869351308111,-0.006543498476270184,0.29343492825735085,0.0580765587325432,-0.7227555536703878
0.5844295538208125,0.11598053230349745,9.74436342049189,-0.0010497944037779873,0.0010618545105341476,0.011326580362503714,-0.43687077195247753,0.06525962221350123,-0.5252587551904275,0.19610709663398967,2.430233719965128,9.49532918043199,-0.008609766693485198,-0.0028091732125789773,-0.010556138799081871,-1.0189518396218054,0.27554809348768056,0.29579496560902274,-0.02119809604646461,1.4756316924352675,9.6117600024384,-0.006252207209916306,0.004160392292036006,0.0029569731112470327,0.6269038280867368,0.2731562975689901,1.0187593777917319,0.4352109379421013,1.481571094425005,9.79085197031463,-0.003378521903084782,0.0042939986785885415,0.005336483308196161,0.3497175436924686,0.006635666837276856,-0.6040737026988767,-0.6819174036843723,1.22486959667352,9.724224792643485,-0.007842661656547819,0.003037785699867436,-0.006049835136811213,0.29468169790553095,0.06221144392976131,-0.709345240368671
0.5870052137837726,0.11546844313432596,9.757888249231582,-0.004079100563986257,0.002099829730701388,0.009016197573863917,-0.4381141892584218,0.06184962025333665,-0.5250160598362242,0.20157719634818919,2.431400929578882,9.526121753348756,-0.010692899961925472,-0.0034418241815164026,-0.010219322027795345,-1.0238478095842702,0.28085297749621596,0.2891601864278723,-0.03098192526902091,1.4745440885887648,9.629247753969599,-0.006210071011483409,0.0021552563349391267,0.002869136135326834,0.6246348482658743,0.27947623137470123,1.0119205642057396,0.4472295564528742,1.4556982647863743,9.804166032977202,-0.004305916173756931,0.003413490951721674,0.005837609050552524,0.3436422900991657,0.015110061032502349,-0.6142608062028659,-0.6612868528836112,1.1988368943701213,9.723896473530676,-0.006653908867504604,0.003101527821268303,-0.005229322036061873,0.2912351303394571,0.07222034247820645,-0.7195119514326985
0.5882355382955077,0.1107498463031299,9.736445998427612,-0.0036642494821353343,0.000982733003968272,0.011239692903971284,-0.44456616557288886,0.05802194735341784,-0.5295738236309796,0.2093825254475326,2.422864412504277,9.50716067532334,-0.010434367527337774,-0.0042151623251664005,-0.010220769730159113,-1.020445727666313,0.27504125304703436,0.2938688323638388,-0.01697914803727174,1.4825527869175388,9.60369495954557,-0.0030872619798758077,0.0025297770256935566,0.0034960292716003354,0.6248806716439657,0.27509560986246884,1.0141439191106867,0.43496396065582865,1.4730618927872163,9.770408556125519,-0.0024845642426453212,0.0029372591470740858,0.006821606718882136,0.3467280078327639,0.009548873040250847,-0.6069589662851879,-0.668114797567858,1.2231241621366225,9.739644541787674,-0.0066208606049078566,0.0032766661141263587,-0.00583191924043151,0.2906081570502494,0.06806080404138436,-0.715597648239636
0.5714871267582189,0.11972950342674157,9.746925595982859,-0.0021950282986919404,0.0016684994739932187,0.008959736004661406,-0.4363897199326818,0.06231982748237689,-0.5243080875865281,0.19934485596333062,2.4497122664650433,9.509423797729948,-0.009089912729675539,-0.0025489183211031005,-0.011951700755927065,-1.0164836006762172,0.27843354449700836,0.2949788424686513,-0.02671059024430794,1.4816854889026982,9.621149185845367,-0.007524732455473989,0.0032346403958191773,0.0016830567379833468,0.6317591400957645,0.27942887262375565,1.0142286162136607,0.45400851693375094,1.4626247889165525,9.769973563056578,-0.005442325074983774,0.004232052566226354,0.005253337972651273,0.3511678065852269,0.014671035392722983,-0.6058890901836954,-0.66426464874956,1.2138618970546784,9.73575429711301,-0.007036678447378616,0.002752902316412961,-0.006680886263399895,0.29726361352675673,0.06882186739920872,-0.7125661064446588
0.5786435754879334,0.11578321272784851,9.752464746847279,-0.0035178229033467866,0.0008722919702657228,0.01064351421003884,-0.43217941603755766,0.06691743847837252,-0.5228823732953034,0.20111642605976363,2.411489827661446,9.516907518482267,-0.011378911652007152,-0.003986066042065873,-0.011183112854840783,-1.0234002391128023,0.27623323126681476,0.29046256519344044,-0.02819765572137764,1.4706592794612927,9.621175936941867,-0.0032207534518224413,0.0035586253873043775,0.0025971860840930524,0.62285132273895,0.27776076458586657,1.0087913712760508,0.4360380478170714,1.4652647355390491,9.786498130843869,-0.0026935277704021,0.004637346147440889,0.005738200315333009,0.3398078705315742,0.01173617142008221,-0.6107201312018422,-0.6652817086146633,1.2119844231404822,9.735918583242395,-0.0075899455846015935,0.004141510727225077,-0.0050664330568030175,0.28864070151376386,0.06683126109661569,-0.7165330459405751
0.585823148847985,0.1117247433004229,9.758002809439404,-0.002932818661629612,0.0014951643123023246,0.011385037697663308,-0.4397944169512821,0.0655245610238733,-0.5249653623689001,0.20109422048625306,2.44671864890423,9.491226076782928,-0.00838250169915263,-0.002315347876618836,-0.00916883452102501,-1.0163517685476284,0.2667606969329185,0.2976397122579106,-0.01759034755082542,1.4980930153205347,9.604638339287424,-0.008188922441272837,0.003735262573069388,0.002613223442617405,0.6295222029581807,0.26678189611145015,1.0182655416947284,0.4287791425817004,1.4712041069625834,9.784168314997668,-0.004304967567727145,0.0034124697856217014,0.005835594760008307,0.35094546103724017,0.0002944844240891408,-0.6028255161755207,-0.663887332200214,1.2205056659522306,9.719713255218622,-0.006808544953215016,0.0025232170258248114,-0.008023493345210558,0.29811532486390907,0.055883162957429185,-0.710161342596286
0.5750179584271101,0.1257577998698664,9.745884079914926,-0.002487809200301662,0.0018923623765078497,0.010155111570971143,-0.4397825587964775,0.06037769604586389,-0.5218236995476692,0.19124095239992914,2.4242667082688447,9.498996807554496,-0.009450989015261917,-0.005736721929634498,-0.010657792695274629,-1.0166116960637053,0.2758361648209593,0.2867264311610303,-0.04035044894740872,1.4485277061440132,9.638549769803594,-0.005871280403753477,0.003149020668710693,0.002691816161726737,0.6262228574393913,0.272116758562436,1.0090114502873182,0.4307064392029175,1.464529327873528,9.800049491334647,-0.003044156108445193,0.003905103139184886,0.006033159542042972,0.34612707318809344,0.007070798755622756,-0.6113180816074408,-0.6696986179237221,1.2024004371220733,9.720556404225261,-0.008006763178973787,0.0036177417994717157,-0.005915378404479694,0.2949372837814153,0.06418224370195828,-0.71960426045433
0.5835666275000203,0.1300068535588172,9.736812243616235,-0.004523038675385545,0.0017076110628474843,0.010248138104017111,-0.43706101404663983,0.05774206219237555,-0.5333605448861912,0.2063122260388221,2.432895427884863,9.511541552059256,-0.010688152688659754,-0.00345699519224124,-0.010225092974869045,-1.0220376394408621,0.27222253028148774,0.28588307780506095,-0.018138279591354695,1.5051525856641956,9.605226552719664,-0.002373459218565269,0.0025132520909259834,0.0030576566624236474,0.6258717243777705,0.27086233242845886,1.0038987575870442,0.4504290954856304,1.4879174712772107,9.77520593107685,-0.002132969983748591,0.0036664899320560337,0.006525650743531964,0.346701688476135,0.003596352892716711,-0.6174070394178123,-0.6743358271595034,1.2369432489057235,9.719963436618302,-0.006139994452015628,0.004151704342160404,-0.0061901228731345665,0.29124220392051425,0.05733329848437801,-0.7227091081523899
0.5815882670417528,0.12079372668949473,9.751470343260694,-0.0011771683381797886,0.0022971639768863375,0.010480357931238932,-0.44456256608510164,0.05899945196182607,-0.5298127227398696,0.20784249762088164,2.432154080642842,9.492769694635125,-0.01027350581409424,-0.0018530750497960597,-0.011090574428206827,-1.0157515916276663,0.27914253329958033,0.29422454171254175,-0.030113298196175337,1.475127658478205,9.622145957493181,-0.007764308179382746,0.003212056414346766,0.002841943892237137,0.6286044407114494,0.2758146758835182,1.0169995768264193,0.4369334671817796,1.460475667629724,9.773972050103223,-0.005919758588291998,0.005245940380893283,0.0071864036051738946,0.3484121738699152,0.010997013348699946,-0.6082324577089326,-0.6694243708845815,1.204501168397741,9.736563378382451,-0.008455629284041295,0.002918839708900264,-0.006161748223078442,0.29530611884600627,0.06978883448403007,-0.7125222061974413
0.5781931332684311,0.10784769529758696,9.731157529574231,-0.003357800469931985,0.0022238396302853513,0.011170552864692816,-0.44004622920546926,0.05989778035017383,-0.522798591767585,0.2010685703587063,2.4366879260979752,9.503270102524144,-0.00998088626536578,-0.0039037055040887897,-0.012485617273294084,-1.0279919829442834,0.27732131312915587,0.2934273187155562,-0.021415197709834466,1.4826197391926006,9.627122465957806,-0.004689129420567516,0.0030984689100678675,0.002978033863224359,0.615870134049815,0.27542851760456666,1.015286978907744,0.42855281185874605,1.4729478795324622,9.792445978776078,-0.0015561768524055568,0.0038157634574988684,0.006320474969529855,0.3361698880576529,0.008099148905387502,-0.6091354581292353,-0.6679941286008432,1.2129445589962546,9.720379161311158,-0.006819015238267269,0.0036824787765571557,-0.005094842023113661,0.2820961711159276,0.06630653728928264,-0.7144384288400494
0.5943329507407752,0.13302434880727845,9.741300518039784,-0.0029501375296304526,-0.0006923547134067461,0.009702196478483078,-0.4403405936052346,0.061633334560268725,-0.5266903866213732,0.1944748108125479,2.4412404633149047,9.513763012937176,-0.009997405614680306,-0.002927943255806952,-0.00926807284532946,-1.0161070057819823,0.2717864314401824,0.2924134441963728,-0.029841933319360886,1.491658041985266,9.622948841801845,-0.007339675144995605,0.0026888572235491633,0.0030716641413574565,0.6290110810675315,0.27286001546001165,1.0140819460405641,0.4395570946484992,1.4686699714323381,9.752991980200903,-0.004773610800528448,0.0034562525445931253,0.006645672898440886,0.3504952597591054,0.0031452457459285113,-0.611875930734814,-0.67010580112562,1.2296231926094627,9.732116647411019,-0.007267881343334776,0.0029835766859857035,-0.005341211841712408,0.2970156142737979,0.06442850163701826,-0.7137875832762625
0.5762384042718579,0.10976231714958698,9.752675829430721,-0.0021935535776110553,0.0027390695869116675,0.01209397761285365,-0.44186632738037135,0.054321493083453305,-0.5269558987026969,0.2012244826842177,2.4321559476294197,9.504427252690416,-0.009084225513251035,-0.0025671386646851815,-0.011959425692761228,-1.0157155400917173,0.2673183002953394,0.2888304032133767,-0.024877844645385283,1.4506378489148593,9.627008293009023,-0.003732807901922178,0.0031044797786519193,0.001377718574778129,0.632532710812391,0.2669357827529667,1.0094171805831271,0.41734442496030805,1.450117751167441,9.798936109897372,-0.0033755771740296373,0.004291970543610448,0.00533443020340039,0.3499435996292083,-0.00029034489942916537,-0.6140310316648433,-0.6568249542906668,1.2052938056778102,9.72010948022319,-0.007297746945135557,0.004264093228182166,-0.007615187749894,0.2996289810147289,0.05883329389522459,-0.7184927227644782
0.5773554454340852,0.1053976125247291,9.731234669047485,-0.002638950105597428,0.0012762744674119548,0.010192676381794904,-0.44145192355083746,0.06698713152630424,-0.5224866874410709,0.20833312201703272,2.435095739081724,9.515796971554703,-0.009238412198258043,-0.004948458298011737,-0.01109733853353658,-1.019429573284404,0.28490743073435243,0.2868323919914349,-0.02085729114585949,1.5081592727232633,9.628223255811525,-0.003646003236620005,0.0015874932267841357,0.0017827404896593733,0.6270593407286623,0.28163727756473944,1.0099065886193919,0.44376265133548787,1.4775284418094676,9.768543086705908,-0.004088619962475808,0.003798600058776789,0.007047398838997641,0.3478021355618243,0.014610845063512066,-0.6138676966213195,-0.6724650279617765,1.2258226065409408,9.73243319799358,-0.007526896777982993,0.004492774897465797,-0.00627356036189104,0.29467906903518504,0.07321267362380496,-0.7181198152477141
0.5770339807691449,0.11659488785818646,9.738120940576836,-0.0026389338011036266,0.0012762681286845946,0.010193676228775206,-0.4448074054237661,0.06625410672998851,-0.5182859816612723,0.19041351722931327,2.4321085756965557,9.475535473741504,-0.010682429648540675,-0.003474177963191423,-0.010230837467385269,-1.0296920612228226,0.27711682042950697,0.2944286491218809,-0.019726956642139915,1.4677062076092746,9.619076076530835,-0.007337703309478491,0.0026878321383323523,0.0030706340612675002,0.616845163154939,0.2742021226787872,1.0157663167115771,0.43215782180094625,1.4621332831317757,9.795666583378773,-0.0040595955019685544,0.003948610715490098,0.0049316896473636145,0.3362242184778905,0.006900812340172709,-0.6066843525252463,-0.6650963584621066,1.2037954874790946,9.732656555643706,-0.006876721321170163,0.002175934620582336,-0.006821250061236202,0.2841850589140813,0.0624015852869938,-0.7091173014570087
0.5839165777523996,0.12446659394467754,9.750536519743914,-0.004074563343046304,0.0031763701724366626,0.012151427245025912,-0.4417984776527925,0.0645796247466162,-0.5276240837037874,0.19590141462455857,2.4211469039125144,9.48562206577639,-0.00983902257968647,-0.004451290163344929,-0.011579721177909619,-1.0242831439278226,0.2830979586349485,0.2913204412036011,-0.02896862208871065,1.4671926919349554,9.614693265055779,-0.0032158189564131133,0.003555566191027539,0.002595114352161769,0.6219694777792852,0.2831572941782596,1.0112118083906112,0.4315932882865642,1.4613573622186316,9.79580699223777,-0.0017898378126860162,0.002307480484793589,0.006098339808224537,0.3427849057046532,0.015644686958346383,-0.6093604515096359,-0.6743366409561892,1.1985536438197202,9.729340297589783,-0.0064288549680040896,0.002874831581113822,-0.0065748585673457444,0.28961407431603137,0.07269336477008848,-0.7153241055329193
0.5833998966081417,0.11129330010436889,9.743721399202641,-0.004374564995193019,0.001601148135447032,0.009652951401057938,-0.44279502864026093,0.06141272944707837,-0.5273838727732681,0.20321382883617928,2.4358651911534275,9.51776977611619,-0.009529176261767705,-0.0029078876660576436,-0.009704127940920437,-1.0175651843365219,0.2768423815010046,0.28769597853295203,-0.03613008049260924,1.4958733986520412,9.610863090550911,-0.0074235359229026165,0.004203802696431901,0.0026646007751342958,0.6255238246402368,0.27578517325596463,1.0089990091455134,0.4279565569043713,1.4951108169781058,9.784830567243544,-0.00510602828031055,0.00384412341079209,0.005946958500214128,0.34537314192283564,0.009503450318266549,-0.612542991817225,-0.6751391432672258,1.2204041044880005,9.732929200851881,-0.007684742304142301,0.002459810747152309,-0.006192156716937942,0.29249504698854467,0.06661095562279246,-0.7190585463779618
0.5652952083836895,0.140243475692221,9.732957447152957,-0.003083903615451806,0.0008820635770433228,0.01142462083995162,-0.436756786896027,0.06913292994000535,-0.520108273692285,0.182737522962748,2.4304151182701483,9.50657551207854,-0.009287283538215415,-0.0033827639935943327,-0.011532478668717958,-1.0251244989420472,0.27000478046131,0.29572918105228757,-0.035144105164822914,1.4647951992842678,9.623707707233004,-0.0035050155611284052,0.003045892131813591,0.0032632286217186483,0.619295320434043,0.26761387946476856,1.0194289618842072,0.42455125678681926,1.4372454427941508,9.78908758482164,-0.0036372834954435424,0.0026346645095925393,0.007226971751409265,0.34449344080571914,0.0014966234827214434,-0.6073223892686547,-0.6712820796897062,1.2109918618663953,9.729045583673138,-0.0073989129199463315,0.003738669583988055,-0.005808352549976098,0.288799467584962,0.05852235285265587,-0.7111766405108028
0.5858664037892664,0.10954686884247916,9.757267186672294,-0.0030828874741602287,0.0008820495599696154,0.011425604333925773,-0.4402833173491427,0.052060735434344696,-0.5186937749386138,0.2109712251417672,2.437520632644533,9.519997791607063,-0.008737496341632504,-0.0023121759683147774,-0.011483251454684176,-1.021927075869829,0.2740742324793291,0.29341662143785885,-0.015736649388734564,1.4920195606613857,9.611721280246313,-0.00350401577748934,0.003045883040365015,0.003263209912880652,0.620709056100609,0.2741512959814568,1.0134956806880722,0.4436696281082672,1.4782681478733746,9.776979503635992,-0.002464418248047014,0.004052348529649628,0.005825930663245091,0.34395947798320137,0.009040058551099288,-0.6103073710229266,-0.6747738730399577,1.2224362506295523,9.748966105906176,-0.006525843626552726,0.003806067887738731,-0.007644616549945797,0.28960000520841656,0.06610574368270401,-0.7175321670060805
0.589847819750025,0.129362929481762,9.763052765613738,-0.0018908827874193751,0.0032496524678165255,0.011464182793494489,-0.4472661206841738,0.059271797152545075,-0.530987096031003,0.1971385561510717,2.4252546965161077,9.498879973408036,-0.009870266396796406,-0.003185069689414966,-0.01018795088964615,-1.021752554729178,0.2753963452150261,0.2860637058062489,-0.02720077610297597,1.4716817262304072,9.628785624427616,-0.0069055561530184505,0.0046538800829643056,0.003881984980766564,0.6281643789652689,0.27647399884681234,1.0062580901095062,0.4303838167275012,1.462148216850561,9.7675797307252,-0.00464523331124647,0.00476742463207883,0.006257871432167185,0.3460254323718506,0.00630108665368142,-0.6154611846021295,-0.6710147779883989,1.213248570596071,9.745045939966356,-0.006659026235970624,0.0031035096148174708,-0.005234209267825505,0.2943849626666272,0.0654047354371718,-0.7222760885445136
0.5642111558182117,0.1140813288746516,9.719321200751136,-0.0010476494754112007,0.0010657945844720822,0.011333571435358788,-0.44616735464266644,0.05024998877324886,-0.5342366948913688,0.1990551401945039,2.4366473473006938,9.500813195253796,-0.009490281493977168,-0.0041943714257083,-0.011104608120428034,-1.0260242139437852,0.28067293130473064,0.29114296262119727,-0.03910200356341875,1.491173845865473,9.611581771194485,-0.00397237381259785,0.003080902830709887,0.0025376126656191313,0.6183411955775838,0.28125643103681525,1.013979720344109,0.4183890094370617,1.486986372915795,9.791144241145416,-0.0024644215426770566,0.004051348574980944,0.0058259395966649965,0.3385479817529638,0.012213303126206977,-0.6124037854420418,-0.6650197655286278,1.2144536760781386,9.724778962209811,-0.006819890240818155,0.005141116037545393,-0.007973323146071961,0.2873512839161188,0.0721988444546984,-0.7184505185356639
0.5817786228361368,0.11942279291986424,9.750727435950978,-0.0023582506905533056,0.000663986496657848,0.011009343559575247,-0.4384111579296702,0.054526310167110195,-0.5248136073991659,0.18382196701967557,2.434327872892023,9.519894939369395,-0.010646020129431473,-0.0008770711220698346,-0.010184378854430498,-1.0195773658443303,0.26791412822222965,0.2920398497292098,-0.01783053301517387,1.4884090486468446,9.612276856840298,-0.004824248093765843,0.0016359808791433002,0.0014924630289806645,0.6233302188516655,0.26899341201444443,1.012506216279763,0.4282199846433707,1.4780124989885497,9.780613256992408,-0.004790944765011465,0.0023350909475483325,0.0076343332076408005,0.34317540423195675,0.0002453844573289798,-0.6111870624102748,-0.6721932184953837,1.2196977995795055,9.705089691775482,-0.006115197755810275,0.002872166618868604,-0.003919036274492731,0.2924082240885206,0.0563485491899509,-0.7141888501871093
0.5814182280727707,0.14241220476843502,9.764495142349334,-0.004365683467073983,0.0023366078863707664,0.010217554866535675,-0.4330603853147189,0.07668172292957597,-0.5215859180169831,0.20064316377305894,2.4455935936080913,9.503389753834798,-0.009608830129203116,-0.0039625192755999555,-0.010193356343158873,-1.0201888050122019,0.2772116145578054,0.2926044132630782,-0.04103366997516855,1.4790066391765653,9.61176184968604,-0.0066600747357914375,0.004674381775255904,0.002719000649655694,0.6285640220500239,0.27385329617433796,1.0157927603663786,0.42750764988686585,1.4658821672758586,9.788882351304046,-0.0024536491593385827,0.0030832275622500837,0.004701886812999487,0.34692867303808383,0.00880092214216904,-0.6086666969224469,-0.6623465785586385,1.2036052276261076,9.72098989126734,-0.007138789570828538,0.003687120402311576,-0.007755529872438596,0.2938526716610109,0.0634348681890593,-0.7134764119419245
0.5748651405527064,0.11702861155260721,9.723822863787545,-0.002314864758923972,0.003978320107453206,0.011249681607517851,-0.4335655975640402,0.06209358026381263,-0.5307045463758138,0.2053574031183214,2.422120485878007,9.502321393929412,-0.008764411158619546,-0.004938643998425175,-0.011542270768764875,-1.0147638513980086,0.2732507817385175,0.28040478213498654,-0.005360474856683839,1.4942194964397566,9.608884595799381,-0.006620957514741911,0.002671259025443993,0.0026292059270750607,0.631505193014057,0.2730081398097285,1.0037780272823817,0.4402237847500309,1.4735640174303524,9.777844796260212,-0.004536083703877036,0.004960477409388371,0.006862749922761925,0.3513308880938021,0.004551719334878596,-0.6180143505909202,-0.6693929540010934,1.2277382442811235,9.736822485251038,-0.0066270045049282396,0.0032796442578200817,-0.005837782955352879,0.2968153694226377,0.06322174931532136,-0.7233092940381824
0.5863340581213193,0.12138501066715142,9.72826216221851,-0.005412262154660554,-0.00013942213724391005,0.009581826644062992,-0.4438193633698061,0.05531653376345639,-0.5274058169942919,0.20050775131222065,2.4403497499813067,9.514192238617627,-0.010469997215450107,-0.002696930449322313,-0.010671173434069243,-1.024142228984956,0.2738331677095634,0.2922262204746036,-0.019759122398921886,1.4840378352895713,9.612948654260725,-0.005018126127466999,0.0020985583120425467,0.0031472111749595373,0.6221676075007818,0.2724324964441881,1.013969371477236,0.43507582243843657,1.462450626994013,9.799354220312189,-0.0037050227260426146,0.004678822081663287,0.0046346534420221505,0.34302481632055043,0.00735184723142063,-0.6083164375442591,-0.6668440526175785,1.2179997322583687,9.70901709470676,-0.006791062660918876,0.0038595973685043947,-0.0057013266954725,0.29045699397021335,0.06439249652415166,-0.712181045587549
0.5830359077301257,0.10370615440212995,9.757500349459818,-0.0008934204992609333,0.0016848339549111078,0.011299975590941733,-0.4456943283148234,0.05505658966312011,-0.5224931426187958,0.19978084789669584,2.4372064679921226,9.524464894883703,-0.008937638644223339,-0.003131893826368576,-0.011059262431357708,-1.0192724060386509,0.26824742677538116,0.2969141366095019,-0.015626541261859556,1.4825126472006664,9.60453301545912,-0.006151655159516372,0.0026342163390112258,0.0033527991406706588,0.6275829502419964,0.2677772878533922,1.0185390653369333,0.44402400608020876,1.4824520786138229,9.793424339232985,-0.003264458642348823,0.0044830075452099,0.005938279138099285,0.3484856381683594,0.0032221039545786093,-0.6040140183162118,-0.6799174723294945,1.2206826239563366,9.733634393221688,-0.007205907531141132,0.0033368401810154845,-0.006551313552182041,0.295383609371754,0.059777152645767107,-0.711317563931947
0.5931601863287117,0.1286249762099139,9.740701661309544,-0.0032072307748540765,0.002121335793004915,0.010579357693647812,-0.44069589062672676,0.06893131319032042,-0.5219986158531209,0.1863110660257325,2.436827739487532,9.52410411507762,-0.009484546253308707,-0.004209573618346408,-0.011111390476469168,-1.0195301282595084,0.2730167319517714,0.2907214515382801,-0.03471812991372089,1.4723876669125369,9.617232508595192,-0.006572325750372234,0.0031553723273002256,0.0031220185308710154,0.6255056005705326,0.27018244981392014,1.010747741233413,0.42699469162303827,1.4674682545660225,9.797202276239258,-0.003969755372653604,0.0030205177621275663,0.006526275869893927,0.3446900788625368,0.006598767277089238,-0.6100581436757984,-0.6713363818900118,1.2037999026184827,9.725669215439755,-0.008013923417678008,0.00361971632186092,-0.005922221813208766,0.2928439043611274,0.06367604717071644,-0.714919519087459
0.5689350656650097,0.1287312434315794,9.73880702332125,-0.0037932355962055158,0.0015004773689030965,0.009836863137051824,-0.440667413391533,0.059708610604482584,-0.5308478944711923,0.20156264543203423,2.4347673538875467,9.506149271363661,-0.00850931580523992,-0.0018253611218360293,-0.010095825439337965,-1.0095712826588144,0.2704212214303842,0.28894269314127946,-0.030469464600339974,1.48023018319107,9.630832831329442,-0.00430628624240961,0.0020840583968864245,0.0027098615087861808,0.6367335786149085,0.26910681729025826,1.0110325160726334,0.42912661012966025,1.471967853870121,9.804973008481696,-0.003049090136471293,0.004868150222964307,0.007151115699408453,0.3590260825947684,0.0031109488282609803,-0.6125687737675194,-0.6723160676117608,1.2255143722137973,9.729311770048922,-0.007272993615365534,0.0029845584938103333,-0.0053461006788010235,0.303544904839807,0.05982922393949408,-0.7178439909685045
0.5998577489507316,0.12357093729034668,9.746283278863947,-0.0022040061527457255,0.0012850257679579494,0.010975760140160822,-0.44184551628755203,0.06263910109031062,-0.5295889178713848,0.1925326576714801,2.4247204598077947,9.524982353171866,-0.01134036728112603,-0.004350285262684046,-0.009381232811440095,-1.0134835750825655,0.2702196019486646,0.28874897278703315,-0.01655333357725189,1.4880932952972592,9.605370696082105,-0.006719534895956862,0.004104088081667156,0.005270602223649175,0.6313292640631509,0.2693860230952891,1.0091786513677272,0.44543319536606424,1.467104179722311,9.78888404065552,-0.005679969004304144,0.0036937862963867057,0.006146073535743774,0.35313721062704206,0.002387730543455,-0.6136419523455057,-0.6719020856500664,1.2050845524452338,9.717873560042133,-0.008331822995786956,0.0021657258166670676,-0.005704450214867111,0.29713341460690235,0.059068410831236706,-0.7208798233762095
0.5786476326443026,0.11213709802296357,9.751000344888013,-0.0029275793672526446,0.0015070682771908001,0.011394029105471066,-0.4390244297935777,0.062076336816625534,-0.5210921812998666,0.2163393430072833,2.4291394876603105,9.498569136041786,-0.009881303050527274,-0.0029108456053813406,-0.012023464263067966,-1.0224073409330812,0.2738537724358596,0.29440374748768866,-0.02760381602090864,1.4678220951306158,9.600624437812025,-0.006411593967647227,0.004694856193201774,0.0015559601920308347,0.6219638518133127,0.27488235530977534,1.0149323191178306,0.44180453524347696,1.4604608616801218,9.781499188584888,-0.0036259343706122435,0.004717859038526219,0.007354301056702075,0.34075361433122736,0.005868690764604396,-0.6111789475300295,-0.6630931504036865,1.2117867165605685,9.713404514394997,-0.007621778932917749,0.00281507934367113,-0.007402276892049318,0.2877539894512666,0.0638911879404901,-0.7130994018770689
0.5709623134930841,0.12649498786589364,9.752387873194824,-0.002344033542122553,0.001059364167581593,0.00900231083188359,-0.45102772747691,0.06340925147030353,-0.5240624791386903,0.1876038343070548,2.428653308336489,9.516716507377717,-0.008916203480087535,-0.0034415276698018847,-0.009238206579183155,-1.0251995428437846,0.272519253162681,0.28664724951506093,-0.023513630155149096,1.4759008206821358,9.614193083361481,-0.002460917325302847,0.0015339004547616235,0.0020669238769017028,0.6220691748479875,0.2721527879003216,1.008845140886859,0.4276104738567049,1.4622438258115602,9.784758760681738,-0.0024412220241676864,0.005168445049906266,0.004832173402809344,0.3407958999255058,0.004818397466988499,-0.6194743564360148,-0.6919139476355153,1.2126786684308655,9.722859008394298,-0.0058982909402909576,0.005258372896252042,-0.005206477548942617,0.2897576607087794,0.06123172721587348,-0.7226710834506502
0.5842959323836644,0.12745124253874454,9.735332926983197,-0.003527737604732609,0.000494819306432667,0.012660591820532599,-0.4422368125794006,0.05966756847309514,-0.5222762547370123,0.21094880045247583,2.4444137477292007,9.520684857515723,-0.00899865293149124,-0.0044840309566091825,-0.009722629932211483,-1.0229822347200739,0.2744401879979817,0.28634047917253397,-0.0324405953259535,1.4850009930520052,9.631790783798694,-0.00581083639877817,0.0036269764913410387,0.0031774484854823685,0.6228059068513127,0.2767702203247406,1.0068457357850351,0.42686709130106554,1.4614985313102213,9.784903174954733,-0.0031677732527543934,0.0025868341640252375,0.006411907097499596,0.34208859714642004,0.007522773995230318,-0.616842341525621,-0.6848973261862338,1.2097491470575208,9.758514910247436,-0.007501980428862354,0.004672879550926737,-0.00688097495617423,0.2892579911377753,0.06562243023905742,-0.7221645676246231
0.6078745984079996,0.09645754328278092,9.77311180907285,-0.005858152511846969,-0.0005276319854103285,0.010814824577214048,-0.4428436110738348,0.058248173016134205,-0.5288683670785849,0.21555369807594188,2.4208535145299273,9.519594439947424,-0.010222405230514646,-0.003189027374589874,-0.012507268155247301,-1.0188392009064584,0.2707882354216624,0.28953508919561277,-0.011573584607749099,1.4723266548139307,9.610556114201236,-0.007747590029097927,0.0032038257373886428,0.00283068514417773,0.6240706053078905,0.27044996078852945,1.0122381145003019,0.44923226487844364,1.467429205479282,9.784017768972042,-0.006031665468796706,0.002962520193414251,0.006438048677676971,0.34734330143581993,0.0007252876345886306,-0.6105587361904768,-0.6618365435151887,1.2179580351181978,9.74528202018494,-0.0067168611207029,0.0016009728740407196,-0.006965609703520259,0.2932719745342101,0.05880145769799746,-0.7188430127346277
0.5749173290972251,0.10763715201640262,9.737599591088891,-0.0037525961836389616,0.004086273118073601,0.00951754232389052,-0.4444459489743809,0.061157651465909915,-0.5236960079067209,0.18899802758963796,2.423001965511899,9.508681812152023,-0.009053391851071707,-0.0029131508314561103,-0.010151796896320129,-1.0178329011332476,0.2734559518180179,0.28922859287418,-0.024047939121626144,1.4817154266129362,9.593237396333901,-0.006567401068195994,0.003153306097493008,0.0031189398623525195,0.626033478138394,0.27311192155002934,1.0114495600281783,0.4287243717945374,1.464338303825449,9.792936250469774,-0.004769816376409307,0.0034521678801932363,0.006637615736264018,0.3468514196740294,0.006578093748809635,-0.6115751184619451,-0.6649664621605562,1.2150064209649216,9.697703236497635,-0.008233763395292195,0.002695139991479369,-0.007515213022707668,0.29474346940708607,0.06368971561004841,-0.7174032740693238
0.5446436929715925,0.13195891638345175,9.722468041009453,0.0018694404603405,0.0016424742614363826,0.010794582699936155,-0.43739559784066484,0.05744147029714341,-0.5238345373700648,0.18569256386714977,2.4549454351566964,9.521986273081774,-0.009134877269399292,-0.003956703959418233,-0.01063821235220167,-1.0233920180510225,0.2731339325511496,0.2944290756100686,-0.053025072449625454,1.4628011765077245,9.622854100692233,-0.0012330686519092834,0.0019685101104904563,0.0028490025701244067,0.6224964354896345,0.2722186113746834,1.0186036180536266,0.4053353020681325,1.4677970055580714,9.78605049033322,0.0003086681526210314,0.00556577974748304,0.00532208171433558,0.34136744940477864,0.005182557449029695,-0.6058148039286952,-0.6855459259222964,1.1956971113877812,9.707141838138416,-0.005550357644595347,0.006890486261357668,-0.0060267765098038295,0.2894737623190876,0.06170298654198117,-0.713139971849589
0.6102499781614933,0.12354468412620456,9.750853371729784,0.00018154695102139972,-0.0033600150620652506,0.014879018532392164,-0.44815557125720457,0.05704216822013173,-0.5246387555784217,0.20552822192816572,2.443265612604511,9.523196646757922,-0.010341002045575268,-0.002961174207886367,-0.011595940151792638,-1.0239595245910695,0.2718176394416049,0.2890873853554049,-0.015518042211141364,1.489210322433537,9.598257051435084,-0.0031708131066041415,0.0015463683823812757,0.00250225080057114,0.6218097078894729,0.2709323861442141,1.0086144691479548,0.4368088934934953,1.484426086301893,9.787060267736805,-0.0014441088730213195,0.003998788462480848,0.0069233718226880715,0.34086593889144046,0.004844334305413827,-0.616545308497919,-0.6609269472659378,1.224206625376957,9.777135160005711,-0.005801197918132822,0.005789778923553486,-0.0070152159432926384,0.29101665792962456,0.06099144044577183,-0.7209893443906239
0.6073355721845423,0.11768691135011712,9.78693528006215,-0.007415537738907535,0.001547148828929069,0.008793059054958152,-0.44746838307127024,0.059502185740618274,-0.5285409635682669,0.2160023473048296,2.400037697474928,9.501064178907647,-0.010403848039326058,-0.00430321368900765,-0.010255475899310989,-1.02380933872056,0.2596938603983341,0.29371105542519227,-0.017382224277864344,1.4773164051265517,9.620137309690342,-0.01128325014815542,0.0033513185584790506,0.0019628565953081147,0.6228032087110603,0.26168454623660947,1.01403234319234,0.4487782071427189,1.4582183605208103,9.800369471963583,-0.007987401179969544,0.0030975947754879147,0.006955771272626144,0.34377154055291886,-0.005812505338412778,-0.6057749284772058,-0.6712441194657855,1.2178275272266423,9.749991924262945,-0.012633358246578226,-0.0014658709307494462,-0.005939661928763091,0.28951170406900084,0.05218285175512912,-0.7136431408706775
0.5605328443615248,0.11912619738147291,9.712078043457767,-0.0071932954199020495,0.006940407125032656,0.010125825839940766,-0.43940056554552803,0.05894615255736676,-0.5276989009396872,0.18534806208519652,2.435349375900048,9.512633662797361,-0.008364560642695112,-0.0023800186344001,-0.00919183042459902,-1.015090203845456,0.27375466912607344,0.2938294824139763,-0.03999634117655454,1.4768674014159637,9.619915917368319,-0.006891771222926585,0.0046447046176573475,0.0038747886943101204,0.6312004126227064,0.273567885969722,1.01330275820506,0.4199809361234177,1.4497736760805326,9.778409462479408,-0.005208425555985528,0.0036489576527793015,0.005331934008967124,0.3493492453523372,0.007808922297617681,-0.6094480310250433,-0.6668336270911062,1.1986127916093325,9.646548138876051,-0.005922049733395508,0.003933976546626957,-0.007538492520774909,0.2979468877416173,0.06297218407089636,-0.7162525349745196
0.5704358610233133,0.11494258859515982,9.731127976043458,-0.0012642717285369736,-0.0032549751210562516,0.013142992047388866,-0.43644228066274315,0.059156817700908665,-0.5260365445550383,0.20239120963851387,2.4470714285088517,9.49607019307896,-0.009213495145188006,-0.005008348599929842,-0.011127509582614515,-1.019215591794622,0.27887124937441493,0.29060695455045726,-0.03666644739768288,1.4660837599397127,9.611214801983893,-0.000438442008603035,0.00043705304133583457,0.002815749854683692,0.6270900613803153,0.2794591305783929,1.012606730457783,0.4314322978051186,1.4642219231402558,9.788184006025583,8.546869783013001e-05,0.0061457299928127165,0.005231253765316057,0.3463546840805124,0.010964957466577538,-0.6125794040148955,-0.6602181603562522,1.2099689851847037,9.749757046230787,-0.006078455925474188,0.008452184480959121,-0.005009751497020733,0.29522515988485026,0.06906168230863978,-0.7164284602035746
0.6094445936167473,0.1143589110551782,9.800524877724898,-0.0002204792069929522,-0.001510476471630682,0.013218042924273391,-0.44345978612293246,0.05478025959765776,-0.5200899595447083,0.22527352560948413,2.412263695794743,9.514947180129544,-0.010217717870860836,-0.003207235449649028,-0.012514981433546185,-1.0156310215338078,0.2696070960154971,0.2936703173412055,-0.008925924556716869,1.4927520009325292,9.625650115068787,-0.0010900707419373443,0.003423904965288879,0.004331474294768738,0.6304560805958305,0.2706498406228241,1.014070217772213,0.45226952749176397,1.4775839835171063,9.808009069870913,-0.0019049788489672523,0.003074460730035568,0.0066094687989623315,0.3497994983436634,0.0016980077040156744,-0.6101369229421857,-0.672800483135847,1.2417033480555693,9.769669000922638,-0.005955109486339396,0.0037568397767798103,-0.006936898290829667,0.29947782545236035,0.05931446852760416,-0.7140936869645421
0.5735239470581396,0.13106866321967958,9.701944379489127,-0.000781129892311046,0.007976201993592903,0.009218705540841553,-0.43764209703444074,0.06430067072692662,-0.5272055555562409,0.18146733969844153,2.438300446106487,9.495189633922308,-0.009373022887637986,-0.0034989480390051875,-0.008813583298985506,-1.0136635564019763,0.2710431483950014,0.29337569127591806,-0.030524237968689777,1.502846248136122,9.625521207540121,-0.010390324355414891,0.0027920787391668774,0.0029151818302748165,0.6326346910714024,0.26964953045933016,1.0135481852324801,0.4142611663384959,1.4711076900144278,9.775857506939852,-0.007409608339798806,0.003246864793826031,0.006750571624788305,0.3534883870159029,0.004865500588461572,-0.6095209414564186,-0.6843029353829952,1.2115029503803822,9.715066379277129,-0.010004761345256423,0.0012259525082874744,-0.006181692718979689,0.29947567665946423,0.06077808148563146,-0.7138463946440313
0.5461040713098881,0.13123062019393175,9.68655611857735,-0.005012052997000215,-0.001975977709025595,0.011247914955612668,-0.4490460935754907,0.060444281777770045,-0.5209391048730756,0.20243297917376485,2.4394910093958746,9.50745790989918,-0.008990062037651859,-0.004507343575187121,-0.009733293813216071,-1.0330023789430651,0.2747838406505531,0.2852318360357058,-0.041972907814660926,1.4725335035660987,9.620571352149254,-0.005431936891654492,0.0026146161485932186,0.0029113362912241026,0.6122962185588592,0.2773478226081261,1.0060618470188865,0.42917118121528586,1.4614058917192063,9.788704152930645,-0.0027997258246619822,0.005402277215076462,0.006247132958260652,0.33304392446581976,0.00852492074776983,-0.6173681789407756,-0.6622308968745969,1.2142495027923121,9.71006771026105,-0.006600093748439995,0.00346075915708549,-0.006445239294894505,0.2814204543231076,0.06558417397244923,-0.7232159301390748
0.6084128854214288,0.11147819582466041,9.800621453914381,-0.007616597815635592,-0.0013096286225266242,0.011722677193624083,-0.4361431554825414,0.07137681826218957,-0.5284063250108747,0.2141697727792755,2.432635165801747,9.53801265957046,-0.011264207521368905,-0.003050690567489691,-0.010736056164950223,-1.018358947888165,0.2710076957192807,0.2885479822023293,-0.010765738895167493,1.4790171633238276,9.604294074423043,-0.004252738755127656,0.0025651055345407995,0.003199602581150264,0.6245685956979611,0.27361250826746725,1.0112295273623404,0.44476378329561816,1.4747445461853286,9.785281237886737,-0.0020122007509330926,0.0028813743820267357,0.006001543535503541,0.34489154466295724,0.006093805363497486,-0.6117680451340942,-0.6585924234310472,1.2191749221554482,9.773727215294455,-0.006798162946405359,0.0038625673932381854,-0.005705169207553301,0.29137646418082536,0.06318090327682897,-0.7151324905446572
0.5826614923535156,0.11970024376428218,9.770637846580701,-0.0008020610408445685,0.006854310736563409,0.010667157091436825,-0.43702094048601586,0.06237928559016469,-0.5330877624293948,0.2035899623989793,2.435518155686841,9.499014186951147,-0.010659705339532147,-0.0035520013266047623,-0.010258642680693575,-1.021838098941082,0.2666419019128425,0.28793976728089804,-0.024468557544593816,1.4787060375112995,9.608515324805301,-0.006335747397681926,0.0030876546723978184,0.005000425835545073,0.6230057960830528,0.2672629351711898,1.0091056825331042,0.44745879460269117,1.4504064721858956,9.788405275827108,-0.004191078224838828,0.003599416777762697,0.006430410731301867,0.3457473194285888,-0.0005370676289011746,-0.6158821408924824,-0.6716399324679817,1.21251378967858,9.69869044687352,-0.006535039044106651,0.003815032050119769,-0.007651405370816566,0.29154407301925583,0.056353914689976206,-0.7202745421889196
0.5557687829210404,0.12945962454239723,9.656086652059614,-0.002233635413320257,-0.0005613638176235259,0.011865675644674634,-0.44344143361310884,0.06432245341692641,-0.523448287298352,0.19554978164360942,2.438232607944547,9.528920903878312,-0.007857339695550485,-0.003635506340109175,-0.011031574573004192,-1.0151566967419803,0.2753247131149106,0.28647474261111255,-0.04206160557581398,1.4883324631040507,9.621570131516947,-0.003961513997404092,0.0030737754123129953,0.002533457630005191,0.628169802741645,0.27452963481052944,1.0074927840299006,0.4104428542544337,1.5251149222611011,9.785842943979992,-0.0038452371956881714,0.005295759937446513,0.007259396778922658,0.3503978393546622,0.008960755036423254,-0.6168096849805145,-0.7776807975130544,0.9613572875280842,10.120091956501833,-0.011364349505171534,-0.0021970772150016046,-0.009264056186985715,0.2951893341819604,0.06467175766007678,-0.7191198797358944
0.49037790920243796,0.12355681816431605,9.77637780779095,-0.0024477566888079657,-0.00556116657994956,0.008520962590133112,-0.4373194290159045,0.06671746374219763,-0.5235329351196655,0.14345332757968907,2.5093036752181477,9.493159177975372,-0.006845279045697969,0.003990080791981351,-0.009885547028869459,-1.0199934709411984,0.2816801933408486,0.2837253589631856,-0.12583390229217337,1.5789905714401424,9.545435782916673,-0.12722337607365306,0.017808578309368807,0.006106435950775446,0.6254945446493149,0.27455744569736545,1.0080309194162076,0.3280674959053865,1.68329474126828,10.036279193578013,-0.11545731922561024,-0.04762061549921715,0.023972236351897738,0.3425758186744011,0.014104111633454111,-0.617889587473033,-0.9084372465007885,1.8967936979437536,10.522846290201379,-0.04288599132007501,-0.1122277328827938,-0.06256359269161846,0.29116319267402374,0.07076083610421852,-0.7231754381757591
0.6338415465088121,0.1273523814304745,9.710278650373342,-0.01030613093396172,-0.0075494936044412505,0.004556879358567436,-0.44541800096258455,0.06434673546292512,-0.5248811257034867,0.2687278330250088,2.3568418003444416,9.527729941988117,-0.004594455621782012,-0.005919427443079207,-0.005418770735655499,-1.0232850912335691,0.2690827762852165,0.28693355477661747,0.0434911270189374,1.5191518762722984,9.555560110766036,-0.17485663159308618,0.018982513982674445,0.01606844858153108,0.6225828905767115,0.2653451169878986,1.0135218701818056,0.5151472697865918,1.4157667473205253,9.46354132140537,-0.166906422602895,-0.007879520772424235,0.025291714123419056,0.34262373969683946,0.0038808331548833034,-0.6143810948158939,-0.5271821311987467,0.5701715166901106,8.922724879193186,-0.10439957485239244,-0.10731129080678464,-0.012649641893010526,0.2859379741853559,0.06315809324816377,-0.7181893227729239
0.6637935385086066,0.09467605633310897,9.824508651429875,0.022616792400603204,-0.0002736951583032391,0.007839709399482779,-0.43845684179854744,0.05429834179459106,-0.527499718604097,0.19635108946117089,2.484837716392465,9.496276769300424,-0.01857726267609678,0.0029327514216142474,-0.0050248504019842315,-1.022611947629287,0.284213557317182,0.2868833646309059,0.004344648971220527,1.0881497009386814,9.865543330204037,-0.014834263331544167,0.0025968400807181253,-0.0029752149511556346,0.6228734985581743,0.27411941388507727,1.01174592002449,0.5321205485937439,0.9827881505857481,9.936479062366182,-0.007707592275923469,-0.004707417536664144,0.008216583623601219,0.3413915993844683,0.016316102706784085,-0.616659460989756,-0.24221186444898876,1.7854830735273601,9.209971896450794,-0.007516939022798456,-0.004801622998202326,-0.003585031284474977,0.28540938416016115,0.07633657685960211,-0.7169368706627353
0.5981559311294886,0.1479995062785332,9.767190071331772,0.012385219177208246,0.006954726875574382,0.019678160534426906,-0.45048037435454996,0.05872959578641661,-0.5182411757417088,0.2297302393518266,2.370137171084973,9.51845582367028,-0.012584840061943827,-0.006111569859383787,-0.019132558570906438,-1.0210315418108253,0.27991898697322404,0.280353169763234,-0.011382947930632492,1.3029277416943945,9.455157737116478,0.05593697906869697,-0.004601263397426708,0.006612310247988827,0.6229283897065029,0.2713701306946268,1.0029732874720265,0.46867770764812267,1.2431533241974164,9.493462858504616,0.0527051149478622,0.024582968044381058,-0.0020711529305127777,0.34294293019717415,0.01283823040256789,-0.6227717435376358,-0.4917389607225412,0.3710499335631227,9.017020052906355,0.016249834772665853,0.05843587270130768,0.024155687560026597,0.2881601178527012,0.07172753455598178,-0.72628361138858
0.5521355550946686,0.17842711809709622,9.74110929173007,-0.017467195588098994,0.007716269808337555,0.007729887937870334,-0.43760780355587986,0.06306270542954989,-0.5245275520312582,0.16653427758921704,2.4171914430637673,9.519039373534817,-0.0073284551968275016,-0.00518457521546117,-0.011047568522680353,-1.0199336157339665,0.27483286847021454,0.2960642328368486,-0.08999249346015331,1.3975449992834108,9.695699377079238,0.16658000783051025,-0.005529299743434658,-0.006935985620977734,0.6242928779698028,0.2758852498625448,1.021474921174995,0.41703766736485504,1.359516081757143,10.018384770154947,0.16266216781618892,0.02133020950855997,-0.014534831497438911,0.34410619240128176,0.009338081094950247,-0.6042075341855282,-0.6048871477361952,1.4674267695773506,9.940299063093391,0.08769494958006352,0.11983123356196788,-0.02528539875436462,0.29119326551403735,0.06683612655787487,-0.711460188131431
0.5848790403195006,0.10759063503404548,9.727781373190801,-0.03633202129555402,0.000943950490879068,0.013004348582308098,-0.4350884058796779,0.05983088796746385,-0.5182411532019678,0.20101796312293047,2.393621026208508,9.490384029351207,-0.008128626621264987,-0.006859079275180709,-0.021212921386476895,-1.0237256318963077,0.27514865953575074,0.2846264903398578,-0.004346436781562574,1.780254434411823,9.554276540888972,0.02749742266591816,0.0029032896089556453,0.004547486578141863,0.6225496677955334,0.2733624635065277,1.0078504924790745,0.4379488969324129,1.9035699127639607,9.71190226588141,0.0195878594417001,0.013892985645637743,0.0011071469379914356,0.3428606280171123,0.007047353756208268,-0.6151470368535853,-0.9864941042422342,1.3233810162570914,10.417374956705297,0.0027812406024452013,0.030278319319351994,0.00017898577224489688,0.2897673443739757,0.06660009651025385,-0.7209538649596648
0.5099716675236219,0.04462594784811287,9.589416411436039,-0.02615799635549573,-0.007850051406186907,0.009206142274921413,-0.44447489013144975,0.053333659168013414,-0.52179183881447,0.17299619879954709,2.5289519412705674,9.54175744514839,-0.011665606007998933,-0.00040986203566074756,-0.0015359347570334044,-1.02442937902469,0.27592278905609,0.28632964108627845,-0.05766783672682543,1.5931918099404525,9.640856314247191,-0.05164671096165254,0.006353389952563158,-0.0010849497473101246,0.6218068869104355,0.2721481985510302,1.007872901731256,0.37679183062028265,1.678226032693819,9.98031516731133,-0.04326168783185776,-0.010983058463247156,0.013086607151274363,0.34455764338034645,0.005330268805459317,-0.6154174904149569,-0.8687913975689565,1.4981548132683766,10.420839794225655,-0.02450055944145999,-0.03629151955745462,0.0019534762006164588,0.28614392498796926,0.06438251693145185,-0.7196573053718351
0.4504782420262685,-0.0013131763786402711,9.463018884728157,0.031751360595082476,-0.06670394844770067,0.015064797205655879,-0.44193010946977573,0.05997899959211353,-0.5335120005894538,0.13447256943213717,2.4231312808025938,9.499998472513946,-0.012813669005551932,0.004839975682117021,-0.005593589903869757,-1.02855926340683,0.270977298383472,0.29331002087517266,-0.09951107573635257,1.4432337244708078,9.592919101640799,-0.17391418840206746,0.016649322778518404,0.010800957942094562,0.6162671599566157,0.26517074460357626,1.0153510139722086,0.37292378121818814,1.350501533639855,9.77542312350618,-0.16033637118254246,-0.016024749649864573,0.02414839445332008,0.3361316530157639,0.0071102247295398695,-0.6105912630804551,-0.6231346003965855,1.1131584664561391,9.736134057783902,-0.09488962780906993,-0.1061812397647571,0.0031925830099383623,0.28113807665415863,0.06263957751697936,-0.7144231307801384
0.6355747715194415,0.016204747703878017,9.46844985190004,0.09440771882243182,-0.11297852258743595,0.01937255426382587,-0.44572003618577644,0.059964113023233456,-0.5263692091269083,0.23020604747494658,2.3209641174559508,9.53767099125808,-0.013478125548683271,0.003993154939263742,-0.004733459023268803,-1.019027453296742,0.27447075771736185,0.29044390522717745,0.017146270383432194,1.1821326575130373,9.663147565377399,-0.026278222011051323,0.006273947775620435,0.0036573247390251245,0.6263622144186971,0.2677883885121035,1.0185619088281266,0.5400937942294277,1.186059723336703,9.729349772357777,-0.024229747260369514,-0.01667108943364758,0.01050417830170166,0.34447008211049274,0.008559014262103905,-0.6093380032819645,-0.4067626120588688,0.9812402869810012,9.078960029113603,-0.009999550998772951,-0.033613960634626315,-0.004037366007278994,0.28909345561691846,0.06561570579684602,-0.718498143911486
0.8833557742744282,0.010420393744174347,10.33752422813317,0.24065934506150718,-0.09152240965973969,0.014542260850404175,-0.4451641578859728,0.05381178403377418,-0.5193351940344262,0.21685032369835244,2.4848423164171285,9.495096664843631,-0.011603376979857924,0.006758490010363797,-0.006401466741545719,-1.0226804157499407,0.2733319332153309,0.29246237942049613,-0.015136400390736215,1.4830456411162225,9.63260472879145,-0.02709165279893043,0.005211867011709159,0.006137492637426362,0.6207510508551785,0.2671108923343157,1.0191610852566717,0.49063504034935723,1.455696448991222,9.830380998901555,-0.02977355085669725,0.0030258580440583,0.009697074996145501,0.34152401536779486,0.010513552983338718,-0.6102621824500717,-0.6255517393548309,1.435868412061706,9.839753223730693,-0.02239137613956281,-0.014833516871506896,0.009461584053388598,0.28404243463108597,0.06338805817184301,-0.7154622334945768
1.0905079900959256,0.6307506462201615,10.807975808817432,0.1861107122643724,0.14776105088062053,-0.0014200412327294767,-0.4445386800016828,0.058990165726243105,-0.5283479469137283,0.3442578729680818,2.4234082902766145,9.45984399739494,-0.0031525569769764407,-0.01001001489164939,-0.006372785213379987,-1.0155780839404607,0.2740009790315635,0.2935865638198848,0.16622705138521723,1.4423666275459437,9.598772748951948,-0.03473195052672304,0.0040908424517451785,0.0021579334197937513,0.6307566990218193,0.26677590294177805,1.0189755512374654,0.5959876319060581,1.5708741760432914,9.83100827348733,-0.03591801226768765,-0.01073515333038982,0.014999490381718317,0.3516001337355521,0.011967157365309632,-0.60782911978346,-0.6193932532654387,1.4273387696207953,10.120635292253972,-0.024436503295266906,-0.038873503454698886,0.03202433209073881,0.29023113649146465,0.06707401708090809,-0.7107067925892526
0.46711632904843203,0.8679666323398756,9.462024584701304,-0.14815962758258258,0.18488312669767182,0.02476338074825566,-0.44361964482402855,0.05116951224737081,-0.5281684768448123,0.19236735249864956,2.4820237349209204,9.592031252584976,-0.003893330880307764,-0.020837531582227613,-0.02960299034246555,-1.0139571021607963,0.2695307128761089,0.29072112413819656,-0.07281153892967354,1.3700341950339774,9.641465667055208,-0.14521550628648694,0.011175476217945905,0.017334663373177923,0.6310717899347112,0.2581913023611013,1.0139014356902145,0.5187787899108676,1.4134587921015833,9.734446970584736,-0.13857557056177433,-0.0021617695937888475,0.02527287046819323,0.3468222327875426,0.006567285257438535,-0.612795721715329,-0.6005953400666665,1.3451360632755083,9.833051909806583,-0.09692102229735372,-0.0925964123009413,0.037462027478901185,0.29130888517815745,0.06294165017602968,-0.7183061324639916
0.3512344869437603,0.3391741953691767,9.791341500364648,-0.6855881217216847,0.13067369705608786,0.007118561499784509,-0.44445490560986045,0.05846814461148799,-0.5229808004831729,0.008006608491467768,2.351978331328389,9.427784794152611,-0.008721813321287842,-0.00929636214705666,-0.019943454671129023,-1.019672232757866,0.27485758306747476,0.29752602253734833,-0.23642097232586326,1.393299479423093,9.603486299063213,-0.10937333139384792,0.014204093121228159,0.00872298643900131,0.6256725759179358,0.26026837199444053,1.0244884422425555,0.16909098713395745,1.2096833161340852,9.978885217698965,-0.10108904673917107,-0.02275515401118287,0.019234123252517492,0.34431205382314506,0.01517533923003651,-0.6067069396226987,-0.5913176037619357,2.549573895983242,10.14055636318955,-0.03542531058351269,-0.10575241868149533,0.1528451979064942,0.2829017987755675,0.06947804515928814,-0.7103001801882021
0.43964244271893915,0.4690978719621303,10.26439999142915,-0.6368594675525288,0.21803991773453268,-0.09574488402012837,-0.43260864065366345,0.07767194695015672,-0.5242724178123066,0.12847521746453505,2.49052328068886,9.559328973023433,-0.002278181512447966,0.001450760346852908,-0.0009996021270183098,-1.0201685620106389,0.2767652913010011,0.2948101645571554,-0.08106800909887577,1.3463314946925888,9.680260598616835,-0.06846744616387739,0.010872408051415901,0.007885127770686869,0.624703488847902,0.26368652226412953,1.023261571024979,0.43663401160355264,1.497051638823212,9.783411499060117,-0.06714834832353296,-0.03318539752580766,0.017784661185291296,0.3418633211953269,0.014692765818931797,-0.6068881919891758,-0.6126084652415282,3.6851671560144434,9.573969273899507,-0.010749573956692486,-0.11389727152657121,0.4907798051769776,0.28163937493430174,0.06727746073477657,-0.71271766653472
0.5555893722946277,-0.2615455297359141,9.43092264766144,0.01281757125561056,0.2777493111475929,-0.2756175817725441,-0.4251725155291074,0.07301220444172295,-0.5302841168140067,0.3446426478358464,2.5404565567415736,9.443007441249183,-0.008131286331714596,-0.012418509999266691,-0.019536323655943676,-1.014148585500294,0.2710537503014331,0.29362531974658057,0.08193999537524624,1.3425735447583618,9.627820202178054,-0.11331391165773688,0.010091022847872753,0.010950067064009987,0.628515996950289,0.2521801551434606,1.0237582758202273,0.6586198742420084,1.1325171023768734,9.642407232271792,-0.1093320565359873,-0.014088534197579498,0.022040358363132652,0.34474983443714957,0.008815115886923956,-0.6078814842832919,-0.19177018443414126,2.445211163431407,8.971017648650431,-0.06586868530582204,-0.07140558110845227,0.7779523044844374,0.2846081155725922,0.05435550119772047,-0.7140226580079673
0.4223307161890949,-0.5052345411270152,10.338414548527323,1.2207793609508166,0.3841213560768164,-0.37762413290496133,-0.42629917457174726,0.045500837450698384,-0.5414278394723826,0.13000243833887218,2.529615805222503,9.426670335826348,-0.01181461512311459,-0.0168319529435974,-0.04643977227115993,-1.0188456986285805,0.26646822810827997,0.29352386790493334,-0.07601081312981159,1.2339963091327568,9.614056131613708,-0.08630227960322913,0.011401290269563453,0.005651799136135203,0.6266837350704734,0.24655384408804862,1.0199251071164623,0.43491686435565313,1.2975630395610536,9.761671387405597,-0.08475352989096503,0.017603415337075566,0.013923651478391318,0.3447047575406819,0.00928580549034565,-0.6098382091925818,-0.6641174892679247,-1.8413654814098839,9.368547447516429,-0.07515431744741083,-0.0055049389599145186,0.6552201402643706,0.2806632243819006,0.053850388908389904,-0.7158913163686023
0.5213285743372554,-0.5091932992629258,10.753267825797852,1.7746882190680644,0.6572350106705482,-0.3059921823542324,-0.42172218720303006,0.020605910004468014,-0.5484973488665013,0.02322844505920249,2.6097955073347516,9.53651375450177,-0.02231006934246534,-0.029696632241022584,-0.08127436684758514,-1.0181177699494928,0.2717180566937965,0.2875554317059902,-0.2289457703023888,1.1713219757488682,9.700589162523913,-0.016472172622271953,0.003931528145111484,0.0016381576683184877,0.6252244696367488,0.2553283697395762,1.015984570860491,0.3181323156630155,1.02815175227924,10.005717186983901,-0.01608632752642288,-0.006483582613077097,0.010266258530353395,0.3433158498019503,0.014835671178117828,-0.6176696816684946,-0.5107770455127902,0.574936552424188,10.33965900137639,-0.00033776853241021705,-0.007543419686911394,0.3361254519964914,0.28319127170879127,0.05753559612646959,-0.7222891365030554
0.5756091909933784,0.28108596119246154,9.978469613201488,2.320800928674373,0.8733618405501478,-0.2823826918758084,-0.40394029961592326,-0.0204681849105925,-0.5617446581309554,0.36543797806631295,2.3086220423810215,9.345449627288367,-0.026306545041362574,-0.03689156906743406,-0.07987042024886,-1.0271610040984238,0.2722900458657718,0.2861867902208858,0.18570728867494535,1.3817537861001299,9.54730408255189,0.03479220594889195,0.007759347749214442,-0.007208648466713331,0.6161969618180515,0.25784552492352947,1.015159334916501,0.6252627770536479,1.4856236302929482,9.71848356640548,0.03615999452941421,-0.017890350621574635,0.012155946662841964,0.33843044981614995,0.018997128416639118,-0.6183219505016461,-0.4067013965725995,1.6563562558899179,9.911178226783445,0.040909249503244455,-0.04036683686001527,0.4010103581168425,0.2750864955458542,0.056033303557578,-0.7248022376522613
0.09589768768782117,2.1980443138892967,10.764179371863147,2.4205299041765196,1.0671994233531015,-0.2942858601683331,-0.39167914096972495,-0.06373837457953752,-0.5680798174554145,0.30897103288106975,2.5372731803565336,9.690941639048335,-0.028387430486851033,-0.06295395802183029,-0.08851991033513212,-1.0270972722405098,0.2716726605781052,0.29230223555682494,0.0008318105241151008,1.4314970290521087,9.628938417369552,-0.12227965722476733,0.02303998907871537,0.014983957863197676,0.6199949424587744,0.2542124205859037,1.0241491549883721,0.5552763309635486,1.5115273256204849,9.71019353081715,-0.1312542906309873,-0.014992810140858449,0.01325754023325959,0.3376489130799688,0.019559842256586756,-0.6102496268297204,-0.5311240262606757,1.819390187264134,9.991712781753167,-0.09332026307822688,-0.1175333487267086,0.43796129234681963,0.2708791125642155,0.05575399035458395,-0.7161643849919961
-0.5698393020324346,3.3296621784639724,9.78538111819099,1.4290910541049775,1.0868897368891357,-0.5302812519976454,-0.36330806587845216,-0.0924411473144464,-0.5816654113877214,0.16577141211390367,2.172219525472209,9.418399576566713,-0.025911598313874254,-0.023656212420621277,-0.03685370579373087,-1.0193243559421383,0.2700798682208893,0.2905305034311064,-0.1743435410211443,1.429360935818123,9.753583771597821,-0.20675074144307173,0.012826343650233349,0.0022653088765572683,0.6229951880290016,0.24925426096950798,1.0172900057162921,0.4368670148474215,1.224816284375138,9.926442276961307,-0.20474898070096648,-0.0003457970435004555,0.021900514133690263,0.34338344878938964,0.021200671689815646,-0.6157740256176816,-0.3822041393354718,1.3154356656338206,9.623119508407672,-0.16594373982282934,-0.12186879955176212,0.49107707114813004,0.27518083204426624,0.053097872672222456,-0.7211458063125027
-0.6042707814156532,4.4770700194653825,10.539979079861288,-0.33747768126565353,1.0624475684640566,-0.48837776318478293,-0.3476490123112209,-0.09150247364047245,-0.5951008302167854,0.18038320731019683,2.3263815800592953,9.741798834498193,-0.010120936441094682,0.0017092679375639572,-0.0018404558329222554,-1.0190534342709647,0.27538647856719034,0.28725209816625286,-0.12845188193811846,0.7892697639019768,9.733544359964188,-0.11332223872357,-0.005988717287975067,0.0020164746273930475,0.6230552714208621,0.2534124895757869,1.0184801421975185,0.4563587280969724,0.8303289187377068,9.827570284936078,-0.11652577713100075,0.009330293085964189,-0.002578989326528598,0.3431576150356448,0.03022979808990075,-0.6163367374151018,-0.1778638139639188,1.0443317552151652,9.27455925986553,-0.08782699743205459,-0.06793235064425976,0.5337089254181676,0.2763507500595737,0.05872050975720352,-0.7221390057124495
-0.2764493100379486,2.474438374651235,10.05107016801907,-1.6598643529874524,1.307605704700284,-0.18410736794278346,-0.3229093702897348,-0.07042191349310002,-0.6002533620722648,0.06462458079157647,2.5396591685942154,9.057523556012805,0.0002523286354339793,-0.02926766668089999,-0.03616547496322254,-1.0256183193084767,0.2757482474227441,0.28927781377793294,-0.04178616449540609,0.9884517318331361,9.703190457081519,0.09928526814291697,-0.019125774726015853,0.008267092107795086,0.619678813241467,0.2568647381317844,1.0190085776906577,0.49796917502567706,1.0241489196787685,10.024169781239094,0.0831325910172429,0.00538294245765075,-0.0012772741512481433,0.33659873655149036,0.02733917804668693,-0.6144447504183529,-0.2639816514463824,1.2929606847117754,9.62883382637816,0.06275034569201461,0.004078025654676722,0.5630234655814023,0.2713215290354517,0.05429516270445909,-0.7186177377088329
-0.9123691960177939,-0.20844130840639424,10.108000188421084,-1.651363417057996,1.4279584960103742,-0.015732323170129597,-0.2997209156250419,-0.03631800276198163,-0.6167757909526502,0.40582407718655045,2.7570215945359147,9.676204252054436,-0.0700124416969982,-0.10878768976004966,-0.14579443788188773,-1.0292749803254622,0.26957706085907224,0.2962747534377567,0.05104297022146764,1.6899524772949421,9.599142956365514,0.03520410281295188,-0.025226617733117337,0.026823286317718104,0.6160497208520952,0.2544776093029842,1.0220229425299088,0.574547128777778,1.4806110712406313,9.624183608077253,0.01107885174560378,0.008569688424068876,0.008485067018787295,0.33671988378948087,0.02518882265392513,-0.6090558599916001,-0.3121928642793559,1.6338210285394592,10.171911891669742,-0.021898935077112686,-0.020241724631066868,0.5767238258434001,0.2697262641681047,0.048665638262183133,-0.7146846312321626
-1.514037133265654,-1.4443720785455716,9.76691065796891,-0.41177076020208503,1.556076745691236,-0.08204329419013459,-0.27277414453728344,-0.024808339935910674,-0.6168982065321456,0.33069110416172376,2.2213053199370707,9.677511072771736,-0.04840633791532197,-0.0022227362708232843,0.004448670486564438,-1.0275490351206946,0.26814688251507823,0.29921201560762,-0.10170187136813275,1.6998141294358562,9.86150824728796,-0.188341957413088,-0.014375349103396443,-0.009221033616792818,0.6164092595575547,0.24615229912234354,1.019144626126975,0.46306496560605226,1.6633576372018466,10.060409530041934,-0.18737801305440982,0.021911222816588256,-0.006504975669689262,0.33764549215267947,0.02028964914622142,-0.6105000868087556,-0.504848166028421,1.7344940899618522,10.00342292897242,-0.1731537844364744,-0.09891884267966938,0.649067027174576,0.26656525334956416,0.04645139202283954,-0.7146193840358819
-1.6804568933582298,0.041856040789982576,8.610280855615525,1.1842131188022837,1.5690970432499922,-0.3287602238861937,-0.24083536253818646,-0.0535951540035791,-0.6212640920377042,0.2633060729121233,2.2743368130951764,9.483318768717451,0.01868473647500924,0.027181084654737286,0.08213626239884222,-1.0297299499332437,0.27609949684675006,0.2922497968612654,-0.10995669108487457,1.5500441250481465,9.959568458042115,-0.196408064274341,-0.045214767486257815,-0.004409761237299016,0.6135807187897717,0.248556317517539,1.0103902186267184,0.5026059538271744,1.2657691308303247,10.243742428741974,-0.19489993821483872,0.025574611228124,-0.03421660435201561,0.33535110852719346,0.031234151303266726,-0.6161589629616266,-0.2815905114369529,1.6476382789906363,10.278376133096046,-0.1862465926774541,-0.10901193080116031,0.7158556148414578,0.26624994410044545,0.04987173584079805,-0.7170500097257759
-2.5501157186868095,2.072567210959801,10.359843044476966,1.8279756713334274,1.6204064160497182,-0.3821743837268701,-0.21410247100335186,-0.09225803687801104,-0.6407470130462369,0.09879671489851669,2.758523032678782,9.513421590732795,0.007151960683752036,0.03589742987917555,0.1534093116354015,-1.0157484247173536,0.28082339084244345,0.2927273396916779,-0.1342630126016375,1.332802481930818,10.165512763583704,-0.36725099493662905,-0.11061408107082736,-0.026078259832904717,0.6193223586827704,0.2435931382968068,1.00640921858125,0.5028916008394576,1.4302037737745976,10.05939309660439,-0.3661757656467507,0.06951637860244445,-0.008752117973237366,0.34326123946951953,0.03514499335903166,-0.6127195492194147,-0.4104021819549236,1.6317340580564483,10.062540430452009,-0.3475345375778265,-0.14243521426668315,0.7556062968255164,0.27212967474650357,0.049900337787590184,-0.7162002577275762
-2.629558391519523,2.5606023535818627,10.321561980998288,1.263208876214921,1.8828561559554329,-0.3753134998192413,-0.17873484737834477,-0.12230078222406421,-0.6439555879934749,-0.006983040555670242,2.7100196364066624,9.216768573780124,-0.030966492998367068,-0.0008902678348493492,0.003933991810402757,-1.0253731264592594,0.2771821611897954,0.2877824052132412,-0.10741914401628652,0.5506443722656084,9.62603569136532,-0.5615757776314624,-0.1187391386679869,-0.0030340632826094394,0.6135752022753758,0.22866079657175478,0.99367960221487,0.3452241144091317,0.9726300616122574,9.84498184075545,-0.5631190630238374,0.10680570843337403,0.02715620780227826,0.3397929210560127,0.03903903552041686,-0.6153569699344097,-0.3506793147799082,1.5161953537195527,9.781867476424464,-0.5255606190802349,-0.19989456199756017,0.8217792361454528,0.263513621070787,0.05279047388849907,-0.7186957042558342
-2.8098278167701,3.2007015845539426,8.146615787622054,0.8753281080914157,1.928350862472371,-0.4376744641547707,-0.14209911063436817,-0.1430650688721171,-0.648591243634647,0.2585550106190306,2.01616842950291,9.588217274552584,-0.104782116923372,-0.06825728936290702,-0.0261347524932833,-1.025649900273039,0.27785333471865276,0.2843541461287834,-0.03095873396584084,1.2010408280418983,9.806475602902536,-0.5737393876260082,-0.12801319716032597,0.013019117647700282,0.6084159369944894,0.2149762372346011,0.9855691813559159,0.38011704869365626,0.929154763350071,10.005125644019984,-0.5733308729198212,0.11167306590651817,0.042323153403714175,0.33839654842686234,0.0473599254806246,-0.6136877063989923,-0.13907415804816028,1.0491923489733295,9.64031984127809,-0.5430442722990978,-0.19031720216559597,0.8913430837444148,0.262255585093172,0.0559596233923284,-0.7196399128670025
-3.5366336823082474,2.530265685074626,9.02771310421807,0.7790872766414367,1.9881856119785484,-0.414165432606241,-0.10581426893818897,-0.1523717433300305,-0.6502190911759235,0.12959912867661194,2.7993596259542066,9.139703743114971,-0.05771946187729578,-0.057373108121226375,-0.005602030177129451,-1.020874108562538,0.2844790997770246,0.28905622279012905,0.018421643501369878,0.6521732678438837,9.717624263275749,-0.523841136433818,-0.12309051416970215,-0.0012147518941678023,0.6076924693259628,0.2061344188128794,0.977341722177658,0.32548150568096124,0.6380281629760877,9.988177249689105,-0.5216663283199616,0.10123906483536085,0.008482527243191913,0.34177204648072346,0.055714250878888184,-0.6065160181020635,-0.17133219601453667,0.3422311560151396,9.722359153907417,-0.49404955684729734,-0.16064003162590607,0.8794772689997263,0.26407754833723174,0.06279407691512127,-0.7128315967769491
-3.9574383379751534,2.469939032406392,7.86745117398296,0.8325384517786967,1.9916586461737775,-0.5271241972592094,-0.08092527815715288,-0.16602642254520023,-0.6448516255325951,0.23647395749452438,2.2467015780364736,10.153880812322265,-0.0849863518945891,-0.02651586865157247,0.030289498267578267,-1.0167709649040833,0.2855509063930645,0.2838588704164783,-0.0031310758282672713,0.5469285324977043,9.796237961060617,-0.4740325014459796,-0.1611898389930918,-0.010823237604732333,0.6096583329831928,0.20116200723043906,0.9673274575448456,0.2007977391003745,0.2875447106696452,10.07880868705846,-0.46136905924827076,0.0900992979292078,0.009646165405457445,0.3470247306431401,0.06272321959687174,-0.6125655889628953,-0.010398700815930667,0.3395183493156034,9.944716070109662,-0.42723299865595593,-0.1234899095361051,0.8638633019773468,0.26882484123606787,0.06844134419165075,-0.7178102698371227
-4.526788435163373,2.447598494738973,7.606114538882758,0.7167461192568277,1.916248597437331,-0.6045051064339644,-0.04324622146170975,-0.1782546344591188,-0.6494501784495333,0.06746516507088973,2.307706764758808,9.004248493873677,-0.07878576630614381,-0.0029208077284652153,0.08091514916112454,-1.0277353122868487,0.2842810729014661,0.2871870770467308,-0.18776585727538883,0.31720384075222346,9.773986259925255,-0.37612649687723504,-0.17300741779159606,-0.017918256331001164,0.5969903082327194,0.18756839332094205,0.962533026003889,0.13119436098659348,0.37626113782954307,10.445643357470258,-0.37545881225531824,0.0660415593610538,-0.0055334097070497395,0.332396482097673,0.06189575040705202,-0.6012179019196279,-0.14271253089418942,0.33653223536217136,10.137040028896598,-0.3510463018499943,-0.1028757351146623,0.9052259072110456,0.2563409842631674,0.06494513231902665,-0.7087536651962053
-5.162835720141838,2.6453041827448183,7.722023906768437,0.6803066142535026,1.824266838603626,-0.6283716780975006,-0.010814246823947458,-0.20028449872432835,-0.6418164385697638,0.41025070657550156,2.2515730782265537,9.792608418053419,-0.040549348590524545,-0.010448972959090645,0.016438834234346344,-1.0228690502234432,0.29281401299910353,0.27671221925197337,0.3517370071483118,0.3435503477639928,9.961363432520802,-0.2332495475796109,-0.1850093309237328,-0.014703140380869952,0.5964009500295704,0.19133515734726486,0.9422497764200974,0.43503380401006253,0.3085529478789276,10.380485545768211,-0.23461348414436026,0.03708030049328156,-0.012239997670423039,0.33869853963766766,0.07356170288159451,-0.6048910092723079,0.1672194000054537,-0.16405868154241537,10.043799568502818,-0.21513979574842004,-0.0595902548055152,0.8652192546808825,0.26118316892657734,0.06838958846801083,-0.7098307661771551
-4.646454624798773,2.4752181294550306,7.353211009642267,0.806503437648911,1.719409409718648,-0.6885221202782521,0.02288239083094935,-0.21450492492165799,-0.6351309615844701,0.5570822676937843,2.30803167822111,9.634858490746867,-0.03686039892394596,0.04121960260849131,0.07163652258426298,-1.0265307535025276,0.2914230016073503,0.27824644622473726,0.5680800052108667,0.2537668285319099,9.831288659141766,-0.12399771981401059,-0.2218025848986533,-0.014986754225043019,0.5876416578028993,0.18768303526643623,0.9326717375292543,0.5891831386739588,0.3996689647309219,10.19676547604608,-0.10819839006452765,0.0019882877297739006,-0.008874100762778918,0.33521288149511574,0.07193261654203603,-0.5972227751854059,0.25567590627751813,-0.13081280120936306,10.518723420619155,-0.07988849271674925,-0.029893042275698934,0.7764589850880401,0.25889814318684157,0.061776767257035,-0.7041737657351883
-5.681811717644258,3.663395593592052,7.727676816590596,0.4452768959252101,1.6496762555742424,-0.8333366833007875,0.055428528079800574,-0.22237603778949705,-0.6271652838103772,0.7153769362752483,1.9570178725495235,9.677523976243156,-0.06573996845849751,-0.004926784634468781,0.026323358338960365,-1.0223579761120016,0.2923663175703554,0.27915622028628007,0.7414353678813281,0.21194681422634615,9.373379934400823,-0.18175187490653308,-0.21637652703853175,0.02119988251626617,0.591725732474723,0.18363526843879766,0.9179723265620066,0.7610537034610818,0.5860755825651356,10.242035675729367,-0.17513490171409943,-0.0524978523697609,0.022334416203597537,0.3330120943098984,0.07413290220251721,-0.5976777925231682,0.33630363846311595,-0.26221178734413436,11.052586893629213,-0.12629045642686773,-0.11089790335874088,0.6351916994987645,0.2611045640664606,0.06398354799870405,-0.7032420900082426
-6.4182665608344225,3.9289415993120445,7.108181768802553,-0.08345692132018352,1.609110756621586,-0.756962392922174,0.08097402250269124,-0.21249991772754162,-0.6375307742576212,0.11622356292926095,2.058587786341752,9.515181984391502,0.005298425233669238,-0.002872279005802232,-0.08929895654124993,-1.0269941722680769,0.2996068359230643,0.27174855026214456,0.1324213165695704,0.4400494090555972,10.12344963564065,-0.2006364671962094,-0.23235657619903094,0.0440113149325071,0.5847965142804729,0.18770542914667765,0.8980500503108223,0.10872909355405311,0.5318168889497773,10.787470436056205,-0.1978361617312366,-0.1194326066286777,0.037836623624889036,0.3251751708230908,0.08390424352330382,-0.6000197165301785,-0.11582595520889996,0.13402228518386664,11.128169528538645,-0.11946122560004893,-0.18043036582486843,0.525104700953475,0.2573426018696857,0.06714455384273021,-0.7070626970914257
-7.2066903037502295,2.541222217975216,7.168251435863042,-0.7344511590101999,1.573943383867746,-0.7395935200172616,0.10245979653400047,-0.20321057470283416,-0.6270776067737989,0.14326357282658353,2.5266535632647336,9.727786844355329,0.07241227554335261,0.09182015721564099,-0.0775049093962992,-1.0300681003063297,0.28600758014744754,0.2737518053045687,0.25948913703165055,0.14344570056183914,9.997513717679306,-0.21221400295299458,-0.26888496217089497,0.060584504157604746,0.5790651418208563,0.17034484689602947,0.8872904524257883,0.14476306972724165,0.2977753985770537,10.412343958330005,-0.20544760270528978,-0.1710285256859537,0.05365844472530376,0.3181705184517557,0.07786093588369235,-0.595890438635708,-0.015471267715612497,0.3105714943371059,11.040811725587277,-0.09809270315632371,-0.21450483113581192,0.5275230109719217,0.250003751499415,0.05781645662141296,-0.6986145119921021
-7.393755563303932,2.3110919904201985,6.648548182622712,-0.49453871549627315,1.4515113320263473,-0.7192691243292698,0.12805516221770474,-0.18879439266324058,-0.6215436992105347,0.6573696585829737,2.679307145310432,10.026590823015018,0.016563954888346527,0.19838331407913004,-0.13237407232323886,-1.032263582046243,0.2936967783632068,0.26581749923986003,0.5934231762568254,0.7909009306298911,9.857338417350448,-0.3009082242120425,-0.2582107443694505,0.08046412486772879,0.5721695846976068,0.1761317030814875,0.8683327758685508,0.7248753175460001,1.003394274798584,10.24243644392134,-0.3044330828441962,-0.18589189078940188,0.07248529240280299,0.308096754524188,0.094542530231453,-0.590668605973855,0.14228091001638235,-1.0086765294187812,9.872303555890975,-0.2179813951706971,-0.2838778398470515,0.3761601526134955,0.2401776507569103,0.06899656098590784,-0.6986287456546642
-8.231118907294968,1.3803546316817976,6.64590887384682,-0.2768785068492942,1.2641902597345056,-0.615251424300918,0.1466348447658836,-0.1863476199227369,-0.606447812136062,0.7634834432104873,2.4125799450581233,10.362733803317433,0.10085764413622818,0.34373377157255136,-0.1854355833970359,-1.023657139773991,0.28492144494747795,0.25928751571329656,0.8350037634204811,0.15260549851033797,9.394100062183288,-0.2858716143141033,-0.4522573260984717,0.10454478034177156,0.5831493197653874,0.16538206870673752,0.8469572756954427,0.8472963238888588,0.6534850834415888,10.369375782342868,-0.2755373388417312,-0.143191019008374,0.10250032398173409,0.3076241848102579,0.09211199206366587,-0.5896594662013724,0.3883638500886006,-1.2086777212163342,10.12488945940891,-0.19436534645131556,-0.22309052814783578,-0.0069935858170021795,0.2437106135627221,0.0670538273888468,-0.6938251202546564
-7.823746048213862,1.6403325776777535,6.843130973776846,0.5825215499887345,1.0139545693196323,-0.5950595932699189,0.17090167600136205,-0.1900005542636621,-0.5990534940140377,-0.07743573584200503,2.5065888094729627,9.81437292126428,0.14553787326748557,0.4673629204278411,-0.12247033533038443,-1.020910620058154,0.28962335052719423,0.23865378283797922,0.8683149340633762,-0.19530319293976814,10.410141645746615,-0.12111407941192247,-0.35978056678826575,0.16532568541432632,0.5770218944442553,0.17132476983894152,0.8167508381003331,0.39064529199771675,0.6680407124581232,10.355548265078795,-0.115582002360052,-0.22669066292863146,0.15266419071091464,0.29926098690935926,0.10260189217414047,-0.5937037240495653,-0.04454083959358135,0.39851069375544634,11.204582155819638,-0.023696917872115347,-0.25421936229370107,-0.20558866053444236,0.23327239046827986,0.07872881270594545,-0.6994416649643674
-8.181537202327752,1.8108975611020313,5.013655796617743,0.5904575679927653,0.736463414058395,-0.4249749004959256,0.17809253032921768,-0.1915678221639277,-0.5916105328180918,-0.7332361487957534,2.4406477663846906,10.135555299159025,0.1457197971796443,0.4272735921147794,-0.07214371326911612,-1.007098055874223,0.29024928015593543,0.22895330080023243,0.172149441281324,-0.01870283196610588,9.631342723607855,-0.24901320010087613,-0.324542180533977,0.177682610403417,0.5820839440082148,0.16751211374978495,0.802031425858065,-0.17701468249864086,-0.4659842458099711,10.164940295502912,-0.22837558471708866,-0.2875374730499787,0.20643251512337057,0.2974594664946545,0.10949197663377981,-0.5883489125370619,0.046204924733869474,-0.24012171972139384,11.074251297591923,-0.10120623030777608,-0.3355674063159267,-0.21501880828032505,0.2316572607397854,0.08530319532275402,-0.6935364236341645
-7.921873610255062,1.7145657140842994,4.03976046670592,-0.21066992942237417,0.8630155684917471,-0.5531753597721418,0.1986992250213342,-0.18784633572672263,-0.5875283003940871,-1.457979952740655,4.285160252030027,11.650373110096016,0.1067367251651971,0.2609472684541033,0.010893288867524348,-0.9948828875779275,0.2902011275419223,0.208539886367097,0.4230243183032475,0.9659840016248862,10.163196588081718,0.04626782480836239,0.003832592964154961,0.0598097239892795,0.5624903909611371,0.17073536278573134,0.7843062325264362,-0.4388303177524243,-0.965434638244416,9.421290336353625,0.07538849885228764,-0.4592993231289272,0.09132837545969996,0.28041086781792873,0.11175962195189051,-0.5867399321545846,0.5105401001904651,-0.6989855864659011,10.364594624173028,0.21953775719196084,-0.4123388265485294,-0.09605519954539408,0.21568122817067653,0.08301517346471736,-0.6875760232006433
-8.666318446845416,1.346300492353517,5.0630785179126505,-0.7263136719210599,0.7316636458781174,-0.5384393987022938,0.21021759696638687,-0.17629252125604541,-0.5754340144741746,-0.7680339041134231,4.072592062987184,9.34057402121064,0.03027623030579608,0.11020818822290313,0.22033661320828082,-0.9674879693220004,0.28534054493255634,0.17582794435124288,0.10230857823347696,1.1262871393093077,10.432388215886204,-0.00024791756579860855,0.25058302732184984,-0.09172278007723961,0.5439210817941608,0.1732372096448284,0.7694984231896409,0.2985994836464329,-0.4856801314463178,10.148259105433668,-0.0014926071395569473,-0.4744147370332656,-0.10938126576605503,0.27439295678082404,0.11229926038441455,-0.5831817002746146,0.5061265262711253,-0.33611735294749,9.610512483227172,0.19424251641503643,-0.4275608360671992,0.08327089539131877,0.2079147153559985,0.07443021957633401,-0.6874204133237919
-8.951467204260961,1.7501131887725467,3.9594995133206994,-0.01722580427885311,0.6946097537067418,-0.29171683855308445,0.22835050111652064,-0.17425347401381674,-0.5725422948428789,-0.8176147297782927,2.9961581644403337,8.577659121366219,0.007145353878970094,0.2285784025716418,0.0693921717612352,-0.9474556363990627,0.2945442984803594,0.1461112820673341,-0.004731074880212516,-0.8478469479252141,8.453069383494103,-0.1482727403078608,0.12471921552202998,-0.17155198063318042,0.5190585117244589,0.1872522842920021,0.7520409995205163,0.14458486122606046,-1.020501216379164,9.55002662031441,-0.1272971334301731,-0.45926542498546474,-0.15637939937018902,0.26074924461798715,0.12503614535804441,-0.583701477713695,0.6304526693279187,0.22733215540863694,10.703222871283797,0.07739466306646436,-0.4570826777297756,0.1909828579381054,0.1907863383635324,0.08166680728807924,-0.6872821675492587
-8.101518655582318,1.6434245666923664,3.5822005282124723,0.8299065748946555,0.725769401902309,0.04124155853003385,0.2433590292782456,-0.17857741855850148,-0.5635360314671387,-0.6337583491551431,3.37000387760284,9.059238682077815,-0.0653667094850195,0.21074046299411298,-0.28921482649775754,-0.9278261969079258,0.28338776677935706,0.12411041756913038,0.2737165854807553,-0.687251529878843,9.197710508887413,-0.143888850083288,0.1795698480214486,-0.1698271264617727,0.5000969216023632,0.18891413300309803,0.7558041307835831,0.4475176244158158,-0.6929184481247775,9.850468098154959,-0.16152352107342594,-0.5950764106659382,-0.17334854178788545,0.25193298721973295,0.12636557139387466,-0.5747105799886073,0.7126938070322631,0.456460621141327,10.690728090530275,0.05851048912375785,-0.6114595921901528,0.4036928650139244,0.17612183086895833,0.07693760772147903,-0.6776919959970472
-7.795194544527497,2.1379530749518816,4.1025303707442005,0.939649516485285,0.7426607586094178,0.2467287687150691,0.2562785925692845,-0.1861084152970474,-0.5464578020362858,-0.5951461432419255,2.923203647082283,9.530331684184926,0.002950821089192028,0.14191733447845173,-0.4007122262277891,-0.9042293746198012,0.27715748391202993,0.08121299622127126,0.6792537593006536,-0.3393978973479962,9.65968137034435,-0.05999922332286504,0.2129404186668576,-0.21466745832714465,0.488590569808654,0.19012999227111185,0.7406286190413126,1.0349876347985272,-0.7428568164673649,9.747639815716628,-0.07155212025825682,-0.6544768378735196,-0.1987936714576867,0.2499340933862985,0.12845824715787355,-0.5871363605511889,1.0386558461048345,-0.7020289029979301,9.943982468040096,0.1622710978147224,-0.6328177554191468,0.4875808987288958,0.16769301551726884,0.072266670260281,-0.6845978440261237
-8.0098834017452,2.788148005818755,4.755851143231636,0.7006611685559101,0.6776353364145861,0.30286176378367285,0.26863158844414914,-0.20110401973552136,-0.5455331229349767,-0.0005094398245597681,1.4850531600868246,9.858376000466517,0.048878401193271956,0.034696009859222846,-0.5183557173936044,-0.8960909754009482,0.2644377827191268,0.05962242015860369,1.1093880540006997,-1.0585023085575094,9.751238698373914,0.10502415726652677,0.2525288771530281,-0.1893981421801353,0.45654402690957996,0.1943797501212265,0.7485261841365299,1.783132961038155,-0.451853305435433,9.95049399102956,0.11435447097979924,-0.6773756814629677,-0.2065524150101139,0.23251654942951738,0.13321054957732803,-0.5809010522005422,1.6595876824994051,-0.7414744874780487,9.75683050794967,0.3402697805924353,-0.5961877592030725,0.3939459376373807,0.1429167224510023,0.06529818221715597,-0.6801639810053148
-8.663168138485204,1.5778566946483552,6.251289745088622,0.001234373914933284,0.4683367823286508,0.3030709091534259,0.2738254153556228,-0.20116969233578813,-0.5414675998292465,0.3724723887461471,0.9328063958525258,9.708670979325614,0.3907268268441907,0.06656076251603193,-0.5646282977637184,-0.8697886087876536,0.2633871371736288,0.03393216145072837,1.0827182853340709,-0.8991557355667006,10.059932934567842,0.3936550669157792,0.19611162902824716,-0.1276959826792552,0.45406058206130384,0.21214893270375634,0.7377048205887008,2.3186048537655943,-0.2541880036153913,10.424391246618033,0.39517245431883197,-0.6923998792412038,-0.159014668286913,0.2300967765997743,0.14151757770395015,-0.5811608293279925,1.9945098850203866,-0.1267284953846714,9.58782610705542,0.6062609404159341,-0.5312745295791153,0.2689268709453868,0.1382645739935233,0.07015558497247876,-0.679567707408584
-7.983158078952061,-0.046610607428799265,5.507102594660788,-0.03136399402928744,0.18304552428809243,0.02150294009265228,0.2788358188763044,-0.20615393333489349,-0.5313253337006746,0.11624110585184082,0.5818077991426631,10.84960772192226,0.15909810697278187,0.1077170866933274,-0.39818124447665715,-0.8559986828191792,0.24802506308141625,0.01818582707191589,1.0563440531029518,-0.20609017696688559,11.6873191058898,0.266952190187453,0.07175047461020206,-0.03468326510484103,0.43521528950443017,0.21147748987464082,0.72267925973484,2.7053742014042466,1.0753991764874615,10.82548848770218,0.29997049505073164,-0.5900222985962514,-0.07558810744564835,0.21863740686551883,0.1379046327903033,-0.5798775042154103,1.8898719664056836,0.5262165113643474,9.94540726381778,0.4819660645051609,-0.4626688942927708,0.11810588439748447,0.12101921078300183,0.060787239261073135,-0.6774982842114631
-8.09113720812511,-0.273413016726158,5.55045613501153,-0.12125127209313083,-0.13393455989268,-0.5786145734728358,0.28670652212775205,-0.1935040807057381,-0.5338148585124209,-0.5163466376698942,1.3833262343664736,10.732390105586427,-0.10912300126824512,0.0784911227841364,0.0782824070420436,-0.8361339812933348,0.23685169325908823,-0.004549699425233957,0.46215182753487843,0.4108181646777666,11.458002028685105,-0.10754410186777787,0.01474324715013185,-0.00956077543524302,0.41841168236400184,0.20309387822637492,0.6900875871665104,2.1632999911013995,0.19583113181103973,10.675925756790896,-0.11202653018246238,-0.4260174763077443,0.022919515214296596,0.20306547107106918,0.14056781211812502,-0.5880765104040531,1.9843818995874494,0.5376211001620569,9.734383178781655,0.018449159403678667,-0.43819244181008765,-0.06340687653409977,0.10766947671195067,0.0629275240059411,-0.684531281825788
-9.343681589078335,1.557984696756248,5.009756230164192,-0.2037961725959628,-0.23382258281131396,-0.8905116099887092,0.2870505294337601,-0.18424024696320607,-0.532052476781882,-1.0398472514730857,3.184760059003915,10.606682603352862,-0.13852226806386078,0.03993953041388832,0.3910931545613679,-0.8054186347182007,0.2250030442918997,-0.0173889916339869,0.11080254625427768,0.24810424502770617,10.876942008231348,-0.11789272187440934,0.05132103853660022,-0.0691543257762518,0.39840377742677435,0.1891312828133569,0.6585711567951115,1.6532988976276897,-0.6672804873843196,10.386254146045925,-0.13372306923064714,-0.34938859109313397,-0.04413997032724832,0.1980740115783157,0.13527123005105307,-0.5815601905424308,1.8750573533043968,0.7772055430131405,9.791575246306275,-0.024640031526215387,-0.3742139688748517,0.04924265974050016,0.0995492381263723,0.05481956771533791,-0.6780177872872969
-10.27174257096096,2.362469564734338,4.793916177154257,-0.02868913283888213,-0.24493237364171536,-0.6412139161100516,0.2883908258373036,-0.16837986219241477,-0.5322178202822051,-0.8600147435712483,4.379044248640348,10.168604215157112,-0.25714338731032177,0.07761224074440276,0.27209726847252014,-0.7777231889526652,0.2304361907293906,-0.035159467137953086,0.19770841792049748,0.2443440263409717,10.47532724540961,-0.22951019462790498,0.06375719091617442,-0.141547155995236,0.3716266718855563,0.18863754654164605,0.6241583705038437,1.9794611007778884,-0.19330674181710078,10.315714923657316,-0.2612040551335754,-0.3089023563833376,-0.11383369088542113,0.18533755953036404,0.1517278952089643,-0.5752963790741137,1.980618191023963,0.9532329800080118,10.193400335006519,-0.15725015793404976,-0.367631299763043,0.23523984880383694,0.08659414377517774,0.06768871695939832,-0.6755200567001948
-10.2720546840954,2.700841360456727,4.196154643270555,0.3891875784349956,-0.20906197385681405,-0.09152369824256967,0.2874061283841461,-0.18477497447952876,-0.5249805819954918,-0.9202881611574965,4.122492710950072,10.58141111069936,-0.2291743262924187,0.07936971661728735,-0.11727468053040052,-0.738760829072139,0.2212764277816926,-0.0554745327859478,0.4138638367456181,-0.981640646232895,10.275294931358891,-0.24312496681212792,0.07095905969127958,-0.15984342319698713,0.3529559788574222,0.18103355716902694,0.5957481538297268,1.963288525610196,-0.804051897444053,10.031976733397958,-0.2494652476539976,-0.28862651740169004,-0.10033439495756949,0.18128132895230978,0.15860407664709167,-0.572329323576215,2.031040854261686,0.10107101218678721,9.610825868477926,-0.15786623836873445,-0.3423517525531293,0.28237912218346956,0.08157032807714559,0.07278059114319796,-0.6695431026993209
-9.375566001304898,2.5078416980281966,4.171956774107656,0.6865514938784157,-0.04426471021665242,0.4190866720103989,0.29102763842908175,-0.18992983844121908,-0.5250723181982498,-1.101805610646049,3.7711692253859876,10.093937298877359,-0.04004932803834298,0.013509215463284477,-0.4931434166074244,-0.7083567402322791,0.20462394539889264,-0.08995266791980389,0.13918286988518358,-0.7233028876599062,10.231561532347367,-0.12205561287348948,0.16152210268410055,-0.1877548300006787,0.32414680571145144,0.17045925029024636,0.5489892797983853,1.8578654047782537,-1.5145731335037425,9.767312427617476,-0.14438918348862964,-0.2765443587132456,-0.14636405194024443,0.16507399242765372,0.16398811803760102,-0.576874039197883,2.341995499288616,0.08092113756374437,9.446589461205203,-0.05969699516517838,-0.3067231303534664,0.4201702924629717,0.06580132392646666,0.07783575247125457,-0.6748098693585904
-8.549951719712386,2.5288737249911666,4.894701461630374,0.8648504663722908,0.06337953136435612,0.6690311714499302,0.29147851091364635,-0.2086219810933144,-0.5037108851218763,-0.38179013423642416,3.1595883223761683,9.173628158723728,0.24423874516192973,-0.006304436915679062,-0.6353191612669197,-0.6793270949172472,0.19052676606388536,-0.11933551961394832,0.4113807558856135,-0.5071583149686864,9.464593842587863,0.04563190848077179,0.1872855765499377,-0.32784835012358976,0.29852054774521675,0.16725158087084935,0.5121323096496623,2.203392124235505,-2.073042989850273,9.932293202431984,-0.03354898574028208,-0.2828408757929953,-0.23424240235587088,0.15894217870940258,0.16741224211530933,-0.5784672924185371,2.8524922035180813,0.002773974292704349,9.851343075394807,0.04384572740329517,-0.2797877753211559,0.6791385818139877,0.057999629401471256,0.08218841934447393,-0.6731688109716232
-7.903870226106428,2.711448130981392,5.256970153551457,0.888303459227243,0.05991892663612605,0.7242342936085591,0.3034703246303808,-0.21386843403643396,-0.4995440237972374,0.26483128442129533,1.623174414991791,10.546127566429956,0.5256025821534231,-0.020534394124454097,-0.7229701375835628,-0.6529193467826472,0.1693804945890923,-0.13585566625899628,1.535987733546296,-1.1347158082810824,9.528951838713969,0.5166745448897871,0.23443911086668023,-0.34639427736608425,0.2749553372439536,0.15993087063632822,0.4830788724572519,2.9224073554140007,-1.3586225721622858,9.15777696774748,0.48360836487856,-0.3960421426610297,-0.4309524171018723,0.14000817528351694,0.159957915992207,-0.5725757911396622,3.1227066973529567,-0.40528448206716117,9.943387872009094,0.5778031006055393,-0.26071429103327154,0.9258594542043862,0.04594474034667815,0.06844851940827852,-0.6692650337469385
-8.06736732875179,2.550652065048012,5.981193469059125,0.7919296184637512,-0.09238966839445374,0.5935161751922355,0.2960632162082578,-0.23336853540516866,-0.49539622577515563,0.29836321134969007,2.794012320698547,11.122844308626405,0.497981527309388,-0.13814871573032986,-0.6894448883004861,-0.6201837254352115,0.14175177575839304,-0.16820139181541993,1.486867334200426,0.18281244548587838,10.333864897778044,0.5520928409870551,0.4273293362592037,-0.37092913107642367,0.2576473362417879,0.151938770376376,0.4363311023099614,3.231529193002826,-0.4834386691191655,9.16445659303026,0.5384475001278053,-0.44571913637366095,-0.4198779490428557,0.1344886599429748,0.15007734438276013,-0.5874982365852355,3.108973474953009,-0.4195198666645241,9.526145815003956,0.6228310610650241,-0.32821126218103214,0.9012474176219037,0.037672952423198104,0.056951322656699686,-0.681800818142199
-9.451695555778247,2.2527991281471316,5.761216570696354,0.6533735268301571,-0.22319856520458042,0.5049035407175698,0.303404396381581,-0.2454305101545741,-0.48875536138808134,-0.09182330345051246,3.3568107131287865,11.02631986459273,0.48280539436549885,-0.1759176632704527,-0.5082548956282061,-0.5973592683351479,0.12580386789247322,-0.18331090202546593,0.5783391863740946,0.9440951111657487,10.422553461226817,0.8609258575021135,0.557478705710102,-0.408935189208559,0.2289403473314125,0.1519575583831372,0.40292717579360127,2.9733104690957743,-0.42070651175132034,9.863357857824356,0.6938838863774454,-0.42883785057390245,-0.6225297982063892,0.11202196126432477,0.14113001557531749,-0.5861485489568363,3.0149834072504706,-0.26297160248693263,9.21465519516725,0.7619491753727954,-0.3143008169443225,0.9608987690463802,0.0224159562736342,0.04490558079433366,-0.678802290924141
-9.884879781251342,2.3500407847266347,5.733320539922289,0.8356414416543108,-0.39220628616036035,0.5182875087759716,0.3018113968798431,-0.251583535999117,-0.47875686072328916,0.35845512230694415,4.297251195629581,9.80233395324119,0.12212008386959854,0.05604631110058404,-0.3419823041572455,-0.5556070134090395,0.11534146167061406,-0.19337794278400416,0.41009201698263686,1.0934422008321136,10.14736006528144,1.3673030671242261,0.4548108696140471,-0.42523504021023356,0.21928193626953926,0.15594274463019295,0.3676736514969276,3.2431865064029926,0.7658258410007568,10.219067923182331,1.1762318935613651,-0.4015587335593336,-0.7758821943389794,0.1050009919420397,0.13190968308263146,-0.5822358278448927,2.9254022467864784,1.3730573117585962,10.20130665501694,1.2232555099948865,-0.2508030948210922,1.0787578995271887,0.018084125892715856,0.029485313268912065,-0.6682309106455122
-8.98667001895627,3.16022306674848,5.999406925477248,1.0572431005162521,-0.6387935842028708,0.5807149088718424,0.2889397137648451,-0.263170433183062,-0.48399224174435784,0.17261483632780647,3.487248046061894,9.149239391127386,-0.7500721356707973,0.4263207315423187,-0.30767407235006206,-0.528336881590014,0.11186977339366168,-0.21732448230604456,0.12375851578420119,1.6702573325178067,9.647989932082764,1.1132414630659186,0.2485411439784676,-0.43776090894428593,0.20159013256970118,0.15407739851215294,0.32357592685374104,3.2240987715922285,2.2359965226388234,9.817782615102587,0.9597065161406572,-0.37943221191965,-0.7303064119216838,0.08683603041613963,0.11803605628433918,-0.5841214121639503,2.65143089175334,1.2505676699506705,10.179264972865342,0.9999171424948067,-0.29857391151155005,1.0070622660469977,0.0002468560730192245,0.013532043539366323,-0.6725069928846301
-8.33757661115777,3.4397750149957926,5.894042666809227,1.1180032744292916,-0.9010408545446581,0.5985026529204482,0.2910192449367547,-0.28331431211291036,-0.4668172058851619,-0.8599708279273117,2.5337113471476242,11.436809697817106,-1.1680188035023382,0.5292412114225485,-0.26311340493209295,-0.49252554686820527,0.11020522017637716,-0.24360333245268145,0.33588033399717543,1.0496554512589176,10.423136599702481,0.45133801475866175,0.262224380422269,-0.44880588668918686,0.1870525935559555,0.14852654387220093,0.28017780940390286,2.6694621119423,2.4058506019550463,9.07798273285536,0.3175023093203635,-0.3865660376644995,-0.5484418645641532,0.07007508030267882,0.11437626255978971,-0.5900372821919196,2.239244705442631,1.6081325689603587,9.682496512682103,0.3457454732631759,-0.36138195576615056,0.7623791482239363,-0.010266000818941287,0.008598176767241662,-0.6742398231256181
-8.82805240813037,3.517051207502791,4.525664070235635,0.9681691646794529,-0.9477808771393844,0.5058731758393497,0.2778566751614654,-0.28958607957418697,-0.46249168998271595,-1.5756811603734175,2.974736771999593,12.175277053001492,-1.042992505815979,0.30733332994196405,-0.3031808577540622,-0.45925018345509167,0.11910487134977046,-0.26809939149729395,-0.22130191526889603,1.9008831410990288,10.825107606067702,-0.06285276804153438,0.6131840239744695,-0.43481589723122405,0.16936996960717596,0.1466646050694954,0.23656898671650356,2.438330546143405,2.6107036746340198,9.691218590642016,-0.2201082034848985,-0.41245098114361756,-0.38366709877355615,0.052418853876463355,0.12806174570776946,-0.5951090203942102,2.2271303905734126,2.257929165579212,9.67872139323966,-0.20422233299716455,-0.41418979042553133,0.6036608073499966,-0.0294798263750379,0.026329069839776682,-0.67770452590511
-7.990607445263956,5.285075772823162,4.8909048687527035,0.8055815773854512,-0.7779002113386397,0.59469750324469,0.27085245950176934,-0.30513924974327394,-0.4654055229710476,-1.3967691332370058,1.7389550343665636,10.230660410680022,-0.28556430038960595,0.2176998622907836,-0.4479340533678688,-0.42496330200262444,0.10730846246641605,-0.288797096242535,-0.8107633970234904,2.188030832794989,10.2688179106541,-0.16034034657553492,0.7372572383009227,-0.3928299266424773,0.15949125994096844,0.13524017629653048,0.19703111200702747,2.5554188263327515,3.033883285092844,9.948364203369938,-0.2792266753716836,-0.4084621271196262,-0.30543281472655615,0.04033457133687465,0.1256195867419418,-0.5996830245578528,2.3975208740727876,1.4931576158133133,9.731680369084312,-0.27849550518312527,-0.3991602528511377,0.41313774333218656,-0.03874334869449524,0.03116084960406092,-0.6757869890615605
-7.50052573844657,4.724228415387756,5.137716043083776,0.9074641482357667,-0.8860809137306773,1.0675519875724755,0.2527990886340089,-0.323125433862072,-0.45594673403399044,-0.5608096102340316,1.4107902873879452,9.09371534334427,1.072609966885266,0.1927951314614251,-0.45314215385479256,-0.39404711132422465,0.0980220751340786,-0.30803683476078497,-0.24231440443592633,1.6912106598932073,9.081401433023345,-0.2951125026419347,0.804244766824294,-0.33879184621261316,0.14074336890474995,0.13125711463646877,0.16273593424824884,2.963001753516233,2.743009363140184,9.314799302399704,-0.37554627304481447,-0.4572158912739748,-0.19236206596336644,0.018239322238819196,0.13768705860053407,-0.5960865124645932,2.916857220342089,1.763456428560072,10.233641012745093,-0.37757345327466796,-0.4387836631801079,0.18072395436545677,-0.05509963863311806,0.04523299196954141,-0.6722364630879399
-7.24721379620849,4.723135972571127,5.871464273327817,0.6225339392813793,-0.9552846722083695,1.1105815510117014,0.2363308775937788,-0.33250489436653785,-0.4581790236163719,-0.8866747995029737,1.3224674357937656,8.783562754938192,1.607223809160679,0.381132356867695,-0.6330403668080847,-0.3672541174275817,0.06976392679006972,-0.325891385055386,-0.8305110698316024,0.38878054227945946,9.467345970246047,-0.5075163620718489,0.743041164725452,-0.2770816604212555,0.13392613420569746,0.11936812217448788,0.13046928292994503,3.0720295909278708,2.31447450901703,9.663800955457377,-0.5163815665371101,-0.5174444008422276,-0.010324224072934707,0.001402243816003828,0.14042985409176217,-0.5959522735832516,2.978856500680003,1.5189401197593166,9.736416791940197,-0.5196884783788596,-0.4906054043879353,-0.06986617592666781,-0.06845699783576625,0.05272470030809057,-0.6670514116608524
-6.149814937976173,3.6399718072735388,5.355697935706226,0.5358516628018614,-1.0323870459640623,0.9802011799600516,0.23516137956448968,-0.3366778120475569,-0.4530586230083211,-1.158434000465522,3.387629039259112,10.828866034473686,1.3866774379278675,0.38450268421069433,-0.522317321254595,-0.3270544919464503,0.046817068836337336,-0.35133267964170783,-0.6690645864318783,0.745702736395902,9.859973931201411,-0.9072450827379439,0.8031289176825713,-0.21745848673676293,0.134198690570039,0.11009547642802889,0.0973191308806869,2.9627306646133493,1.728538013751419,9.188839119591226,-0.8951680547195798,-0.5619859853131853,0.22491304632486658,-0.004790359749632335,0.15017143371216413,-0.6010191255228923,2.867006231128343,2.215676310029848,9.903185705118064,-0.9068172857957052,-0.519485209375236,-0.22533886406804596,-0.07426921848310261,0.064668211188307,-0.6732570008352038
-5.847161084653207,4.24544714995411,7.2589204914938055,0.39280693043114084,-1.0356130402739938,0.5442802987319311,0.21412547152885406,-0.3431113640247122,-0.45226830277352775,-1.402021021858635,4.428400162153601,10.033581142157242,-0.616741376214618,0.29465657697466663,-0.3129073813246844,-0.30789680437948513,0.05380019934603319,-0.37000818791781914,-1.107004347708319,0.6404536620137272,9.858042134413562,-0.7670263078884605,1.001536686402033,-0.12035876529290614,0.12168881930846975,0.11413621750824272,0.06626959140678107,2.928611794172326,1.1090386691345409,8.919662144050807,-0.7393775071204487,-0.6076298608706308,0.26425584692242615,-0.03161223512443847,0.1685618185737641,-0.6020060885518872,2.7596734669419245,0.5480054795971517,9.175612886180314,-0.7683619033332935,-0.5906416747786929,-0.24397776573831348,-0.09962606973201975,0.08918502156251884,-0.6655887318770081
-5.94562988927002,4.3674660403756205,5.754265178084572,0.1769946380391434,-1.1385748041531132,0.3451428904194507,0.2025756231696373,-0.35082967477754123,-0.45310604080051486,-1.2717032147234961,4.0554999029991325,8.890991400299292,-1.7025430417742402,0.19861333259774033,0.053619090793638725,-0.2822406867747343,0.0633407854588292,-0.378551799980379,-1.5926855467657641,2.1094215413523076,9.611465486779126,-0.6238517831057098,1.081704188588685,-0.1495049535751953,0.12145247472898206,0.10641338947970498,0.04435044549546923,3.7448146897517134,0.7459707435769418,9.469241075957886,-0.6081801293217218,-0.5952050924884195,0.20061302788220386,-0.048333213776047185,0.17500534797429015,-0.5975119677483259,3.6348435841779634,0.2802900514221718,9.19483283228184,-0.6240141761663692,-0.5989453252086139,-0.3198560227839317,-0.11289559747068538,0.09813514083588797,-0.6560073668602033
-6.310995225510404,5.112096166263292,5.388813360969838,0.02458736454004697,-1.0716517110411918,0.18821400789649137,0.19208793837868476,-0.3470795157735809,-0.45413143007812534,-1.7146189224478652,0.5655484188067987,8.367107458236978,-1.8966077943050499,0.4044499019441205,0.08335975297302509,-0.2629491798676812,0.09064662949566656,-0.40713674377411485,-2.2370161304829543,0.35280754569161377,9.736379180494572,-0.4720923849676586,0.8399391573309947,-0.21837306383491226,0.11272047504844653,0.11864422532112798,0.002428738108969694,3.941723752437017,-0.024932477782392465,9.82190189851576,-0.49945264773140535,-0.5402060317023711,0.06782899008141995,-0.06853579201363162,0.19573152955726691,-0.6079579094264972,3.8799261537427747,0.4110831459716659,8.95053340885502,-0.4935241171849499,-0.5392719651495813,-0.25785864232079664,-0.13373712410445618,0.12001831427249746,-0.6660231179512145
-6.69243367750387,5.539015301017545,6.26429561187645,0.019272110129015,-1.1066655272652377,0.24768082698894614,0.1782581180422894,-0.34201440396473887,-0.46608366442267174,-2.247063996838447,1.387496479935214,8.976026035615304,-1.0445543139618139,0.37953616591134404,0.021782211069603298,-0.23385196212437223,0.09060801805800789,-0.40357507215037564,-2.621423919299015,-0.7987011898324212,10.200826222464249,-0.36068013372918684,0.6592634006750155,-0.15766644322591206,0.11584316141517491,0.1107173060375674,-0.009540048067036799,4.156631033342635,-0.03639577690888443,9.96230283312052,-0.39957363563461346,-0.4541673141038095,0.05158456662092622,-0.07790591974762988,0.19444780646008283,-0.5911150885446403,4.04457529338988,0.6494238847908106,8.909287733134864,-0.4061418639982822,-0.45453748138047423,-0.13946277030912543,-0.1396040179013024,0.11726768014440252,-0.6444109101725101
-6.549494425533101,4.740260801959192,6.090568389044002,-0.05893413430397741,-1.1731541830105419,0.3004565624823479,0.16807527325723715,-0.33608524691392777,-0.46441479961378207,-2.408731366149625,2.0560589320640847,10.229572220647764,-0.8511874412126029,0.4118366117252455,0.08009984443562375,-0.2150227462779975,0.09530536528053019,-0.4270866501212753,-2.9971673810478907,0.9156592647532366,10.42691266058655,-0.2568892712445681,0.5444282651504964,-0.12568028106531096,0.10756506722796234,0.10833238169952698,-0.04624038799093206,4.104554399862354,0.23682539050363483,9.918669901049654,-0.2891344542661282,-0.34618298432620853,0.05553500787996915,-0.0954719428517586,0.19685871787720718,-0.6009737340623571,4.040374241249765,0.021081436289617096,8.511902920363363,-0.2995617310349665,-0.3515064417545957,-0.13659111640717103,-0.1541535685105355,0.12257310176804388,-0.6497037506636608
-5.922400081013146,5.7999796421734775,5.778033377984478,-0.2811833227613108,-1.2258139898964016,0.3013385618024579,0.15511555967091625,-0.3383336986027526,-0.4793560366697808,-2.416181612328984,1.8548877275733548,9.785167719809152,0.38498794432713324,0.5514128163406278,-0.004993595404646759,-0.18003860343190042,0.0979587125639971,-0.44513527761804617,-2.791683458563997,1.343683318535759,10.35614958678948,-0.034405907658339056,0.4727696904900803,-0.16877717867981887,0.1187909321656081,0.11923665436930442,-0.07802747895479474,3.903881979086395,-0.14228893197083986,9.536142476469879,-0.13785584584757857,-0.2300362280740234,-0.1035420085430283,-0.10011123259745036,0.21052907929134035,-0.6029374864557351,3.9767707363489495,-0.16484589947774492,8.453055286725446,-0.1500978901041879,-0.23193633026913532,-0.06973348717479808,-0.1529107732697821,0.1325841094552005,-0.6462969326354634
-5.172727953067735,5.845126223590636,5.182554405279191,-0.04747410376098158,-1.204165766345837,0.756291890298207,0.13502548371722436,-0.32869372287474596,-0.47310741681109725,-1.8837906510879399,2.9249111062208866,8.771241114461134,0.8656267835710084,0.3793128595629597,-0.12264045462929925,-0.17012304277948828,0.07742629088224609,-0.4526797125094808,-1.9826674713533587,-0.534148986735395,9.156511404505911,0.14472260065517129,0.5201359963182296,-0.19651147365140384,0.11041194511532684,0.10693137178023686,-0.1022032893944555,4.239911244438257,-0.11173852172751567,8.69862642853584,-0.03139849513987386,-0.1933936830058797,-0.2685827674337514,-0.12126072249615227,0.20258899171796818,-0.597721945606323,4.19561804011882,-0.10618716498352886,8.581031867474405,-0.02851518388040612,-0.1897119257298739,0.03606230289553686,-0.1710540378934051,0.12662214137409103,-0.6398079053279987
-4.138754542929412,5.455100931459572,6.357409504205865,0.3082242920174553,-1.0230812376816516,0.8589589635501329,0.12125602261405581,-0.3388344966521176,-0.47416835466248247,-2.3542969760261365,2.791866086685581,9.90563157705283,-1.1201647284864262,0.43462168375621246,-0.44872310579002467,-0.15790122295338083,0.09023091743655368,-0.46503328417693346,-2.5105410096152987,-2.034419903811754,9.087736894957093,0.09143224279920997,0.43551179038528104,-0.03917788015083741,0.10362074829934635,0.10682406989548804,-0.12576177746377237,3.5398870997955747,-0.003980763269188378,8.555070328657367,0.03610256452874251,-0.1808152621993595,-0.08083365825709521,-0.138852915206757,0.2038619445891406,-0.5982888729568011,3.371712807143106,0.5215380827584538,8.29556545977553,0.03691037925733082,-0.16583886035010442,-0.05755577147305529,-0.18446062444064892,0.1292360274839462,-0.6380478852838043
-4.033760973768139,4.543275558199331,5.873262740774983,-0.2147189763396742,-0.9575649921482682,0.6723890295704783,0.10641420908962376,-0.3360461090190362,-0.4721993902865568,-2.055606854622275,1.8063760045830897,10.31699096097323,-1.2221273812046909,0.317097054739499,-0.3910996641526285,-0.13343283000215936,0.10726020593274645,-0.4785886624711033,-2.3818540480097785,1.1877693303315227,9.642274330797907,-0.17735327766838724,0.6175210110083125,-0.1540483628265866,0.1110196802746854,0.11170958712765898,-0.1503536464655068,3.579593908525964,-0.21891989014098795,8.55310421115407,-0.23952464916555813,-0.15819807294398094,0.0331287772175063,-0.1444268666150997,0.21584409468359514,-0.5982616918715116,3.590480396995455,0.6603144259787027,8.445424670775756,-0.248578189429879,-0.16442961610035312,-0.009090905997405703,-0.1822930682841731,0.13803507727554418,-0.6373485698517541
-4.669735990672959,5.98445141423398,7.102879367891626,-0.1233266154321133,-1.0048031719305952,0.7026071174086372,0.08745254643465415,-0.32898099255063384,-0.4852744468694951,-2.186464244714624,2.3895370179792925,9.591499161329065,-1.6806257409181207,0.22695618803032144,-0.21507360860682906,-0.11981551011069548,0.1299047372111971,-0.4862607633667389,-2.6320695022580654,-0.14722953387092247,9.874718276536457,-0.3138330796027282,0.7115046176448266,-0.35543554488283374,0.11281475763506893,0.11786608189649321,-0.17484915387873576,4.584066950420979,-0.8108523078303125,9.314378450920296,-0.42355471550781243,-0.12776178167148758,-0.02837056298742146,-0.15670158758729477,0.22610153582593728,-0.6024554391536139,4.68398744828676,0.286837032379845,8.629219189308824,-0.42495631715547805,-0.1604004640676259,0.20333074016867936,-0.19165272347717605,0.14946414681949774,-0.6383497786349587
-4.192555917951405,5.376862007101152,6.742546706759683,0.16061846015342246,-1.1711750843618045,0.9445929790942044,0.0625708861865885,-0.3297750178869609,-0.4834095117325265,-1.8883010662347013,-0.6483086516807589,8.835945588668977,-0.9411673493259941,0.3868397536184139,-0.29905119990250356,-0.0990096561162895,0.14027496316832766,-0.49280990240645367,-2.888534257539341,0.3723397631526849,9.342354701911079,-0.1321395112462064,0.5809245777306793,-0.32483938041907073,0.12049794499871873,0.11960110558804583,-0.19576166895284397,5.020622622022056,-0.4415743008610914,9.119330700290423,-0.34366398916856084,-0.08261852884474788,-0.17697918132164822,-0.16346233931397486,0.22712840294352318,-0.5993719176257155,5.034053136196653,-0.4573162751006739,8.302040243427557,-0.3444879549647964,-0.06807777440167645,0.3975157711911402,-0.18917242700709627,0.15825970641931933,-0.6344835015178217
-3.5658521557684577,4.637633253746996,6.893989023287135,0.47715350066924506,-1.4140002651262367,1.0994805337180906,0.047273454222058676,-0.33360705511414435,-0.47634730443026885,-2.583446667917729,0.6655693617728429,9.946172619742333,-0.5452803800165175,0.5056429569217695,-0.37627128875779486,-0.08989240569471703,0.1489185849029233,-0.4947912754302841,-3.019841706385154,-0.2108743726280803,10.087575879383982,0.19115413027850023,0.4126919273235003,-0.1966554760602535,0.11390757783147495,0.12151472433176792,-0.20957005382959878,4.6471448481182644,0.4170767570853183,8.966719836242742,-0.0265446387793273,0.004545894906862745,-0.3076946967540565,-0.17850297589260675,0.23209136544642894,-0.5958811836764907,4.523591338437586,-0.26551760372998867,7.7473432995356495,-0.020424930063091033,0.01622617513397616,0.40799350607263274,-0.20032050658996925,0.16551796477245279,-0.6288585993592861
-3.2196351844949325,5.024262464051108,6.407888485020817,0.5311796308371461,-1.4523572883288411,0.9911109476197952,0.02867209751984049,-0.33981126878029905,-0.47608330514704683,-2.820016759595039,0.8266108391959115,9.735172789512106,-0.5428027976952631,0.3510370326363277,-0.1995755258694742,-0.07523654905702581,0.14907980794489958,-0.5154817372507988,-3.19046800382295,0.6902208444723237,9.745617634714483,0.10274018291335854,0.5038964125188757,-0.23065004739981465,0.11857890735926288,0.11488114688152472,-0.24379838683975927,4.161620112705526,0.551591476157655,8.730975512242608,-0.09165030360100385,0.1080992735005331,-0.2176748262144724,-0.1844976823898582,0.22782509084090036,-0.6110860605586634,4.064544031280665,0.39474814796613145,7.744333952075352,-0.08805211846148657,0.11620203419231233,0.31325291088833157,-0.1995950635794973,0.16187963661949717,-0.641333713574794
-2.4705666382891067,6.324680480142602,6.4560286632065855,0.44899007676447716,-1.5509842809041425,1.0588141970092249,-0.004254646016503742,-0.33418128548107146,-0.4764868260786366,-2.579323919152733,0.0011575241265372183,8.891452659112934,-0.5041072383138482,0.3254298523157025,-0.17940323866186214,-0.062276258351276134,0.1680222503918952,-0.5128194282971428,-3.2826109172226046,-0.2052594976758611,8.935745648307746,-0.017643651815475496,0.4989382657069776,-0.2840853079603513,0.12364917233538822,0.12697949308704862,-0.25276866727925285,4.270337806676214,0.27154214392588155,8.64808982525002,-0.2176754102557236,0.18247703651539474,-0.18698274263300804,-0.19157285275304858,0.24110982447015733,-0.6024867394964214,4.151661821617383,-0.2637965779674993,7.762595103075406,-0.20664120544590722,0.19196987657480652,0.2982139833034594,-0.2004275582561636,0.17821670221153216,-0.630790756804757
-1.9200719806040072,5.11437128129757,6.270740953769982,0.04817468961258137,-1.627714744537899,1.275850126287823,-0.03430461117768691,-0.34740899112723345,-0.47119691396687396,-2.657949092143756,-0.008678909228063914,8.5395016673783,-0.42845641031091664,0.3993265742900798,-0.34637198677034037,-0.04795761218695716,0.16699364615416057,-0.5193198358492235,-3.169100955265173,-0.07401821687993543,8.99594337308591,0.012130304996369499,0.376316475028155,-0.16134521071627467,0.12826926602171632,0.11993232227605766,-0.2764920503409131,4.297753748942292,0.7822496142257463,8.508014090725528,-0.11113870532624728,0.2636842093970076,-0.13689098751956108,-0.19518426772765896,0.23666000545421276,-0.6099324407801486,4.205509227804971,-0.5286375640184122,7.711910750850591,-0.09675793911267903,0.270459962378494,0.15683926449040345,-0.19804323693253445,0.17261914217077906,-0.6347577589998473
-1.5701788101312888,4.601416339563246,5.987289267525419,0.22316960226612495,-1.5173012935520995,1.2004242619388803,-0.05404264265512467,-0.34702554345770464,-0.46891931626745265,-2.926399145090139,0.4917055035837279,8.669313800047336,-0.4828507608112412,0.22316570990153412,-0.3070296545500937,-0.03557799136058537,0.18675159780339037,-0.5254572432678294,-3.1195781105812315,0.41316405842052245,9.301250269918391,-0.12350009815526942,0.4011872682845192,-0.1679287071826734,0.13718863082010868,0.13440707328400417,-0.28970299685700923,4.0090255663296,0.7878192158183834,8.321758049158358,-0.20314803844220525,0.3202949058209253,-0.0343553983421652,-0.1961610159668475,0.25080550172918364,-0.6119879786688842,3.926709919972736,0.1259681757901559,7.495582196674439,-0.1698412862091664,0.33188722717950064,-0.014373697677305574,-0.19083017923830442,0.19218917018166776,-0.635373060025965
-1.977393733506892,4.596092881075212,6.676973492039745,0.47302917954313967,-1.4508190501945124,1.070192912863114,-0.08754081979350971,-0.34429744149983754,-0.47299547648423257,-3.4282818237314734,-1.1913207042202325,8.2375658491051,-0.6534984784665462,0.0644301298462113,-0.23942466102494417,-0.043868795528098345,0.18878284920999908,-0.5266183784792063,-4.098335031247066,-0.37642478319987754,9.227132916685228,-0.15959236716336025,0.3638126062153329,-0.14685151536161392,0.12542067202297413,0.13099494698581146,-0.30362109801607995,4.397646055551563,-0.034709798892748736,9.022568311855201,-0.22156776840397405,0.4491581000083984,0.009487436499312952,-0.2120859548179836,0.24840081842497092,-0.6137836044077333,4.2715395359546235,-0.830604759460266,7.0861208958508115,-0.19662451050816168,0.4490636752083428,-0.08991868133931825,-0.1988964406746287,0.1860468447618975,-0.6371617595195951
-1.2212144103837121,4.868929101853516,6.525440617856014,1.049717479799174,-1.578738503782579,1.1369936773388032,-0.11402760808620135,-0.3588326822326986,-0.45824950131214204,-3.2267276092237656,-2.999414117697627,7.85595543570572,0.2751455947188172,0.13151916559858876,-0.31911042023268277,-0.029057483094943586,0.17970339323544188,-0.545181385057171,-3.9478203317518417,-0.7347833867531335,9.349648960206975,0.10893471879825026,0.10559987085156836,0.050569350455371975,0.13559912087612935,0.12484984025898821,-0.33087481862923024,4.631408888990343,-0.08012935995190802,9.086783352600078,0.08788600249796776,0.6232465855144869,-0.04031101341396189,-0.20372532603627935,0.23943442928368114,-0.6305115211382022,4.410858284606247,-0.8944380606333672,7.397845258049999,0.11195630402644131,0.616248416354811,-0.15824899677067986,-0.1857648478063483,0.17612958942140683,-0.6533341359761717
-0.5743470745323177,5.076698691626423,6.428787978413951,1.2810283978938932,-1.5419978667532452,1.0573789761721413,-0.1467996456547449,-0.37064880081708446,-0.44094142050560253,-2.8391394538389862,-2.410477806005605,7.292270797601201,1.6820356738678497,0.040846697067391344,-0.3312055488176681,-0.024014482493120534,0.16571038984828515,-0.5586520498565426,-3.240960136475862,-0.17120965054696263,9.125987645775934,0.16310167121256425,-0.070597614595824,0.12642244086809937,0.13777012868719363,0.12789086579946837,-0.3468089582905501,4.2234168487290145,-0.08255939624016902,8.676178119312636,0.19727209176205704,0.749969175069895,-0.023606128712766197,-0.20115039550504316,0.24694296474326136,-0.636256405994449,3.99577775000747,-0.5854506626996535,7.752653123622827,0.2439266081268653,0.735209834503613,-0.23059684493264987,-0.17791197249780508,0.18033426178378656,-0.6618001277499401
-0.9791424949262776,4.849075229566563,6.730409273769503,0.9184742925951362,-1.4847316350809698,0.8601280490866774,-0.15895805109467523,-0.38355068758820193,-0.43179056514101855,-3.0636071818676176,-2.385915461476182,6.437624727626102,3.8628166380804814,-0.14705202705499795,-0.18257175999761208,-0.017896523915739822,0.10894550097934207,-0.5605816535832167,-3.557591681277471,0.1742000564693214,8.669395275075905,0.4024109457554026,-0.1838743666528783,0.17556216461767987,0.14268552033190485,0.12168282062007692,-0.3551596495810803,3.6036658333842313,-0.49629753643247454,8.781710468416229,0.4083803831236168,0.8357466932288267,-0.13552816310232235,-0.19209202035525177,0.2374123301414407,-0.6339458206287419,3.384861905758083,-0.4996482504190946,7.775900464737373,0.4482522899502638,0.804933421054887,-0.18216964431326302,-0.16261408493233678,0.1657569223110543,-0.6580027233823473
-0.32986616452451145,4.444652208092927,6.356818457839626,0.7600710330357277,-1.4863734312783252,0.5749326866433148,-0.18465242060337095,-0.38685028671723326,-0.4186945427625135,-2.5620442709481512,1.4480313465894132,7.870241064058026,4.87961868859251,-0.3412585983021654,0.13428128730973762,-0.026797615740594527,0.049285320727068135,-0.5700918223825434,-2.9704670677609366,0.038766549399266215,9.228108192133282,0.38554646808690834,-0.23885218527252358,0.08234414413454452,0.13413533074579118,0.12677436231451827,-0.37090777614315995,3.427989665324536,-0.3947234870513567,8.723351733370103,0.3310940798703399,0.9003127868938864,-0.19401225800236538,-0.19592242097438797,0.23906925359163705,-0.6411962817021573,3.204599525407736,0.38782164217295817,8.365239638391285,0.38290661315252417,0.8769926577237976,-0.06022424351216988,-0.15721223630951575,0.16580032238165862,-0.667888123166372
