# sampling frequency: 40
# units are seconds/meters/radians/a.u.
seg1_acc_x,seg1_acc_y,seg1_acc_z,seg1_gyr_x,seg1_gyr_y,seg1_gyr_z,seg1_mag_x,seg1_mag_y,seg1_mag_z,seg2_acc_x,seg2_acc_y,seg2_acc_z,seg2_gyr_x,seg2_gyr_y,seg2_gyr_z,seg2_mag_x,seg2_mag_y,seg2_mag_z,seg3_acc_x,seg3_acc_y,seg3_acc_z,seg3_gyr_x,seg3_gyr_y,seg3_gyr_z,seg3_mag_x,seg3_mag_y,seg3_mag_z,seg4_acc_x,seg4_acc_y,seg4_acc_z,seg4_gyr_x,seg4_gyr_y,seg4_gyr_z,seg4_mag_x,seg4_mag_y,seg4_mag_z,seg5_acc_x,seg5_acc_y,seg5_acc_z,seg5_gyr_x,seg5_gyr_y,seg5_gyr_z,seg5_mag_x,seg5_mag_y,seg5_mag_z
1.799912,-7.407599,6.238403,-0.021381,0.000127,0.000108,-0.325439,0.412842,0.018799,-0.076845,8.390127,5.05536,-0.022823,-0.004393,0.003351,0.077148,0.388428,0.529541,-1.644004,-7.013106,6.772344,0.019784,0.011898,0.001646,0.637207,0.135254,-0.202148,2.192395,-7.251212,6.419064,0.030522,0.002688,-0.001703,0.093506,0.314697,-0.581299,0.389123,-5.88952,7.702563,0.020453,-0.046342,-0.00144,-0.243896,0.399902,-0.389404
1.846024,-7.398111,6.221597,0.019691,-0.001059,-0.00113,-0.327148,0.415039,0.012451,0.01696,8.380834,5.045108,0.006406,0.010307,0.007451,0.071533,0.384766,0.526123,-1.56565,-6.974671,6.781937,-0.013113,-0.005846,-0.002684,0.634277,0.13501,-0.208496,2.2106,-7.176783,6.460106,-0.014895,0.002574,0.0128,0.091064,0.313477,-0.59082,0.570472,-6.057849,7.697668,-0.068463,0.007684,-0.005844,-0.246338,0.400635,-0.393311
1.820482,-7.329431,6.203568,-0.012289,0.005579,0.001197,-0.323242,0.421387,0.008301,-0.041503,8.408512,5.056817,-0.03015,0.005521,0.004735,0.072754,0.387939,0.527588,-1.55514,-7.052034,6.709527,-0.023538,0.002749,-0.002227,0.637695,0.138916,-0.215332,2.194633,-7.233316,6.397098,-0.015423,-0.00678,0.011028,0.094482,0.317871,-0.592529,0.391645,-6.259304,7.666291,-0.029324,0.016461,0.010812,-0.242188,0.406494,-0.400146
1.837415,-7.439604,6.227363,-0.012625,-0.001772,0.001494,-0.314941,0.416504,0.008301,0.009145,8.335795,5.053728,-0.017683,0.002342,0.004717,0.07251,0.390625,0.514893,-1.557148,-7.027261,6.702671,-0.001892,-0.002436,-0.007192,0.644531,0.137451,-0.217529,2.134811,-7.183171,6.323553,-0.019701,-0.00733,0.009513,0.101318,0.319336,-0.594971,0.440785,-6.121242,7.634163,0.074051,-0.021764,-0.018783,-0.23584,0.401123,-0.400635
1.807508,-7.380206,6.208477,0.012759,0.003212,0.000169,-0.321045,0.41748,0.02002,-0.059826,8.383036,5.084494,0.000222,0.014555,0.004386,0.071533,0.388184,0.530273,-1.537706,-7.029932,6.685897,-0.022162,0.003293,0.000294,0.640869,0.135986,-0.204346,2.141409,-7.254928,6.223139,-0.018462,-0.009016,0.01291,0.096191,0.31543,-0.582275,0.481486,-5.904515,7.717958,0.001947,0.004837,-0.005043,-0.241211,0.401611,-0.389648
1.858322,-7.39493,6.218712,-0.009856,-0.005162,-0.003564,-0.326172,0.423828,0.006836,0.018427,8.367398,5.077443,-0.020815,-0.0097,0.005879,0.068115,0.390869,0.524414,-1.532818,-7.0859,6.693034,1e-06,0.001907,0.003142,0.638672,0.14624,-0.217529,2.209716,-7.196959,6.256824,0.021528,0.009488,0.001638,0.093994,0.324707,-0.595459,0.430004,-6.131642,7.660116,-0.070456,0.000518,0.008732,-0.244141,0.41333,-0.401367
1.834321,-7.425804,6.179785,0.008866,0.006974,-0.000269,-0.323486,0.417236,0.018311,0.020553,8.351535,5.055608,0.009407,0.021472,0.003914,0.078369,0.383789,0.529297,-1.51699,-7.013941,6.721849,0.025094,0.017276,0.000559,0.636475,0.137451,-0.207764,2.176104,-7.170028,6.336211,0.001643,0.017608,0.009064,0.095703,0.314697,-0.586914,0.476264,-6.245056,7.718226,0.014473,-0.006682,-0.01167,-0.244385,0.402344,-0.38916
1.831064,-7.357472,6.218956,0.013499,-0.00167,0.00269,-0.328369,0.423584,0.02124,-0.069389,8.413564,5.065243,-0.003577,-0.003488,0.002932,0.077148,0.396729,0.522949,-1.60763,-7.009966,6.746991,-0.004489,0.012225,0.008938,0.638916,0.143555,-0.203857,2.166052,-7.213783,6.408692,0.00035,0.006236,0.010523,0.093262,0.32251,-0.583008,0.468351,-6.097359,7.650098,0.053423,0.010564,-0.00117,-0.245117,0.408203,-0.387451
1.817214,-7.327865,6.245337,0.000759,0.00469,-0.001603,-0.321045,0.416992,0.010254,0.029961,8.384036,5.043744,-0.009257,0.008854,0.003131,0.07251,0.390625,0.52417,-1.560095,-7.021828,6.732109,-0.003825,0.001918,-0.000731,0.642822,0.137451,-0.212402,2.174491,-7.239372,6.419864,-0.004668,0.001853,0.01084,0.098633,0.318359,-0.588623,0.376866,-5.946439,7.648909,0.033299,0.000423,-0.009024,-0.237793,0.403564,-0.397705
1.827049,-7.377118,6.197986,-0.012971,-0.001883,0.000485,-0.320068,0.419189,0.01709,-0.063315,8.39094,5.05798,-0.013267,0.009894,0.006029,0.077148,0.393311,0.522949,-1.591013,-7.001667,6.749503,-0.006393,0.008013,-0.003854,0.642334,0.140625,-0.209229,2.197321,-7.205941,6.403505,-0.002862,-0.004961,0.004195,0.098145,0.317627,-0.588623,0.490654,-6.027149,7.711634,-0.079022,-0.021021,0.001821,-0.23999,0.406738,-0.393066
1.8363,-7.42698,6.20022,-0.000765,0.002552,0.000295,-0.322021,0.428955,0.007568,0.014076,8.382233,5.063496,-0.016868,-0.003924,0.005534,0.077881,0.389404,0.523193,-1.539385,-7.03927,6.716347,-0.020867,-0.010662,-0.002947,0.640137,0.150879,-0.215332,2.183867,-7.170574,6.36048,-0.015312,-0.00502,0.013026,0.096924,0.327393,-0.592773,0.482859,-6.297197,7.626095,-0.028896,0.019215,0.007093,-0.242188,0.416016,-0.39917
1.845492,-7.365945,6.205114,0.003634,0.002672,0.000587,-0.32373,0.423828,0.014404,0.007126,8.370149,5.07285,-0.015058,0.015544,0.004939,0.070312,0.387695,0.533447,-1.514999,-7.030782,6.67908,-0.001219,0.006908,-0.005511,0.641602,0.144043,-0.210449,2.162448,-7.212684,6.258554,-0.018114,-0.007656,0.010999,0.095459,0.321289,-0.589844,0.370626,-6.088737,7.683415,0.081927,-0.006455,-0.02226,-0.244141,0.408936,-0.394287
1.812772,-7.404449,6.196336,-0.008529,0.000378,-2.9e-05,-0.318359,0.422852,0.019775,-0.056864,8.365996,5.088602,-0.011271,-0.000653,0.005712,0.080078,0.389404,0.520996,-1.600538,-7.021039,6.711308,-0.014627,0.006767,0.005568,0.643799,0.143799,-0.206543,2.157818,-7.192305,6.240944,-0.000227,0.008293,0.009541,0.100098,0.323242,-0.583984,0.50937,-5.944431,7.722732,-0.01453,-0.019098,0.003495,-0.237793,0.409912,-0.388916
1.859881,-7.41728,6.187524,0.011399,0.002583,-0.001856,-0.31958,0.412109,0.008789,0.019032,8.379359,5.061559,0.004422,0.007554,0.001324,0.077637,0.399902,0.529541,-1.509029,-7.078091,6.695397,0.003034,0.003147,0.001383,0.642822,0.133057,-0.2146,2.163572,-7.229881,6.295494,-0.00155,0.006517,0.010386,0.099609,0.311523,-0.591553,0.445304,-6.136812,7.647777,-0.044903,0.027274,0.000707,-0.238525,0.397949,-0.397461
1.825134,-7.365741,6.219752,0.004324,0.000628,-0.000161,-0.321045,0.414307,0.014893,-0.030538,8.396458,5.063454,-0.013098,0.007951,0.007658,0.079346,0.393311,0.529053,-1.564688,-7.003089,6.742981,0.025521,0.018578,0.001418,0.642822,0.135254,-0.21167,2.194019,-7.19384,6.400489,0.024079,0.010406,0.001079,0.09668,0.31665,-0.591797,0.412266,-6.196855,7.677794,0.008635,-0.019019,-0.005489,-0.23877,0.401367,-0.398193
1.855761,-7.414216,6.220152,-0.000167,0.003471,-0.000153,-0.322021,0.416992,0.013428,0.001279,8.362209,5.031299,0.001021,0.002893,8.8e-05,0.083496,0.389893,0.529785,-1.579741,-6.983424,6.77826,-0.014135,-8.1e-05,0.003669,0.641846,0.136963,-0.210449,2.169222,-7.177456,6.416157,-0.016562,0.006379,0.016662,0.098145,0.317871,-0.588867,0.52609,-6.083621,7.675734,0.049888,-0.002187,-0.00446,-0.241943,0.403564,-0.394287
1.814632,-7.337348,6.215941,0.013317,0.001993,0.000526,-0.317139,0.416748,0.010498,-0.045828,8.43386,5.063672,-0.006628,0.012186,0.006775,0.075439,0.395508,0.525879,-1.559146,-7.033383,6.727681,-0.007496,0.008142,0.000866,0.644287,0.136719,-0.2146,2.173772,-7.274479,6.411993,-0.007554,-0.005209,0.008528,0.100586,0.315674,-0.592285,0.387773,-5.967132,7.682564,0.003332,0.018218,-0.008666,-0.235596,0.40332,-0.398193
1.830339,-7.356945,6.230984,-0.016774,-0.001085,-0.000256,-0.316406,0.421631,0.015137,-0.031378,8.369035,5.043482,-0.0317,-0.00131,0.005434,0.07251,0.388916,0.528809,-1.59659,-7.007721,6.7419,-0.005171,-0.004613,-0.00777,0.647949,0.142578,-0.208008,2.189125,-7.17541,6.369466,0.000267,-0.001148,0.006859,0.10083,0.321533,-0.588623,0.433137,-6.104718,7.662469,-0.051762,-0.024554,0.006062,-0.236328,0.409668,-0.390869
1.845753,-7.442768,6.188036,-0.00645,0.001295,-0.00157,-0.320312,0.420654,0.014404,0.001264,8.364959,5.05078,-0.000409,0.009912,0.00511,0.080322,0.387939,0.531494,-1.510834,-7.021054,6.706022,-0.019758,-0.002058,-0.001121,0.643555,0.140137,-0.211426,2.151565,-7.215447,6.320753,-0.030828,-0.007407,0.016088,0.097412,0.320068,-0.5896,0.507713,-6.190888,7.683247,0.00111,0.006825,-0.010278,-0.239258,0.405762,-0.395752
1.838182,-7.372675,6.196949,0.013466,0.000977,0.001434,-0.329346,0.420898,0.016113,-0.021989,8.399887,5.068469,-0.016481,0.004352,0.005188,0.08252,0.382568,0.521729,-1.549166,-7.052958,6.675225,-0.004384,0.008055,-0.000206,0.635498,0.141357,-0.20752,2.18607,-7.214808,6.256821,0.008516,-0.00403,0.003329,0.087402,0.319336,-0.58667,0.431143,-6.120847,7.685877,0.017246,0.00265,0.000839,-0.248291,0.408691,-0.389893
1.827321,-7.367173,6.239797,-0.005223,0.000484,-0.001206,-0.322266,0.422852,0.006836,-0.009643,8.357514,5.049142,-0.009211,0.006193,0.004657,0.075928,0.400635,0.524902,-1.551642,-7.018888,6.711151,0.003637,0.004813,0.000735,0.640625,0.142822,-0.218018,2.155766,-7.177641,6.290642,-0.00819,0.011042,0.01427,0.095459,0.321289,-0.594482,0.446652,-6.051943,7.646787,0.026246,-0.006448,-0.006629,-0.243652,0.405518,-0.400879
1.829636,-7.422768,6.173607,-0.001707,0.001524,-0.000268,-0.320312,0.419678,0.01709,-0.034046,8.400694,5.07718,0.003732,0.009735,0.004603,0.070557,0.384766,0.526367,-1.562287,-7.024567,6.720042,0.005379,0.012912,0.003699,0.642578,0.137695,-0.206055,2.172992,-7.250065,6.342393,0.00292,0.005344,0.008559,0.096436,0.315674,-0.58667,0.457872,-6.037188,7.699826,-0.027293,0.003811,-0.0029,-0.240234,0.403809,-0.392578
1.83266,-7.36925,6.219201,0.01266,-0.000873,-0.000234,-0.327148,0.41626,0.008789,-0.003892,8.388401,5.046784,-0.011257,0.000408,0.004474,0.077393,0.38916,0.525879,-1.551057,-7.022194,6.723859,-0.002625,0.002101,0.003284,0.636475,0.138672,-0.213135,2.185098,-7.196203,6.404191,0.010123,0.006357,0.006197,0.091064,0.313721,-0.593262,0.457841,-6.20925,7.633739,-0.015777,-0.003795,0.005898,-0.244629,0.40332,-0.398438
1.820523,-7.362143,6.202985,-0.002235,0.007341,-0.000677,-0.31958,0.424805,0.013916,-0.01216,8.397977,5.024407,-0.005491,0.015627,0.004703,0.075684,0.394775,0.526855,-1.558387,-7.029565,6.723149,0.006796,0.012531,-0.000463,0.644531,0.145752,-0.207764,2.174201,-7.226089,6.424401,-0.010643,0.001987,0.012341,0.100098,0.324707,-0.589355,0.440727,-6.079507,7.697459,0.044637,0.002721,-0.017409,-0.236084,0.411865,-0.39209
1.819765,-7.384392,6.200367,-0.004368,-0.002768,0.000966,-0.315674,0.416504,0.017334,-0.040843,8.394337,5.067095,-0.01582,-0.00384,0.004841,0.075195,0.396973,0.530273,-1.617228,-6.989123,6.750177,-0.012022,-0.002163,-0.001152,0.646484,0.134033,-0.208252,2.165351,-7.202307,6.376398,-0.006929,-0.005968,0.008953,0.102295,0.316895,-0.585693,0.441524,-6.030645,7.679033,-0.004389,-0.003556,0.005869,-0.237061,0.400635,-0.391602
1.847766,-7.388541,6.234782,0.000222,0.003457,-0.002716,-0.325195,0.411621,0.010498,0.02399,8.395223,5.056774,-0.008478,0.010453,0.005299,0.078369,0.383057,0.530518,-1.528993,-7.030076,6.718305,-0.020123,-0.004555,-0.003748,0.638916,0.133057,-0.212158,2.18138,-7.217935,6.328827,-0.019582,-0.004416,0.013488,0.093262,0.312012,-0.592285,0.433999,-6.071476,7.68968,-0.01796,-0.000699,-0.008602,-0.243652,0.400146,-0.398682
1.835522,-7.392882,6.18612,-0.007167,-0.001257,-0.000772,-0.314209,0.413574,0.018555,-0.046687,8.366712,5.088006,-0.021591,0.008992,0.006003,0.083984,0.387451,0.525391,-1.568194,-7.048433,6.685277,-0.003162,0.00935,-0.002192,0.650146,0.135498,-0.204346,2.168607,-7.19366,6.294065,0.001827,0.001177,0.006633,0.104004,0.315918,-0.58374,0.479224,-6.156026,7.696066,-0.031262,-0.009617,0.001851,-0.233154,0.400146,-0.387695
1.845824,-7.409999,6.222254,0.004458,0.002068,0.001501,-0.321045,0.416504,0.015625,0.018974,8.360172,5.065983,-0.001113,-0.002238,0.003129,0.07666,0.395264,0.531982,-1.536558,-7.026714,6.712634,-0.000476,-0.002149,0.000246,0.642578,0.136963,-0.20874,2.161133,-7.182998,6.298962,-0.007711,0.005407,0.011853,0.0979,0.316895,-0.585693,0.47013,-6.166125,7.634542,0.03448,0.010498,-0.001483,-0.237549,0.4021,-0.394531
1.813792,-7.370553,6.192654,0.006419,0.001354,0.000312,-0.32373,0.414551,0.013916,-0.024996,8.409473,5.06348,-0.001004,0.016507,0.005755,0.081055,0.392334,0.531006,-1.551255,-7.017826,6.728301,0.007011,0.017547,0.003247,0.641602,0.134033,-0.208008,2.156705,-7.236282,6.321255,0.000536,0.002523,0.008323,0.096436,0.316895,-0.588135,0.400672,-5.996158,7.689769,0.027984,-0.005318,-0.01448,-0.245117,0.404053,-0.393311
1.828678,-7.378175,6.229839,0.000884,-0.00092,-0.000646,-0.316406,0.416992,0.008545,-0.025038,8.370264,5.048944,-0.01912,-0.003778,0.005507,0.079102,0.393555,0.526611,-1.578312,-7.024847,6.741833,-0.005616,0.001703,0.00395,0.645264,0.136475,-0.216064,2.190522,-7.199256,6.368099,0.007182,0.010531,0.007228,0.101562,0.315918,-0.591309,0.487875,-6.075003,7.662316,-0.0333,-0.006993,0.009972,-0.23584,0.402588,-0.397949
1.83398,-7.402349,6.206602,-0.001991,0.001098,-0.002837,-0.317139,0.416992,0.014648,0.001624,8.394392,5.0444,0.007396,0.01179,0.004265,0.078125,0.387207,0.532227,-1.532843,-7.04534,6.717592,0.003081,0.009045,-0.001879,0.644043,0.142578,-0.20874,2.162551,-7.224477,6.39773,-0.008045,0.004229,0.011215,0.098877,0.317871,-0.589355,0.424459,-6.141925,7.673544,-5.4e-05,0.014216,-0.011691,-0.236328,0.406006,-0.391113
1.82413,-7.375142,6.201196,0.003935,0.000643,0.002402,-0.314453,0.416992,0.019775,-0.057055,8.415964,5.076236,-0.025187,0.005344,0.006636,0.076416,0.39502,0.525879,-1.605139,-7.006438,6.741147,-0.002609,0.005116,0.000421,0.648193,0.137451,-0.204834,2.198708,-7.206736,6.393451,0.00025,-0.003145,0.007997,0.102539,0.316406,-0.582031,0.440529,-6.117107,7.666416,0.008554,-0.016737,0.000749,-0.235352,0.403076,-0.385254
1.828595,-7.377698,6.230428,0.000373,0.002441,-0.001809,-0.316162,0.421875,0.008057,0.012286,8.371969,5.030178,-0.010188,0.005576,0.004385,0.072266,0.392334,0.530762,-1.545278,-7.026514,6.719441,-0.017629,-0.004269,-0.003496,0.644775,0.141846,-0.213867,2.154094,-7.223113,6.342791,-0.022449,-0.00159,0.015669,0.101562,0.322754,-0.593262,0.454194,-6.053606,7.657048,0.025977,0.009633,-0.01031,-0.236084,0.409424,-0.39917
1.834933,-7.391707,6.187699,-0.007123,0.000882,-0.001577,-0.317139,0.422852,0.006592,-0.0556,8.405217,5.070062,-0.005813,0.010832,0.005911,0.076416,0.393799,0.528564,-1.569783,-7.046097,6.711886,-0.005373,0.005927,-0.001492,0.64502,0.141846,-0.215088,2.176357,-7.221382,6.318509,-0.000988,-0.007245,0.005468,0.100586,0.320801,-0.593262,0.42667,-6.036223,7.694551,-0.034001,-0.007157,-0.002093,-0.236572,0.409912,-0.398682
1.855165,-7.40285,6.202573,0.000344,0.00011,0.00101,-0.320801,0.42041,0.016113,0.020144,8.366106,5.070253,-0.020196,-0.004027,0.003888,0.074707,0.392334,0.531738,-1.540753,-7.018466,6.695567,-0.006038,-0.001505,-3.7e-05,0.639893,0.138916,-0.207031,2.18744,-7.153376,6.30508,-0.003691,0.004248,0.010774,0.096924,0.318359,-0.584717,0.499454,-6.196889,7.644284,-0.021591,-0.006079,0.00444,-0.243164,0.403564,-0.390381
1.814591,-7.392588,6.201031,0.007136,0.003905,-0.000487,-0.321289,0.422852,0.017334,-0.020049,8.377761,5.044103,0.001252,0.017402,0.004539,0.077148,0.38501,0.534912,-1.536247,-7.036489,6.709931,0.006232,0.013611,0.002252,0.641602,0.141357,-0.20874,2.15668,-7.228472,6.313032,-0.004968,0.007583,0.011327,0.095459,0.321289,-0.586914,0.430145,-6.1334,7.677827,0.039844,0.014382,-0.014177,-0.240234,0.407471,-0.392822
1.846841,-7.353634,6.210467,0.003608,-0.001923,0.000639,-0.315186,0.426025,0.01001,-0.030224,8.403269,5.043444,-0.004441,-0.003392,0.002747,0.078369,0.392578,0.53418,-1.587527,-7.014134,6.743389,0.002585,0.003879,0.00123,0.64502,0.144531,-0.213135,2.186483,-7.18991,6.350941,0.009171,0.002112,0.004873,0.103271,0.326416,-0.592773,0.430999,-6.03013,7.665195,0.012411,-0.01501,0.002618,-0.234619,0.412109,-0.398682
1.827331,-7.387552,6.20023,-0.005314,0.003447,-0.000907,-0.325195,0.422363,0.013428,0.020789,8.408521,5.069708,-0.007198,0.01074,0.003802,0.083008,0.39502,0.530029,-1.539042,-7.025864,6.728947,-0.008302,0.00624,0.00054,0.635742,0.141357,-0.211426,2.175786,-7.221661,6.392477,-0.014175,0.006252,0.013525,0.090088,0.321777,-0.589844,0.466866,-6.059253,7.666348,-0.015646,0.003223,-0.010056,-0.246094,0.408447,-0.394287
1.839226,-7.371772,6.220108,0.009204,3.6e-05,3.7e-05,-0.32666,0.414307,0.012451,-0.068491,8.385671,5.037402,-0.015935,0.005593,0.005893,0.074707,0.391113,0.53833,-1.586738,-7.042364,6.746284,0.000426,0.006357,-0.001333,0.632324,0.136719,-0.213867,2.169218,-7.220697,6.383596,0.008528,0.000881,0.005584,0.091553,0.312744,-0.591553,0.450512,-6.144623,7.674895,-0.024123,0.001005,0.004784,-0.24707,0.402344,-0.398193
1.830487,-7.367103,6.222384,-0.005165,0.002431,0.0,-0.322266,0.421143,0.025391,0.02428,8.383457,5.039328,-0.001981,0.001869,0.004779,0.071045,0.399414,0.521973,-1.552924,-6.992842,6.729202,-0.004298,-0.002135,-0.003637,0.640869,0.141602,-0.19873,2.157702,-7.16663,6.378246,-0.014055,-0.002546,0.011598,0.097412,0.31958,-0.577881,0.444008,-6.137582,7.644434,0.030296,-0.004897,-0.009228,-0.242188,0.407227,-0.382324
1.830154,-7.411041,6.167349,-0.006779,0.000992,-0.000568,-0.324219,0.423828,0.005615,-0.038323,8.403571,5.080136,-0.01832,0.01291,0.007147,0.079102,0.38916,0.523682,-1.548703,-7.019681,6.701066,-0.016124,0.007669,-0.000134,0.637695,0.142334,-0.215576,2.185936,-7.22695,6.31389,-0.018226,-0.003314,0.01322,0.093506,0.323242,-0.597656,0.468501,-6.0055,7.693377,0.008841,-0.003117,-0.006021,-0.244141,0.411377,-0.399658
1.826562,-7.387733,6.200241,0.00862,-0.001075,0.002498,-0.3125,0.418457,0.012695,-0.020676,8.347878,5.06202,-0.015839,-0.003855,0.004815,0.074707,0.392334,0.523193,-1.563929,-7.061819,6.72026,-0.007039,-0.001593,-0.000639,0.651123,0.139893,-0.21167,2.173563,-7.203825,6.301263,0.003548,0.001619,0.005602,0.104248,0.316406,-0.588867,0.453175,-6.097843,7.654739,-0.036087,0.001406,0.004951,-0.231934,0.404053,-0.39209
1.831297,-7.356867,6.203044,-0.003024,0.003033,-0.0031,-0.322021,0.415039,0.016357,0.016412,8.390896,5.054425,0.005101,0.013516,0.004007,0.06958,0.395752,0.526367,-1.524865,-7.029881,6.718198,0.008276,0.00781,-0.001061,0.641846,0.136963,-0.206055,2.18301,-7.19743,6.297253,-0.004613,0.003142,0.010291,0.098145,0.315918,-0.584473,0.432935,-6.154197,7.65563,0.010516,-0.000471,-0.009718,-0.241455,0.4021,-0.390869
1.831679,-7.423127,6.206198,0.001017,0.000521,0.001016,-0.314209,0.412598,0.011963,-0.039588,8.390477,5.050773,-0.015925,0.001582,0.00407,0.070312,0.389893,0.527588,-1.581616,-6.999706,6.717839,0.000921,0.008235,0.003338,0.647461,0.132568,-0.211914,2.172971,-7.19858,6.345755,0.004707,0.00708,0.006978,0.103271,0.311035,-0.588867,0.473026,-6.097468,7.690623,0.015264,-0.005775,-5.5e-05,-0.233643,0.39917,-0.395264
1.839389,-7.360198,6.202549,0.013917,0.002915,8.1e-05,-0.320312,0.429443,0.012207,-0.000373,8.359341,5.034072,-0.002382,0.007459,0.003537,0.067627,0.393799,0.52417,-1.555877,-7.035504,6.740878,-0.007088,0.004382,0.003872,0.642578,0.146484,-0.214844,2.170668,-7.200857,6.367569,-0.007945,0.004847,0.011241,0.098877,0.326904,-0.592041,0.439953,-6.070055,7.65621,0.011045,0.007835,-0.005147,-0.239746,0.413086,-0.398193
1.82186,-7.339651,6.177976,-0.010851,0.001171,-0.001866,-0.316895,0.415771,0.009766,-0.041225,8.40362,5.076915,-0.007936,0.006613,0.005436,0.077637,0.399902,0.529785,-1.574664,-7.033404,6.723873,0.001088,0.008734,-0.000612,0.644287,0.137207,-0.214111,2.167085,-7.224234,6.395881,-0.002444,-0.000222,0.008237,0.100342,0.315186,-0.592529,0.421436,-6.058535,7.681184,-0.016848,-0.005687,-0.001547,-0.237305,0.400391,-0.396973
1.861396,-7.427139,6.201344,-0.003172,-0.000931,7.1e-05,-0.311768,0.411133,0.010254,0.005872,8.382079,5.055114,-0.017869,0.000514,0.005798,0.072998,0.390625,0.531982,-1.555905,-7.024144,6.728026,-0.006524,-0.003518,-0.002256,0.650879,0.134033,-0.214844,2.182245,-7.198538,6.370464,-0.0073,0.002272,0.01026,0.105225,0.314453,-0.592041,0.485431,-6.148258,7.67744,-0.004914,-0.005329,0.000365,-0.23291,0.399658,-0.398193
1.828107,-7.343723,6.216064,0.013288,0.004644,-0.000731,-0.323975,0.42041,0.005127,-0.031002,8.395811,5.052769,-0.003067,0.014559,0.005132,0.07959,0.388916,0.529785,-1.55007,-7.027912,6.708201,-0.008259,0.007083,-0.000553,0.638428,0.142334,-0.217285,2.161865,-7.212842,6.342242,-0.005947,-0.006237,0.010589,0.092773,0.321289,-0.595947,0.445279,-6.095237,7.698583,0.015937,0.004825,-0.007543,-0.245361,0.408447,-0.405029
1.827545,-7.365424,6.214049,-0.012975,-0.001887,0.00048,-0.323242,0.422852,0.013916,-0.030953,8.387898,5.075553,-0.016079,-0.000205,0.005184,0.077881,0.388916,0.527832,-1.569799,-7.028702,6.721255,-0.006585,0.002591,-0.000202,0.639893,0.142822,-0.20874,2.185225,-7.180103,6.325387,-0.007467,-0.002596,0.007406,0.094482,0.320312,-0.588379,0.44018,-6.083337,7.659867,-0.0046,-0.008629,0.00084,-0.241699,0.408447,-0.394043
1.825926,-7.44183,6.175692,-0.001122,0.002634,-0.00273,-0.325195,0.417969,0.017334,-0.004818,8.366647,5.07642,-0.007761,0.009602,0.005374,0.07251,0.394531,0.524902,-1.53695,-7.052445,6.691885,-0.011458,0.003437,0.002002,0.638672,0.137695,-0.207764,2.172794,-7.238838,6.293432,-0.013752,0.006062,0.015326,0.093506,0.318604,-0.584961,0.450963,-6.081905,7.672723,-0.005093,0.002822,-0.007127,-0.24292,0.402588,-0.390869
1.825188,-7.353218,6.225711,0.015505,-0.000241,0.000703,-0.31958,0.422852,0.013916,-0.045868,8.386446,5.060945,-0.002971,0.005118,0.004049,0.082031,0.385498,0.522217,-1.573455,-7.052774,6.711366,0.010078,0.009655,0.00232,0.641357,0.142334,-0.210205,2.150744,-7.205286,6.344867,0.017013,0.00613,0.003217,0.098145,0.320801,-0.589355,0.443308,-6.121747,7.684171,-0.007056,-0.00126,-7e-06,-0.238037,0.408936,-0.391357
1.836437,-7.347394,6.215093,-0.008263,0.000992,0.000524,-0.319824,0.412842,0.014648,0.002148,8.389531,5.063614,-0.007898,0.003817,0.004666,0.075439,0.395996,0.529053,-1.545396,-7.002239,6.736026,0.006406,0.002099,-0.00048,0.641846,0.134277,-0.208984,2.172266,-7.162335,6.3664,-0.005592,0.004537,0.010636,0.097656,0.313721,-0.591553,0.456209,-6.113314,7.668525,0.022773,-0.002508,-0.005852,-0.243164,0.398438,-0.391113
1.833161,-7.434139,6.196221,-0.001782,0.002031,-0.000723,-0.325195,0.422852,0.016602,-0.045518,8.384612,5.063986,-0.010375,0.011494,0.004593,0.078613,0.392822,0.532959,-1.559793,-7.004534,6.731496,-0.010422,0.011325,0.002477,0.63623,0.142334,-0.207275,2.183146,-7.251468,6.371804,-0.011432,0.000824,0.012459,0.091553,0.322266,-0.588379,0.44386,-6.023781,7.679343,0.00352,0.000212,-0.007357,-0.247559,0.408936,-0.389648
1.819759,-7.3497,6.197914,0.013469,0.000982,0.001438,-0.319824,0.413818,0.019775,-0.024677,8.383225,5.043163,-0.009117,0.001794,0.004171,0.071533,0.39209,0.531494,-1.582774,-7.050755,6.728553,-0.008486,-0.000946,-0.001403,0.645508,0.131348,-0.204834,2.183862,-7.202096,6.370164,0.001865,0.000473,0.007216,0.101318,0.312744,-0.584961,0.449721,-6.102077,7.673168,-0.02185,-0.002204,0.004119,-0.237793,0.397461,-0.389404
1.841395,-7.361395,6.222916,-0.014907,0.001159,-0.001151,-0.322754,0.425049,0.01416,-0.010778,8.3962,5.08651,-0.009391,0.008233,0.005324,0.080078,0.393799,0.526123,-1.54468,-7.042309,6.717916,-0.000793,0.00316,-0.002493,0.637207,0.141113,-0.211426,2.173717,-7.199729,6.35182,-0.015183,-0.001078,0.011343,0.094482,0.320068,-0.590088,0.444961,-6.133351,7.667177,0.008007,-0.00068,-0.01052,-0.243164,0.40918,-0.392334
1.851004,-7.432361,6.173514,0.003247,0.000424,0.000384,-0.324707,0.412109,0.019531,-0.01278,8.378276,5.074885,-0.017646,0.005782,0.005554,0.078125,0.393066,0.536133,-1.552141,-7.011165,6.700469,-0.004617,0.004938,-0.00078,0.636963,0.135742,-0.20459,2.172935,-7.20942,6.314923,0.001529,-0.000707,0.006578,0.092285,0.315186,-0.583252,0.475376,-6.084653,7.674067,0.001243,-0.007559,-0.000518,-0.244629,0.398682,-0.390869
1.828605,-7.343726,6.227097,0.011629,0.001065,-0.000492,-0.316895,0.415527,0.010742,-0.012383,8.383793,5.056147,-0.001754,0.007133,0.004548,0.078857,0.390625,0.526123,-1.551398,-7.025898,6.701335,-0.009342,0.003266,0.000333,0.64624,0.13623,-0.213135,2.183357,-7.173471,6.316748,-0.008943,0.000449,0.012451,0.103027,0.317627,-0.592285,0.444041,-6.099994,7.650775,0.002613,0.006274,-0.003401,-0.235596,0.405029,-0.399414
1.833401,-7.389519,6.201962,-0.011269,0.001568,-0.003331,-0.319336,0.427246,0.011475,-0.045197,8.392715,5.064887,-0.010296,0.006051,0.005329,0.070557,0.390869,0.535645,-1.578922,-7.056829,6.705816,-0.003661,0.009096,0.00119,0.644775,0.14624,-0.214111,2.179619,-7.237161,6.324232,-0.005927,0.003356,0.010001,0.098389,0.324707,-0.594238,0.425767,-6.087535,7.676502,0.001532,-0.006121,-0.003942,-0.239258,0.414307,-0.397217
1.835904,-7.435113,6.216646,0.007647,0.000546,0.000678,-0.317139,0.419434,0.014893,-0.018324,8.364132,5.053948,-0.011583,0.005604,0.004551,0.077881,0.387695,0.528076,-1.558169,-7.011904,6.706927,0.006336,0.003289,0.001297,0.645752,0.138916,-0.208008,2.18855,-7.192286,6.362904,0.00819,0.009092,0.006908,0.101074,0.320312,-0.584473,0.483008,-6.107547,7.674306,-0.006481,-0.002364,-0.000878,-0.238037,0.407959,-0.390869
1.832881,-7.333818,6.228717,0.009937,0.002398,0.001251,-0.322754,0.42334,0.013916,-0.032356,8.394784,5.041875,0.003297,0.00914,0.004047,0.07959,0.39209,0.531982,-1.569679,-7.030464,6.726851,-0.003086,0.007881,0.000943,0.63916,0.142578,-0.210938,2.162441,-7.195181,6.363372,-0.006832,-0.000418,0.011226,0.096436,0.324463,-0.586914,0.424278,-6.100424,7.680576,0.010993,0.007251,-0.005296,-0.241943,0.407959,-0.393799
1.835765,-7.379178,6.193487,-0.015102,3.3e-05,-0.001254,-0.324219,0.423828,0.023438,-0.017569,8.400419,5.073398,-0.019335,0.00213,0.005667,0.080811,0.396484,0.532227,-1.573743,-7.030183,6.734831,-0.00871,0.00276,0.001454,0.639893,0.145264,-0.203369,2.186911,-7.215407,6.355804,-0.009157,-0.003729,0.009014,0.094482,0.32373,-0.579834,0.449696,-6.076955,7.67424,0.002386,-0.010212,-0.003003,-0.244141,0.410889,-0.385254
1.825436,-7.407499,6.211894,0.010192,0.003207,-0.000205,-0.320557,0.418701,0.014648,-0.017526,8.360584,5.059817,-0.012571,0.008993,0.006104,0.080566,0.395264,0.529053,-1.561109,-7.039575,6.718135,-0.005043,0.003636,-0.001626,0.640625,0.140381,-0.207275,2.184178,-7.205576,6.346794,-0.002539,0.002952,0.008493,0.096436,0.317383,-0.587402,0.46883,-6.085155,7.683598,-0.004541,0.003377,-0.00444,-0.240479,0.405762,-0.39209
1.841821,-7.349263,6.205943,0.0,0.0,0.0,-0.316162,0.412598,0.012695,-0.039558,8.388081,5.066049,-0.003852,0.004139,0.005112,0.072266,0.398682,0.528076,-1.570267,-7.021076,6.711798,-0.004669,0.004091,0.000306,0.64502,0.133545,-0.210938,2.15304,-7.196115,6.32961,-0.00711,-0.00029,0.01003,0.099365,0.314941,-0.587646,0.43323,-6.119598,7.671666,-0.010593,0.000698,-0.001587,-0.238525,0.398682,-0.393799
1.838289,-7.403169,6.210226,-0.010851,0.00117,-0.001868,-0.325928,0.424316,0.018311,0.003842,8.403534,5.069092,-0.013779,0.003111,0.006055,0.083984,0.398438,0.535889,-1.541545,-7.019275,6.709349,-0.006697,0.001035,-0.000491,0.636963,0.145752,-0.205078,2.185369,-7.219022,6.317189,-0.011871,-0.000973,0.011802,0.092773,0.325195,-0.583008,0.467332,-6.103647,7.673359,0.010228,-0.008442,-0.005363,-0.243652,0.408936,-0.390869
1.832194,-7.410794,6.200652,0.012123,0.00016,0.001427,-0.316406,0.422852,0.013428,-0.052355,8.3578,5.070555,-0.011257,0.010508,0.005659,0.068359,0.393066,0.533447,-1.569282,-7.050161,6.713795,-0.006305,0.011186,0.004465,0.645996,0.141846,-0.21167,2.183408,-7.220491,6.316188,-0.000128,0.003944,0.007331,0.101807,0.32373,-0.59082,0.460624,-6.092365,7.678056,-0.001427,0.00218,-0.005848,-0.23584,0.408936,-0.395508
1.821688,-7.349646,6.219777,0.004475,-0.000385,0.000748,-0.320068,0.422607,0.026611,-0.020615,8.375624,5.046269,-0.00284,0.001953,0.004614,0.084961,0.393066,0.529541,-1.570805,-7.049999,6.713609,0.007042,0.001593,0.000653,0.641113,0.140625,-0.19751,2.166795,-7.196886,6.340618,0.004351,0.005698,0.008895,0.094727,0.318359,-0.57959,0.456098,-6.121913,7.651542,0.003813,0.001588,0.002457,-0.242432,0.406738,-0.38208
1.827562,-7.385365,6.175061,-0.010058,0.003214,-0.002215,-0.320557,0.419922,0.014404,-0.011545,8.415554,5.046692,-0.005628,0.009783,0.00405,0.08252,0.393066,0.530762,-1.546746,-6.995456,6.725597,0.003708,0.008537,-0.00074,0.643311,0.139893,-0.206299,2.165934,-7.210349,6.370391,-0.006165,0.002799,0.009384,0.098633,0.318359,-0.583008,0.443903,-6.078395,7.683,0.011428,-0.005624,-0.012195,-0.239502,0.405029,-0.390381
1.839319,-7.40337,6.220874,0.007243,0.000753,0.001228,-0.317627,0.422852,0.010986,-0.045061,8.379116,5.060514,-0.019095,0.003538,0.005882,0.083008,0.391357,0.525146,-1.588801,-7.004686,6.743074,-0.01777,0.002888,0.002738,0.644287,0.141357,-0.212402,2.188924,-7.220708,6.377115,-0.007012,0.00033,0.010051,0.099609,0.321289,-0.590332,0.494315,-6.087879,7.662965,-0.01743,-0.002491,0.003633,-0.236816,0.407471,-0.396729
1.832446,-7.344104,6.208978,0.003966,0.002976,-0.000417,-0.321289,0.421631,0.00708,-0.014749,8.36616,5.031569,-0.001535,0.007329,0.003723,0.072266,0.390869,0.524414,-1.55594,-7.054551,6.727218,-0.002972,0.002621,-0.002202,0.641113,0.140625,-0.217529,2.181668,-7.207405,6.337655,-0.005826,-0.001637,0.008338,0.0979,0.32251,-0.597168,0.428347,-6.120685,7.658773,0.008029,0.008565,-0.00701,-0.239746,0.409912,-0.404297
1.836989,-7.390657,6.183039,-0.012453,-0.000462,-0.000424,-0.330078,0.42041,0.012939,-0.030723,8.404479,5.064187,-0.01307,0.006147,0.005662,0.083008,0.388428,0.529541,-1.577724,-7.011453,6.70402,0.002177,0.005594,-0.002465,0.633789,0.141357,-0.210449,2.165859,-7.183312,6.338703,-0.004102,-0.001187,0.007305,0.088623,0.320801,-0.589355,0.446219,-6.078544,7.682748,0.004581,-0.013687,-0.002483,-0.249512,0.405518,-0.395752
1.839822,-7.414468,6.1999,0.00958,0.00248,-0.00177,-0.326904,0.415771,0.017578,-0.007042,8.366819,5.050858,-0.013945,0.005044,0.004438,0.073242,0.396729,0.528076,-1.547778,-7.01301,6.723116,-0.013678,1e-05,0.002676,0.637695,0.137207,-0.205811,2.18378,-7.22197,6.330109,-0.010549,0.002609,0.012374,0.092041,0.31665,-0.583496,0.482769,-6.107178,7.662247,-0.005404,0.003039,-0.000143,-0.246338,0.405273,-0.390625
1.82939,-7.353539,6.218733,0.003397,-0.000591,0.001292,-0.326172,0.424072,0.019043,-0.021157,8.390098,5.060614,-0.004055,0.008854,0.004279,0.080322,0.391846,0.536133,-1.550255,-7.036457,6.714097,0.002448,0.009411,-0.00053,0.63623,0.143066,-0.203125,2.172637,-7.211101,6.347936,0.001647,0.001895,0.005467,0.089111,0.32251,-0.582764,0.429531,-6.120436,7.680809,-0.002713,0.002607,-0.004541,-0.244141,0.40918,-0.391846
1.826987,-7.396618,6.204303,-0.010433,0.000772,-0.000405,-0.315918,0.412354,0.01416,-0.027217,8.371645,5.056394,-0.011242,0.002779,0.006553,0.081299,0.398682,0.537354,-1.580169,-7.013319,6.701492,-0.002233,0.003668,-0.000795,0.64624,0.133789,-0.209473,2.18926,-7.1977,6.35303,-0.0049,0.005071,0.010515,0.102295,0.311279,-0.587646,0.464733,-6.099692,7.674169,0.006651,-0.010596,-0.000374,-0.234863,0.397461,-0.393311
1.825416,-7.39537,6.195064,0.013937,0.000462,-0.000669,-0.320312,0.419922,0.012939,-0.012242,8.383931,5.067307,-0.005629,0.009774,0.004056,0.078125,0.392334,0.531982,-1.568342,-7.037469,6.718642,-0.001014,0.006725,0.002827,0.641113,0.141357,-0.211182,2.162198,-7.233128,6.367791,-0.004002,0.005044,0.009015,0.096436,0.319336,-0.589844,0.456094,-6.092058,7.688127,0.009902,0.008389,-0.006968,-0.23999,0.405518,-0.395508
1.82647,-7.328977,6.202783,0.001422,0.000316,0.000466,-0.323975,0.416748,0.005127,-0.035723,8.38785,5.047527,-0.011773,0.002595,0.004605,0.072754,0.386475,0.525879,-1.575048,-7.009227,6.723082,-0.000239,0.003981,-0.002052,0.639404,0.13623,-0.220703,2.179785,-7.187746,6.357874,0.003387,-0.000335,0.006145,0.09375,0.315186,-0.599854,0.428886,-6.081897,7.678356,-0.006914,-0.006482,0.000628,-0.24292,0.405273,-0.402588
1.858272,-7.423167,6.207034,-0.014578,0.001458,-0.002158,-0.319824,0.420166,0.008057,0.004979,8.380136,5.057109,-0.007951,0.006574,0.005445,0.080078,0.396729,0.5271,-1.552037,-7.015295,6.719749,-0.012004,0.000575,0.000852,0.64209,0.13916,-0.213867,2.176109,-7.209952,6.363829,-0.018281,0.001202,0.012914,0.098389,0.318604,-0.592285,0.476668,-6.104201,7.662493,0.001785,-0.004373,-0.006029,-0.242188,0.407715,-0.398682
1.813053,-7.410721,6.175855,0.013111,0.003331,0.001183,-0.323975,0.425293,0.012695,-0.04033,8.391232,5.072276,-0.014591,0.009342,0.005271,0.072021,0.390869,0.5354,-1.579078,-7.056792,6.704525,-0.005511,0.006264,0.001353,0.637451,0.140869,-0.210938,2.170714,-7.217958,6.318014,0.000386,-0.00125,0.00746,0.094727,0.324707,-0.591064,0.456735,-6.105437,7.669794,-0.007648,0.005471,-0.001549,-0.245361,0.410889,-0.392334
1.84949,-7.341549,6.237515,-5.8e-05,-0.001949,-0.001206,-0.314697,0.415283,0.014404,0.000151,8.352389,5.044409,-0.008438,-0.000119,0.005441,0.070557,0.397461,0.528809,-1.555889,-7.026201,6.707424,1.8e-05,-0.001895,-0.003143,0.648193,0.134033,-0.205566,2.166124,-7.188275,6.337372,-0.005677,0.002097,0.009214,0.103027,0.314941,-0.584961,0.427686,-6.111614,7.629646,0.016726,-0.004716,-0.002265,-0.235107,0.401855,-0.393311
1.829284,-7.408224,6.193389,-0.012962,0.002899,-0.001591,-0.321533,0.419678,0.013184,-0.013553,8.407069,5.09116,-0.001559,0.015163,0.005127,0.079346,0.392334,0.527832,-1.547662,-7.009676,6.718028,-0.002305,0.009771,0.001262,0.640625,0.139404,-0.210449,2.17463,-7.212868,6.325948,-0.004077,-6.6e-05,0.009294,0.095459,0.318359,-0.588623,0.468782,-6.043138,7.703233,-0.000784,-0.006532,-0.009195,-0.242432,0.40625,-0.393066
1.843762,-7.404541,6.201664,0.01681,-0.001555,0.001526,-0.317627,0.418213,0.015381,-0.034391,8.381954,5.057321,-0.01686,-0.000626,0.004036,0.077881,0.398193,0.522705,-1.573914,-7.038157,6.691846,-0.007744,0.004876,0.002729,0.643799,0.13916,-0.206543,2.17791,-7.18552,6.340888,0.000252,0.004424,0.008553,0.099121,0.317139,-0.586914,0.481919,-6.148863,7.6401,-0.021195,0.006956,0.007653,-0.239014,0.404785,-0.391357
1.82468,-7.339094,6.222535,-0.001885,0.005187,-0.00244,-0.324463,0.417236,0.01416,-0.01012,8.382526,5.06023,-0.002483,0.007922,0.00451,0.074951,0.389404,0.524414,-1.557555,-7.040984,6.707658,0.004624,0.005035,-0.001101,0.639404,0.13916,-0.211182,2.162307,-7.215724,6.373389,-0.008974,0.004933,0.012157,0.094727,0.319092,-0.589844,0.401022,-6.092967,7.668203,0.03298,0.00216,-0.013095,-0.244873,0.40332,-0.395508
1.841687,-7.424877,6.190551,-0.008516,-0.002084,-0.000787,-0.321289,0.419189,0.015625,-0.025488,8.375361,5.064699,-0.016917,0.006137,0.006656,0.078125,0.390137,0.531982,-1.570059,-7.010021,6.730913,-0.001525,0.006889,-0.00116,0.639648,0.13623,-0.207275,2.192152,-7.216897,6.368111,0.001274,0.000529,0.007373,0.096436,0.315674,-0.584473,0.499733,-6.051095,7.692601,-0.006657,-0.019166,-0.001806,-0.240234,0.40625,-0.391602
1.834028,-7.38816,6.22577,0.014265,0.003031,0.001094,-0.323242,0.419922,0.008545,0.007366,8.385743,5.029104,0.001271,0.004426,0.002622,0.080811,0.386963,0.531738,-1.55201,-7.037778,6.728455,-0.015629,0.000541,0.002831,0.637695,0.138428,-0.214844,2.14962,-7.214031,6.35503,-0.010002,0.003217,0.011647,0.094482,0.318359,-0.594482,0.469615,-6.117882,7.653948,-0.014917,0.017022,0.000292,-0.243652,0.407471,-0.401123
1.813588,-7.343676,6.184506,-0.006228,-0.000232,-0.000212,-0.314941,0.418701,0.016357,-0.048016,8.416428,5.063086,-0.013341,0.008697,0.007276,0.078613,0.388184,0.52832,-1.568698,-7.049746,6.713159,0.003701,0.008676,-0.003189,0.648438,0.138672,-0.20874,2.175979,-7.211887,6.318714,-0.002277,-0.008409,0.006311,0.101807,0.31665,-0.586426,0.400921,-6.110264,7.658867,0.006725,-0.006785,-0.00828,-0.234863,0.404541,-0.391602
1.844673,-7.405232,6.211762,-0.009342,0.000785,0.001064,-0.320557,0.406982,0.010498,-0.004746,8.340899,5.043122,-0.022872,-0.002038,0.005297,0.078613,0.38916,0.529053,-1.561549,-7.004128,6.688368,-0.00825,-1.3e-05,0.000912,0.639404,0.128906,-0.211182,2.209005,-7.19618,6.349072,-0.010148,0.005091,0.012463,0.095703,0.309326,-0.59082,0.495229,-6.094946,7.668991,0.010184,-0.013452,-0.000274,-0.23999,0.395996,-0.39624
1.841204,-7.402809,6.193298,0.016078,0.003331,-0.001002,-0.31958,0.423828,0.013916,-0.012096,8.381849,5.058464,0.008197,0.013194,0.004265,0.078125,0.39624,0.536865,-1.542176,-7.045342,6.68821,-0.007907,0.007528,0.001358,0.642334,0.141846,-0.211426,2.161175,-7.23339,6.328293,-0.006155,0.008404,0.011083,0.097656,0.321777,-0.590576,0.448153,-6.077172,7.693297,-0.007212,0.014458,-0.007548,-0.239014,0.407959,-0.39624
1.827975,-7.329661,6.22388,-0.001215,0.000619,0.001648,-0.316406,0.41748,0.017822,-0.043474,8.421661,5.071851,-0.012812,-0.000299,0.004482,0.078613,0.401367,0.528076,-1.573912,-7.024378,6.706308,0.00715,0.003148,0.000948,0.647705,0.139893,-0.208984,2.173031,-7.207982,6.339079,0.007967,-0.005401,0.00463,0.103516,0.318848,-0.584473,0.43107,-6.12371,7.655991,-0.007991,-0.00933,0.004938,-0.233887,0.405518,-0.391846
1.838857,-7.42348,6.18187,-0.012348,0.00136,-0.002792,-0.322754,0.414551,0.01416,0.021505,8.370028,5.054486,-0.015281,0.007363,0.004435,0.075195,0.389893,0.526855,-1.552918,-7.005479,6.721263,-0.004787,0.007589,-0.002158,0.640381,0.134766,-0.208496,2.187236,-7.204372,6.342787,-0.016805,0.002914,0.012677,0.0979,0.312988,-0.590088,0.469846,-6.08059,7.672322,0.022944,-0.003572,-0.011802,-0.241699,0.400635,-0.395752
1.820921,-7.381177,6.209701,0.021167,0.003675,0.001313,-0.325684,0.423828,0.013428,-0.055026,8.376396,5.05338,-0.004032,0.010038,0.005352,0.077881,0.39917,0.536133,-1.577717,-7.037595,6.716329,-0.007905,0.007387,0.003813,0.636719,0.142334,-0.211914,2.175647,-7.235032,6.361958,0.007261,0.00596,0.007572,0.093506,0.321777,-0.589844,0.450235,-6.076,7.694101,-0.01164,0.004972,0.001934,-0.244141,0.408447,-0.393799
1.851925,-7.330792,6.240674,-0.006633,-2.6e-05,0.000337,-0.325439,0.418213,0.012207,-0.001205,8.411059,5.053014,-0.005193,-0.002594,0.002655,0.078613,0.389404,0.52124,-1.565181,-7.036088,6.71969,0.002203,-0.001353,-0.003431,0.637207,0.13916,-0.213135,2.178623,-7.166219,6.375857,-0.009856,0.001344,0.010834,0.092529,0.317139,-0.591553,0.434116,-6.122035,7.635262,2.9e-05,-0.00076,-0.002076,-0.244385,0.401855,-0.396484
1.825914,-7.438926,6.162728,-0.016272,0.002789,-0.000418,-0.318848,0.426514,0.01709,-0.016699,8.396491,5.079015,-0.02222,0.011612,0.0071,0.076904,0.398193,0.52417,-1.563908,-7.024481,6.707388,-0.010488,0.008567,0.000395,0.644287,0.148438,-0.205811,2.168391,-7.247731,6.358772,-0.016569,-0.00482,0.01331,0.0979,0.325439,-0.583984,0.452727,-6.072345,7.684818,0.003547,-0.007534,-0.009239,-0.23877,0.411133,-0.392578
1.8559,-7.377738,6.214489,0.02675,0.000847,0.002783,-0.322998,0.419434,0.015869,-0.032311,8.357976,5.046507,-0.00637,0.001652,0.003829,0.085205,0.391113,0.534668,-1.578041,-7.053792,6.715377,-0.006388,0.000779,5.7e-05,0.640625,0.141846,-0.210938,2.175062,-7.208097,6.330406,0.010152,0.000637,0.004542,0.097656,0.319336,-0.589111,0.476442,-6.116853,7.654349,-0.01122,0.003757,0.004184,-0.240479,0.406494,-0.395264
1.813485,-7.311312,6.229328,-0.011063,0.002499,-0.001221,-0.318848,0.416504,0.02124,-0.004516,8.406094,5.067678,0.005535,0.008944,0.004095,0.066162,0.389893,0.528076,-1.54907,-7.014904,6.719791,0.007434,0.005209,-0.002714,0.644043,0.138428,-0.206055,2.173484,-7.16876,6.351051,-0.010001,0.003217,0.011651,0.098877,0.314941,-0.584229,0.41922,-6.096469,7.678903,0.022851,0.002689,-0.011549,-0.240234,0.403076,-0.389893
1.828021,-7.462466,6.180129,-0.013814,-0.001096,-0.002453,-0.320312,0.423828,0.01709,-0.035514,8.392745,5.07496,-0.02925,0.003336,0.006394,0.073975,0.395508,0.529785,-1.580598,-7.004507,6.718164,-0.012457,0.006078,0.003417,0.641357,0.145996,-0.207275,2.184344,-7.226442,6.340741,-0.009551,0.003204,0.010901,0.098145,0.32373,-0.585693,0.477709,-6.053255,7.708852,-0.013379,-0.015851,-4.4e-05,-0.242188,0.407959,-0.391113
1.831002,-7.375131,6.199714,0.03078,0.00351,0.000807,-0.320801,0.424561,0.016113,0.000856,8.359146,5.035591,0.00082,0.00785,0.003862,0.084717,0.396973,0.537109,-1.563153,-7.068319,6.709923,-0.005229,0.003125,0.00231,0.641113,0.145264,-0.206055,2.166313,-7.232272,6.335773,0.002287,0.006721,0.007594,0.098877,0.325439,-0.588135,0.473684,-6.138145,7.675919,-0.005439,0.01566,-0.002756,-0.239258,0.412109,-0.39209
1.817244,-7.312055,6.199656,-0.014209,-0.001083,0.000112,-0.324463,0.41748,0.017822,-0.04088,8.418178,5.068411,0.00016,0.00709,0.004081,0.073486,0.392578,0.530762,-1.579769,-7.006471,6.707636,0.012586,0.008184,-0.002963,0.639404,0.135498,-0.20459,2.168143,-7.184939,6.37933,0.002766,-0.002268,0.007431,0.095703,0.316406,-0.586182,0.401906,-6.096364,7.66527,0.020587,-0.005532,-0.005447,-0.240479,0.403564,-0.390869
1.855024,-7.475943,6.184942,-0.013232,0.00228,-0.00215,-0.313965,0.42041,0.010986,0.004729,8.397097,5.078997,-0.02506,0.000393,0.005112,0.078613,0.39209,0.533203,-1.574522,-6.988686,6.727594,-0.013696,0.000145,0.00019,0.648682,0.139893,-0.212646,2.19946,-7.196466,6.359293,-0.017866,-0.000788,0.013298,0.104736,0.318848,-0.589355,0.489656,-6.057427,7.697413,0.000745,-0.014966,-0.003597,-0.233887,0.407227,-0.397949
1.822048,-7.370216,6.202329,0.030587,0.002385,0.000707,-0.320801,0.416748,0.01416,-0.038502,8.369325,5.012888,-0.004738,0.015897,0.005934,0.078857,0.387451,0.533936,-1.556467,-7.063426,6.699324,-0.01241,0.006923,0.002326,0.641846,0.138672,-0.211914,2.184724,-7.23579,6.35466,-0.004821,0.00456,0.008557,0.100586,0.320557,-0.592041,0.458868,-6.12451,7.680534,-0.023298,0.01346,-0.002845,-0.236816,0.40625,-0.394775
1.82276,-7.303885,6.210028,-0.015573,0.000551,0.00085,-0.314453,0.419434,0.013428,-0.038032,8.399433,5.051864,-0.005109,-0.00297,0.003983,0.081299,0.38916,0.534912,-1.578881,-7.036101,6.70899,0.009935,0.000584,-0.002718,0.650391,0.136963,-0.207764,2.158035,-7.185865,6.345688,0.004384,-0.000637,0.007791,0.106201,0.318848,-0.587402,0.416882,-6.143634,7.642727,0.013939,-0.006356,0.000356,-0.23291,0.408936,-0.391846
1.841948,-7.458367,6.189075,-0.015042,-0.000287,-0.002819,-0.324707,0.415283,0.011719,0.018051,8.390383,5.080111,-0.016837,0.00947,0.005271,0.073242,0.38916,0.533203,-1.544013,-6.989246,6.714565,-0.006209,0.00606,-0.001152,0.637939,0.136719,-0.214111,2.169738,-7.201534,6.334513,-0.016896,-0.002187,0.012951,0.09375,0.315186,-0.589111,0.476847,-6.040371,7.670682,0.020444,-0.010769,-0.012406,-0.244873,0.404297,-0.395996
1.850716,-7.385075,6.216182,0.030992,0.00218,0.000158,-0.32251,0.42041,0.013916,-0.059647,8.373106,5.053232,-0.008588,0.006862,0.004451,0.083008,0.394043,0.52417,-1.567919,-7.061843,6.724306,-0.019114,0.007671,0.006727,0.637939,0.140381,-0.209717,2.180967,-7.217566,6.323081,0.000295,0.003719,0.009139,0.096191,0.321777,-0.587402,0.484701,-6.109595,7.669455,-0.033704,0.007652,0.00663,-0.242432,0.407471,-0.395996
1.824915,-7.29395,6.251143,-0.009014,0.001085,5.9e-05,-0.316406,0.412109,0.018799,0.003114,8.396578,5.04407,0.005615,0.003386,0.002532,0.077881,0.39624,0.5271,-1.551389,-7.048751,6.707335,0.017482,0.002292,-0.002968,0.64502,0.132324,-0.206543,2.17613,-7.188898,6.365296,0.003299,0.004627,0.007826,0.101318,0.311279,-0.584717,0.40816,-6.149805,7.638109,0.01762,0.003218,-0.006617,-0.236816,0.397217,-0.391357
1.813954,-7.453641,6.155385,-0.018084,0.000221,-0.001089,-0.317871,0.421387,0.018066,-0.030913,8.405423,5.085961,-0.026282,0.007403,0.007072,0.080322,0.395996,0.532227,-1.565138,-6.966867,6.735512,0.001257,0.008953,0.000366,0.64502,0.143799,-0.205811,2.178947,-7.201529,6.359671,-0.008964,0.003125,0.010751,0.10083,0.323242,-0.586914,0.465609,-6.051178,7.696442,0.015397,-0.015769,-0.008171,-0.237793,0.408447,-0.390625
1.845786,-7.39325,6.216805,0.029361,0.003197,0.000342,-0.31543,0.411621,0.009277,0.009212,8.335494,5.020802,-0.004082,0.003762,0.003674,0.075195,0.392578,0.527588,-1.573477,-7.045618,6.699086,-0.028581,-0.000309,0.003709,0.644775,0.133301,-0.212646,2.179469,-7.23408,6.338259,-0.009133,0.001197,0.011284,0.101807,0.310791,-0.595215,0.481553,-6.080693,7.683544,-0.018366,0.008732,0.004437,-0.233887,0.398682,-0.399902
1.828284,-7.295105,6.22111,-0.009135,-0.000549,0.000412,-0.320068,0.41748,0.009766,-0.051624,8.431917,5.061163,0.00667,0.01132,0.003291,0.080811,0.390869,0.52124,-1.56441,-7.069845,6.724225,0.011091,0.007985,-0.002627,0.64624,0.135498,-0.210693,2.171251,-7.202278,6.349113,0.004878,-0.004955,0.004788,0.099609,0.316895,-0.588623,0.402872,-6.129963,7.669259,-0.0012,0.003021,-0.009416,-0.238037,0.403076,-0.39502
1.852725,-7.452102,6.179167,-0.021395,0.000112,8.4e-05,-0.319336,0.417725,0.019775,-0.006838,8.365511,5.076223,-0.041817,-0.003534,0.007367,0.069824,0.391846,0.524414,-1.568897,-6.991981,6.724377,0.002549,0.001135,-0.000808,0.64502,0.137695,-0.204102,2.208032,-7.183167,6.323524,-0.009377,0.00245,0.012079,0.099365,0.314697,-0.582764,0.480991,-6.102759,7.638716,0.009885,-0.017134,-0.000554,-0.236816,0.402832,-0.389893
1.843514,-7.414317,6.204897,0.028001,0.002564,-0.001683,-0.320557,0.42041,0.01416,-0.00663,8.332601,5.041945,0.006032,0.015612,0.004147,0.074707,0.387939,0.531982,-1.543435,-7.035624,6.705748,-0.019331,0.004705,0.003695,0.641113,0.140381,-0.211182,2.149349,-7.230716,6.349507,-0.012391,0.00603,0.013102,0.097412,0.320801,-0.588135,0.466492,-6.064052,7.700405,0.002679,0.011887,-0.008351,-0.239014,0.404541,-0.396973
1.831457,-7.275005,6.242765,-0.00129,0.001127,0.001193,-0.321533,0.414551,0.011963,-0.055505,8.447881,5.046681,0.002595,0.002077,0.002632,0.075439,0.38623,0.531006,-1.584177,-7.058662,6.725012,0.003045,0.006162,-0.001448,0.640381,0.133545,-0.211182,2.17245,-7.197573,6.33393,0.006706,-0.003891,0.003778,0.097168,0.314453,-0.59375,0.428815,-6.115067,7.658167,-0.012509,-0.004166,0.003468,-0.239502,0.401611,-0.397949
1.849893,-7.439452,6.191472,-0.025809,0.000179,-0.002226,-0.320068,0.418945,0.015625,0.018519,8.408505,5.079356,-0.02791,0.002059,0.005147,0.081543,0.393799,0.531982,-1.547986,-6.99915,6.71948,0.003836,0.003142,-0.001412,0.642334,0.13916,-0.205566,2.1919,-7.205351,6.332711,-0.011519,0.002205,0.011316,0.098145,0.316162,-0.584717,0.45424,-6.096272,7.638137,0.020118,-0.0049,-0.007846,-0.23999,0.404053,-0.391846
1.833708,-7.441773,6.174143,0.02686,0.002676,0.000421,-0.326904,0.417969,0.02002,-0.044286,8.352175,5.054135,-0.005113,0.013756,0.00561,0.083008,0.393311,0.526123,-1.57268,-7.020718,6.734255,-0.012051,0.007371,0.004249,0.636719,0.139893,-0.204346,2.175232,-7.222619,6.33527,0.001783,0.003607,0.00749,0.094238,0.320312,-0.581787,0.465581,-6.084864,7.678488,-0.014189,0.001587,-0.004044,-0.247314,0.405029,-0.388672
1.83423,-7.276304,6.262739,0.006452,-0.001289,0.001577,-0.315918,0.421143,0.015381,-0.014861,8.399817,5.043269,0.003822,-0.00362,0.004003,0.077637,0.396973,0.527344,-1.57761,-7.053224,6.714968,-0.00084,-0.002598,-0.001694,0.646729,0.143066,-0.208008,2.183586,-7.208715,6.366909,-0.004682,0.003612,0.012282,0.102783,0.321045,-0.588135,0.445897,-6.147996,7.632646,0.00494,0.000607,0.003526,-0.234863,0.406738,-0.394287
1.823615,-7.413954,6.169504,-0.029075,0.002209,-0.00186,-0.324951,0.422607,0.023926,-0.009052,8.423537,5.062606,-0.019493,0.01412,0.005284,0.070312,0.395508,0.526855,-1.567451,-6.987443,6.7209,0.008932,0.010324,-0.002739,0.640137,0.143066,-0.201904,2.150356,-7.219401,6.356907,-0.00519,-0.000414,0.007632,0.095215,0.32251,-0.582275,0.433694,-6.036979,7.709669,0.027646,-0.001479,-0.014245,-0.244385,0.407227,-0.384766
1.846525,-7.449021,6.201159,0.018233,-0.001235,0.002,-0.327637,0.417969,0.013184,-0.042934,8.334355,5.068926,-0.019289,0.00157,0.004668,0.075439,0.391357,0.531982,-1.581677,-7.016637,6.728943,-0.024093,0.000289,0.002719,0.636719,0.139404,-0.211182,2.174324,-7.18674,6.340547,-0.006668,-0.006602,0.008157,0.091064,0.320801,-0.588623,0.487159,-6.08311,7.693305,-0.040148,-0.008271,0.006901,-0.245605,0.408936,-0.393066
1.822518,-7.325661,6.219025,0.003026,0.001948,-0.000979,-0.316895,0.411621,0.013184,0.01341,8.39192,5.062905,0.010645,0.008165,0.002862,0.079834,0.393799,0.528564,-1.553025,-7.098945,6.693896,-0.009604,0.002182,0.000412,0.646729,0.133057,-0.20874,2.189618,-7.245158,6.316306,-0.016775,0.004046,0.014678,0.102539,0.313965,-0.588379,0.434505,-6.164794,7.643823,0.005227,0.012699,-0.007407,-0.237549,0.399658,-0.396484
1.84106,-7.412458,6.196659,-0.013684,0.000343,-0.000794,-0.320801,0.425781,0.020264,-0.043427,8.399112,5.070761,-0.025348,0.00678,0.006283,0.070068,0.39209,0.540039,-1.572416,-6.999229,6.707321,0.024585,0.009651,-0.003069,0.64502,0.144287,-0.204346,2.155396,-7.203863,6.320236,0.017438,0.007361,0.001353,0.098877,0.326172,-0.58252,0.428861,-6.081084,7.685972,0.027015,-0.012069,-0.00675,-0.239746,0.410889,-0.387695
1.835512,-7.409925,6.217789,0.014479,0.001702,0.000447,-0.323486,0.416016,0.014648,-0.006222,8.351171,5.040578,-0.005408,0.002232,0.004109,0.077637,0.39624,0.529053,-1.586348,-6.954056,6.729173,-0.013337,0.000593,0.002104,0.640137,0.138916,-0.210205,2.163796,-7.138034,6.365465,-0.010687,-0.001809,0.012075,0.094482,0.317383,-0.587158,0.487432,-6.044304,7.669063,4.5e-05,0.000592,0.000145,-0.241943,0.4021,-0.394043
1.835885,-7.354206,6.194197,-0.005076,-0.000536,-0.000302,-0.312988,0.418457,0.002197,-0.019731,8.412796,5.066645,-0.000543,0.012933,0.004685,0.073975,0.389404,0.528564,-1.556166,-7.079599,6.730991,-0.024265,0.007709,0.004088,0.648682,0.13916,-0.221191,2.191362,-7.242899,6.345725,-0.017804,-0.003955,0.013035,0.103516,0.31958,-0.602539,0.427799,-6.093837,7.690161,-0.026024,0.003273,-0.004169,-0.236328,0.403076,-0.406982
1.837883,-7.42205,6.206258,-0.004612,0.001208,0.000353,-0.318604,0.421143,0.010254,-0.036246,8.382157,5.045011,-0.02289,-0.000877,0.006305,0.078369,0.394531,0.527832,-1.574432,-7.068017,6.732545,0.009577,-6e-06,-0.002179,0.645508,0.14209,-0.215088,2.196522,-7.23707,6.354269,0.008209,0.009693,0.006376,0.103271,0.32373,-0.594727,0.467786,-6.164674,7.637212,0.002933,-0.008884,0.001762,-0.236572,0.408691,-0.398926
1.826862,-7.383254,6.222521,0.012578,0.0021,7.4e-05,-0.322266,0.413818,0.004883,-0.01426,8.366409,5.033734,-0.000131,0.012278,0.004242,0.076904,0.398438,0.527832,-1.541976,-6.992458,6.735638,0.013568,0.005537,-0.004391,0.640625,0.132812,-0.216553,2.152864,-7.181255,6.355871,0.001057,0.005553,0.008463,0.094971,0.309814,-0.598633,0.445572,-6.068296,7.661439,0.033261,0.00545,-0.013579,-0.244141,0.402344,-0.401367
1.839689,-7.345202,6.194892,-0.006365,0.000591,0.00089,-0.319336,0.423096,0.008789,-0.037876,8.394521,5.072042,-0.01178,0.003746,0.005649,0.073975,0.388672,0.522949,-1.58031,-6.976277,6.730914,-0.018263,0.003601,0.002507,0.642578,0.143555,-0.214844,2.171278,-7.179986,6.368059,-0.011064,-0.008583,0.009726,0.095947,0.321533,-0.594482,0.432369,-6.032722,7.666935,-0.013169,-0.004255,0.004052,-0.242676,0.406738,-0.397705
1.838738,-7.423142,6.215887,-0.009431,0.001482,-0.001408,-0.313232,0.421631,0.014893,0.003108,8.393181,5.061783,-0.013877,0.004497,0.003475,0.082031,0.389404,0.532959,-1.534613,-7.061853,6.711501,-0.022869,0.001588,0.000731,0.648682,0.141602,-0.209717,2.195784,-7.249444,6.302536,-0.02085,0.00032,0.013484,0.105469,0.321045,-0.588867,0.477356,-6.119287,7.661687,-0.01705,-0.002922,-0.005263,-0.232178,0.408203,-0.39624
1.828492,-7.384452,6.181781,0.011168,0.001593,0.001622,-0.313477,0.419189,0.016357,-0.05203,8.37813,5.067983,-0.011532,0.009007,0.005459,0.078369,0.400635,0.525635,-1.573325,-7.082056,6.700595,0.013962,0.008724,-0.000393,0.648926,0.141602,-0.205566,2.16726,-7.223863,6.343893,0.014262,0.006318,0.004617,0.105225,0.321533,-0.587158,0.460606,-6.153913,7.685335,-0.002746,0.003811,-0.001723,-0.233398,0.409668,-0.388916
1.833525,-7.364557,6.21383,0.001769,-0.001841,-0.001287,-0.320801,0.418701,0.017578,-0.013896,8.375886,5.032837,-0.002702,-0.000159,0.003938,0.080322,0.398193,0.530762,-1.555964,-6.984667,6.716883,0.009843,-0.000964,-0.002983,0.643066,0.140137,-0.20752,2.166578,-7.151732,6.350985,-0.001879,0.005954,0.009224,0.097412,0.318359,-0.583252,0.450531,-6.108521,7.652504,0.03274,-0.002604,-0.00357,-0.240479,0.404297,-0.388184
1.827094,-7.394355,6.201666,-0.00605,0.00335,0.000636,-0.314697,0.416504,0.014404,-0.029525,8.42136,5.04453,-0.005863,0.013351,0.004509,0.077637,0.393799,0.534424,-1.552373,-6.999889,6.709168,-0.015252,0.011792,0.001745,0.648193,0.135986,-0.211182,2.171552,-7.229329,6.360981,-0.01463,-0.005605,0.011477,0.102539,0.31543,-0.589844,0.440246,-5.996932,7.707908,0.003716,-0.006069,-0.010134,-0.235596,0.403076,-0.39502
1.832329,-7.397081,6.180402,0.002785,-0.001318,-0.000271,-0.322021,0.414551,0.015381,-0.034695,8.373501,5.059374,-0.022861,0.000197,0.005076,0.081299,0.389648,0.530762,-1.592419,-7.074055,6.723073,-0.019006,0.002409,0.003545,0.642334,0.138428,-0.207031,2.189,-7.217268,6.364737,-0.001219,0.000888,0.007389,0.098145,0.317383,-0.583496,0.488923,-6.124843,7.671052,-0.045846,0.000288,0.009993,-0.238525,0.402588,-0.391846
1.847878,-7.361351,6.221575,0.0018,0.002758,-0.001346,-0.322021,0.414307,0.016846,0.010567,8.373933,5.039899,0.002767,0.009017,0.004467,0.070801,0.401611,0.528076,-1.541565,-7.063336,6.71702,0.012368,0.00235,-0.005553,0.642578,0.13623,-0.207275,2.17386,-7.212088,6.338637,-0.006475,0.009022,0.011883,0.098633,0.316162,-0.584961,0.421485,-6.167019,7.662125,0.031317,0.006252,-0.010953,-0.241455,0.405273,-0.393799
1.829841,-7.384719,6.192247,-0.003849,-0.001345,6.3e-05,-0.318848,0.420654,0.014404,-0.061279,8.413119,5.067019,-0.013397,0.007425,0.006221,0.083496,0.393799,0.528076,-1.582341,-6.972178,6.734895,0.004014,0.008423,-0.002608,0.641113,0.141602,-0.211182,2.161484,-7.189394,6.349352,0.003964,-0.000462,0.006,0.0979,0.320068,-0.587402,0.456089,-6.035857,7.689771,0.012587,-0.017102,-0.004208,-0.242676,0.408203,-0.394287
1.838522,-7.400444,6.219287,0.005944,0.002073,0.00041,-0.319092,0.422119,0.013916,0.005005,8.361108,5.017374,-0.016305,0.001665,0.003498,0.074707,0.386963,0.526855,-1.552578,-7.03093,6.708759,-0.025478,-0.000544,0.005066,0.642334,0.141113,-0.209717,2.164761,-7.202931,6.342503,-0.020062,-0.0012,0.015081,0.099121,0.322021,-0.588379,0.479724,-6.08372,7.646806,-0.011706,0.011351,0.001593,-0.23999,0.408691,-0.394531
1.831375,-7.363438,6.204618,-0.001928,0.003046,-0.001636,-0.317627,0.425293,0.013672,-0.034493,8.382873,5.058662,-0.002116,0.013836,0.004482,0.077148,0.397217,0.52417,-1.56563,-7.074096,6.718447,0.005169,0.010911,-0.002803,0.64502,0.145752,-0.210449,2.182567,-7.241825,6.333552,0.005277,-0.002498,0.004876,0.101074,0.322266,-0.5896,0.405674,-6.098889,7.67259,-0.005835,0.001222,-0.008167,-0.237061,0.4104,-0.394043
1.832164,-7.408608,6.209166,-0.007686,-0.002881,0.00214,-0.320557,0.411377,0.011963,-0.035289,8.389241,5.071838,-0.011937,-0.002019,0.004882,0.072998,0.387207,0.52832,-1.588113,-7.009697,6.734969,0.004712,-0.001347,0.001773,0.642334,0.13208,-0.210693,2.182774,-7.172028,6.361607,0.000299,0.005498,0.010568,0.09668,0.312012,-0.589844,0.480045,-6.143621,7.648812,-0.001047,-0.017724,0.003227,-0.23999,0.400146,-0.394287
1.859304,-7.389048,6.187159,0.011803,0.004845,-0.001649,-0.320068,0.418945,0.015137,0.009878,8.38977,5.052234,-0.006549,0.011386,0.003667,0.073975,0.389648,0.525146,-1.522719,-7.020597,6.71588,-0.011192,0.003305,3.8e-05,0.643799,0.139404,-0.208008,2.158222,-7.248124,6.341393,-0.017951,0.004218,0.014986,0.100586,0.318848,-0.588135,0.448739,-6.091716,7.693047,0.023154,0.013091,-0.012823,-0.239502,0.403076,-0.395264
1.794932,-7.344567,6.203105,0.000685,0.000221,0.00202,-0.322021,0.415771,0.016357,-0.064928,8.374696,5.048379,-0.016962,0.006056,0.006639,0.072998,0.393066,0.527344,-1.589514,-7.021144,6.713825,0.000849,0.010385,0.001585,0.641113,0.138184,-0.207275,2.175549,-7.19537,6.367291,0.014785,0.001306,0.002186,0.096191,0.315674,-0.587891,0.443345,-6.072417,7.67997,-0.021153,-0.00963,0.003027,-0.239502,0.402344,-0.393066
1.832556,-7.397532,6.190981,-0.010389,0.002909,-0.001221,-0.32373,0.418213,0.017334,0.006448,8.392794,5.044645,-0.001465,0.001734,0.002176,0.075684,0.393311,0.535156,-1.561192,-7.008881,6.731314,-0.007785,-0.002639,-0.002104,0.637939,0.137695,-0.20752,2.16456,-7.182686,6.363421,-0.022794,0.000452,0.015886,0.09375,0.317627,-0.585449,0.458791,-6.110794,7.640381,0.013115,0.003219,-0.004941,-0.242188,0.405029,-0.390381
1.823832,-7.415283,6.190221,0.004675,-0.001525,-0.001911,-0.319824,0.413086,0.016113,-0.038099,8.389861,5.068215,-0.018116,0.011475,0.008899,0.070312,0.399902,0.532959,-1.567256,-7.027904,6.709696,-0.005887,0.008535,0.001457,0.642822,0.133057,-0.206787,2.168947,-7.257462,6.329056,-0.001155,-0.002296,0.007122,0.098633,0.313477,-0.587891,0.433515,-6.075228,7.709834,-0.006566,-0.006585,-0.006935,-0.242432,0.401123,-0.394531
1.849666,-7.362569,6.241949,0.007008,0.004737,0.000617,-0.317627,0.420654,0.017578,-0.013988,8.359521,5.033707,-0.006851,-0.000118,0.002135,0.079102,0.388916,0.529053,-1.573762,-7.026482,6.727066,-0.004837,-0.003084,-0.00166,0.645264,0.13916,-0.207031,2.176428,-7.179216,6.344257,0.001554,0.007524,0.006594,0.102539,0.319092,-0.585693,0.483497,-6.147008,7.657956,-0.008068,-0.003087,0.005199,-0.237305,0.403809,-0.392334
1.805118,-7.383346,6.187123,-0.012053,-0.000674,-0.00098,-0.325928,0.421875,0.014404,-0.014346,8.403781,5.063818,-0.000894,0.011984,0.00543,0.073242,0.396729,0.528076,-1.548997,-7.029539,6.693799,0.000798,0.009681,0.000216,0.635498,0.142334,-0.210449,2.140977,-7.210412,6.341106,-0.014055,-0.003879,0.012741,0.091797,0.318359,-0.58667,0.424488,-6.090712,7.656329,0.017161,0.008427,-0.014853,-0.243896,0.410889,-0.392822
1.842475,-7.403126,6.19846,0.005823,0.00044,0.000765,-0.320801,0.420654,0.01416,-0.041683,8.384778,5.082889,-0.024035,0.000452,0.004386,0.075439,0.397461,0.530273,-1.576301,-7.023932,6.704237,-0.007245,0.00309,-0.001373,0.639648,0.141846,-0.206299,2.188193,-7.216924,6.326309,0.006313,-0.000798,0.005393,0.096436,0.319336,-0.585205,0.466725,-6.083517,7.654932,-0.003352,-0.014226,0.005236,-0.241699,0.408203,-0.392578
1.8262,-7.361605,6.235967,0.005481,0.00033,-0.000246,-0.314697,0.415527,0.015381,0.002276,8.362214,5.036745,0.006228,0.010853,0.005017,0.073975,0.393555,0.533203,-1.561206,-7.050248,6.711267,-0.006514,0.003987,0.002496,0.648926,0.136719,-0.207764,2.173075,-7.205497,6.357658,-0.013171,0.007564,0.01152,0.104736,0.315674,-0.588379,0.464678,-6.088582,7.706836,-0.000957,0.005664,-0.010025,-0.235107,0.403076,-0.391357
1.835509,-7.377178,6.213007,-0.006319,0.002732,8e-05,-0.318359,0.420898,0.012207,-0.046195,8.417738,5.055504,-0.01167,0.004427,0.005761,0.076904,0.38623,0.525391,-1.577038,-7.028532,6.724157,0.006329,0.008341,-0.000826,0.64209,0.139404,-0.20874,2.16679,-7.205859,6.370809,0.009942,0.001131,0.005926,0.098877,0.317871,-0.589355,0.43987,-6.124377,7.674081,-0.008991,-0.000495,0.002633,-0.240234,0.407471,-0.394531
1.845006,-7.404511,6.218422,0.002575,1.4e-05,0.000379,-0.320801,0.412598,0.015869,0.013516,8.371562,5.058698,-0.019316,0.001541,0.004639,0.081787,0.398193,0.529297,-1.567439,-6.999412,6.723744,-0.006084,0.00052,0.000597,0.643555,0.132324,-0.20752,2.194115,-7.175002,6.364006,-0.014983,0.001325,0.013385,0.0979,0.308105,-0.591553,0.4632,-6.114105,7.649537,0.016465,-0.002447,-0.006166,-0.239746,0.400635,-0.391357
1.816227,-7.366981,6.207876,0.008715,0.003214,0.00089,-0.317871,0.422119,0.012939,-0.049183,8.368366,5.040147,-0.000747,0.013874,0.006623,0.082764,0.396484,0.532959,-1.568787,-7.026865,6.735499,-0.011976,0.009053,0.002051,0.644043,0.140625,-0.213135,2.178435,-7.253995,6.338242,-0.008867,-0.000745,0.011069,0.098877,0.321045,-0.589355,0.444303,-6.051284,7.689852,0.003246,-0.002429,-0.006751,-0.238525,0.40625,-0.396484
1.842106,-7.358387,6.204451,-0.009673,-0.001786,-0.000702,-0.316406,0.415283,0.021973,-0.01615,8.402631,5.063196,-0.008347,-0.003432,0.003654,0.073486,0.399658,0.529053,-1.579288,-7.040955,6.701752,0.001504,0.000348,-0.002777,0.643311,0.136719,-0.205322,2.175496,-7.192183,6.343298,0.007979,0.00282,0.004633,0.101074,0.314697,-0.580811,0.453134,-6.124626,7.653635,-0.017368,-0.00195,0.003801,-0.237793,0.401855,-0.388184
1.852692,-7.41904,6.186007,-7.4e-05,0.000508,-0.000455,-0.316895,0.409668,0.013428,-0.00172,8.376612,5.057746,-0.017214,0.012329,0.005575,0.071289,0.387451,0.531982,-1.539962,-7.009268,6.700212,-0.002828,0.004876,-0.000561,0.648682,0.130371,-0.209229,2.169597,-7.191261,6.333946,-0.01744,-0.000767,0.012549,0.102295,0.306396,-0.588867,0.447243,-6.102208,7.674781,0.009978,4.3e-05,-0.01153,-0.236328,0.397217,-0.394287
1.820371,-7.380198,6.205711,0.007909,0.001359,-0.000776,-0.316162,0.411621,0.018066,-0.035847,8.361681,5.041287,-0.009895,0.002527,0.004085,0.076904,0.399414,0.529785,-1.588081,-7.026398,6.716302,-0.011449,0.006991,0.002892,0.647461,0.128662,-0.210205,2.174356,-7.225914,6.320815,-0.001325,0.002059,0.00879,0.102539,0.30957,-0.588135,0.476192,-6.107379,7.698055,-0.007464,-0.004951,0.002254,-0.235596,0.396729,-0.391602
1.840841,-7.368175,6.22442,0.003175,0.000934,-6.9e-05,-0.325928,0.418945,0.017578,-0.014795,8.406182,5.048574,0.005375,0.007102,0.005269,0.078857,0.395264,0.534668,-1.555378,-7.038974,6.707345,0.003686,0.000744,-0.000597,0.635498,0.138916,-0.20752,2.169603,-7.196116,6.340856,-0.000799,0.005156,0.008909,0.092773,0.317871,-0.586182,0.442433,-6.085991,7.649399,0.01854,0.007333,-0.0056,-0.246826,0.406494,-0.391357
1.825615,-7.38235,6.185141,-0.010289,-0.000248,0.000497,-0.32666,0.415771,0.010986,-0.039875,8.403351,5.081914,-0.025672,0.008081,0.006825,0.070068,0.391113,0.53418,-1.566451,-6.995339,6.719723,0.003662,0.010562,-1.8e-05,0.638428,0.135742,-0.210938,2.191748,-7.196646,6.362358,-0.0033,-0.000734,0.007777,0.090332,0.315186,-0.593262,0.438507,-6.04897,7.68963,-0.006946,-0.010562,-0.006019,-0.246094,0.40332,-0.39624
1.863223,-7.413257,6.225594,0.00872,0.000947,-0.001873,-0.317383,0.421387,0.01001,-0.02552,8.346557,5.038954,-0.00766,0.002365,0.004095,0.071777,0.395996,0.528809,-1.566192,-7.046047,6.714658,-0.01691,-0.00064,0.002263,0.643799,0.143555,-0.216797,2.182224,-7.205333,6.35194,-0.010209,0.003779,0.013041,0.099365,0.319824,-0.596436,0.514044,-6.135662,7.677549,-0.015862,0.00058,0.003222,-0.240234,0.408203,-0.398193
1.822294,-7.336335,6.221138,0.004766,0.005025,-0.000766,-0.325195,0.422607,0.023193,-0.035181,8.424327,5.047167,0.008634,0.012472,0.00395,0.073242,0.397461,0.532471,-1.548432,-7.063523,6.731754,0.002193,0.00833,-0.000385,0.638184,0.143066,-0.199219,2.16942,-7.223193,6.340813,-0.003195,-0.000116,0.007801,0.094482,0.320557,-0.579346,0.420528,-6.100878,7.682265,0.015638,0.008015,-0.00998,-0.244141,0.40918,-0.384521
1.839525,-7.400266,6.19157,-0.012506,-0.00261,0.000377,-0.322021,0.420166,0.015137,-0.014049,8.393961,5.077563,-0.035799,-0.002565,0.007331,0.077637,0.389648,0.523438,-1.577778,-7.004018,6.725245,0.000502,0.000116,-0.000925,0.640869,0.141602,-0.20874,2.189126,-7.189665,6.338763,-0.000635,0.000794,0.007242,0.097656,0.32251,-0.590332,0.467468,-6.075532,7.646761,0.005175,-0.013109,0.00021,-0.240967,0.408691,-0.393066
1.819498,-7.401278,6.204566,0.011279,0.00342,-0.000744,-0.311279,0.417725,0.025879,0.005376,8.32406,5.035141,-0.000769,0.012668,0.005571,0.077393,0.389404,0.53418,-1.547266,-7.02588,6.705887,-0.012019,0.003439,0.000383,0.64917,0.13623,-0.199219,2.153228,-7.221005,6.335376,-0.014185,0.004283,0.014704,0.105957,0.315186,-0.579346,0.460672,-6.060674,7.664169,-0.002202,0.006679,-0.008573,-0.232178,0.404785,-0.384277
1.845053,-7.336847,6.227865,0.003054,-0.000699,0.000285,-0.318848,0.422363,0.017578,-0.054492,8.427784,5.055171,0.006801,0.004281,0.004312,0.070557,0.393311,0.529297,-1.582005,-7.040991,6.726166,-0.000911,0.006374,-3.2e-05,0.645508,0.142334,-0.203369,2.165954,-7.206482,6.331338,0.004093,-0.002354,0.00518,0.098877,0.319824,-0.585938,0.427653,-6.132345,7.677964,-0.019469,-0.005197,0.002294,-0.239258,0.409424,-0.390625
1.837694,-7.399119,6.182302,-0.014118,0.003196,-0.001515,-0.317139,0.413818,0.003906,0.023398,8.389429,5.078877,-0.028151,0.00287,0.004696,0.080078,0.394531,0.53125,-1.53864,-7.024068,6.717504,-0.001449,0.000647,-0.000768,0.644287,0.135254,-0.218994,2.195649,-7.19843,6.340054,-0.010725,0.003371,0.011223,0.099609,0.314209,-0.598389,0.480471,-6.12822,7.653951,0.01762,-0.004186,-0.007173,-0.239014,0.399414,-0.40332
1.83032,-7.417233,6.191894,0.016398,-0.00115,7.5e-05,-0.322021,0.424805,0.018066,-0.043176,8.339126,5.041286,-0.010323,0.010966,0.005999,0.07959,0.39209,0.528564,-1.571496,-7.036048,6.707838,-0.002346,0.009752,0.001259,0.639404,0.143799,-0.204346,2.162623,-7.222235,6.359464,-0.00245,0.007815,0.010814,0.095703,0.323242,-0.585205,0.441714,-6.061496,7.693771,0.00632,0.005039,-0.004808,-0.240234,0.409912,-0.390625
1.833834,-7.319279,6.242552,0.00553,0.002472,-0.001055,-0.315186,0.416748,0.02002,-0.003128,8.398673,5.048662,0.015123,0.000121,0.00377,0.071533,0.398438,0.527344,-1.579979,-7.020214,6.723823,0.001315,-0.000169,0.001171,0.647705,0.137207,-0.203613,2.1651,-7.183464,6.367282,0.002438,0.000309,0.007082,0.104004,0.316162,-0.58374,0.445811,-6.101311,7.66336,-0.002415,-0.004817,0.002512,-0.235107,0.403809,-0.384766
1.828819,-7.415877,6.182781,-0.023239,0.000186,-0.001857,-0.315186,0.429199,0.013916,-0.014641,8.438341,5.072657,-0.024309,0.010676,0.005183,0.078125,0.394043,0.527832,-1.54554,-7.010267,6.72303,-0.008181,0.006583,-0.001016,0.645752,0.146729,-0.208252,2.198528,-7.217794,6.363014,-0.015899,-0.004043,0.010623,0.102539,0.329102,-0.590332,0.459886,-6.082263,7.685435,-0.003548,-0.003636,-0.01239,-0.237061,0.412842,-0.394043
1.834743,-7.408668,6.191882,0.015829,0.00253,0.000464,-0.32251,0.422119,0.005371,-0.016915,8.315592,5.045366,-0.027123,0.001887,0.005244,0.074219,0.394287,0.528809,-1.566676,-7.044301,6.707831,-0.013946,0.001791,0.002304,0.639404,0.13916,-0.21582,2.177659,-7.231537,6.33437,-0.000765,0.004458,0.009489,0.095459,0.320557,-0.594971,0.484327,-6.123376,7.667391,-0.013607,-0.001851,0.004628,-0.240967,0.40918,-0.399902
1.838878,-7.321754,6.221671,0.008253,0.001472,0.000235,-0.321045,0.417236,0.018799,-0.00437,8.386069,5.019832,0.024449,0.011954,0.001897,0.081787,0.384521,0.529297,-1.563119,-7.049624,6.719324,0.005893,0.004166,-0.001266,0.642822,0.133789,-0.205322,2.164391,-7.197619,6.3372,-0.003357,0.004239,0.009473,0.09668,0.315674,-0.584961,0.437377,-6.109177,7.657441,0.024347,0.007086,-0.009194,-0.23999,0.402344,-0.388672
1.83619,-7.386857,6.204899,-0.019242,0.000516,-0.00101,-0.322266,0.416504,0.01416,-0.044176,8.453259,5.089057,-0.027892,0.001612,0.0064,0.067139,0.39624,0.524414,-1.576487,-6.989053,6.707955,-9.5e-05,0.006235,-0.000392,0.641602,0.13501,-0.210449,2.174132,-7.192097,6.332594,-0.004767,-0.003121,0.008584,0.099854,0.31543,-0.5896,0.449306,-6.046427,7.669133,0.002832,-0.012317,-0.002224,-0.240723,0.404053,-0.394043
1.852579,-7.439679,6.196363,0.010485,0.001375,-0.000395,-0.320801,0.416992,0.012207,0.012116,8.315088,5.043742,-0.021965,0.003514,0.006126,0.078369,0.391357,0.532959,-1.553011,-7.035162,6.719794,-0.018401,0.002033,0.002168,0.644287,0.135986,-0.209229,2.185427,-7.207869,6.321448,-0.008057,0.004899,0.01069,0.097168,0.318848,-0.590332,0.508328,-6.111907,7.665584,-0.020463,0.003786,-0.000615,-0.242676,0.4021,-0.394043
1.823882,-7.32497,6.214102,0.010949,0.00312,0.000259,-0.318115,0.418457,0.007568,-0.053152,8.39372,5.046968,0.01782,0.012045,0.003198,0.077393,0.392578,0.527344,-1.577462,-7.067324,6.714465,0.004692,0.008616,-9.1e-05,0.642822,0.136475,-0.214111,2.171929,-7.217307,6.346759,0.002199,0.001553,0.007882,0.100098,0.317871,-0.595215,0.432059,-6.14456,7.682296,0.001184,0.003719,-0.005354,-0.237061,0.404541,-0.398438
1.837084,-7.408981,6.213171,-0.017326,-0.00234,-0.001386,-0.323486,0.414551,0.016357,-0.009851,8.439521,5.088194,-0.024049,-0.00223,0.005825,0.071289,0.393311,0.531006,-1.577966,-6.994393,6.726986,0.005324,0.000469,-0.001313,0.640381,0.135986,-0.208252,2.175528,-7.190247,6.361984,-0.006264,0.003961,0.010809,0.095215,0.314941,-0.587402,0.45265,-6.100591,7.641655,0.023889,-0.00962,-0.002538,-0.243896,0.402588,-0.392334
1.825473,-7.403215,6.195222,0.010875,0.003628,-0.000195,-0.321045,0.424561,0.012695,-0.021046,8.350486,5.038825,-0.018777,0.014403,0.006431,0.077148,0.398193,0.531494,-1.555637,-7.025969,6.737743,-0.01196,0.007016,0.001346,0.640137,0.147217,-0.21167,2.15094,-7.212978,6.332901,-0.008077,0.00041,0.010966,0.098877,0.325684,-0.591309,0.47516,-6.022574,7.706497,0.005107,0.002727,-0.010468,-0.239502,0.412354,-0.394531
1.820869,-7.334358,6.223886,0.004134,-0.000493,-0.000257,-0.325684,0.417725,0.022217,-0.054534,8.374115,5.038386,0.007377,0.00157,0.003185,0.077637,0.393555,0.530518,-1.581099,-7.05539,6.710066,-0.011262,0.002449,0.001097,0.640137,0.137207,-0.203125,2.189037,-7.207804,6.336646,-0.001412,-0.002858,0.006498,0.093994,0.317139,-0.582764,0.460672,-6.119984,7.654488,-0.038995,-0.003566,0.004992,-0.244629,0.403809,-0.386475
1.833841,-7.407092,6.194034,-0.013566,0.001972,-0.001156,-0.315918,0.414551,0.016602,0.025094,8.418675,5.075455,-0.012204,0.004241,0.003803,0.076416,0.393555,0.52832,-1.556466,-7.038471,6.715527,0.005197,0.001097,-0.003365,0.646729,0.136475,-0.208252,2.186505,-7.199771,6.349507,-0.011069,0.004003,0.012001,0.101562,0.312988,-0.585205,0.465151,-6.157389,7.635776,0.024003,0.003261,-0.008878,-0.237793,0.398193,-0.393066
1.818037,-7.399618,6.206974,0.009674,0.001789,0.000703,-0.325928,0.418213,0.016846,-0.0465,8.359883,5.066753,-0.025502,0.011025,0.006792,0.069824,0.395264,0.534668,-1.564458,-6.996169,6.718586,0.000384,0.01111,0.001431,0.635498,0.137695,-0.207275,2.156513,-7.20058,6.340404,0.003416,0.001585,0.005032,0.09375,0.318115,-0.584473,0.441978,-6.056812,7.695083,0.014284,-0.005951,-0.006488,-0.245361,0.404297,-0.390381
1.846151,-7.347196,6.218831,0.005888,0.000125,-0.000793,-0.320312,0.416992,0.008545,-0.00927,8.364874,5.043752,0.0098,0.000542,0.003582,0.072754,0.393555,0.529297,-1.568699,-7.032463,6.720167,-0.017894,-0.002908,0.003399,0.641113,0.137451,-0.215576,2.178399,-7.19812,6.317813,-0.013169,-0.000296,0.014082,0.096436,0.318359,-0.597168,0.468553,-6.087391,7.661182,-0.012272,-0.001236,0.004208,-0.241211,0.402588,-0.39917
1.832685,-7.37347,6.218239,-0.009042,0.003731,-0.001213,-0.324951,0.420166,0.012451,-0.00024,8.450029,5.073544,-0.005578,0.011939,0.003993,0.070557,0.399658,0.532471,-1.572429,-7.04201,6.709075,0.009954,0.013292,-0.002478,0.637451,0.13916,-0.210205,2.171064,-7.228972,6.32339,0.005072,0.000716,0.004552,0.091797,0.317627,-0.589844,0.43639,-6.09636,7.684967,7.1e-05,0.003492,-0.009243,-0.244385,0.408203,-0.396484
1.827288,-7.414869,6.184442,-0.000796,-0.002046,0.000349,-0.328613,0.424316,0.020508,-0.04582,8.356336,5.072607,-0.039167,0.00011,0.006453,0.079346,0.394775,0.540527,-1.585902,-6.990986,6.771379,-0.004957,0.000125,0.000788,0.632324,0.144287,-0.200684,2.199059,-7.150487,6.37382,-0.005254,0.004555,0.009335,0.0896,0.32373,-0.578369,0.473958,-6.121326,7.655014,-0.010917,-0.008058,0.003248,-0.251465,0.411377,-0.386475
1.858945,-7.376166,6.243681,0.011198,0.004121,-0.003213,-0.323486,0.416992,0.012939,0.012827,8.361465,5.027172,0.023019,0.007063,0.003702,0.079102,0.39209,0.526611,-1.535834,-7.070097,6.69212,-0.017276,0.001637,0.002358,0.638184,0.136963,-0.210693,2.156589,-7.261617,6.340761,-0.021704,0.002603,0.018984,0.095459,0.317871,-0.589844,0.449099,-6.092576,7.677553,0.033107,0.004644,-0.012563,-0.241943,0.400879,-0.396729
1.81346,-7.351367,6.184845,-0.000754,0.002364,0.002301,-0.319092,0.415283,0.023193,-0.074752,8.447821,5.063635,-0.016653,0.009585,0.004443,0.075928,0.392822,0.533203,-1.586588,-7.022894,6.710953,0.017548,0.012977,-0.003375,0.640869,0.134766,-0.20166,2.174018,-7.195218,6.337963,0.027252,-0.004171,-0.003244,0.099609,0.312744,-0.577881,0.457355,-6.048865,7.700631,-0.024663,-0.008935,-0.001348,-0.239502,0.400391,-0.386963
1.865059,-7.401425,6.230242,-0.01117,-0.001599,-0.001626,-0.321777,0.419678,0.015137,0.029116,8.343189,5.058368,-0.027287,-0.006529,0.005899,0.074463,0.386963,0.527832,-1.563759,-6.981818,6.734255,-0.01682,-0.006731,0.000166,0.643555,0.137207,-0.208252,2.181054,-7.149309,6.367859,-0.030099,0.002737,0.018515,0.098877,0.317627,-0.586914,0.471235,-6.154729,7.637547,0.001575,0.005383,0.003263,-0.238525,0.407227,-0.39209
1.810774,-7.416683,6.167826,0.008828,0.005042,-0.001478,-0.318848,0.419189,0.018311,-0.028596,8.379417,5.048504,0.010179,0.020793,0.003168,0.072754,0.395996,0.531006,-1.564512,-7.066289,6.700304,-0.01184,0.014169,0.003286,0.644043,0.140137,-0.203125,2.168523,-7.280369,6.314524,-0.004905,-0.001257,0.009408,0.0979,0.31958,-0.58252,0.422012,-6.084109,7.710452,0.003043,-0.002936,-0.017605,-0.23877,0.40625,-0.390381
1.855793,-7.329596,6.230286,0.010205,-0.004222,0.003141,-0.324219,0.415283,0.017334,-0.038162,8.405086,5.048501,-0.013753,-0.00796,0.005032,0.076172,0.401855,0.533203,-1.590555,-7.038096,6.71886,0.006631,-0.002427,-0.002194,0.63623,0.135986,-0.204834,2.193692,-7.167319,6.34233,0.011651,0.009185,0.004909,0.093018,0.314453,-0.584961,0.49637,-6.132209,7.652014,-0.005456,-0.0049,0.014342,-0.246094,0.399902,-0.39209
1.812937,-7.384826,6.211285,-0.018068,0.005002,-0.003177,-0.321289,0.417969,0.019043,0.038754,8.395144,5.054928,-0.010092,0.015003,0.004785,0.075439,0.395996,0.529297,-1.525346,-7.001641,6.72665,0.002421,0.0094,-0.000496,0.642822,0.138916,-0.205078,2.131179,-7.22217,6.368333,-0.020144,0.002015,0.015357,0.097656,0.316895,-0.581299,0.402831,-6.037573,7.676692,0.032173,0.010903,-0.022444,-0.241211,0.402588,-0.391113
1.849688,-7.414412,6.19245,0.016621,-0.00267,0.001445,-0.320068,0.417725,0.011475,-0.073541,8.358902,5.027839,-0.014165,0.004317,0.006569,0.08252,0.392578,0.5271,-1.604371,-7.007349,6.741974,-0.008784,0.00764,0.001671,0.643311,0.13916,-0.213867,2.203233,-7.185338,6.353164,0.016728,-0.005861,-0.000785,0.098633,0.317627,-0.592041,0.477455,-6.077692,7.66611,-0.038111,-0.020579,0.009758,-0.240967,0.407715,-0.39624
1.82259,-7.334386,6.245652,-0.001658,0.003665,-0.001085,-0.318359,0.412598,0.016602,0.048993,8.419048,5.067732,0.007115,0.002819,0.001482,0.078125,0.393799,0.53125,-1.549411,-7.048926,6.721527,-0.01731,-0.003972,0.000684,0.645996,0.12915,-0.204102,2.194707,-7.205338,6.350426,-0.030568,0.007038,0.021542,0.10083,0.310059,-0.582764,0.471296,-6.176572,7.636686,0.00924,0.016515,-0.006322,-0.238281,0.397705,-0.389404
1.844519,-7.433002,6.162052,-0.009627,0.000351,-0.001514,-0.322754,0.417969,0.019287,-0.057715,8.407342,5.058536,-0.029535,0.013042,0.008452,0.073242,0.39209,0.534668,-1.571237,-7.041898,6.692208,0.012673,0.011775,-0.001895,0.641357,0.135498,-0.20459,2.156268,-7.26719,6.339411,0.008467,0.002073,0.004469,0.097412,0.316895,-0.586182,0.426826,-6.073557,7.716321,0.019889,-0.008253,-0.009326,-0.244141,0.403809,-0.390381
1.814653,-7.374568,6.252849,0.018482,0.002042,0.001301,-0.310303,0.411865,0.010254,-0.028177,8.349405,5.033594,-0.002564,-0.002246,0.003235,0.081787,0.392822,0.530518,-1.580904,-6.965317,6.732752,0.001224,-0.00157,-0.001569,0.651123,0.132812,-0.212402,2.155151,-7.111667,6.358406,0.005902,0.001169,0.005027,0.10791,0.311768,-0.592529,0.49884,-6.079692,7.667988,-0.005767,-0.005833,0.005276,-0.229248,0.399902,-0.399414
1.858606,-7.352438,6.198372,-0.017222,0.001749,-0.000996,-0.319824,0.417725,0.013428,0.000282,8.434382,5.073622,0.005753,0.015682,0.003811,0.077881,0.408691,0.533447,-1.559307,-7.040879,6.695102,-0.02553,0.007362,0.0024,0.642822,0.135742,-0.210693,2.187285,-7.239826,6.34041,-0.033801,-0.008142,0.018521,0.096191,0.31665,-0.587891,0.438116,-6.08343,7.690547,-0.006172,0.009065,-0.014473,-0.242188,0.402832,-0.393799
1.847114,-7.446795,6.20961,0.001617,0.001443,0.000567,-0.322266,0.419922,0.014404,-0.044216,8.386324,5.06828,-0.036352,-0.001579,0.006368,0.075439,0.397461,0.520996,-1.590203,-7.071469,6.707262,0.003115,0.004683,0.001716,0.639648,0.140381,-0.206543,2.20538,-7.237433,6.330541,0.019766,0.005588,0.001335,0.0979,0.319824,-0.586182,0.466612,-6.160821,7.654708,-0.014215,-0.014263,0.009174,-0.242188,0.407959,-0.393799
1.843129,-7.334126,6.242793,0.017872,0.001313,-0.000263,-0.324707,0.417725,0.013428,0.012651,8.360538,5.018034,0.008145,0.009625,0.003533,0.082275,0.390625,0.531494,-1.567455,-6.992964,6.738058,0.014455,0.00339,-0.005365,0.638672,0.139648,-0.209961,2.145025,-7.166141,6.356141,-0.007067,0.014058,0.013775,0.096436,0.319092,-0.588379,0.454833,-6.112411,7.677976,0.035839,0.012862,-0.016142,-0.241699,0.407227,-0.394287
1.81606,-7.363272,6.184707,-0.018092,0.00021,-0.001103,-0.324707,0.418457,0.020996,-0.061078,8.414982,5.067202,-0.004905,0.00351,0.007132,0.068848,0.390869,0.532715,-1.57203,-6.998267,6.706169,-0.013937,0.007388,0.003939,0.63916,0.136475,-0.203125,2.154643,-7.223814,6.345563,-0.009593,-0.008255,0.010617,0.095459,0.317871,-0.580811,0.422205,-6.014861,7.70131,-0.004756,-0.01071,0.00162,-0.245117,0.405518,-0.386719
1.86438,-7.432998,6.20904,0.008058,0.000347,0.000137,-0.323486,0.416992,0.015869,0.034361,8.381974,5.056976,-0.020244,0.004358,0.005237,0.080078,0.390137,0.518311,-1.55738,-7.061796,6.705931,-0.013821,0.001456,-0.000587,0.639648,0.13916,-0.208496,2.209645,-7.224256,6.339556,-0.003448,-0.000674,0.007181,0.092773,0.315674,-0.584717,0.50494,-6.128939,7.654073,-0.021545,-0.003454,-0.004292,-0.243408,0.404541,-0.394287
1.811661,-7.349908,6.187105,0.006289,0.002188,0.001421,-0.317139,0.413574,0.009521,-0.060904,8.374302,5.054803,-0.008155,0.012331,0.005778,0.076416,0.390625,0.525635,-1.578529,-7.0586,6.69774,0.005552,0.009177,0.000933,0.646729,0.130615,-0.215576,2.175696,-7.224379,6.343839,-0.001853,0.005915,0.009256,0.10376,0.310547,-0.593262,0.441373,-6.142704,7.692964,-0.003542,0.009522,-0.001634,-0.236328,0.397705,-0.401367
1.837215,-7.396664,6.207729,-0.012666,-0.00141,-0.00255,-0.322266,0.414062,0.016113,-0.021924,8.387795,5.067289,-0.005852,-0.00496,0.003057,0.070312,0.396729,0.531738,-1.582339,-7.011106,6.732567,-0.001512,-0.00293,-0.001746,0.639893,0.13501,-0.206055,2.169827,-7.181867,6.334077,-0.005701,0.004561,0.010092,0.095459,0.313477,-0.587158,0.428124,-6.115052,7.650724,0.028366,-0.00835,-0.001418,-0.245117,0.401123,-0.394287
1.825685,-7.390131,6.190675,0.01554,0.004566,-0.001354,-0.325928,0.425049,0.01123,-0.010683,8.405479,5.066845,-0.011028,0.016753,0.006652,0.07251,0.39624,0.527832,-1.547326,-7.01155,6.712172,-0.009369,0.008997,-0.00055,0.637207,0.14502,-0.212402,2.162718,-7.223006,6.324826,-0.011698,-0.002194,0.011004,0.097168,0.322998,-0.590576,0.477834,-6.001202,7.704157,0.005281,-0.003696,-0.012644,-0.247314,0.409668,-0.396729
1.839353,-7.352937,6.222884,-0.003964,-0.003172,0.002433,-0.321777,0.415771,0.01123,-0.041986,8.362049,5.035537,-0.01925,-0.001651,0.005103,0.077881,0.395508,0.537842,-1.586779,-7.058828,6.713047,-0.012952,0.004743,0.002482,0.641357,0.137695,-0.212402,2.196019,-7.2062,6.334197,0.003952,-0.000518,0.006007,0.093994,0.31665,-0.591553,0.475059,-6.141495,7.665103,-0.045148,0.001152,0.010936,-0.242188,0.40332,-0.396484
1.834972,-7.417031,6.196694,-0.004971,0.003555,8.7e-05,-0.325439,0.419922,0.01416,0.020449,8.391528,5.040473,0.006505,0.008263,0.003456,0.075684,0.395264,0.522949,-1.543668,-7.031825,6.724104,0.0114,0.002137,-0.003642,0.63501,0.142334,-0.207764,2.169483,-7.199288,6.34791,-0.007778,0.00475,0.0119,0.091309,0.320312,-0.585693,0.424022,-6.151194,7.653061,0.032348,0.003404,-0.01228,-0.24585,0.409424,-0.394043
1.835335,-7.373324,6.20119,0.008059,0.000348,0.000137,-0.321777,0.414551,0.013916,-0.05439,8.407707,5.073207,-0.018518,0.00916,0.006261,0.075439,0.394287,0.531738,-1.582066,-6.978502,6.72628,-0.003418,0.008807,0.001734,0.643066,0.133057,-0.206787,2.167798,-7.21206,6.354972,-0.003063,0.004977,0.007563,0.098877,0.314941,-0.583496,0.483163,-6.04228,7.694588,0.011625,-0.013856,-0.004106,-0.242676,0.400146,-0.393066
1.821113,-7.365747,6.224923,0.001544,0.001951,0.000112,-0.317139,0.420898,0.020752,0.003895,8.360241,5.020187,-0.012126,-0.000108,0.003234,0.07251,0.391113,0.524902,-1.565381,-7.065068,6.709361,-0.01782,-0.004093,0.001588,0.645996,0.142334,-0.202637,2.148763,-7.206489,6.341714,-0.008312,0.00345,0.0132,0.100098,0.319336,-0.582764,0.486181,-6.095156,7.646333,-0.010523,0.010615,0.001479,-0.238037,0.405029,-0.387451
1.820584,-7.387736,6.222619,-0.004956,0.001095,-0.000661,-0.309814,0.418457,0.018066,-0.046725,8.399711,5.024979,-0.000266,0.015418,0.006122,0.072266,0.398926,0.532471,-1.558772,-7.035224,6.717954,0.01378,0.013562,-0.003439,0.653076,0.140625,-0.20459,2.167085,-7.205233,6.354487,0.003507,-0.00479,0.004479,0.106445,0.320557,-0.582764,0.405877,-6.091602,7.681005,-0.004706,-0.001447,-0.010642,-0.231201,0.406494,-0.389648
1.841463,-7.398587,6.187762,-0.002713,0.00081,0.000723,-0.317383,0.416016,0.01123,-0.009371,8.397973,5.079279,-0.020146,-0.003909,0.002772,0.076904,0.391357,0.533691,-1.582578,-6.994293,6.725653,-0.014308,-0.003569,3.5e-05,0.642578,0.13501,-0.213623,2.199799,-7.177043,6.356081,-0.011158,0.000902,0.011132,0.098877,0.316406,-0.590088,0.499646,-6.139878,7.657583,-0.007107,-0.01449,0.005018,-0.240234,0.4021,-0.398438
1.848811,-7.391148,6.207876,0.010195,0.003409,-0.002214,-0.323486,0.418457,0.013672,-0.005942,8.375136,5.046476,-0.004746,0.015729,0.006091,0.074707,0.390381,0.524414,-1.533267,-7.079587,6.698293,-0.011083,0.00554,0.001644,0.641113,0.139404,-0.210205,2.178526,-7.255677,6.342919,-0.01573,0.00578,0.015229,0.096436,0.320801,-0.586426,0.460067,-6.082382,7.670574,0.024006,0.015884,-0.014043,-0.240967,0.406982,-0.39502
1.834824,-7.328634,6.207101,-0.000461,0.000335,0.004122,-0.31958,0.416504,0.020264,-0.057109,8.406975,5.072209,-0.011492,0.000737,0.005308,0.078369,0.393311,0.536377,-1.58503,-7.018753,6.715198,0.012787,0.005697,-0.003943,0.643311,0.135498,-0.205322,2.155249,-7.18615,6.34967,0.019206,0.003156,0.000643,0.100098,0.314453,-0.583008,0.431572,-6.075854,7.670373,-0.01049,-0.010634,0.003284,-0.23877,0.403076,-0.390137
1.826257,-7.413142,6.209158,-0.011944,0.001144,-0.003356,-0.31665,0.417725,0.01416,0.010631,8.378542,5.048401,-0.009982,0.004053,0.003813,0.07373,0.395264,0.524658,-1.546133,-7.012923,6.727618,-0.011979,-0.000777,0.001421,0.645508,0.137695,-0.208008,2.169408,-7.182786,6.353782,-0.025991,-0.002096,0.015173,0.101807,0.317627,-0.585693,0.476565,-6.115418,7.644966,-0.000375,0.000137,-0.005658,-0.238037,0.405273,-0.391602
1.825201,-7.390073,6.202052,0.016046,0.001204,-0.00018,-0.328125,0.422119,0.007812,-0.045145,8.378827,5.044383,-0.009135,0.011717,0.005495,0.074463,0.397217,0.532715,-1.576541,-7.053564,6.720278,-0.010928,0.010665,0.002904,0.635254,0.143555,-0.216553,2.177114,-7.259943,6.327091,-0.001528,-0.001697,0.007898,0.090088,0.32251,-0.594482,0.438273,-6.096344,7.704282,-0.003447,0.00191,-0.004101,-0.245117,0.40918,-0.397949
1.836332,-7.340659,6.245893,-0.003461,0.000905,0.000261,-0.318848,0.418701,0.018555,-0.000949,8.386768,5.036449,-0.003605,-0.001278,0.002676,0.072754,0.390137,0.524658,-1.586466,-7.024552,6.733842,0.006153,0.000338,-0.001655,0.644043,0.137695,-0.200684,2.192312,-7.163311,6.344868,0.006566,0.006654,0.006613,0.099854,0.316162,-0.581787,0.476734,-6.120033,7.65334,0.003751,-0.007463,0.00088,-0.23877,0.402344,-0.387695
1.829919,-7.414326,6.179085,-0.009643,0.00281,-0.000769,-0.324707,0.416504,0.009033,-0.019359,8.386394,5.084805,-0.017354,0.012713,0.006549,0.069092,0.39502,0.53418,-1.557329,-6.995585,6.719629,-0.00388,0.006812,-0.00049,0.63623,0.138428,-0.216797,2.168978,-7.210174,6.353363,-0.017694,0.002314,0.01478,0.092041,0.318359,-0.594727,0.446895,-6.064413,7.666619,0.011729,0.007054,-0.009771,-0.248535,0.403564,-0.403076
1.828939,-7.380951,6.202903,0.01586,-0.000113,0.001735,-0.320557,0.416504,0.022705,-0.027327,8.3592,5.045653,-0.010075,0.000597,0.002867,0.078125,0.395508,0.528564,-1.577059,-7.006226,6.713255,-0.007643,0.002336,0.001571,0.641846,0.134033,-0.201416,2.14739,-7.21579,6.360643,0.003542,-0.000308,0.004211,0.102539,0.314941,-0.581055,0.442454,-6.090197,7.674994,-0.011448,-0.007284,0.002792,-0.238525,0.400635,-0.385986
1.833399,-7.350009,6.205794,-0.008969,0.003222,-0.000763,-0.321777,0.423096,0.01123,-0.000645,8.413378,5.080447,0.00766,0.010643,0.002686,0.072998,0.396973,0.532227,-1.554826,-7.038446,6.723349,-0.006536,0.004123,1.1e-05,0.637695,0.142578,-0.214111,2.184039,-7.188119,6.348996,-0.012772,-0.001403,0.011334,0.097412,0.324463,-0.593994,0.469859,-6.113604,7.666313,-0.000437,-0.001808,-0.008022,-0.241699,0.410156,-0.397461
1.833223,-7.427506,6.177232,-0.005484,-0.000332,0.000242,-0.317383,0.411865,0.017822,-0.035374,8.391656,5.083801,-0.032311,0.002562,0.006418,0.068115,0.39209,0.526367,-1.57858,-7.044063,6.704977,-0.001159,0.005295,8.7e-05,0.645752,0.130859,-0.209961,2.197066,-7.236392,6.339316,-0.000853,0.005597,0.010911,0.100342,0.310791,-0.58667,0.463054,-6.10359,7.648207,-0.004322,0.001883,0.00153,-0.238281,0.399902,-0.393799
1.823024,-7.356349,6.226628,0.018485,0.002045,0.001305,-0.321533,0.417236,0.01709,-0.016808,8.336961,5.031582,-0.000234,0.007545,0.002345,0.081543,0.39209,0.531006,-1.566055,-7.005874,6.715289,0.003927,0.00182,-0.000696,0.643799,0.136719,-0.204834,2.142679,-7.187311,6.344175,-0.000344,0.007589,0.00904,0.099609,0.314209,-0.584473,0.43045,-6.113998,7.661176,0.022004,0.003494,-0.006407,-0.238281,0.40332,-0.38916
1.83282,-7.34964,6.206402,-0.012277,0.000841,-0.002353,-0.318604,0.421143,0.020752,-0.040962,8.431872,5.069178,0.005116,0.0083,0.003633,0.077393,0.390137,0.534912,-1.558358,-7.016124,6.738972,-0.013268,0.005146,-0.000554,0.644287,0.141602,-0.202637,2.158805,-7.217139,6.348918,-0.016379,-0.006482,0.010508,0.100586,0.321533,-0.585205,0.463359,-6.038805,7.703461,-0.007128,-0.012188,-0.004509,-0.238037,0.409668,-0.389404
1.838494,-7.441275,6.185265,-0.004541,0.000699,0.000803,-0.314941,0.416504,0.018066,0.014596,8.391514,5.059723,-0.030272,-0.000574,0.006437,0.081543,0.396729,0.528809,-1.562848,-7.05926,6.699056,-0.00915,0.002131,0.001881,0.645996,0.13501,-0.206299,2.213573,-7.217988,6.342888,0.001204,0.001819,0.006249,0.101807,0.313965,-0.584229,0.497673,-6.144521,7.653862,-0.022686,0.002194,0.003972,-0.23584,0.403076,-0.389648
1.839452,-7.353005,6.195189,0.022069,0.002775,0.000688,-0.315674,0.41748,0.010498,-0.036151,8.348317,5.018396,-0.001859,0.015134,0.004849,0.071045,0.390869,0.537598,-1.570733,-7.017067,6.702171,0.013437,0.008066,-0.003196,0.643799,0.139404,-0.210693,2.157601,-7.1888,6.355099,0.002885,0.007918,0.006358,0.102539,0.317871,-0.59082,0.421656,-6.122395,7.65492,0.020567,0.007467,-0.009294,-0.237549,0.403564,-0.395264
1.820673,-7.354686,6.218133,-0.019435,-0.000807,0.000895,-0.322266,0.416504,0.016602,-0.032048,8.423985,5.078386,0.003422,-0.001919,0.003231,0.068115,0.398193,0.52417,-1.592123,-6.992892,6.733991,-0.008605,0.000224,0.000267,0.63916,0.135986,-0.207275,2.171876,-7.195531,6.344771,-0.015906,-0.002907,0.012614,0.095459,0.317871,-0.587402,0.445731,-6.047552,7.66343,0.015266,-0.015053,-0.00298,-0.241699,0.404541,-0.393555
1.846092,-7.467244,6.181739,0.001267,0.001522,-0.002457,-0.313721,0.418945,0.021973,0.030681,8.408407,5.054673,-0.026288,0.010576,0.005651,0.080078,0.393066,0.527588,-1.552694,-7.045476,6.698959,-0.020578,0.00232,0.00128,0.647705,0.139404,-0.200928,2.190163,-7.256443,6.328418,-0.008949,0.000637,0.009927,0.105469,0.319336,-0.580322,0.491745,-6.077636,7.665076,-0.015961,0.002562,-0.005107,-0.233643,0.406006,-0.387695
1.833841,-7.328406,6.218812,0.018608,0.00368,0.000949,-0.311523,0.41626,0.015381,-0.045038,8.356207,5.032737,-0.008816,0.007607,0.004104,0.071533,0.395752,0.523926,-1.571643,-7.059603,6.714158,0.010937,0.010502,-0.001429,0.649658,0.135986,-0.206787,2.172026,-7.190778,6.365676,0.015287,0.002263,0.003458,0.107666,0.314941,-0.587402,0.448755,-6.144833,7.690762,-0.019115,0.006168,0.001934,-0.231445,0.402832,-0.39209
1.827448,-7.369469,6.235672,-0.019152,-0.002648,0.000702,-0.322754,0.418457,0.013428,0.009707,8.40573,5.081044,0.005954,0.001679,0.005655,0.07666,0.392334,0.532959,-1.585003,-6.988526,6.723028,0.000997,-0.002639,-0.00145,0.64209,0.138428,-0.209717,2.168836,-7.166742,6.328147,-0.01876,-0.001169,0.012828,0.097656,0.316895,-0.59082,0.436636,-6.118283,7.625737,0.03133,-0.005952,-0.007033,-0.24292,0.403076,-0.394775
1.845861,-7.433461,6.155924,0.006395,0.004203,-0.002962,-0.324707,0.413818,0.018066,-0.02206,8.422192,5.069348,-0.022351,0.010199,0.006016,0.078857,0.391113,0.53125,-1.56058,-7.018323,6.70233,-0.016183,0.009008,0.002411,0.640137,0.135742,-0.208252,2.176012,-7.245999,6.32303,-0.010441,0.000743,0.011583,0.096924,0.315674,-0.59082,0.463836,-6.008959,7.718018,0.010441,-0.007229,-0.007603,-0.242676,0.40332,-0.391113
1.846059,-7.345488,6.2156,0.010645,0.000175,0.002534,-0.315186,0.41748,0.014893,-0.023015,8.330823,5.045619,-0.016787,0.002235,0.003878,0.074707,0.393799,0.530029,-1.583058,-7.068383,6.719495,-0.006416,0.00349,0.00206,0.648926,0.139893,-0.210449,2.178468,-7.198092,6.344844,0.007479,0.006614,0.00512,0.105957,0.316895,-0.585693,0.48555,-6.126007,7.672157,-0.04155,0.003873,0.006099,-0.234619,0.406494,-0.393799
1.821996,-7.366322,6.207544,-0.01026,0.004349,0.000425,-0.322754,0.414551,0.015137,-0.014709,8.392448,5.050266,0.013233,0.007773,0.003552,0.078613,0.393799,0.530273,-1.56182,-7.022994,6.722241,0.015847,0.006807,-0.003174,0.639893,0.134521,-0.210205,2.165033,-7.204781,6.349155,-0.004619,0.001279,0.008916,0.095459,0.313477,-0.587158,0.431137,-6.161458,7.624853,0.027944,0.005485,-0.008831,-0.244629,0.400635,-0.393066
1.83808,-7.419363,6.198929,-0.000602,-0.00092,0.000449,-0.318115,0.419434,0.020264,-0.018305,8.427313,5.07837,-0.025354,0.006142,0.005247,0.080566,0.392578,0.534424,-1.586287,-6.971277,6.750218,-0.006444,0.00567,0.000291,0.643066,0.143311,-0.203857,2.18617,-7.181432,6.332864,-0.004117,-0.004392,0.007024,0.0979,0.320801,-0.583496,0.45202,-6.037266,7.690835,0.014775,-0.015786,-0.007592,-0.238525,0.406982,-0.388428
1.840538,-7.36586,6.244271,0.009655,0.004442,-0.000561,-0.323242,0.406738,0.009521,-0.002376,8.3346,5.040943,-0.01518,0.006332,0.004798,0.079102,0.39502,0.526611,-1.559444,-7.066169,6.725555,-0.03223,-0.0009,0.005002,0.640625,0.128662,-0.213867,2.191124,-7.229831,6.348619,-0.018799,0.006285,0.0154,0.095459,0.307617,-0.590088,0.494985,-6.085076,7.683056,-0.021659,0.005791,0.001737,-0.242188,0.395264,-0.398682
1.821635,-7.344428,6.209987,-0.006022,-0.001571,-0.000868,-0.323242,0.410156,0.019043,-0.038552,8.401718,5.04665,0.006257,0.006838,0.003246,0.081543,0.394775,0.534668,-1.582994,-7.082036,6.687303,0.020053,0.010399,-0.002603,0.63916,0.131104,-0.203369,2.161337,-7.241694,6.347375,0.011874,0.00338,0.004399,0.095215,0.312988,-0.584473,0.417566,-6.131315,7.660081,-0.003541,0.007852,-0.00519,-0.242188,0.397705,-0.390625
1.832662,-7.394781,6.222477,-0.002859,0.001825,-0.000189,-0.318604,0.417236,0.014404,-0.011842,8.403285,5.073302,-0.02035,0.002041,0.005337,0.084717,0.393799,0.529297,-1.57825,-6.944119,6.747698,0.007116,-0.000272,-0.002406,0.645752,0.13623,-0.20874,2.181657,-7.147031,6.374197,-0.002479,-0.002783,0.007398,0.099609,0.315674,-0.588867,0.46492,-6.097402,7.650666,0.023432,-0.016073,-0.004143,-0.237061,0.40625,-0.39209
1.827764,-7.391658,6.19416,0.00703,0.002285,-0.00013,-0.319824,0.420654,0.014404,-0.01593,8.370022,5.046472,-0.012054,0.01108,0.005694,0.080322,0.396484,0.532471,-1.561653,-7.030801,6.730443,-0.03011,0.006571,0.005717,0.643555,0.13623,-0.208252,2.173168,-7.228258,6.34288,-0.022703,0.000456,0.016495,0.10083,0.320068,-0.587402,0.493336,-6.043174,7.714884,-0.002322,0.005482,-0.008863,-0.239258,0.407227,-0.394043
1.838269,-7.352771,6.206975,0.00217,0.000223,0.00093,-0.312744,0.411377,0.018311,-0.04564,8.387929,5.058007,0.000599,0.003584,0.00291,0.072998,0.391846,0.531738,-1.57747,-7.093421,6.709304,0.002013,0.003046,0.00083,0.652588,0.132812,-0.205811,2.178434,-7.222945,6.35127,0.010701,0.003546,0.004704,0.105469,0.310791,-0.586426,0.430189,-6.131491,7.661551,-0.024083,0.001727,0.006328,-0.234619,0.396973,-0.390869
1.815975,-7.396833,6.205627,-0.01018,0.001571,-0.001882,-0.321289,0.414307,0.018555,-0.010504,8.407383,5.058475,-0.010681,0.007188,0.005917,0.073242,0.389648,0.529541,-1.557042,-6.997941,6.716759,0.013892,0.004614,-0.005079,0.641357,0.138184,-0.203369,2.170345,-7.190422,6.36355,-0.006613,0.00278,0.010179,0.098145,0.317139,-0.582764,0.440559,-6.13331,7.661827,0.022631,-0.006242,-0.010633,-0.239502,0.404785,-0.390137
1.840496,-7.387107,6.192833,0.01097,0.000666,-0.000483,-0.319824,0.420166,0.018066,-0.043479,8.363679,5.059277,-0.022072,0.00617,0.006892,0.076172,0.393311,0.525635,-1.583676,-7.00183,6.708206,-0.013797,0.004868,0.002809,0.644531,0.139648,-0.206299,2.178012,-7.217528,6.373181,-0.007141,-0.001004,0.010618,0.098389,0.319092,-0.586426,0.484094,-6.058398,7.683638,0.004942,-0.002386,-0.002257,-0.239258,0.405762,-0.388184
1.838716,-7.341937,6.238387,0.002503,0.000524,-7.4e-05,-0.321045,0.415527,0.022949,-0.001658,8.370236,5.028223,0.005155,0.00554,0.002829,0.074219,0.391113,0.526855,-1.564257,-7.043997,6.706895,-0.013526,0.001193,-6.1e-05,0.643311,0.134033,-0.198242,2.187126,-7.199086,6.338773,-0.005,0.000808,0.007693,0.097656,0.313965,-0.579346,0.457733,-6.098288,7.681972,-0.008135,0.000262,-0.000912,-0.240479,0.404053,-0.385498
1.835963,-7.395476,6.193113,-0.012488,0.002174,-0.001709,-0.323975,0.421143,0.009277,-0.038874,8.430102,5.054054,-0.010014,0.010611,0.004261,0.073975,0.402588,0.527344,-1.581688,-7.035465,6.730533,0.007159,0.011081,-0.001523,0.640381,0.140625,-0.215088,2.173789,-7.208735,6.363663,-0.003542,0.002277,0.010019,0.095703,0.32251,-0.593262,0.44869,-6.101834,7.667553,-0.003015,-0.001872,-0.006884,-0.240479,0.409668,-0.401367
1.818281,-7.430385,6.192394,0.010172,-0.001381,-0.000132,-0.32373,0.422852,0.008057,-0.014647,8.362986,5.058128,-0.025512,-0.001084,0.006941,0.068604,0.38916,0.536133,-1.580242,-6.996524,6.706142,-0.002929,-0.001737,0.001301,0.640137,0.142334,-0.2146,2.170688,-7.198769,6.355092,-0.007542,0.003493,0.011111,0.094482,0.320801,-0.595215,0.464577,-6.130612,7.655165,0.006259,-9.7e-05,0.000872,-0.244141,0.407471,-0.398438
1.843009,-7.354613,6.236848,0.005267,0.001856,-0.001609,-0.319336,0.419922,0.02124,-0.004629,8.372624,5.022268,0.0089,0.012618,0.003283,0.081299,0.399414,0.530518,-1.547615,-7.03539,6.710511,-0.007723,0.006536,0.000481,0.644531,0.141602,-0.202393,2.161564,-7.218564,6.352494,-0.004852,0.002522,0.009724,0.099854,0.32251,-0.580566,0.454548,-6.069531,7.69591,0.014083,-0.002962,-0.010835,-0.23877,0.409424,-0.386963
1.815012,-7.372811,6.199622,-0.007988,-0.000857,0.000316,-0.32373,0.419189,0.017578,-0.061907,8.425301,5.058376,-0.011735,0.004317,0.005742,0.072998,0.39209,0.530518,-1.588176,-7.031706,6.71661,0.002079,0.006774,-0.000648,0.63916,0.139648,-0.208252,2.173611,-7.182342,6.355992,0.006244,0.000491,0.004259,0.094971,0.317139,-0.587402,0.472088,-6.094875,7.6741,-0.020524,-0.002782,0.002874,-0.244629,0.405273,-0.391113
1.841859,-7.4089,6.201375,0.003032,0.001952,-0.000979,-0.325195,0.422363,0.015381,0.009857,8.375513,5.056521,-0.022043,0.003418,0.006057,0.077881,0.397217,0.530518,-1.56082,-7.015668,6.713319,-0.005463,0.000154,-0.000769,0.637207,0.139893,-0.209717,2.172599,-7.195102,6.362803,-0.016883,0.000995,0.01383,0.092529,0.319824,-0.589844,0.429225,-6.118812,7.645267,0.012246,0.007945,-0.00576,-0.248535,0.409424,-0.394775
1.813504,-7.371693,6.190242,0.003024,0.002141,-0.002994,-0.321289,0.41333,0.013916,-0.037572,8.371359,5.056066,-0.001462,0.01062,0.004807,0.077881,0.39502,0.532959,-1.570205,-7.033393,6.70062,-0.008273,0.008439,0.002092,0.643799,0.13623,-0.208496,2.176511,-7.22985,6.34938,-0.002661,0.002947,0.007945,0.099609,0.315674,-0.5896,0.44739,-6.063365,7.708708,0.003659,-0.012564,-0.006658,-0.241455,0.402832,-0.391357
1.839709,-7.373937,6.216232,0.003251,0.000429,0.000388,-0.321045,0.4104,0.012451,-0.018868,8.414529,5.040655,-0.002515,2e-06,0.00309,0.080566,0.39502,0.536377,-1.566756,-7.038879,6.712024,-0.000588,-0.001512,-0.001822,0.642578,0.131836,-0.209961,2.164956,-7.204727,6.338839,0.003045,0.00534,0.006113,0.096436,0.309326,-0.5896,0.499279,-6.120924,7.675332,-0.006763,0.004043,0.003842,-0.240723,0.397949,-0.39917
1.821982,-7.375711,6.188874,-0.006183,0.001903,-0.001033,-0.324463,0.415771,0.011475,-0.019533,8.405543,5.063493,-0.020054,0.012278,0.005911,0.076904,0.383789,0.535645,-1.560049,-7.008506,6.721372,0.00346,0.010331,-0.000948,0.637939,0.138672,-0.209229,2.162804,-7.195952,6.352618,-0.006074,-0.004278,0.009428,0.093262,0.318115,-0.592285,0.4173,-6.079436,7.663597,0.010333,0.005401,-0.010238,-0.243896,0.403809,-0.396729
1.84521,-7.388343,6.223442,0.002982,-0.00019,-0.000167,-0.309814,0.412842,0.015381,-0.035503,8.346149,5.058873,-0.011523,0.000699,0.005284,0.076904,0.396973,0.5271,-1.583085,-7.017937,6.724165,-0.013489,0.001887,0.001302,0.650635,0.131348,-0.20874,2.189932,-7.205922,6.323964,-0.009519,3.1e-05,0.010655,0.106934,0.312256,-0.587402,0.467142,-6.08754,7.665829,-0.007072,-0.016616,0.000738,-0.230713,0.399414,-0.395752
1.826463,-7.378409,6.217808,0.000798,0.002047,-0.000351,-0.311035,0.414062,0.012939,-0.003133,8.409069,5.065274,0.008142,0.008408,0.002539,0.075684,0.393555,0.525879,-1.56028,-7.060584,6.714342,-0.006328,0.002314,0.000275,0.649658,0.133057,-0.210693,2.177175,-7.237322,6.341785,-0.008637,0.007457,0.011733,0.105713,0.312012,-0.590332,0.474222,-6.107028,7.678621,0.001262,0.011268,-0.007946,-0.233398,0.400146,-0.394775
1.820006,-7.374762,6.17943,-0.001219,0.00062,0.001645,-0.319824,0.415039,0.020508,-0.046032,8.392135,5.064552,-0.028941,0.005918,0.006688,0.082275,0.391602,0.53125,-1.578205,-7.021428,6.70408,0.009966,0.008237,-0.000252,0.640869,0.136475,-0.201904,2.16806,-7.193668,6.346189,0.00915,0.00323,0.003788,0.097656,0.315918,-0.582764,0.425928,-6.102588,7.663599,0.00037,-0.003607,-0.000854,-0.239746,0.403076,-0.38916
1.828486,-7.390371,6.20664,0.004186,0.001651,-0.001066,-0.31958,0.416748,0.012207,-0.004496,8.345996,5.025526,-0.004975,0.003765,0.003525,0.080811,0.392578,0.526367,-1.570789,-6.994356,6.735284,-0.002616,0.00322,-0.002753,0.644531,0.13916,-0.211914,2.14943,-7.17958,6.369377,-0.011236,-0.001097,0.012255,0.100342,0.319092,-0.593506,0.469446,-6.086262,7.666703,0.015701,-0.004104,-0.006632,-0.23877,0.406738,-0.398926
1.844891,-7.366145,6.226229,-0.004186,-0.001651,0.001066,-0.320801,0.415039,0.013916,-0.039265,8.421716,5.066092,0.005375,0.009673,0.003929,0.072998,0.393555,0.532959,-1.572576,-7.028566,6.705483,-0.019686,0.006443,0.003231,0.641113,0.133057,-0.208984,2.18324,-7.234277,6.335938,-0.01222,-0.003267,0.009749,0.098389,0.313965,-0.587646,0.451777,-6.074074,7.692389,-0.012567,-0.000857,-0.002626,-0.243652,0.4021,-0.390869
1.823946,-7.399339,6.20621,0.000725,0.002555,-0.000806,-0.321045,0.416748,0.020996,-0.012549,8.393042,5.054873,-0.028567,0.000263,0.005519,0.081055,0.38916,0.530029,-1.563458,-7.063284,6.710763,-0.000945,0.000768,-0.001698,0.640381,0.136719,-0.203125,2.199585,-7.210614,6.333311,0.005454,0.007872,0.008946,0.094238,0.315674,-0.581787,0.461081,-6.144275,7.668567,-0.012829,-0.002291,0.000799,-0.24292,0.403809,-0.38623
1.827136,-7.367427,6.199463,0.005819,0.000635,-0.001245,-0.316162,0.414307,0.016602,-0.028877,8.348189,5.041663,-0.003886,0.011633,0.004421,0.075684,0.397461,0.530762,-1.562389,-7.003908,6.726045,0.013076,0.007475,-0.002641,0.64502,0.133789,-0.209717,2.135837,-7.190138,6.357792,-0.003271,0.003724,0.007527,0.101807,0.315186,-0.587402,0.448739,-6.10514,7.664869,0.025993,0.003731,-0.011246,-0.235596,0.401367,-0.394043
1.837305,-7.372784,6.207159,-0.007532,0.001078,-0.001046,-0.326904,0.422607,0.018311,-0.029408,8.406528,5.063891,-0.000564,0.001181,0.003693,0.089844,0.398193,0.530273,-1.57505,-6.9838,6.729397,-0.017824,0.004367,0.002794,0.634521,0.144287,-0.206787,2.174877,-7.195549,6.347112,-0.011807,-0.008457,0.009825,0.091309,0.324219,-0.584473,0.455493,-6.068831,7.684272,-0.00587,-0.010191,-0.000181,-0.245361,0.413574,-0.389893
1.841,-7.407534,6.203262,0.007437,0.00208,-0.000678,-0.331055,0.418213,0.013916,-0.002621,8.378015,5.052392,-0.020082,0.008423,0.006281,0.079834,0.397705,0.529297,-1.551454,-7.076833,6.714508,-0.011894,0.003637,0.001273,0.633057,0.138184,-0.208008,2.188901,-7.255661,6.344372,-0.005875,0.004401,0.012066,0.089111,0.314209,-0.588135,0.472281,-6.103255,7.635685,-0.006994,0.005188,-0.003455,-0.249023,0.405762,-0.394287
1.810425,-7.34782,6.234528,0.001081,0.000206,-0.000542,-0.312012,0.418457,0.010742,-0.045427,8.360915,5.051938,-0.004035,0.007091,0.004663,0.072998,0.395996,0.526611,-1.592332,-7.026118,6.747379,0.019828,0.009331,-0.002448,0.649902,0.137451,-0.212402,2.165743,-7.174248,6.34401,0.012289,0.00472,0.002513,0.10376,0.31543,-0.593506,0.439108,-6.111509,7.682186,0.005222,0.000408,-0.003465,-0.23291,0.403076,-0.398682
1.847287,-7.377957,6.215129,-0.009215,-4.9e-05,-5.5e-05,-0.320557,0.412598,0.012695,-0.000199,8.406166,5.062251,-0.002681,0.002035,0.003796,0.080078,0.385742,0.528809,-1.557297,-6.988943,6.734911,-0.012723,-0.001822,-4.2e-05,0.641113,0.131592,-0.210449,2.172316,-7.179972,6.360461,-0.02002,-0.002977,0.014248,0.095947,0.311035,-0.592041,0.463264,-6.10081,7.657706,0.004937,-0.010865,-0.003672,-0.239014,0.399658,-0.397461
1.819292,-7.407234,6.207095,0.011696,0.003223,-0.001288,-0.317627,0.418945,0.012451,-0.020287,8.397394,5.075058,-0.020317,0.010857,0.005659,0.078857,0.391357,0.53125,-1.566139,-7.053948,6.695134,-0.017586,0.008313,0.002279,0.644287,0.138916,-0.214111,2.171268,-7.263923,6.324132,-0.007699,0.00426,0.009946,0.099609,0.319824,-0.592285,0.465604,-6.091698,7.662544,0.00012,0.006787,-0.004663,-0.238525,0.406494,-0.396973
1.828479,-7.345372,6.212731,0.001357,0.000636,0.002027,-0.316406,0.417725,0.015625,-0.035907,8.360459,5.040902,-0.008019,0.002453,0.003574,0.069336,0.383545,0.536621,-1.581142,-7.036705,6.728897,0.009683,0.003594,-0.001105,0.644287,0.138672,-0.20752,2.168571,-7.182862,6.358475,0.011507,0.000391,0.002321,0.102295,0.316162,-0.588135,0.424153,-6.110944,7.625391,-0.004115,-0.003648,0.00084,-0.236816,0.405762,-0.391602
1.831599,-7.391258,6.177123,-0.011937,0.000949,-0.001349,-0.31665,0.417725,0.013184,0.003664,8.410979,5.071794,0.000289,0.008815,0.005422,0.07251,0.398193,0.530762,-1.574057,-7.005845,6.738905,-0.00052,0.002218,-0.003301,0.648438,0.137451,-0.208496,2.187017,-7.179997,6.349396,-0.018036,-0.001999,0.013847,0.101318,0.317871,-0.589111,0.468139,-6.08305,7.667,0.00819,-0.003898,-0.00753,-0.236084,0.405762,-0.393555
1.847375,-7.410393,6.192746,0.0128,0.00078,-0.000561,-0.324219,0.41748,0.007568,-0.022162,8.392632,5.057642,-0.024957,0.006624,0.005847,0.070068,0.39209,0.530029,-1.58014,-7.024723,6.716916,-0.014094,0.005809,0.00359,0.636719,0.139404,-0.216797,2.171014,-7.218709,6.344215,-0.002619,0.004032,0.009957,0.092529,0.317871,-0.595459,0.455807,-6.098768,7.679314,-0.009927,0.0016,-0.000659,-0.245605,0.407471,-0.401123
1.825742,-7.332823,6.224795,0.001756,0.000619,-0.000536,-0.316895,0.42041,0.011719,-0.018173,8.355399,5.033536,-0.003568,0.004877,0.004459,0.068848,0.393311,0.528076,-1.57598,-7.050666,6.688679,-0.002904,0.001295,-0.001555,0.643799,0.139893,-0.210205,2.155783,-7.20326,6.332278,-0.002956,0.002178,0.009874,0.100342,0.318848,-0.591553,0.44092,-6.131596,7.660857,0.00777,0.001235,-0.002529,-0.235352,0.405029,-0.397949
1.825893,-7.410028,6.196589,-0.012684,0.001044,-0.001811,-0.323242,0.418457,0.016113,-0.035623,8.414987,5.069497,9.2e-05,0.008511,0.003969,0.078613,0.39624,0.535889,-1.562756,-7.016201,6.720696,0.006183,0.008815,-0.000355,0.638428,0.141357,-0.207764,2.186003,-7.20761,6.348815,-0.004826,-0.000661,0.00944,0.094482,0.318359,-0.587158,0.441328,-6.072592,7.679762,0.007335,-0.005588,-0.005452,-0.244141,0.406494,-0.390137
1.834331,-7.414446,6.19476,0.011581,0.0014,0.001084,-0.324707,0.420166,0.021729,-0.004719,8.402351,5.041432,-0.025833,0.00289,0.006032,0.075195,0.395996,0.533447,-1.563553,-7.016612,6.720082,-0.011319,-0.000448,0.001419,0.637207,0.137695,-0.199951,2.192522,-7.211517,6.343306,-0.004736,0.000651,0.008896,0.091553,0.317627,-0.57959,0.476933,-6.10978,7.654335,-0.012875,-0.003342,-8.1e-05,-0.248047,0.408691,-0.383057
1.82965,-7.323642,6.225655,0.006001,0.004224,-0.000401,-0.320801,0.410645,0.008789,-0.025649,8.370953,5.027418,-0.000435,0.009615,0.005382,0.073975,0.398193,0.532471,-1.561585,-7.044905,6.722841,-0.002215,0.007229,0.000163,0.64209,0.130371,-0.210205,2.173919,-7.205427,6.330209,-0.004133,0.004831,0.011042,0.0979,0.310547,-0.593262,0.44489,-6.122499,7.665593,0.007568,0.004642,-0.00613,-0.240723,0.397217,-0.398926
1.838461,-7.383396,6.19786,-0.015645,-0.001417,-0.000376,-0.31665,0.420898,0.017334,-0.026938,8.421496,5.070368,-0.005235,0.002354,0.003271,0.071777,0.395264,0.5271,-1.585868,-7.003818,6.730717,0.003489,0.00543,-0.001237,0.645752,0.138916,-0.207275,2.162395,-7.184922,6.36257,-0.001978,0.001682,0.006393,0.104004,0.321289,-0.585449,0.444709,-6.071947,7.658222,0.007664,-0.007216,-0.001419,-0.235596,0.409424,-0.390137
1.843683,-7.419665,6.202864,0.008526,0.002098,0.000795,-0.31543,0.419434,0.020508,-0.004503,8.376467,5.07642,-0.020221,0.007703,0.006149,0.073242,0.389648,0.528564,-1.561812,-7.023382,6.729785,-0.014954,0.002529,0.000503,0.645996,0.139648,-0.202881,2.183045,-7.227039,6.361313,-0.018133,-0.003307,0.014391,0.103271,0.318115,-0.580811,0.471314,-6.093944,7.672469,-0.004846,-0.000672,-0.006036,-0.235352,0.404541,-0.388184
1.831394,-7.357524,6.21223,0.00799,0.000859,-0.000314,-0.318848,0.412354,0.013916,-0.041907,8.368502,5.047238,-0.00726,0.006642,0.004342,0.073975,0.387451,0.532227,-1.578547,-7.071444,6.707426,-0.00141,0.006935,0.002265,0.646484,0.131836,-0.207031,2.169374,-7.230898,6.320592,0.006261,0.004731,0.006562,0.100342,0.313232,-0.590576,0.438107,-6.116161,7.678527,-0.009969,0.001006,-0.000803,-0.236816,0.400879,-0.392822
1.839795,-7.362044,6.210295,-0.010102,0.000871,0.000585,-0.315918,0.421631,0.014893,-0.003232,8.396656,5.050912,0.001819,0.002883,0.004932,0.079102,0.392822,0.527832,-1.573335,-6.991138,6.721366,0.008101,0.002001,-0.003537,0.647949,0.14209,-0.211182,2.15954,-7.167891,6.353671,0.000524,0.003043,0.00782,0.100342,0.31958,-0.587891,0.447974,-6.121377,7.666309,0.016939,-0.002534,-0.003058,-0.235352,0.407715,-0.394531
1.825511,-7.420875,6.176315,0.000602,0.000921,-0.00045,-0.315186,0.412598,0.023926,-0.020072,8.411356,5.057959,-0.019732,0.009329,0.005577,0.075195,0.393311,0.529297,-1.566708,-6.997653,6.723675,-0.015731,0.006233,0.001833,0.645996,0.134033,-0.200439,2.188841,-7.221854,6.334005,-0.017816,-0.003238,0.01304,0.103271,0.315918,-0.581543,0.46168,-6.05062,7.659863,0.001936,-0.003355,-0.00766,-0.237061,0.400635,-0.383789
1.835358,-7.348909,6.212408,0.01016,0.001083,0.000616,-0.319092,0.415771,0.017334,-0.023848,8.349212,5.047805,-0.011953,0.003981,0.004278,0.077148,0.39917,0.523193,-1.583959,-7.072696,6.713635,-0.011136,0.002645,0.001988,0.642822,0.135742,-0.204834,2.175744,-7.241834,6.343838,-0.000743,0.004382,0.009533,0.101074,0.313721,-0.587402,0.470301,-6.119993,7.658628,-0.017726,0.00067,0.003207,-0.239014,0.401855,-0.38916
1.829122,-7.356559,6.202898,-0.008273,0.000982,0.000505,-0.321533,0.422363,0.012207,-0.018747,8.416616,5.04158,0.005175,0.006685,0.003949,0.081543,0.385986,0.527588,-1.574582,-7.033451,6.733453,0.014773,0.005186,-0.004018,0.641846,0.141846,-0.210449,2.171146,-7.198164,6.335421,0.005357,0.002266,0.007203,0.09668,0.323242,-0.592529,0.439277,-6.128091,7.661459,0.015514,0.00067,-0.008019,-0.242432,0.409424,-0.396973
1.838268,-7.405985,6.205921,-0.000356,0.002349,-0.000265,-0.319336,0.424072,0.014893,-0.028393,8.419239,5.072303,-0.022062,0.004542,0.00711,0.082275,0.397461,0.536133,-1.579308,-6.99197,6.727914,-0.005974,0.005624,0.001809,0.644531,0.143555,-0.20874,2.17593,-7.171035,6.351181,-0.005798,-0.001039,0.008366,0.0979,0.325195,-0.587891,0.46991,-6.069224,7.673281,0.00505,-0.007871,-0.000425,-0.239746,0.411133,-0.393311
1.844405,-7.375778,6.218571,0.009144,0.000558,-0.0004,-0.31958,0.41748,0.016113,-0.00725,8.365865,5.043557,-0.012364,0.007286,0.003289,0.071777,0.398682,0.531738,-1.550142,-7.031149,6.739996,-0.021223,0.000633,0.001831,0.642578,0.138428,-0.205811,2.177433,-7.236186,6.329913,-0.018748,0.00244,0.015701,0.099854,0.317383,-0.587402,0.465411,-6.099724,7.668185,-0.0095,0.005398,-0.003506,-0.239502,0.404541,-0.392578
1.828552,-7.356318,6.203351,-0.006589,0.002109,-0.000488,-0.319824,0.416992,0.013184,-0.037457,8.413125,5.037947,0.002081,0.006946,0.00375,0.081787,0.392822,0.528809,-1.577634,-7.06861,6.702187,0.004859,0.006112,-0.001135,0.641113,0.135986,-0.211182,2.17454,-7.228424,6.342889,0.005563,0.001712,0.005824,0.095947,0.315918,-0.587891,0.440471,-6.123538,7.69666,-0.003109,-0.000945,-0.002878,-0.242188,0.404541,-0.394531
1.830333,-7.412507,6.187104,-0.001154,0.000301,8.6e-05,-0.317383,0.419189,0.022461,-0.009553,8.392538,5.061786,-0.019855,0.00205,0.004963,0.07666,0.392578,0.526611,-1.58111,-6.994474,6.724888,0.008733,0.00149,-0.002399,0.645264,0.140625,-0.200928,2.165661,-7.174656,6.362064,0.003256,0.003151,0.008441,0.102295,0.31958,-0.580078,0.465697,-6.112725,7.628461,0.011857,-0.002831,-0.002712,-0.236816,0.404785,-0.384766
1.835403,-7.371252,6.220688,0.008186,0.001987,-0.000215,-0.324219,0.417725,0.010254,-0.022875,8.371337,5.042563,-0.006933,0.010297,0.004489,0.075928,0.394531,0.529053,-1.565719,-6.994071,6.719312,-0.014191,0.00713,0.002893,0.637939,0.137451,-0.210938,2.160205,-7.185176,6.360268,-0.013804,-0.002675,0.013382,0.095703,0.318848,-0.590576,0.442246,-6.063181,7.694674,0.006848,0.003062,-0.007173,-0.24292,0.40625,-0.398926
1.832325,-7.369344,6.201567,-0.007656,-0.000558,-0.000691,-0.319336,0.427734,0.01416,-0.036832,8.409564,5.043894,-0.005223,0.00351,0.004356,0.079346,0.395996,0.529297,-1.586231,-7.067998,6.718428,-0.01214,0.002559,0.001367,0.643799,0.145752,-0.206299,2.185286,-7.23704,6.331767,-0.005934,0.001517,0.008632,0.100586,0.329102,-0.589844,0.455692,-6.110856,7.671951,-0.021982,-0.006117,0.001399,-0.241455,0.41626,-0.391602
1.833104,-7.414009,6.206803,0.004049,0.002478,3.7e-05,-0.321533,0.416016,0.019531,-0.013657,8.401813,5.067977,-0.014671,0.006333,0.004461,0.078613,0.400879,0.5271,-1.575051,-7.052768,6.720256,0.009059,0.004109,-0.002222,0.642334,0.133545,-0.202148,2.186379,-7.230805,6.354303,0.002423,0.007654,0.009697,0.097656,0.313965,-0.582764,0.46436,-6.122162,7.667014,0.010738,0.00542,-0.005183,-0.241455,0.400635,-0.389404
1.830511,-7.36809,6.192444,0.00373,-0.000284,0.000296,-0.31665,0.42041,0.018799,-0.041656,8.368044,5.038592,-0.012121,0.006006,0.00499,0.075928,0.395508,0.530273,-1.587904,-6.985446,6.750829,0.003127,0.007709,-0.001107,0.645996,0.140381,-0.204834,2.160843,-7.170277,6.360432,-0.00099,-0.001122,0.007177,0.103516,0.319336,-0.584473,0.430521,-6.087647,7.680458,0.010547,-0.004669,-0.005099,-0.235596,0.408447,-0.388184
1.851975,-7.37949,6.217844,-0.002519,0.001936,0.000819,-0.314697,0.422119,0.011963,-0.007287,8.379425,5.060171,-0.00048,0.004595,0.004669,0.072021,0.4021,0.535645,-1.564173,-7.011487,6.708588,-0.019044,-0.001699,0.001958,0.648682,0.141602,-0.210205,2.188712,-7.191851,6.339397,-0.015003,-0.004283,0.01225,0.103516,0.320557,-0.589844,0.475373,-6.067756,7.674106,-0.003702,-0.007117,-0.000605,-0.233643,0.411133,-0.396484
1.826716,-7.399713,6.199722,-0.001778,0.002031,-0.000734,-0.318359,0.414307,0.015381,-0.03347,8.4056,5.07561,-0.015847,0.010506,0.005713,0.076172,0.393311,0.52832,-1.588672,-7.070417,6.715305,-0.002249,0.009409,-0.001603,0.643799,0.138184,-0.208984,2.177285,-7.232324,6.343042,-0.000308,0.002581,0.007348,0.101318,0.31665,-0.586914,0.455328,-6.127875,7.684845,-0.011932,0.00589,-0.004746,-0.237793,0.403809,-0.391846
1.836908,-7.383015,6.209926,0.004529,0.001763,-5.5e-05,-0.317383,0.420166,0.016357,-0.029556,8.368361,5.051554,-0.014701,0.002493,0.004815,0.075684,0.396484,0.528076,-1.577011,-7.028584,6.704408,0.005118,-0.000589,-0.001153,0.644287,0.14209,-0.205811,2.168705,-7.188715,6.347449,-0.000193,0.005677,0.008243,0.100342,0.320557,-0.585938,0.444457,-6.139333,7.666573,0.008467,-0.004445,-9.1e-05,-0.236816,0.407227,-0.391357
1.834192,-7.37067,6.221736,-0.002046,0.001411,-0.001288,-0.31958,0.419189,0.010742,-0.006883,8.404986,5.049353,0.002931,0.006829,0.003936,0.075195,0.393066,0.527344,-1.562574,-7.014088,6.697426,-0.004702,0.004755,0.001615,0.643311,0.137695,-0.212158,2.171588,-7.211382,6.326961,-0.012106,0.00163,0.012078,0.100098,0.31665,-0.59375,0.457072,-6.068086,7.682402,0.016629,-0.001659,-0.009167,-0.239502,0.405762,-0.395996
1.828171,-7.378462,6.211995,0.001278,0.001334,-0.000444,-0.309814,0.423584,0.012207,-0.025881,8.404457,5.040826,-0.018199,0.004554,0.006151,0.078613,0.388916,0.525635,-1.567327,-7.040423,6.718261,-0.011052,0.004188,0.002266,0.650879,0.144531,-0.210693,2.178011,-7.215436,6.321342,0.001511,-0.00225,0.00774,0.109375,0.32251,-0.591553,0.467305,-6.078187,7.656483,-0.01669,-0.00286,0.001776,-0.232422,0.410645,-0.394531
1.829571,-7.37916,6.221899,0.001205,0.001841,-0.0009,-0.321777,0.421387,0.011475,-0.011473,8.363781,5.043489,-0.008373,0.005333,0.003912,0.076416,0.389893,0.526123,-1.575188,-7.035401,6.714094,0.001259,0.004192,-0.002347,0.641846,0.143311,-0.210938,2.186289,-7.179421,6.337865,-0.003717,0.003723,0.008291,0.095215,0.319824,-0.592529,0.439395,-6.128319,7.649217,-0.002631,0.004351,-0.004102,-0.242188,0.406006,-0.39624
1.836041,-7.39293,6.17977,-0.00238,0.00111,-0.000284,-0.32666,0.413818,0.011963,-0.037904,8.404748,5.050226,-0.005618,0.007972,0.00446,0.081299,0.389648,0.536621,-1.584367,-7.01612,6.708608,-0.002825,0.005557,0.000793,0.635986,0.134277,-0.209229,2.170179,-7.217232,6.33344,-0.008489,0.002416,0.010623,0.09082,0.312256,-0.59082,0.443055,-6.106465,7.671612,0.006747,-0.005388,-0.006061,-0.24707,0.400879,-0.392334
1.843277,-7.385647,6.199694,0.007563,0.003717,-0.001034,-0.31665,0.418945,0.010498,-1.8e-05,8.380403,5.045209,-0.013054,0.003839,0.004923,0.072266,0.391357,0.537109,-1.567561,-7.029704,6.704667,-0.00734,0.002225,-0.000359,0.647217,0.136963,-0.211426,2.160495,-7.227457,6.344844,-0.003244,0.003017,0.008111,0.102539,0.316895,-0.590088,0.478141,-6.08424,7.665376,0.006741,-0.003269,-0.00177,-0.236816,0.402588,-0.395264
1.811728,-7.358263,6.197823,-0.002911,-0.000318,0.000622,-0.313477,0.417969,0.015625,-0.03411,8.395991,5.066474,-0.010032,0.010544,0.004295,0.077148,0.391602,0.521973,-1.585225,-7.021411,6.728095,-0.001133,0.008856,0.001067,0.645996,0.139893,-0.210938,2.164599,-7.189204,6.352711,-0.000612,-0.000666,0.008406,0.104248,0.319336,-0.5896,0.450186,-6.075198,7.677148,-0.009023,0.002206,-0.006142,-0.236328,0.406738,-0.396973
1.825448,-7.39877,6.201221,-0.002931,0.002332,-0.000649,-0.325195,0.422852,0.01001,-0.02024,8.385044,5.051451,-0.009493,0.00137,0.004912,0.078857,0.39502,0.533447,-1.575894,-7.028887,6.721217,-0.006258,0.000979,0.000937,0.636719,0.142822,-0.212646,2.18721,-7.198562,6.337934,-0.009057,0.001809,0.011347,0.095215,0.320312,-0.591309,0.463299,-6.126785,7.641532,-0.00286,-0.00376,0.000868,-0.245361,0.406494,-0.395264
1.821078,-7.385586,6.203366,0.004529,0.001764,-5.5e-05,-0.31665,0.426758,0.015625,-0.01328,8.401058,5.059975,-0.006647,0.008945,0.003915,0.071289,0.396729,0.536133,-1.548396,-7.013214,6.717779,-0.001759,0.00378,-0.001739,0.64624,0.146729,-0.208496,2.174507,-7.229688,6.355768,-0.006141,0.002064,0.010015,0.101074,0.325195,-0.585693,0.449268,-6.087968,7.681396,0.015616,0.001102,-0.009807,-0.237549,0.414307,-0.390137
1.841768,-7.352136,6.223737,0.001612,0.001635,-0.001448,-0.321533,0.421387,0.011719,-0.032321,8.385221,5.061017,-0.01949,0.004124,0.005338,0.071533,0.39502,0.528809,-1.570995,-7.022404,6.720804,-0.004881,0.004535,0.000643,0.638672,0.140869,-0.210693,2.190425,-7.196594,6.36763,0.002064,0.004006,0.008181,0.095947,0.322266,-0.590576,0.468631,-6.094908,7.691359,-0.008696,-0.00624,3.3e-05,-0.240234,0.4104,-0.395508
1.835397,-7.381757,6.211868,-0.003606,0.001919,-0.000655,-0.320068,0.421631,0.020752,-0.007096,8.378348,5.052704,0.00067,0.005814,0.002829,0.077881,0.395264,0.533447,-1.57455,-7.031653,6.70981,-0.000438,0.006482,-0.000948,0.643066,0.141113,-0.205566,2.156793,-7.20556,6.357701,-0.007884,0.001632,0.011043,0.099121,0.318115,-0.581787,0.449347,-6.100512,7.663914,0.003859,0.006465,-0.004588,-0.238525,0.410156,-0.387939
1.832297,-7.379949,6.19264,0.003055,-0.000697,0.000291,-0.312012,0.416504,0.013184,-0.044672,8.415372,5.052589,-0.013623,0.007659,0.007182,0.075439,0.396729,0.526855,-1.590263,-7.010608,6.722294,-0.005196,0.004791,7.6e-05,0.64917,0.139648,-0.208984,2.187229,-7.208667,6.351795,-0.006833,-0.004119,0.008975,0.106201,0.318604,-0.590088,0.452795,-6.08322,7.672896,-0.003098,-0.00898,-0.003548,-0.233398,0.405029,-0.394043
1.842346,-7.384875,6.200891,0.001206,0.001842,-0.0009,-0.321289,0.421143,0.011475,-0.009674,8.367292,5.053496,-0.013748,0.001907,0.004027,0.074951,0.395752,0.533936,-1.58361,-7.053629,6.717781,-0.009139,9.2e-05,0.001138,0.640625,0.140625,-0.210693,2.196938,-7.203892,6.346879,-0.006494,0.005864,0.011094,0.096924,0.320557,-0.589844,0.479162,-6.109863,7.673617,0.001209,-0.000699,-0.000119,-0.245117,0.410156,-0.396729
1.815011,-7.370551,6.197065,0.003251,0.00043,0.000389,-0.32251,0.42334,0.014404,-0.017656,8.385551,5.043183,-0.000489,0.011143,0.005179,0.074707,0.393799,0.531494,-1.564829,-7.017956,6.709738,0.007793,0.007853,-0.002413,0.640381,0.143311,-0.208984,2.14271,-7.206771,6.359926,0.004849,0.004335,0.006251,0.097656,0.325195,-0.588623,0.433616,-6.088071,7.667899,0.004501,0.005197,-0.007388,-0.241943,0.410889,-0.391846
1.846569,-7.3758,6.201539,-0.0032,0.001712,-0.001204,-0.322266,0.414062,0.01416,-0.031045,8.394268,5.061883,-0.015096,0.000384,0.004412,0.072998,0.390625,0.530029,-1.590622,-6.989456,6.72891,-0.00663,0.000381,0.001451,0.637939,0.137451,-0.209717,2.172204,-7.186119,6.339571,-0.010588,-0.004823,0.00983,0.092041,0.313965,-0.59082,0.453667,-6.091049,7.668901,-0.001422,-0.009078,0.001539,-0.245605,0.401611,-0.395996
1.836051,-7.392324,6.191645,0.001881,0.002255,-0.000894,-0.317139,0.417969,0.013916,-0.009301,8.393045,5.042559,-0.011721,0.01191,0.005036,0.071289,0.395508,0.530029,-1.553381,-7.043867,6.725232,-0.014234,0.003715,-0.000565,0.645996,0.139404,-0.211426,2.180849,-7.235052,6.341661,-0.012582,0.002337,0.012263,0.100586,0.316895,-0.588379,0.473038,-6.098623,7.678351,0.001784,0.001998,-0.008899,-0.237549,0.404053,-0.394775
1.824662,-7.375332,6.205602,0.00453,0.001765,-5.5e-05,-0.322754,0.42041,0.007324,-0.056929,8.389714,5.040904,-0.004383,0.003381,0.004535,0.074951,0.39624,0.531738,-1.593015,-7.050294,6.711466,0.005997,0.005721,-0.00091,0.644043,0.139404,-0.214355,2.173576,-7.212551,6.339397,0.008941,0.00441,0.004615,0.099365,0.318848,-0.592041,0.462356,-6.114684,7.64665,-0.009029,-0.002044,0.00103,-0.240234,0.407471,-0.39917
1.850694,-7.37792,6.231233,-0.002721,0.000998,-0.001296,-0.322266,0.413818,0.016602,-0.002305,8.408305,5.05235,-0.007289,0.005446,0.003264,0.078857,0.39209,0.525391,-1.564362,-7.011136,6.717484,-0.000908,0.001463,-0.000328,0.642578,0.133301,-0.206299,2.165636,-7.180605,6.351342,-0.011008,0.001925,0.013758,0.097412,0.310791,-0.584961,0.45368,-6.107993,7.659995,0.017115,-0.001811,-0.006039,-0.240723,0.399902,-0.39209
1.831367,-7.378595,6.194529,0.00249,0.002987,0.000671,-0.324219,0.416504,0.009277,-0.037415,8.387023,5.054713,-0.015861,0.010474,0.005718,0.080566,0.400635,0.52417,-1.567058,-7.024531,6.727593,-0.009175,0.007861,0.001042,0.63916,0.133545,-0.211426,2.182706,-7.2411,6.335357,-0.00581,-0.001043,0.008367,0.094727,0.314941,-0.592041,0.449514,-6.070821,7.700231,-0.004414,-0.002339,-0.004523,-0.244629,0.4021,-0.396484
1.837427,-7.360011,6.235682,0.004334,0.000637,-0.000153,-0.319092,0.425049,0.008789,-0.030059,8.373643,5.024603,-0.00581,-0.000409,0.005028,0.084717,0.390869,0.524658,-1.579421,-7.041543,6.723558,-0.009233,-0.001456,0.000844,0.643066,0.146973,-0.214844,2.18653,-7.193855,6.356936,-0.002298,0.0016,0.007753,0.0979,0.325928,-0.595947,0.472205,-6.124326,7.664807,-0.010154,-0.000162,0.001438,-0.241699,0.415527,-0.397461
1.81943,-7.383407,6.206442,-0.005508,0.002314,-0.001033,-0.314209,0.424072,0.007812,-0.03788,8.406526,5.061578,-0.004438,0.011505,0.004804,0.073242,0.397217,0.524658,-1.560411,-7.041704,6.709431,0.009757,0.007329,-0.002546,0.646729,0.144287,-0.215088,2.173108,-7.198909,6.338635,-0.002655,0.002923,0.007963,0.102539,0.322998,-0.594971,0.438326,-6.087266,7.690122,0.014474,0.002089,-0.010881,-0.233154,0.412109,-0.397949
