# sampling frequency: 40
# units are seconds/meters/radians/a.u.
seg1_acc_x,seg1_acc_y,seg1_acc_z,seg1_gyr_x,seg1_gyr_y,seg1_gyr_z,seg1_mag_x,seg1_mag_y,seg1_mag_z,seg2_acc_x,seg2_acc_y,seg2_acc_z,seg2_gyr_x,seg2_gyr_y,seg2_gyr_z,seg2_mag_x,seg2_mag_y,seg2_mag_z,seg3_acc_x,seg3_acc_y,seg3_acc_z,seg3_gyr_x,seg3_gyr_y,seg3_gyr_z,seg3_mag_x,seg3_mag_y,seg3_mag_z,seg4_acc_x,seg4_acc_y,seg4_acc_z,seg4_gyr_x,seg4_gyr_y,seg4_gyr_z,seg4_mag_x,seg4_mag_y,seg4_mag_z,seg5_acc_x,seg5_acc_y,seg5_acc_z,seg5_gyr_x,seg5_gyr_y,seg5_gyr_z,seg5_mag_x,seg5_mag_y,seg5_mag_z
2.1221373308192786,-6.078790497018497,7.341419583195531,-0.0002523692697709251,0.001990995739213799,0.009908171966518737,-0.5643741489778559,-0.03520550310982796,0.1757640245565194,0.12325141014315397,7.622414442489432,6.180795465747128,-0.005165250150524624,-0.0035179557093281324,-0.01106798687701205,0.3618840393211687,0.399342528104693,0.5364778391663045,-1.4563317472763957,-5.972635559136701,7.606430114358095,0.001889938222983111,0.007559009477085147,0.005278432839266251,0.6804044337733448,0.14790777787231243,-0.34454933737485083,1.4761279580593483,-6.042763320150763,7.799290187807226,0.004257113219367713,0.00746440704975212,0.004968383684166867,0.036617084154862554,0.42633572084383137,-0.7978728538762091,0.24347547850907675,-5.9640516907449355,7.797696363059878,-0.0020526841943581077,0.0018916215073508584,-0.00406560520355335,-0.28592382845529823,0.44355229469132573,-0.39030895151344464
2.141568952625255,-6.061746001783197,7.35787368192999,-0.00540088174106987,-0.001227891688573635,0.008981791882475894,-0.5700014264518763,-0.04179238500060416,0.17407579910138998,0.160143942117359,7.622571680410193,6.197539679278032,-0.011390463140676977,0.000403875733702641,-0.008636686739288704,0.3615731080171059,0.3984792115282999,0.527702881205546,-1.4380792836014458,-5.998611576032182,7.604751901308354,-0.005274525322350899,0.0019153433667537907,0.0005935751100841396,0.6791324835645504,0.15195293747449798,-0.3533803616336327,1.497878885360541,-6.031954889452551,7.81272470329459,-0.004155128476329278,0.005175893842695575,0.005059707034438217,0.034788950175436865,0.426856311069707,-0.8046756187530802,0.2845102799848376,-6.014862388364114,7.810890809516523,-0.010773494731444814,9.488801353409954e-06,-0.006988962529172672,-0.28593456387030614,0.44623762876769113,-0.3956797737641969
2.1395166173909894,-6.069194805073933,7.312574045302066,-0.007009045370238197,0.0021675066716625993,0.01289667894561389,-0.5697438181170453,-0.040574030833015036,0.17676072983944335,0.16027957243740018,7.577666537705077,6.187373319160001,-0.015177344079958957,-0.004975173082069745,-0.01060237150273388,0.3627421295120977,0.4037717471780801,0.5222431579396604,-1.4233652841579332,-5.9728101271563965,7.564541759586565,-0.01554418542173994,-0.0041645129558199176,8.991893780271554e-05,0.6822723428503678,0.15334697126197241,-0.35951830440500543,1.483619281324439,-5.990883890220227,7.78456516404424,-0.017208420659643946,-0.0056897870438788415,0.0077255095492820385,0.03841089602647762,0.43074846258446065,-0.808391798086526,0.2849216313309225,-6.034186049643701,7.788099700925192,-0.008280881913123291,0.004315773018101726,-0.0019018640848211604,-0.28349276853540084,0.4496315484139986,-0.4005796433519352
2.1429147752279776,-6.080897962207087,7.360140500062029,-0.006898023607232183,0.0028749057391481334,0.012389798557889495,-0.5700526043941467,-0.03226028896985693,0.16212174806925708,0.14170693689948846,7.602616528974226,6.19344578446211,-0.016351669031256167,-0.0012615478561306716,-0.010304536665903523,0.3695939302635981,0.4013640214119516,0.5236909728784077,-1.4262177934688112,-5.9953582025285375,7.527196982794575,-0.01653467910178581,-0.001868509455907818,-0.0018662329474507214,0.6893658571775427,0.14995849011331405,-0.35756290598132073,1.4526881817455535,-6.054477565229744,7.6274510998627525,-0.01859989725187057,-0.009023825483948596,0.006786511906354955,0.046431404284024064,0.42825642238493256,-0.8095193511604721,0.26078384366815244,-5.976392840254155,7.80028452694788,-0.010052955384446158,0.004091438750782061,-0.0028625366350378714,-0.2796162559287275,0.4483728964886777,-0.40304787396133707
2.1237154977985644,-6.101598781685917,7.310362501869118,-0.004731987372002512,0.001363509002049268,0.011336026319329862,-0.5724302793259526,-0.03739866649265555,0.1760445137554223,0.14508476197202058,7.574081987585214,6.210996196066919,-0.010217794420225825,-0.003919133209431318,-0.010567658968415595,0.36529104962998915,0.40006233624478527,0.5352194489259384,-1.426009560784221,-5.9959666161258705,7.494588325262508,-0.007093795860531277,0.0018103487638992464,0.000903610337566911,0.6850352436911012,0.1496061060120101,-0.34581548272018814,1.4552429082705611,-6.010349320599208,7.574633563606221,-0.006101422187501933,0.0016073037000183526,0.004223997645094804,0.039133284490347,0.4277735296218034,-0.7942511979304165,0.277884114991867,-6.011884547172569,7.773168404922916,-0.00806602413770578,0.0025345993575442327,-0.005111597177662192,-0.28270845880249995,0.4471824188843602,-0.38959906395966587
2.1653359898600106,-6.0904738355896,7.34466022046551,-0.0009868844014902284,0.001511499910485065,0.009865238628573508,-0.5726821388308796,-0.036907927490364145,0.17433715321312085,0.16092368308809146,7.593064418632463,6.191667474887925,-0.005991008728734879,-0.001714046892848695,-0.010109311878725387,0.3632104372526469,0.40912481698926956,0.5209385670242105,-1.4083730089625262,-5.987269745760368,7.522441668395537,0.0015139185298882916,0.005199793234316976,0.00471445330926209,0.680543989530119,0.16015200049770767,-0.3620311573456237,1.4870876442196483,-6.017911892292887,7.5998646280845765,0.005195285458340949,0.009861932707170753,0.0046865582558618495,0.037449524267107834,0.43564075563942684,-0.8093362698990306,0.2814050311359095,-5.977911519018006,7.8058415790649525,-0.005229973545261892,0.0013022668809771923,-0.004664491256993702,-0.28587596007538696,0.4567356811096544,-0.4022714299006031
2.1578115666710374,-6.071976885138486,7.331495208779898,0.00010255981208072995,0.0006970144602672586,0.009644270855130746,-0.5638826991019552,-0.04424139068207276,0.17746230922088788,0.1577058350374109,7.593905408454876,6.20214643953341,-0.0038981796000904976,-0.0012293621155071907,-0.012080082516042428,0.3635557192402873,0.4039294806746171,0.532733964386176,-1.4178847339426264,-5.981253811832569,7.526080479311114,0.005493777690341524,0.007175518156023931,0.005549680881066645,0.6818352428054867,0.15223694418713063,-0.3502249704260782,1.4753755219668483,-6.013138402336264,7.694215630580413,0.011305164385048397,0.013745009412888098,0.002835986506782237,0.03904505919428727,0.42705522132120344,-0.7988904993306734,0.3033337798097401,-6.051560811343968,7.8114382272122755,-0.003230044683532812,0.002742388959177709,-0.003600300978940735,-0.28468226099078836,0.44817821527522156,-0.39397930544495585
2.1216929336265675,-6.082298634269601,7.339707432161736,0.002359524852378193,0.001652200332532255,0.012224395998665535,-0.5648821787508288,-0.028120442935913044,0.17064596817916508,0.14257366779120806,7.6159068393749685,6.1774697512243755,-0.005080586614517955,-0.0053775810927295655,-0.014868471651232297,0.3613783273084492,0.40567803701450916,0.5356552492236045,-1.4410091681283619,-5.979434504346768,7.563558099951459,0.003710247220685125,0.007663088236227546,0.0049754035258649425,0.6806281482518732,0.15569139600137444,-0.34708530063425225,1.468088736360609,-6.017885805525023,7.8100576618622055,0.006768082357602741,0.009961307026348381,0.006457902564109255,0.03376009186924382,0.43318685280525576,-0.7963361018054237,0.2774512785356639,-5.996706822245604,7.792784225314721,0.0005268258199270979,0.008773187045409452,-9.191638438209361e-05,-0.286039091251968,0.4552729955643989,-0.388598085203166
2.1357345628557,-6.052930813276113,7.3616668053924545,-0.0017491055116602733,0.001272154589941326,0.008597646108579422,-0.5709891934399598,-0.03641782957799461,0.17091147241368046,0.1442669328152799,7.603873793754251,6.1711620006230925,-0.009930890263291178,-0.001893138542048301,-0.00947792477492197,0.3669261563141199,0.4038446097991162,0.5266041608929288,-1.4433245112473863,-5.991789190962085,7.581253924738073,-0.0033795451815087736,0.004592653421529174,0.0013826423673015387,0.6874211197365628,0.1524218675749485,-0.3556285973794781,1.4797850896736853,-6.059766821384493,7.8064885868063065,-8.45841729654228e-05,0.003585978463315765,0.005195950055410393,0.04090189406219396,0.43170188080456134,-0.8059913197001127,0.25328682426974525,-5.955253801489947,7.784510316911712,-0.006999462649085274,0.0016769250670496548,-0.004964113611064988,-0.2807845973382987,0.4505815727772379,-0.3986454185779138
2.1487618778045174,-6.086347283373877,7.337025210224334,-0.008493925612132061,0.0013370919835966446,0.012198000111615368,-0.5663581997186922,-0.03080370833254058,0.16869751265909558,0.14820486141539566,7.6089998341270295,6.203069510419957,-0.014531494598301452,-0.0015529075072284917,-0.008946153587633576,0.36596644038999165,0.4063236214717213,0.5292610574795618,-1.4385343871336045,-5.996145986177541,7.56754886178947,-0.012283877727645094,-0.0028060670236233747,0.000540313641506716,0.6842512862529447,0.15365168295124557,-0.3546491302660146,1.4867583873714914,-6.009732287447775,7.8138170780530345,-0.011490420427042822,-0.0013683181886861358,0.004554048171057016,0.04097367982951368,0.43193436000111146,-0.8020852766605674,0.2875095651467319,-6.0245714678025175,7.794105618305923,-0.010995137602038539,-5.324391195566017e-06,-0.005768386842358667,-0.28219909875921495,0.4520606531902547,-0.3935082904052812
2.1457698894815618,-6.071664433862398,7.353298335864436,-0.004679579881469335,0.0008912117216469858,0.013783366453814774,-0.565109869432026,-0.03740258799945139,0.1752764977356118,0.15742011363711653,7.607463692041154,6.1973299488528975,-0.015635818624041686,-0.002402431751393627,-0.01071515952452258,0.3646950648509748,0.4138194700267719,0.52451957620484,-1.4316700999899798,-5.9780669036817535,7.548322438406003,-0.012966646989790344,-0.0028356968895705097,-0.0007217783542343194,0.6847212378040956,0.16437301785957045,-0.3564882847791278,1.4942270750526654,-6.031280402942179,7.712331642566157,-0.014433175789403407,-0.00451205600063886,0.007216063281268963,0.03946747416820817,0.4407494934756876,-0.8076481659576196,0.29444538409429016,-5.990897320757893,7.817271696207538,-0.007947383306327722,0.004342482748571694,-0.003734234481210394,-0.28242169298424047,0.45865530974536556,-0.39985331725558837
2.147948101002326,-6.077901785446737,7.329481849562209,-0.0059502844577067875,0.0015911689756751028,0.011456064427333764,-0.5716692601265514,-0.037648790023810046,0.1821437150963608,0.13681694107716758,7.600562589992011,6.19825308479754,-0.01408023387007552,-0.0014128967111744473,-0.01054897445477666,0.36325928064429946,0.40848285506585386,0.5270526167632931,-1.4210084367258309,-5.984618185192569,7.490636224870983,-0.012363129445949753,0.00023600855801139312,-0.0001384892170370951,0.682793457677615,0.1558675939970289,-0.35295851230735936,1.475456038854815,-5.995219109655039,7.624757507363359,-0.011414371464851967,-0.0026038458558300744,0.005962273628528778,0.040970946130098565,0.4321790727358594,-0.8023285464785466,0.27063766373274273,-6.011598714474454,7.795977571234244,-0.007332338851582602,0.002250227323055085,-0.0024666791360346534,-0.28341634710887176,0.45524701454012906,-0.3976496167391125
2.1420235856250103,-6.087736509526165,7.3256620060018705,-0.003392796537342941,0.0017266721047624377,0.011324959739391084,-0.56146806444564,-0.03788903724895443,0.17110858320088423,0.14617740839235283,7.58535416376568,6.2242856123805375,-0.010902435677796203,-0.003376617424234833,-0.010651432300957,0.36867417705027866,0.4073525869218326,0.5323991177532045,-1.432761545571953,-6.00204339558137,7.488434279286447,-0.004172567714077056,0.0027862555297269143,0.002767492871627309,0.6874646513520731,0.1578999002469577,-0.34665920163378533,1.4547027542851552,-6.031720784293675,7.594279516121386,-0.002480755887131303,0.004577301078962568,0.005508950994607912,0.04450400489078123,0.4362916663900102,-0.79749706459103,0.2758711121381676,-5.9904824878552185,7.776873409981969,-0.005334991372305786,0.0030923569852289606,-0.002064539012304798,-0.27825076793139286,0.4539743450816255,-0.39036160945244014
2.140948722685704,-6.095969338414369,7.343503716910841,-0.00112859136376136,0.0010392485991138607,0.009152469496419157,-0.5641282622824733,-0.02641575588139037,0.17479399445739485,0.1370009859425599,7.586534240081855,6.194416148091554,-0.005408975013779126,-0.002204994633008524,-0.01111666339189582,0.36691639429994416,0.3979452605858728,0.5240067759458553,-1.417400940584406,-5.979613161121165,7.520534904568158,0.0051143811658161085,0.0069289227207924835,0.0037634964089302858,0.6876785857400601,0.14633592881627222,-0.3540924861586725,1.4794951014406317,-6.017545858686535,7.657964662572929,0.009890531528074606,0.011168522027570838,0.0038869673026444645,0.04179357511444014,0.4216884822677059,-0.8070140184060699,0.2773924627959662,-6.004385514199818,7.786869823520705,-0.003710279673234,0.002279175833583162,-0.004973022347224784,-0.2808848535307921,0.4432582764068335,-0.40255145121565344
2.1412789726513393,-6.060621342521007,7.336819862462761,0.0009481107712700873,0.0018759056493898893,0.009184316357791076,-0.5638727108359628,-0.03398807643882344,0.178203785628957,0.15415291621717073,7.590519189982382,6.197168815369883,-0.00370965921407571,-0.0018615274062468415,-0.010363885817164095,0.3669397701463251,0.4006855254740158,0.5276282731379867,-1.4326548708278672,-5.983123172850638,7.554632377667884,0.003294098993324109,0.006824903411674847,0.004071525296923763,0.6854762700276865,0.1507258364994227,-0.35437689086406243,1.4979048539578843,-5.9950508009085475,7.762750749845135,0.006067853362328377,0.010892618343742909,0.004491896057438962,0.041095287593605034,0.4248651511790098,-0.8062599904449161,0.29597017255343705,-6.034350243602697,7.792591669112771,-0.003453676429641272,0.002726595486057009,-0.0023767114201673416,-0.28130198914486987,0.44643649326532575,-0.396933125799672
2.1528496019460404,-6.0635189088866115,7.3565420812750935,-7.407856471936297e-05,0.002100519327274979,0.012463451404887547,-0.5607026947342871,-0.038383841500386685,0.17794054536103326,0.14073523792407686,7.610835213439479,6.163190598728722,-0.007344429713062838,-0.00457263137785902,-0.01183543828812853,0.3649798888650827,0.4043436364019839,0.5275889946182085,-1.4169429563991456,-5.997114591672563,7.587878269238633,-0.0018232865646855263,0.004777765053624537,0.004804383123294954,0.6852241149573991,0.15388778576966106,-0.3553902198496183,1.4786262779015946,-6.055589304227893,7.779753282923927,0.0031531269986304566,0.005687121059412519,0.005921126006605022,0.04092919142215819,0.42729764507709356,-0.8028312696196497,0.264905911233227,-5.993399805073618,7.802611328533429,-0.0022950350485787473,0.005642187249606311,-0.0020185371351984353,-0.2827369625545993,0.44962395627237134,-0.3971668369292429
2.119961457875556,-6.071879057362248,7.322978182603093,-0.005317921622379541,0.001242690376595104,0.012621731150921654,-0.5677978094835847,-0.03129577199335381,0.17407500343812377,0.14945322852545212,7.603792088815762,6.177440785864656,-0.013288709261306554,-0.002570147341191278,-0.009851785260196895,0.3693513260794059,0.4006316694786291,0.5237037734866448,-1.4262502294098296,-5.956092660606103,7.589356577962556,-0.00629639757959783,0.001511138095988397,0.0007418761180191384,0.6884018828797666,0.1497397951173477,-0.355357946332718,1.4824162823900295,-6.008027752943939,7.809159300529881,-0.008354354469437525,0.0014338061491344623,0.00659633377913015,0.043501769139331806,0.42485454463746847,-0.8082565642780996,0.2582542290351114,-5.994759796783765,7.757542545540279,-0.008175231715994252,0.003126694850665516,-0.0038367522334160965,-0.27693604792962806,0.44590401697094667,-0.40038173367836405
2.1495172820198203,-6.082998782782571,7.338131718815142,-0.006840367382099834,0.0007659994056579254,0.010085538408455762,-0.5704723257913402,-0.03691179964795713,0.17701161490413028,0.13474998164775234,7.6039585478927805,6.207757893141391,-0.014271884850210248,-0.002823737720692456,-0.007749066144192973,0.3691341854125161,0.4065623367768838,0.5285007664330847,-1.4443311112714337,-6.003392270020907,7.560696536802191,-0.01179320479846842,-0.000778643541530432,-0.0003154977283822974,0.6901152825301768,0.15635602133184812,-0.3534916469685937,1.4740369534861102,-6.045951447461573,7.734967686541147,-0.01357245677071265,-0.0021711122528611814,0.00626335076397709,0.04361156011548496,0.43461208434326126,-0.8057873632268624,0.2749166387378912,-5.986469900535572,7.783979595282845,-0.008989995135825166,0.0026337821090027303,-0.0033770962764092154,-0.277586490376269,0.45128169366029225,-0.3962256238327901
2.1570580280998497,-6.091922413901238,7.3444604556728805,-0.006193163839549549,0.00029694724456043374,0.011861029508033602,-0.5626578387155025,-0.03838238734104018,0.17770589264287742,0.14560300790009867,7.601134254869922,6.192203407611908,-0.013219661930040056,-0.003194847202765909,-0.010373087043230115,0.36764460145180505,0.40749295894380744,0.5255680652879928,-1.4195428413789475,-5.985235486595672,7.5261757253634896,-0.01156573653005831,-6.321399990440846e-05,-0.0003012233515033014,0.6879098291456236,0.15878435155524848,-0.3544857720586517,1.4889145969769733,-6.017042031758663,7.672672441884149,-0.010762009228950188,-0.0030612228018250393,0.004532974554702189,0.043120354552405635,0.43412736747439046,-0.8057799705391233,0.30198794887186337,-6.012715315413348,7.80257978677443,-0.010989937959033616,0.0011936602048528693,-0.004443286505723288,-0.28004580636605503,0.45081821345037226,-0.3981615434998721
2.145398770482166,-6.082560362132271,7.327521692893986,-0.0021527730115127406,0.0012608616794477347,0.012433611309117019,-0.5607293727077315,-0.041797081349575355,0.1728104444831125,0.14641560889643307,7.57579383998498,6.228537819304955,-0.011063118776489312,-0.0027144326658949188,-0.011228131778689285,0.3576951004848664,0.4058754665049475,0.5329945655215563,-1.4148115770918785,-5.989790624146978,7.5122793202119915,-0.006749137730469627,0.0014683919770590965,0.003575054390755442,0.6779274738201522,0.15565427396789602,-0.34999961797601153,1.465488933603092,-5.999683739396069,7.631413422715631,-0.006685719832885419,0.0021354020805790276,0.00629738963939991,0.032249881982897084,0.43295987188660084,-0.7987510526872734,0.2885598981374653,-6.015176140199236,7.7752876452526,-0.0051065235433882345,0.004907156832245048,-0.0012959572232803084,-0.290005903757178,0.4531145183030915,-0.39418571792739987
2.135174706818078,-6.087296084205858,7.347184418636731,-0.0015846698702630152,0.001502253895795461,0.010540096424361968,-0.5651006646494854,-0.02470682333970897,0.17553323880442204,0.15176132512006618,7.600275474061356,6.1971500272193865,-0.006985501643402328,-0.003171375934424531,-0.011270028858551174,0.3661439561294808,0.4052172011004439,0.5204859247099534,-1.424204515105926,-5.9977116690282495,7.53282164275481,-0.0007225127890066052,0.0042585890295923235,0.004118592083073755,0.6825143191816314,0.15554502375311122,-0.3595457398074385,1.4666663432101386,-6.039695388876672,7.60828850365721,0.003395549737804254,0.006418630417840321,0.005168804749385728,0.04062449965574376,0.4319532693738382,-0.8079399202570529,0.2744138775393167,-5.973475559277396,7.801996674830965,-0.005113914096336099,0.002512157855978013,-0.003949178714865015,-0.2834759890737251,0.4535386306113951,-0.40375349781495856
2.137254174409509,-6.08908752963701,7.31489142986512,-0.0015846650886632923,0.0015022529677665387,0.01054109641249943,-0.5714576891353895,-0.04277027635146561,0.17603487809482476,0.15364285193283828,7.5883949925405485,6.190653513024332,-0.006473841488309681,-0.002429215521802621,-0.010120903187605022,0.36475436451731735,0.4036440219041861,0.5297984849040066,-1.4355085824993086,-5.979036557315086,7.539903844945278,0.0026506655751295737,0.006656364842569216,0.006012146379740892,0.684037302310576,0.14955882812336774,-0.3497158984419133,1.4729568860539215,-6.0027315919604955,7.72209035382789,0.005585544903757293,0.012018868759763686,0.004504878784572062,0.04067755956900554,0.4268120124540887,-0.8030722226564688,0.282697882019215,-6.022104728317896,7.813312890152684,-0.005703400523165841,0.0026380405465349244,-0.004049055142522676,-0.28250319196422674,0.4479125245542731,-0.39619159399265524
2.156526045916499,-6.071808340167556,7.331785515483963,0.0007190791405144813,0.0004571091310232138,0.010201106872884537,-0.5651140034390617,-0.03471545749099182,0.17405899679495848,0.1468286519878604,7.6140371476397695,6.176895451388429,-0.005868555249443638,-0.003551753313736049,-0.012778257223995473,0.36053802283598246,0.4025287795314365,0.5210576469993055,-1.4408211862918743,-5.9904489450636,7.579474407360043,0.0007175478291831891,0.005504075742184833,0.004882122216529095,0.681073438023746,0.15217245610975802,-0.3555915731468312,1.4872165031808275,-6.041671918064089,7.768426183294297,0.003534599777887412,0.00915028048840052,0.00498633015290354,0.03230681906459789,0.42541275186011185,-0.8063445800938542,0.2880294582653636,-5.991789216396169,7.805302114805995,-0.0024142205323617874,0.003239291275702943,-0.004056963920504786,-0.2862250376171684,0.4455085853289278,-0.4012929462777386
2.141521826855989,-6.0644537310910005,7.356530378480457,-0.00281382268725974,0.001849487702908343,0.010047290138214045,-0.5675546662670875,-0.03422592408956417,0.17407112151264553,0.14503148741481983,7.612758671372823,6.178512701811914,-0.011225116537256205,-0.001445824490155186,-0.010168626223275431,0.3679101650387799,0.41218907421782347,0.5294025656875789,-1.4339320824943045,-5.984984395654731,7.588715259735465,-0.004058930558306942,0.0024544262438379568,0.0013447076025670396,0.6896307786644759,0.16003474990594518,-0.35206866661657094,1.4826157589932172,-6.002294568815337,7.791692727087091,-0.0026904385022090108,0.00047985036109669094,0.005776681858713246,0.045383345562262874,0.43874576408702126,-0.8038536726863119,0.27444750729186496,-6.028728571398296,7.798164538271884,-0.007108660261586843,0.002270020510511099,-0.0036892686493660252,-0.27925911276563187,0.455449582218419,-0.39694660254928454
2.1439523345709883,-6.0740768366727105,7.342002653909466,-0.0055330978009242105,0.003005914945130254,0.01360840806516509,-0.5682524992353641,-0.030325809996084623,0.18091415886503726,0.13184961823140182,7.6179210422567945,6.178095196497493,-0.013161573100702687,-0.0038124631277967475,-0.010887408204621044,0.3689268070415775,0.39830184630113824,0.531310864885343,-1.4322363590064806,-5.997753740678698,7.552956947310076,-0.010388915669222027,-0.00012078131729242201,0.0013272859869621855,0.6881974469994461,0.1481149010057159,-0.3482559252755244,1.4773450318380772,-6.022065008708214,7.7342115732564825,-0.011446835631622791,-0.001836172856010077,0.00793144559745969,0.043830059604476584,0.42239442292267726,-0.8026537835828637,0.27077732616295286,-5.977880640976084,7.807957822565667,-0.007580926152882007,0.004798818670689159,-0.0017457044510439733,-0.2775998532711918,0.447375568944876,-0.3925637812446039
2.1466166237124145,-6.083890877269005,7.327244631564138,-0.005161116229668127,-4.32396410124246e-05,0.009194747337328056,-0.5668048020440113,-0.044729135424910936,0.17918484933997397,0.15997857322415462,7.607318509925261,6.206061455635505,-0.012708220175614708,0.00025003422103860463,-0.010942475581714083,0.36106799947690527,0.39746507954771937,0.5252805774077989,-1.420349803812051,-5.9714152543446986,7.534336426446161,-0.01239891809827033,-0.0003446402077332216,0.0007386813383307492,0.6800995089435912,0.1485069804753544,-0.35578678206164277,1.4760317200904811,-6.038755365440281,7.694868440928081,-0.010868167549474075,0.00024009531941630806,0.0043515825114724726,0.03765708895843901,0.4244019451578345,-0.8071757695269492,0.2796687890820565,-6.000781046179119,7.788336282496269,-0.010404220913578413,-0.0007252392100060043,-0.006334588326776053,-0.2877006377059811,0.4447912635788525,-0.40177171959024127
2.1534218157122655,-6.085227536281511,7.315733714853058,-0.0045992270747037016,0.0018367557592760628,0.012059839285665404,-0.5599691424061238,-0.03960575353557981,0.17842390957164087,0.15387420555953918,7.576614228254102,6.222233719931928,-0.010864284963773261,-0.0039730776050610865,-0.011152911887488947,0.37383207090873616,0.4020313278484195,0.5351236962194089,-1.4059076196963871,-5.9944781244469985,7.513175360744885,-0.007849092909664932,0.0006065046650047804,0.0014030187407070335,0.6928292387409227,0.14908418146318225,-0.3492693860090324,1.4827074618585185,-6.003777403878541,7.664056575716253,-0.008571333510544156,0.0012408720873461267,0.004613332885655238,0.04881745625313955,0.4262546418492362,-0.7983362455682144,0.29517712378436173,-6.032042395665684,7.802333643427533,-0.0071080478230755055,0.002869032546646337,-0.0030242045881777907,-0.27686106082393713,0.44590308214487684,-0.3896399954549628
2.134868538903408,-6.093918244255683,7.355129831305844,-0.000953305405413231,0.0011487750001378777,0.011706763293202273,-0.564335266917936,-0.02910930382637935,0.18309358303448364,0.15788738429256652,7.602456278374875,6.200706408464579,-0.009972409262063423,-0.0024631955320309606,-0.011084334498782251,0.36719017920061814,0.40486096004653666,0.5292733407463619,-1.4143209710278588,-5.990142742771917,7.515683164386439,-0.002276198144008029,0.003348966988686366,0.004780799422471452,0.6852454070360043,0.1492868542663507,-0.352161354267214,1.4520733549617166,-6.036010421902,7.655574234722478,0.0004732637029961192,0.003814498432546269,0.005096590249914983,0.03995280936761251,0.42657148552792146,-0.8025718348634828,0.2830317187060172,-5.985932999848721,7.798465345755754,-0.005360889033150723,0.005659751274325115,-0.002563146949946399,-0.2805466917954385,0.44911410770795884,-0.39742617732897156
2.1441470146949975,-6.0715445409665305,7.311281708642339,-0.0003970484206244136,0.0015097398222261116,0.009202408772754248,-0.5623990069687775,-0.034966808742435775,0.1801488537485119,0.13939880682326855,7.587099773327155,6.202203179950516,-0.00714818638479736,-0.002504180398525766,-0.011845787307724082,0.3632660355759408,0.40090114905128876,0.5261884169718065,-1.4362751853128604,-5.97687565911368,7.53455680977713,0.0006426864147045127,0.006430555364654603,0.005427554410088044,0.684031162760621,0.15052414216846277,-0.35070442719732137,1.4879820598275855,-6.010377878723659,7.704269063504049,0.004264404030385544,0.008750488373090556,0.004226921160613071,0.037722354194987366,0.42756866442707214,-0.8047262008876297,0.2676499845226741,-6.009770582429321,7.780697214165009,-0.00382105874221439,0.002274268895595756,-0.004360234521109231,-0.2834980981570014,0.44670239641509907,-0.39716177776615275
2.1505374886425654,-6.059226824791681,7.326684765870089,-0.001573804575771119,0.001382678206250569,0.011154940794788718,-0.5629121224099359,-0.036182969166183944,0.17526712071937628,0.15227786715195382,7.609480926096378,6.2018815096678575,-0.006937716570423241,-0.0031634971974464875,-0.010142358466856858,0.3700753351700254,0.4028224385906692,0.5231764258456796,-1.4208024790864466,-5.990946906885107,7.567751929556794,0.000415216308210639,0.005717125680919947,0.005413256262727783,0.6864342451019246,0.15141797998003506,-0.3578085520010899,1.4747488098233605,-6.036299214923238,7.753439415820806,0.00385208286697327,0.008645265959571578,0.005643249336529793,0.0430462383747068,0.42705187577984954,-0.807264742936727,0.2828206928470622,-5.9787717077398135,7.808008674651781,-0.003343398154225782,0.0021394895181383335,-0.00364856333151774,-0.27841554781428646,0.4461628166263075,-0.4028124423877081
2.1621634419936577,-6.07207927443683,7.310561056501672,-0.004018266959942007,0.0019605728842581193,0.010779161080721923,-0.5653301232770799,-0.038627191929609825,0.18040347525243194,0.1506987843390154,7.608188958693148,6.203505266638242,-0.010207434695898791,-0.0005678501377441118,-0.00950052615122055,0.3676851979392506,0.4031602929001539,0.5297829059586919,-1.429323195328998,-5.974951260419842,7.583766817813418,-0.0021248039351745808,0.003608739837322485,0.002476702449546231,0.687195012572372,0.1529502642688445,-0.3522153765421777,1.4782787479425497,-6.030567713706332,7.782026659421323,-0.0016112457514069105,0.005610018556097613,0.005310349040205704,0.0453584957136577,0.4292175428374668,-0.801683954892551,0.2777656473077421,-6.019592285185075,7.803872309383722,-0.007473865625696391,0.0030137084743191017,-0.004346670546619691,-0.2795571056837428,0.4493482318813543,-0.39596802946302284
2.141951731290657,-6.062589978976711,7.304614436610608,-0.002790110615197176,0.0016113387786836323,0.011272970287163644,-0.56607839322276,-0.03325210986947617,0.17650599517740642,0.14697007833005768,7.588690286329052,6.168345837169942,-0.013545985304165536,-0.0018724118569088944,-0.0115214179239119,0.3730992673360165,0.4044780364495956,0.5355819995520829,-1.4311419707005868,-5.997503991952297,7.556972448002342,-0.008190210132180329,0.0002298920218825518,0.002810446521285444,0.6933276347863774,0.15204341411317543,-0.34686604073523397,1.4805201440065163,-6.013192222867004,7.766759104025096,-0.00748440676790579,-0.00013177126391333643,0.007891311910356394,0.04521645236785029,0.4287139195437098,-0.7958229184427498,0.2795233562880414,-5.9987925949846845,7.7938886060774175,-0.0059264666746502645,0.003217259395214148,-0.002161401568003071,-0.275140019109514,0.44710699060365666,-0.38965190511886116
2.1416267387996077,-6.0821012317417225,7.349420415100321,-0.004108586179188613,0.001015028633539633,0.01250973598767276,-0.5682586463466517,-0.030812676566303234,0.17969272194246355,0.141659982738478,7.597670088606698,6.178479742333435,-0.01117600163276461,-0.0020523682696941942,-0.010677041771483113,0.36984106844242587,0.40774084252392423,0.5255472929549208,-1.4276356494325586,-5.9780492172635,7.559931570840872,-0.009819986560926305,-0.0011344224530824832,0.0011512708808829903,0.6895926809801562,0.15579216006266816,-0.3598306782107501,1.4805641800846274,-6.041828141594925,7.699497762271964,-0.009996404882289875,-0.002627658670693777,0.006399814164462822,0.04288962981085831,0.43363814518687077,-0.8048011076033494,0.26219838188818045,-5.975243015075832,7.808015940898988,-0.008176197748914517,0.003128704542717391,-0.003834745265988958,-0.27878307897471283,0.4554448678186658,-0.39865896775692516
2.1478971464756222,-6.079814222026128,7.3289063115825615,-0.0053752917871030354,0.0017209842985834141,0.010181420394401362,-0.566565993413771,-0.034473028925820465,0.17675119654685886,0.1418579480344545,7.580077891962946,6.203428868169607,-0.01327078841308702,-0.0025470107783776247,-0.008703107088270459,0.3676233036060026,0.4086764333855164,0.5231082484965253,-1.4174871196480312,-5.985586529954525,7.5335034936953384,-0.00932728224095874,0.0008880625447045454,0.0003005077606128976,0.6900842225893045,0.15873398660061,-0.358891213753127,1.481517037618574,-5.984518834447264,7.675724654717941,-0.0069019712048569125,0.0006433157493133838,0.005061669717989448,0.044756236496673034,0.43388344603511775,-0.8097177162896616,0.2899189685382872,-6.000847780818435,7.764284136716673,-0.00899097811527202,0.0026347919377397726,-0.0033760893020654977,-0.27859263064963474,0.4554431061320842,-0.4064724877915789
2.1558989383234195,-6.0956862495603605,7.353721614888729,-0.0033987588474944336,0.0017256684510268943,0.011332987412580531,-0.5658329329055848,-0.032520264265446644,0.17650550065244272,0.14681724961130133,7.598053848016999,6.193321026816844,-0.008133031667249779,-0.003364169734024884,-0.011377250102734982,0.36427439383881605,0.40243321308571667,0.5305533651282115,-1.40282968015428,-5.997195092921791,7.525745221702036,-0.0043602711353032874,0.002671464863549728,0.0018747888172965551,0.6854991766486324,0.15151004105942903,-0.3499909647936889,1.478735057466225,-6.030107246961544,7.6640432878090685,-0.003178601554162508,0.002910312947833354,0.00503348911844947,0.039796579937007956,0.42851383173557966,-0.7984116149685003,0.287787905273456,-5.99842712030408,7.804244197577932,-0.007474444171154551,0.0024166961648135294,-0.005009734621641083,-0.28172448125783656,0.450102813294896,-0.39277875618982105
2.1341047595936042,-6.05847987042457,7.337975167730823,-0.0017293672344384108,0.0010300026133003265,0.009829341615034312,-0.5648286517006487,-0.04131644242250035,0.18357261930793334,0.14644906144238048,7.595474178040617,6.185147174219371,-0.006573474345644781,-0.002376686951750208,-0.011215065900855428,0.36328432017945,0.40632611158065324,0.529769943493873,-1.436649650723708,-5.974513503767046,7.529452298461202,-0.00045589359230613694,0.0034520339288781287,0.004476782079392344,0.684516874823919,0.1544331831285635,-0.35050949499417966,1.4729747357187977,-6.00636805256699,7.680435416525731,0.002042841865891565,0.007811342156768126,0.004624109949045086,0.03830179377970941,0.4331716000367035,-0.8017896028010708,0.296395221956522,-6.0120024255457425,7.79578772466583,-0.004409330257808363,0.0035971757080829818,-0.0031299828438432907,-0.2848999734902671,0.45355271998651187,-0.39788341307358094
2.1296901128530514,-6.091477803278864,7.335494624342851,-0.0008402664374980884,0.0018531691007691324,0.011203870518618502,-0.5623931686355159,-0.034967941865749946,0.18136983926435404,0.15064868536300294,7.607683782215531,6.195174006960434,-0.006947379561520774,-0.0037568522549366063,-0.01177267205704555,0.37203114484273775,0.41336639294821886,0.5259344954659094,-1.4156189807308885,-5.991743816130018,7.550031087408257,-0.0007973599464430355,0.005187104179968319,0.004667000250906739,0.6915406683612123,0.1594497685979441,-0.36037266434149773,1.4766143205279305,-6.042755939477271,7.707791326136302,0.004654173051636342,0.008309124445069774,0.005542839088568785,0.047223569012059055,0.4350841696291183,-0.808781326355217,0.26713671076663364,-5.993128075567741,7.805608852597951,-0.0035945498914508617,0.0040910883130606,-0.003588638807766751,-0.27609437984045043,0.4581032648105116,-0.4020955892663675
2.1356656307305126,-6.075776296580699,7.341680696643076,-0.003553324401167976,0.0013759931559102492,0.01000638623754612,-0.5570397413296928,-0.0349679180838541,0.17768219759511597,0.14037526719267923,7.596328996952355,6.206927731720051,-0.007769086881499827,-0.001975918826724319,-0.010812686013100708,0.3603402753449248,0.40727232164983773,0.5280694913430379,-1.427381392505539,-5.9860469713704765,7.574704556986516,-0.001175787906202141,0.004945449794639402,0.0028757514023868393,0.6808374199769421,0.15634808679670772,-0.3534417722612173,1.4634485690930727,-6.026326480491224,7.758335537284379,0.0015862637689770173,0.005580709670063324,0.004148654219586461,0.03528413383499424,0.4344280338982273,-0.8071035923014065,0.28612271075471996,-5.988174793105003,7.7914614025698805,-0.006407889663273728,0.0015590219613442796,-0.0048632510306744325,-0.28733227628902497,0.45357693941122545,-0.39664640154791886
2.1462349803621237,-6.068533566722975,7.333666784641262,-0.003271875997014874,0.0023144896148119282,0.011439928421239604,-0.568717522819993,-0.03277125985148866,0.1860411737928918,0.15084221962345007,7.594336508454777,6.190529733750817,-0.011047199570971701,-0.0026862853255224146,-0.010078512578203472,0.3608161381427318,0.4016141778506888,0.5252207013637985,-1.4283335779796502,-5.9866961318229395,7.574011325041314,-0.006634511468807071,0.0011425512300381648,0.002151192519744736,0.6761920334916486,0.14874472157009647,-0.3560126642529219,1.4956082677741542,-6.019580812086278,7.749967561333615,-0.004748715967103831,0.0015157846414921236,0.004005401800617476,0.03429127739756239,0.4268610263712633,-0.8051547477253769,0.276250854519262,-6.016340709905459,7.785668723115931,-0.005591513878958036,0.0026509367737200936,-0.004657849907753377,-0.29035793701882456,0.44603776887081037,-0.39955500717788756
2.144456029644133,-6.073467407676023,7.342275814249354,-0.0040084016538180145,0.0018409978230245316,0.011394010233332596,-0.5722016507722908,-0.030314971998843913,0.17189894524160024,0.14791637626248338,7.593960578492828,6.202396757652823,-0.013351135625611141,-0.003127019664323269,-0.011443226796907966,0.3657789235051401,0.4066762943497648,0.5365822942097179,-1.4236388698873246,-5.99109601594843,7.5602222791856315,-0.01016046289012888,0.000605636407930048,0.001340424335687581,0.6840757738351188,0.15624904677442236,-0.3414949521251637,1.481878816007087,-6.020088939480702,7.720899783387463,-0.00874285677214765,-0.0007271078240486811,0.006765967977600779,0.039894180514751604,0.43191950660701084,-0.7942526395180647,0.2847160645608918,-5.977493026841582,7.779000847928172,-0.007696356216769874,0.004188939595138409,-0.0017949529389010056,-0.2816375964160167,0.45522911251004305,-0.38765179165112523
2.1420755146153443,-6.071200019288167,7.332675187233563,-0.0046289049730337695,0.0020759019565381393,0.010841188671795374,-0.5658557118339064,-0.037155410032096395,0.17235125874298035,0.12835005187928256,7.579355962656591,6.214228163588185,-0.012244808060989147,-0.002283506085106638,-0.009675147001922818,0.3612755068503492,0.4086651327983077,0.5231577726890473,-1.436437127812361,-5.982987062177395,7.543827131951665,-0.008378928714676421,0.00011406490154595143,0.0019147599830282272,0.6805566735122757,0.15920219218760015,-0.3598227442749669,1.4694380303076346,-6.005627471932631,7.698236053850239,-0.009371049421713582,-0.001025288687330415,0.006205276290660537,0.0361820352239752,0.43443444284753036,-0.8115154270695085,0.2792521116587334,-6.010214305515362,7.785093291250506,-0.009131478051098874,0.0034002629372365725,-0.005255087683374544,-0.2863704820991684,0.4545434621437155,-0.4000711149292018
2.1363991124655857,-6.084612289337035,7.337921944781846,-0.004112572420602913,0.0010140283633260916,0.012512754155807045,-0.5660960578299582,-0.033492711274328964,0.17284381291465167,0.14529953434864462,7.596774165917567,6.186021863295872,-0.009713521194168833,-0.004329483763914023,-0.011525599956116721,0.3720662782074258,0.40387920254684573,0.5282729209906545,-1.4096402453132257,-5.966092227727233,7.519259395624743,-0.005346034421111204,0.0007441773358621949,0.002359034137328928,0.6932804814322131,0.1519389128596494,-0.355654292953349,1.4790577090700312,-6.052267744781643,7.643075696762217,-0.006032137201745323,0.0029801757131715607,0.004116782784887065,0.05090397196156746,0.42943542483530417,-0.8056895531773127,0.27423403439631566,-5.998909689139338,7.782463240836662,-0.006180397833063347,0.003374831550072081,-0.004092662291675671,-0.275413258127667,0.449062930051571,-0.39648599403509943
2.1377615191090857,-6.070272902360655,7.322527555047939,-0.0035543202406780124,0.001374992856820638,0.010007390082853711,-0.5724326495354487,-0.030072311530432574,0.17458630686008217,0.16072781318106638,7.595091309632092,6.22021882779554,-0.010164292105568113,-0.0011683307691694208,-0.010003984916346971,0.3664874317736999,0.4019782806949587,0.5324962139691161,-1.4225640618788484,-5.995054468376212,7.535556480209683,-0.0009101847898134154,0.0041388581687114775,0.0032309470295383337,0.6845259304937636,0.15029509453881248,-0.34948325437024386,1.4721797910334244,-6.016483768685427,7.687444031892434,0.0013451106906602923,0.006145336311799255,0.004154649906400409,0.04119007750549731,0.42460432489266314,-0.8008905723646254,0.2844035203042697,-6.0169471555130345,7.795280992947921,-0.00640786973169992,0.0015610218620246002,-0.004863250995768698,-0.28274009866588434,0.4457177040648501,-0.3920400300422964
2.132973667206132,-6.090577735694316,7.346148885375585,-0.0010881537064893713,0.0005539514423799423,0.011607854897031518,-0.5741289249811077,-0.03398118085659055,0.17776482793181908,0.14378659483359585,7.578245807480353,6.2120583932998095,-0.0063706793423689385,-0.0036313848245229543,-0.011143936197454563,0.3725513338789769,0.4009322238176683,0.5270928962598663,-1.4267836586036158,-5.994488155415479,7.5569402044201865,-0.0006076298788446068,0.00530796747024707,0.005565621732127886,0.6915813017515405,0.1495101433906609,-0.35439519157566,1.4740305784383216,-6.0124219218295485,7.7068159794481454,0.003471821275204094,0.006472245639366725,0.005830702823565839,0.046230642361002834,0.4236069481828319,-0.8053787665043801,0.2759072636425895,-6.014177278002315,7.791380449099371,-0.00395913583630939,0.005433788225978513,-0.0035799766682016298,-0.2742726513149309,0.4427032899405403,-0.3989355694589043
2.1559722846944247,-6.0617093690070805,7.357066835386388,-0.0023518622326742385,0.0012629061486347116,0.009278527744112273,-0.5743877041751289,-0.0351983076577217,0.1748349010251011,0.13598985822454135,7.611599197548982,6.187433530250872,-0.008902633849131425,-0.0021887897583918103,-0.010926717757032918,0.3676325663983575,0.4138392442059427,0.5254735796854219,-1.4404375476038518,-5.975633117864348,7.585483700143637,-0.0011376593423074108,0.003424416666026186,0.003215660852500271,0.6859572701632586,0.15976151316404635,-0.3542428942896449,1.4783658193264597,-6.020045023578785,7.738164852652179,0.0011741967958965199,0.006774635772930939,0.004816683613092183,0.042640251401648524,0.43608431116933083,-0.8060096188342758,0.28086404227383865,-5.9838270314124316,7.783496296225783,-0.004185607808972522,0.0036199685725088215,-0.004350572353554954,-0.2831407591659954,0.4601265530536229,-0.4000931754515382
2.1416941110641767,-6.080578204113347,7.328805261818787,-0.004875794504289446,0.0007806845953545401,0.011244171979942185,-0.565816296306951,-0.02837198599704444,0.1794393056274688,0.13848309499686745,7.585007852691122,6.213559074494916,-0.010174717323295312,-0.004466378590858136,-0.009913747004748423,0.3654417035707414,0.4015969703478679,0.5234757514008916,-1.4343814162650361,-5.992171149815822,7.568536404123947,-0.005686502628146132,0.0024812483000426254,0.002549223162773851,0.6864483501326527,0.14606768163122874,-0.3560358617780479,1.4790643155448044,-6.032153956731257,7.7501535999571285,-0.0038339019652300996,0.004672896674156643,0.0057015624519653006,0.04355659103737808,0.4258226005844408,-0.80556824989116,0.27551428899510483,-6.007421188009629,7.800652006246754,-0.007924423607391198,0.0017771177342705228,-0.003229605711098846,-0.28037253819290725,0.44593831244706345,-0.40304280629870065
2.144669262494147,-6.093842959638186,7.323253659902675,-0.0033898845992807545,0.0016050921626747732,0.011949840398636257,-0.572159587870753,-0.03764803052977923,0.18165805459103324,0.14131382441720497,7.612446776048121,6.201700526314066,-0.010475458424738968,-0.0025617521785419226,-0.009444723530485215,0.3720423491407781,0.3994228584354388,0.5241889340219563,-1.4168490304549382,-5.993350425652075,7.552187972783053,-0.0067103828287228915,0.0020740177520325296,0.002695570747770293,0.6908461802884459,0.14754795181534092,-0.35509997711484276,1.4820701482929386,-6.028406166666964,7.737423565820323,-0.006446797519035011,0.0015738300300835537,0.006277440703421358,0.04860912586598719,0.42140156128026685,-0.8081144298291537,0.2756613042589392,-6.000141460266618,7.810314848970292,-0.006632160760207018,0.0009422166384333491,-0.00430572554362556,-0.2747710786052615,0.4431973199775618,-0.401129100529752
2.1326803124219023,-6.0714520873725375,7.3326888775656975,-0.0047350655206131725,0.001249931896776457,0.01196194305992639,-0.5628761539051593,-0.0383872184764237,0.1830779957820675,0.15316722358679305,7.6088454663289395,6.176014410951229,-0.011294839548138478,-0.0013892252613560234,-0.010119920689166355,0.3634506818731509,0.4100975056084951,0.5206781685366039,-1.4183492559868984,-5.969001002024982,7.537049218759631,-0.00788343449114755,0.0007574286815108021,-0.0017988639237613204,0.6817659057528831,0.15770931697790766,-0.36225268830653656,1.4856071670159516,-6.010251046597937,7.690900868684062,-0.007532280127089231,0.00034917176343244975,0.004493026615398367,0.03786712200929488,0.4322274883740824,-0.8120402779798338,0.2726774194606316,-6.010407187397665,7.807684721220292,-0.006519715502114863,0.001550125274443769,-0.0042514562687406025,-0.28589275346351706,0.45624785406994117,-0.4039803967702174
2.144428895175159,-6.088324770935027,7.325379955504957,-0.0038815098728808657,0.0024288171313797276,0.0115029502932528,-0.5626702189253193,-0.0376478951150556,0.1750206016157496,0.14347174399244242,7.582398578541637,6.220717183715358,-0.012115691115661605,-0.0035198338879847612,-0.01071187472811704,0.3642661063526999,0.4078072440927219,0.5307173744368491,-1.4243685202825063,-5.978389551250485,7.535336996583647,-0.007467028845454495,0.0029758442284725526,0.001976846313959968,0.6830585129173071,0.15689017653108422,-0.34906576164992487,1.485983639251787,-6.0242998578404325,7.661502827281131,-0.00811524748930974,0.002174397273838789,0.0058230953695413935,0.03729588952792296,0.43147207268191096,-0.8027537098524659,0.2864365609587523,-5.993031167592927,7.791779796794816,-0.007361198401602224,0.004818651110656718,-0.0029612662099202814,-0.28514443171116527,0.45111297536628947,-0.3944638355607395
2.147308054776295,-6.092147357577887,7.355392997076064,-0.002200278150447371,0.0016115796171975877,0.010609142293234508,-0.5709819649728397,-0.03422196408103925,0.17213449018482857,0.13210115592796778,7.592867390581127,6.189494174850902,-0.007651270057597598,-0.0025927679730842236,-0.010208324923485692,0.36428105608628225,0.40293570148055796,0.5315219625820118,-1.4258824016173013,-5.990131379320729,7.521403543534492,-0.003450007698579795,0.003417583650093333,0.0031561428792681225,0.6815997425382939,0.15298900352531009,-0.34852350418309563,1.4844807911059812,-6.025298339509834,7.661008788004842,-0.0003236025246957287,0.0054427521985132895,0.0044495918814638855,0.03758744389060712,0.4268196061776374,-0.7983769351860918,0.2680430296281553,-6.017648924487277,7.782634832022821,-0.006632338867368948,-0.00025181768492402135,-0.005634860601820305,-0.28688639331045523,0.4474681456588184,-0.39396398039158004
2.134622480631498,-6.0582003021606825,7.3380879529814065,-0.000495340403034748,0.0005541941080756727,0.010940012604000765,-0.5609770120565585,-0.042284474228724375,0.17232317050036008,0.14933368773364486,7.5966677127694755,6.1926660258611275,-0.005938702362774144,-0.0028598364598605066,-0.01110078518255503,0.36400030742689815,0.40825473076393587,0.5280263927181954,-1.4266731947647973,-5.9796498233963336,7.5339012237433005,-0.001554630761361452,0.003972294822288438,0.0051695498876255346,0.685246797332126,0.15491597299241433,-0.35100719377795925,1.4740794453898178,-6.006228862104971,7.689757533643534,0.002289000623843755,0.007239673354429756,0.004621004097077033,0.04049015102414627,0.4319369107824689,-0.8018325448107849,0.2852656479991673,-6.026108078116731,7.788170004135753,-0.003595491997104854,0.00409409778140198,-0.003584631871625639,-0.2817140417347869,0.4530319015912558,-0.39546463961403866
2.1555060197826665,-6.078039551772602,7.329464582563899,-0.0015689197326810224,0.0012561016508249396,0.011774807323909762,-0.5650704334362258,-0.032282615470154326,0.1828501504937912,0.15443831825460458,7.600908565337636,6.214074172668818,-0.008174903852041032,-0.0033198471302258274,-0.011350581264491085,0.36818716048845884,0.39779803813285736,0.5303469861035279,-1.4182342159305086,-5.989173248527352,7.57012226358216,-0.00242512306681718,0.0038258268722529383,0.003010777948361276,0.6849957942453834,0.14682840018415547,-0.3535959061068127,1.4761293348490194,-6.044766708326743,7.70743404819794,0.0019027155799761846,0.005073704843599115,0.004804585890766735,0.03874514534961101,0.42462140113891667,-0.8010906527357942,0.2781867725634024,-5.992380823018713,7.786242308070969,-0.004888340370486879,0.00433198665475891,-0.003172576089750871,-0.2832774777221398,0.4440140557700494,-0.3966755399643568
2.127752409070172,-6.08861497168729,7.326193436121548,-0.004035079587044371,0.0020801421353526936,0.010175345272910799,-0.5648342829303711,-0.035455633661505614,0.18162506213128893,0.14450845638717297,7.595709871890007,6.205255589010921,-0.009741955173468986,-0.000998121660142307,-0.011590028539640257,0.36035457917406516,0.4087688942238162,0.530244386956921,-1.4401891437201333,-5.987198766549643,7.575719052274978,-0.003449008632435943,0.0034185844342378897,0.003156125618439284,0.6786758135157274,0.15642457494742537,-0.346839522866531,1.4749662371006063,-5.98824373930501,7.746840078771902,-0.002622791372063437,0.0031438579763060585,0.004930180061969986,0.034903569911201256,0.4314805117554128,-0.80002427536278,0.2697558395773138,-5.998360842319501,7.771529283258026,-0.006293812109122987,0.0027679325687480485,-0.004143924640955805,-0.28681729224221725,0.45405977583279544,-0.3934758772345696
2.1469091356093988,-6.072135392402335,7.342744326184989,-0.002785223241139654,0.0014887622207459769,0.011892840516339862,-0.572173752346954,-0.03788931125180318,0.17872786364490129,0.15108950423484058,7.604497317849363,6.196857299141066,-0.010713821160048166,-0.001876190133109974,-0.011128323806167979,0.36771394848779276,0.3990507842439306,0.5325303061862496,-1.4354021934782264,-5.980186564645327,7.575323961355541,-0.007429923564997273,0.001456762542532022,0.002312737709506605,0.6879548809302855,0.14689767932946574,-0.347996129022744,1.4725047644916711,-6.047283159672541,7.737805743530089,-0.0064465948962596255,0.0028759902574428246,0.005525151064234653,0.04268659951901715,0.4241007610246797,-0.7989646101910839,0.2829880560755959,-5.9988071731390695,7.796694487019213,-0.0069971710706280485,0.0028809387889135543,-0.0036329923896010617,-0.27860448060128135,0.4434793616761812,-0.3910920714066921
2.1583552933882926,-6.085235605068138,7.326487245013653,-0.004118548442811719,0.0010140274930493084,0.012517782789597896,-0.5621869037760637,-0.03740307031723197,0.17379850330347246,0.157520978867595,7.6066046976537045,6.209549690578793,-0.012282644156987918,-0.0022541597704574977,-0.009647286211264884,0.3622871056845719,0.4084883892838165,0.5275481621397321,-1.4332771615316546,-5.982018731933721,7.552523405040983,-0.0071265759637129805,0.0012437491290106378,0.0017845980324750137,0.6815703717919773,0.15781651072411712,-0.3532191452048015,1.475202807931432,-6.030176030224224,7.722280154535281,-0.006035797737037221,0.0003779195252617306,0.005606424128622656,0.03502859409898792,0.4307656092348952,-0.8063776797524457,0.2879394663094942,-6.00431098588242,7.807851715437678,-0.007700115632357511,0.002396922821176607,-0.0037861311701585633,-0.28589077269261326,0.4523415380728547,-0.3981206077460756
2.143767683052154,-6.098730284786735,7.3425966647727074,-0.004219550454776447,0.0036022143113969424,0.012386666097637531,-0.5658088117763312,-0.03130379659747047,0.1813895721695166,0.15815444230031245,7.595472082980122,6.213475207182878,-0.011166743807659679,-0.0026225849841899408,-0.01115868499128798,0.3608795572562915,0.3983056974719142,0.5325945494500625,-1.427985554225164,-5.973601526764799,7.521034255588224,-0.007694507074116016,0.002265402441569998,0.001961512595959374,0.6806442733366564,0.14814325382995425,-0.3452864866522995,1.467186697461438,-6.010141505266785,7.688018481463718,-0.006903884854747913,0.001949512854073455,0.0043014286631519036,0.03388440720418712,0.42391782281482465,-0.7995401882171776,0.28324020365318037,-6.0188682698411675,7.773066405215813,-0.006294626947194814,0.003961976770502301,-0.0028137826258702093,-0.2866723310243352,0.4425827229217915,-0.3912808344734082
2.1404942400164177,-6.076014101025547,7.341409384258397,-0.0014837603145328045,-0.0012145109753098765,0.011296101647022718,-0.5646243629181668,-0.0376464415840204,0.1747859441154098,0.1392550504973052,7.594087282037004,6.183192491637135,-0.010200848239061576,-0.0017394532504982285,-0.011615418055023483,0.3705969621803844,0.4006811387644746,0.5268677994811172,-1.42951930222511,-5.98722954685055,7.537891955716505,-0.0038264330800510753,0.0031789426520041674,0.0013658475387683469,0.6913257901278964,0.15095450975390096,-0.3561201410296799,1.4769497080399479,-6.041897319501484,7.671051751615713,-0.0019223510052662166,0.0035026924686259227,0.006148862177897892,0.04530258780229525,0.4287381930869011,-0.804614849316115,0.277653643018588,-5.989953493722198,7.792218386582395,-0.005816168467660966,0.0026321533279757936,-0.003433253444447735,-0.27985318105192275,0.4478862036090734,-0.4013372207156612
2.143333512222651,-6.085313572669155,7.3269980068610545,-0.0039061967598290055,0.0026689620425151186,0.010282276717202025,-0.5709318204534752,-0.03984738231958012,0.18335916301608154,0.14785295576635424,7.5870669460262725,6.19730925391752,-0.009905402141493682,-0.0030356188884421375,-0.010445235487025924,0.3671354156607007,0.4106366311920266,0.5235718980540383,-1.4222488014313515,-5.982196839853273,7.546950881010794,-0.0028035474996180457,0.0035861842348203434,0.001220505244278545,0.6854670704184539,0.1607351252457216,-0.3544958621227963,1.4769583854324857,-5.997869595998058,7.682158221478309,6.436948740061303e-05,0.0063035618997142615,0.005013256122078994,0.04113110957211998,0.4353686270021099,-0.8081829895139244,0.2778374134015521,-5.99120537038759,7.791248971160095,-0.007361527703612593,0.00243258227759697,-0.0056185363157734815,-0.2795366914451988,0.45447535975167147,-0.40036283287845353
2.145177545378854,-6.078025526564056,7.330015988751121,-0.0007045054702821118,0.0023124121257962604,0.01192965616448408,-0.5660854305120357,-0.042529877603774024,0.17625341579388235,0.1513080052568883,7.606925932716977,6.196449354134764,-0.0070005440935741944,-0.0030930360936473134,-0.010103914544240684,0.370370807848342,0.40782174437282676,0.530913727157691,-1.4390181834712046,-5.983008734626592,7.540099919992184,-0.002236398349446488,0.003946677417327864,0.0039084048902521965,0.6867239737928367,0.15592317994078486,-0.3485858885788824,1.4773594018535385,-6.024457146863074,7.727836207968853,0.0004503733296888828,0.007166382001344231,0.005577961802909233,0.04344921344314505,0.43240094539086826,-0.8004190772721846,0.27590686974559897,-6.005682179578502,7.810137648240356,-0.0032312626317024746,0.003351419559305692,-0.002925223024397703,-0.28024354010662533,0.45204115952107743,-0.3932779377340484
2.1345668195505905,-6.0789796776389835,7.340679966016834,-0.0023331376558775917,0.0010217575837637772,0.010507228993352493,-0.5643501828703571,-0.03423403528799017,0.1806478694452137,0.14121447893674913,7.595460884234589,6.208163317798748,-0.007747901304247843,-0.002545248400409941,-0.011303436466838093,0.36277980918761904,0.40800858464020145,0.528039550745675,-1.421550700650121,-5.9745033313307205,7.568096458915231,-0.0031844162313169567,0.002611968173101188,0.0035093267913421165,0.6825538005884147,0.15685492062432518,-0.3519928836983032,1.4774090710484047,-6.022779552625603,7.737427849514775,-0.0007076561536739349,0.004577924644294855,0.0038828449259950167,0.03655031841227588,0.4307464359247832,-0.8032305400195251,0.26717169150072806,-6.002846918890591,7.8063007794829025,-0.00629461996645513,0.003961976683476973,-0.0028127826502396566,-0.2834287534763708,0.4528049870831725,-0.3959407010063989
2.13664810191026,-6.071785647376778,7.343552724504035,-0.0034067115711822866,0.0017246641978561153,0.011343024626412746,-0.5619107892217149,-0.032769890299025904,0.17990455519252263,0.1504308108696703,7.5950749430059465,6.201286448084244,-0.010806249871869454,-0.004535428703370088,-0.010507892375893852,0.3611133148099517,0.41274224711950325,0.5345748932784924,-1.4311201139345169,-5.991588662719537,7.544678951496064,-0.005153669004079775,0.002987713414347556,0.002039299230156048,0.6816107128575293,0.15961827401097903,-0.3454281217382378,1.4915822531619278,-6.021370329647768,7.743832563433105,-0.0038092231400958967,0.0013110235541852389,0.005212128002009301,0.03842952033976665,0.4358395373906043,-0.7956800200656038,0.27384434638173794,-5.99468086608162,7.797961706851008,-0.006294202581632312,0.0033659545329400072,-0.0034778536403295866,-0.2845790814264217,0.4564785480646824,-0.39104923197118474
2.134727944804512,-6.0730529808766915,7.343063724003791,-0.004167941975848747,0.0014933210280637858,0.010072434759932702,-0.5621752686799715,-0.03007943355172251,0.17526926166276105,0.1292860776014556,7.596577278706332,6.190085862364764,-0.009916364435782494,-0.003026535177119037,-0.010438284638694674,0.36573096112114667,0.40584978541016453,0.5302460878855456,-1.4413349715576822,-5.974444970165165,7.550809437638256,-0.007921989748777659,0.0015539488357168062,0.0019451908482809798,0.6840216639633803,0.15515020797371265,-0.35173546790376753,1.4796767996908815,-6.019645874247289,7.724372204926117,-0.006834937892425309,0.0007120468862438274,0.005704775126021985,0.037481694471744494,0.42805828637761284,-0.8047204351996962,0.26222670282317906,-6.00122531070583,7.792151095462613,-0.007108774578334883,0.0010809857648038752,-0.005016403669035327,-0.28298069789467944,0.44913834836685235,-0.39643315985716443
2.1364315436955175,-6.062376224234132,7.336763411677078,-0.0033850055229389647,0.0014845174595389495,0.01256771250156514,-0.569001520819087,-0.03325140266897876,0.1777409877099583,0.15821187142575063,7.592889606663161,6.196661867271727,-0.011784610079732439,-0.0021083015943294744,-0.01012439882936347,0.3676856143828489,0.40193679444760333,0.5295571021430003,-1.4290982226753322,-5.9838466350792965,7.533793125034386,-0.007354059557416504,0.0005332954521031306,0.0017682643995559862,0.6871971800927734,0.14488323203757908,-0.3530955460040317,1.4829935275133,-6.001358713595283,7.678008879065694,-0.006059638354688579,0.003739812474866658,0.006086842092844107,0.042883453559184714,0.4255734431864531,-0.8021383292613963,0.28944186767535063,-5.991651047629652,7.791683935300256,-0.006773663972186821,0.004694787903523236,-0.002857375882314078,-0.2790907900450914,0.4466584383894457,-0.39523950101743177
2.1447272625310734,-6.0949324722261045,7.34430762122392,-0.004742035484106445,0.001251930725526043,0.011967978314066213,-0.5606810134817848,-0.0317952440821197,0.18160859961135392,0.15061346434489345,7.611329662814314,6.204950334498896,-0.010296773353841495,-0.0010965054613488842,-0.011074176415104279,0.3616097677765101,0.41128918833336864,0.5353247916822994,-1.4163231273334866,-5.982295700379115,7.529929816793704,-0.006101687804992125,0.001654004099066564,0.0016402092460053354,0.6796444588021511,0.15836376590160334,-0.34808788289165343,1.4758248591616863,-6.022935816166209,7.682583754879128,-0.004051405194561679,0.0018766627657369926,0.005216144822872064,0.03542494554165538,0.43318259659249403,-0.7988074184856795,0.27414733668995567,-6.007347272619035,7.784095151536076,-0.00806487669933075,0.0025465884481026364,-0.005107604046965871,-0.28556598928867294,0.4560003723057481,-0.39177540193406823
2.146084105523131,-6.076807773128793,7.319933664451848,-0.0019990833153963115,-0.0001526398664669786,0.00962653135710205,-0.5731398532136656,-0.035449512293136774,0.180688770617868,0.13457400132926772,7.586318139478604,6.208222186053841,-0.008654748463633644,-0.004037039995360939,-0.011364165922191001,0.3701088548164205,0.4092570434362225,0.5289410976416181,-1.4278865663955667,-5.988050285684165,7.5412422396564,-0.0018959364264954446,0.002210594492088165,0.003717204064648207,0.6903553836658151,0.15487971756010727,-0.3544524636098989,1.4691952256778482,-6.01495211061078,7.691878873623619,-0.00032064129173461653,0.005439735123949531,0.0044485296383529405,0.04460377594092671,0.4331362678526769,-0.804345291646856,0.28424782664820836,-6.025375050694208,7.796900385828175,-0.0041865230023130215,0.0036249778545051937,-0.004345565406877555,-0.27708710206343107,0.45396288842959487,-0.3984269302453699
2.130617625203887,-6.06210306297345,7.326512343405999,-0.0004786189666831893,0.00030804680296738076,0.012168718792539857,-0.5584936705925411,-0.03594626231282965,0.18012927079963262,0.15224650382782476,7.5965325182948975,6.190805132834775,-0.007538145585350976,-0.003804022767308377,-0.011238300980123867,0.36410126943931076,0.4062435101714678,0.5405083400182157,-1.4152992148901076,-5.974495900005735,7.551242397103081,0.0005690420819601491,0.0038573843742452517,0.0043404520384733,0.6848141915424099,0.1574851045739232,-0.34029250819472356,1.4717635082903564,-6.024851918129487,7.713527157655265,0.0011801843349988966,0.006767589859237786,0.004818555637591529,0.03827373828325928,0.4326492638512646,-0.7895816174308921,0.27570134334737134,-5.987216578035991,7.7736788014597344,-0.004778254528844976,0.005538936875069885,-0.0024492219073745736,-0.28239097182958445,0.45181841694138963,-0.38569378163475676
2.130297548195364,-6.090602743858495,7.336096539050873,-0.003572131590664567,0.0014965627349705045,0.009403580907254098,-0.5601975849578327,-0.03716732088532798,0.18135729962595598,0.14214349976578564,7.584807352432195,6.202783083469778,-0.010155030488103501,-0.0017405472584444755,-0.010485598362840806,0.36719272764324085,0.408540741754285,0.530439653349724,-1.4429345529107205,-5.980218405171454,7.556484148443503,-0.004168538638626318,0.002801353004747287,0.0027752924100124636,0.6867148422621611,0.15443506285568556,-0.3505213105370567,1.466484602130615,-6.014552101012177,7.73266647956349,-0.0007350227093826391,0.005333534982611109,0.005861891435872498,0.04055533929425838,0.43119241615918064,-0.7979292637236308,0.2771608785241699,-6.001416998491179,7.783410614187256,-0.006518268293957889,0.0009570930095050749,-0.004916534187732229,-0.2799586664710446,0.4537473456368224,-0.3898616946293806
2.140743312127893,-6.07049136366901,7.3544994738369285,-0.002182545264302894,0.0013684298258361267,0.011839846450905987,-0.5621760201561917,-0.03496288429130938,0.175753739019623,0.13733222996663594,7.60049744982208,6.191864147083126,-0.011125902384683051,-0.0026196287395930952,-0.010024886403007362,0.36983162241351014,0.4087021743665647,0.5245559015786906,-1.4418726821466585,-5.99414281020423,7.551823616181666,-0.005420911310092579,0.001681644286729538,0.0029033356783224823,0.6888768598897065,0.15533840644610977,-0.35689119257174334,1.4744580063261463,-6.033571539597925,7.744370176732234,-0.0033529756633804276,0.0022365135809633914,0.006433865883195335,0.0426445446170402,0.4321733809247598,-0.804312943794558,0.27349731782568465,-5.994410469996229,7.802302258675175,-0.006633783455610989,0.0033303049549165257,-0.0016444415378238176,-0.2782955748617898,0.4549509764554817,-0.3981734020443225
2.1256733890878534,-6.072668697903916,7.343546381616154,-0.00429980915788494,0.0009065002204924952,0.009968519476633221,-0.5724439800023728,-0.03690694767500832,0.17311500084440157,0.1442374324605995,7.6092636192224266,6.183607674254988,-0.010531952673546854,-0.0031117189156661456,-0.011043315094302742,0.36298681947103156,0.4084278533422265,0.5233930375908391,-1.436397977242474,-5.976454727596609,7.564427005086166,-0.006405038163402061,0.001870017299425001,0.0021683132673150285,0.6844613439036092,0.1577348343665526,-0.3603142879251688,1.4869705760310876,-6.019843443858569,7.707502858674772,-0.006594820543069521,0.00014743284112019766,0.0056967977462840875,0.03665623958553177,0.433700630954286,-0.8120141878626891,0.2783963621733762,-6.008500000236433,7.802744844361463,-0.0072224550443689035,0.002262143443719185,-0.0030744599805670736,-0.28421623973405913,0.45281297166653717,-0.40374839334411183
2.1467773178067504,-6.096808037437735,7.343515068699736,-0.003517868544485196,0.000896696352878048,0.01246480106357325,-0.5619248472418295,-0.03838284789322655,0.17770238730206203,0.15402711746800335,7.594192336504201,6.209056739044939,-0.010683235710046242,-0.0012647075101843315,-0.00835028087415484,0.35546595427360056,0.4067892423435046,0.5290917278506214,-1.4250743368854653,-5.998312305290664,7.565316215642478,-0.007124582426634682,0.0012507503420281722,0.0017845040846141721,0.6776693285043397,0.1539103490166865,-0.352907745167259,1.4839030035065741,-6.023235525135039,7.697140226411652,-0.006932356663471953,0.002708150447815217,0.00627350278890623,0.030940295011576142,0.43151604873962046,-0.8031275178916123,0.28051815323931656,-5.996350181091648,7.782054585822203,-0.0069967197927520534,0.002286916365006254,-0.004296063393524151,-0.29174642408991525,0.4516668344771629,-0.3966157530118118
2.1487985058730446,-6.089680959226455,7.346377052272537,-0.0027037215236519097,0.002553871624097522,0.009557411555969057,-0.5675505642672835,-0.02958715344194377,0.174319409757178,0.13889230406635011,7.615521978140819,6.18581028363878,-0.008971405054301907,-0.002123249366793114,-0.010882153439373057,0.3630729185560536,0.40320296616415435,0.5332366145283134,-1.4316259658852037,-5.96890764051765,7.53213192042567,-0.004584735300574647,0.0019690726338290744,0.0018633435502800164,0.6823442341213379,0.15081601870689348,-0.34654749348937264,1.4715579489705202,-6.021342623684918,7.6778662890193585,-0.0023061413891631304,0.00394101627144869,0.004832827913485584,0.0361188937892665,0.4275628419730631,-0.7988364503134275,0.2733226196041254,-5.989949639616344,7.809874050923598,-0.008402457721362541,0.002510918939234736,-0.003274205906980698,-0.2893204174059685,0.4472483658447498,-0.3924819721136717
2.1328891209252907,-6.071549445622229,7.343743919916594,-0.00306379669454464,0.00043069324273199916,0.011076180936819438,-0.563842426275435,-0.035947192778982624,0.18479390087917189,0.14303928795675117,7.593901220381379,6.18149860559881,-0.011363564676661444,-0.0013356388155171227,-0.010072178155385077,0.36184265237844965,0.4071037167577021,0.5329440125133157,-1.4282374089298697,-5.985021001491222,7.536731719975198,-0.0032195055954859888,0.004137098703133377,0.0031773529928490066,0.6818578505279986,0.15620072554315537,-0.3453888096292773,1.4713385228413962,-6.00657941157678,7.684468841966818,-0.002550615480824182,0.003204523396706307,0.0055841711532636515,0.035930425359654225,0.4351315549314314,-0.7985667100589838,0.28901117595979947,-6.002912163580316,7.783026750873906,-0.005704672295962489,0.0032430715193529215,-0.0033759772090522187,-0.28775648822373595,0.4552901327288799,-0.38980712447422217
2.1357356212616003,-6.084536347008271,7.338438193931906,-0.0019217821757358782,0.0025420677577390875,0.012053691292881499,-0.5611401391000157,-0.028871375998778946,0.18747257796209035,0.161540950102331,7.596025482682773,6.175583281556486,-0.007404108059032486,-0.005031461890552162,-0.012283200563944701,0.37062626007121,0.3982866945431537,0.5300767045131454,-1.4294788058278027,-5.985348042797745,7.5362372265721795,-0.0014002008797605445,0.0042341533244472105,0.002872412421883466,0.691839964846964,0.1478304969931002,-0.35193539902704396,1.4748080321336559,-6.030389010582898,7.708357310198139,0.0003052255565766419,0.004430784034919532,0.005756533609344661,0.04407896451102599,0.4231257682536336,-0.8026560975370511,0.27337601109234777,-6.000953498272049,7.797275413575288,-0.005002303294643965,0.0031310752149497846,-0.003886902461693796,-0.27863929590468234,0.4432357775036771,-0.3957309626153275
2.137106410145603,-6.069757372410809,7.323484177291449,-0.0009919365764693103,0.0013709157265307402,0.010500139851402602,-0.5658096533886511,-0.03447802104323461,0.18163063328127452,0.15012914063704103,7.585737811193884,6.197020323074955,-0.00920437120226501,-0.0002468535696322007,-0.009295078272186546,0.3642518487478423,0.4072901974482185,0.528771914982604,-1.4382614891640468,-5.980406110604097,7.539152834503409,-0.002462858659712504,0.003234272297747671,0.003896089311899964,0.6864485436264223,0.1558533077332442,-0.354443078442464,1.4744649625297104,-6.0151490806767445,7.715359554817001,-8.178930536267643e-05,0.0035689735552648554,0.005190848896986738,0.038773808158135595,0.433415203484113,-0.802774523501924,0.26970542569370726,-6.00231313110603,7.8056171219367725,-0.005228038546260814,0.0031063022936627157,-0.0026652990487367177,-0.2810122760975211,0.4520489103544119,-0.3983996955280957
2.1302558484851937,-6.058861416351669,7.3282251019369395,-0.0038973164645318904,0.0025503848248780623,0.010900131541422806,-0.568053893370097,-0.043013704641529156,0.17308834164404485,0.14520263068765596,7.601751650527153,6.185760410352077,-0.008157733316159498,-0.003881184725517094,-0.01184141960530215,0.36345373356556376,0.4044685796659247,0.5197848951068911,-1.43420922562548,-5.985837706945501,7.5567431722602025,-0.006329177682779533,0.0009445384610997885,0.0016228638129272414,0.6827347735334548,0.15402517878323493,-0.36416824488004834,1.483838439844154,-6.018749824761725,7.73387769173922,-0.004218092493380492,0.0038090926758659652,0.0051268196480811976,0.03730140621039573,0.4273550916554082,-0.8144858876892372,0.2750344450831511,-5.989549088690334,7.776027311147292,-0.006774212620284268,0.0041007754450381444,-0.0035204399049768697,-0.28430310913938855,0.44597754480420587,-0.406433447219947
2.14257420317329,-6.083145181577541,7.338987792131915,-0.0047677169450809085,0.0014930753363158098,0.010748310433350618,-0.5609359836049604,-0.029107826513448298,0.17917128386490577,0.15532130038543648,7.5933293474339925,6.190291886728948,-0.012267402451199247,-0.0028324245068742336,-0.010132856582088243,0.36567879627610395,0.4062395181497419,0.52364875416497,-1.4271358020936882,-5.992096577910177,7.552458276486972,-0.005568863991967893,0.0021594455044159056,0.001128297368791297,0.6864317019032163,0.15703938326141428,-0.35738734103228764,1.4805428541692014,-6.02174235445779,7.723868390111374,-0.005336224087483935,0.0020419356046853148,0.006067843890087703,0.0401299658390915,0.42902445717486504,-0.8072065524043806,0.2776389856425159,-5.999910286013778,7.817653242241975,-0.0071095824356670265,0.0022750298795327995,-0.0036852616783191786,-0.282005956748202,0.45010571227095003,-0.398147921874009
2.135747625970767,-6.081841172442552,7.307973276338923,-0.004756865995388182,0.0013735024308576846,0.011360154839364983,-0.5675094331141649,-0.03838521012482052,0.18407616397326498,0.1362944068500124,7.585288834542309,6.18098630196332,-0.01062886998214656,-0.002468758005725503,-0.010501065794089187,0.3620314043345014,0.4116506899829658,0.5267709188652474,-1.437640580450145,-5.985840195437824,7.545524656722277,-0.008680306375552761,0.00034805475331454473,0.0024406394889932505,0.6813350584448957,0.15979238446618535,-0.3512882116005337,1.4748291244124867,-6.013123194698448,7.701814745031475,-0.004712343365478757,0.00103499786392484,0.007375889466871055,0.03507633379348009,0.4339352055964897,-0.8049039495104622,0.27327272184062795,-6.014406883978123,7.782777610521926,-0.0073618812980215205,0.003033604005784082,-0.0049514652871581084,-0.28560981281435766,0.4550238457680864,-0.3966582999895102
2.137790888893484,-6.065770686759498,7.346060871964525,-0.0034116834561653225,0.0017236617718671115,0.011349047541143343,-0.5717037477286281,-0.034955768387751475,0.17457828945909337,0.14391371593111998,7.619439912887961,6.199041734247141,-0.010184925241184284,-0.0017133056849050331,-0.010465769081226633,0.37036589984203117,0.4043822993509816,0.5294998166749594,-1.4300569469395927,-5.9815297564092855,7.554120450412151,-0.005608623623319054,0.0015648299826510783,0.0020086555646361263,0.6933030452549596,0.1488086795841832,-0.3519548807682759,1.476823329953147,-6.024535130332798,7.682417083720403,-0.00286638689237138,0.0024053761412685714,0.005675500665338474,0.04584254210674668,0.42799258622843384,-0.8014522192774113,0.27979477652584755,-5.989000850697081,7.796011615229706,-0.00573262929023012,0.004623450459139952,-0.005196706290784026,-0.2773590467736885,0.44859426802886293,-0.39476340979812147
2.144952701780427,-6.08339588507016,7.3175809325038745,-0.002814883911296399,0.0017249047077763835,0.010678187079978304,-0.5616750117467993,-0.03838413432449908,0.178922205965027,0.1683235744088827,7.601424814877612,6.186993708733676,-0.010034210157336574,-0.002363405289572165,-0.009882171216672266,0.3652240159334068,0.40728464832928385,0.5282753697474132,-1.4282063011127408,-5.982721341911088,7.531722783948534,-0.0029151526439739595,0.003924098034815818,0.0026502078551476423,0.683281434896582,0.15268552234204588,-0.35365635485143576,1.483235955810386,-6.002893086088584,7.686390390598382,-0.0015773593600021734,0.003543236699158067,0.004071442882216694,0.03900236565309133,0.4304839276706924,-0.8025432302310429,0.28325294988836164,-6.025141271520544,7.805332556635901,-0.007220614378655386,0.00107208925195402,-0.0044066088583626034,-0.28345235161068216,0.4506081174200202,-0.3961847334042031
2.1346686775477104,-6.088032564867096,7.337239036813334,-0.0008620515102537441,0.0019557340798649642,0.010608062801592192,-0.5675625497118326,-0.03007288688884821,0.17187698731876216,0.14285372072499503,7.607104809639911,6.204435541717098,-0.00922202161292805,-0.0008261499402528263,-0.01092053856945289,0.3688996314794332,0.40560055566917574,0.5294930615269611,-1.4325357772611387,-5.993435069581408,7.539801085359516,-0.0026515691200409493,0.0031154572805789705,0.0030014383442830794,0.6876987622421863,0.15151772225376897,-0.34951481648078203,1.4706962478433507,-6.015211964408773,7.700973660397499,-0.0019181693770667888,0.004801825972649664,0.005396492154100692,0.042435588348585504,0.4282590449001065,-0.8009021657654312,0.28301236965189724,-5.982297582546419,7.795947735847085,-0.004080654189361477,0.006620023987567057,-0.0016219774322978069,-0.2783228162637453,0.44982393369593504,-0.39475657479557263
2.1275070257467945,-6.073501020507244,7.332910715314179,-0.0041305052688290515,0.001014026680524664,0.012526840069042134,-0.566832923892874,-0.039352021231278254,0.17259789578690782,0.13546666226366066,7.599245385110604,6.176388121330244,-0.00802943761316319,-0.0012159395455066963,-0.011324058664542195,0.36255188094806257,0.406568781011442,0.5297720218791211,-1.4330706270751825,-5.983164826673868,7.552253901117268,-0.0033674475472772964,0.00461492370082965,0.001404314513154689,0.6847402790087684,0.15365210114349429,-0.35465175892864736,1.4739658493944081,-6.038900574821492,7.724991096280868,0.001175541787239063,0.004157328795268926,0.0063121916791620495,0.03802715102917233,0.4331782729233919,-0.8034939337056081,0.28079291535040735,-5.996840515223318,7.814803423178995,-0.0064033629509011964,0.0009739594028602397,-0.0055283497538240155,-0.2856324205632172,0.4508738181063909,-0.3939724378752435
2.142974677007041,-6.078417733018222,7.31985403746046,-0.00342352961262623,0.0018432343776076188,0.010738207905450367,-0.5672763358922556,-0.03716309888034748,0.18163515459367,0.15603317546213083,7.592227496756249,6.171948180125344,-0.008924320614097408,-0.00271781295898973,-0.011391731883113453,0.3630513450251248,0.40855153140998,0.5316918652302364,-1.4339515561455132,-5.984053037023028,7.551384114161347,-0.006975630827824803,0.0007799613721654193,0.0035604537367911553,0.6840273487368133,0.15467384729305222,-0.3507537509459473,1.4908413655836699,-6.020354219767621,7.747695502121184,-0.005747349564967782,0.003237866744390845,0.006731861623921905,0.03828523995228385,0.42682045152759057,-0.8003427881667828,0.27794938290181487,-6.015661877456695,7.801373307919106,-0.006183281970344773,0.003380860452177051,-0.004084641438133149,-0.28465841625903715,0.44988704546983577,-0.393003299402586
2.1504528759134565,-6.081333039288763,7.371283184298269,-0.0014696972232156724,0.002074063121384895,0.010668078844880333,-0.5602075246581566,-0.041803958410262215,0.17988802679059512,0.14561971019119505,7.613546246810424,6.199227319136291,-0.010351571173139106,-0.0010500572153996901,-0.01103743734260007,0.36275796399953314,0.40747699464700804,0.5251182291497369,-1.434713438245736,-5.9849590729845135,7.550519900934269,-0.003903948075591095,0.0019967366015019527,0.003128469812434031,0.6805733593573937,0.1553254932278463,-0.35733552820915837,1.476897183967702,-6.020363665063808,7.718904095767077,-0.004198363329451115,0.00044924711127675555,0.004639480400532977,0.03918986236807299,0.42926924031379393,-0.8052356235171106,0.28466802314928397,-5.998767039444756,7.803919939179314,-0.005704234979565862,0.002649049269496276,-0.004041048164236415,-0.28543540563364683,0.4513600109516276,-0.401541955339043
2.1378736695937577,-6.056687214806934,7.318473578609747,-0.004131495693997509,0.0010140254527781242,0.012528844827500983,-0.5633930052337922,-0.041555698984815155,0.17746246010218494,0.16384834033709453,7.5755804148928165,6.199286342927722,-0.012214324459968017,-0.0034360211074094746,-0.010645347431439876,0.36793789192501103,0.4066074439604397,0.5316828439358718,-1.4274031363126145,-5.980394900555326,7.559281158246052,-0.007690510188917297,0.0022804285765606557,0.0019633126448339263,0.6903873405915636,0.1515258216403576,-0.349041296830508,1.4709086715739035,-5.998063141769017,7.694324297027301,-0.005407539363868089,0.0019792841718304917,0.0054068303279609575,0.048060545078024874,0.4291966707968817,-0.8007553820141806,0.28132903602605897,-6.00908222870019,7.801206283966231,-0.007953780965928501,0.0037545286533315625,-0.004384256828397005,-0.27612036184228406,0.4488258968496741,-0.39257398322249
2.1463945913010556,-6.092846014718121,7.335106475869119,-0.0028277252745254862,0.0018444770137992733,0.010068352214606712,-0.566553991649235,-0.03764974605727002,0.17967822579584203,0.15651877680250847,7.593958356030835,6.207667658810086,-0.009820474096637728,-0.003624217013443086,-0.009820036739072672,0.365966390419515,0.3952988345981385,0.5267389816699203,-1.421084209096589,-5.997492670967509,7.541834065084987,-0.00537914112749523,0.0022822967625810726,0.002025895164612746,0.68425632904017,0.14387766149406359,-0.35526599664120706,1.48302658719859,-6.041750427366435,7.689119056682932,-0.005572155204765027,0.00391168888873486,0.005321468539017991,0.03840298391858271,0.4185295561509025,-0.8042769940855437,0.2833396768201135,-5.996942302238104,7.780509800325467,-0.006857273607525627,0.0015174557036216774,-0.0024190580520273815,-0.28577452649123136,0.43866767928826367,-0.3969025795199138
2.134732848022528,-6.066406156956357,7.335687781506013,-0.0032135058143912946,-3.755211663187114e-05,0.010362453774054184,-0.5662746809603151,-0.03350524597779681,0.18651681758292082,0.1365416212471658,7.594204323044146,6.186764346772374,-0.009085266641694328,-0.0014641566109980352,-0.010329011253154245,0.3674049562758505,0.4092158754773209,0.5265203897118043,-1.436257213995671,-5.975222949307224,7.5299776730323495,-0.0036744574575996235,0.002711215484599847,0.003146744983050983,0.685731759876894,0.15393175619485128,-0.35173015479043984,1.4570791593045567,-5.997068956497399,7.674596290842244,-0.0005621788597444459,0.0046992281492804,0.005197807973623798,0.043366474921666856,0.43314732008115037,-0.805299199418071,0.27800079819933937,-6.020649570329605,7.79752242110271,-0.005002259435803883,0.003134074891919611,-0.0038849024580740877,-0.2812467680586756,0.4535163328683058,-0.3991299486936974
2.150918935732462,-6.078535149113032,7.340815190882069,-0.0026751376878147055,0.0021911489272779363,0.011399960119654898,-0.5645943555227251,-0.030815430320415286,0.18016320379602027,0.157340730239263,7.587061467995766,6.182499484184589,-0.009905154836982837,-0.00358780894863453,-0.010924076876491372,0.3713552735985094,0.4058779752117403,0.5314231097596285,-1.4144273210224803,-5.982534153358623,7.563149307286601,-0.003709551267768777,0.004235334195681401,0.0028137831548800713,0.6918514209847451,0.15250400508663953,-0.34906078394732815,1.4711088131650838,-6.023846114670635,7.717292502087732,-0.000732099691355178,0.005327520936277323,0.0058598208774197575,0.04607227378514096,0.4284828151900884,-0.8024310614102893,0.2762059268570507,-6.008501882786999,7.7862357327384535,-0.005596599257101594,0.0044480416828026675,-0.002651609123430506,-0.27589610512051815,0.449067729388044,-0.3957496050428786
2.157603349371618,-6.0832905099354555,7.338791791576636,-0.0025432561609793425,0.0027779669507624594,0.01150687536736677,-0.5702403099252632,-0.03739868733022084,0.17456902467596094,0.14932573095987534,7.599010964163289,6.211407818240597,-0.009094962246736716,-0.002048542483925304,-0.011961458540746067,0.3640148003705827,0.40362817546320917,0.528828333491508,-1.4288020214718127,-5.985776639003163,7.565333167134879,-0.0026505646888550947,0.0031164699547284796,0.003002420998372674,0.684025995766799,0.1475769315003529,-0.35213447879777293,1.4778374537591978,-6.015501591031171,7.72410640581362,-0.0007080361924927922,0.0032707881336422238,0.004627121754929897,0.04064024828813841,0.4238849680601339,-0.8040563440840062,0.2757976030602365,-5.992309372748773,7.8070544996409135,-0.005110881122762225,0.0013350922699847739,-0.005272334566358593,-0.28473798919831655,0.44549370976700087,-0.3981292511726996
2.1368052743187764,-6.053045683944316,7.341335337892729,-0.0012409692400666946,-4.986822435382722e-05,0.011517024160146931,-0.5633569571831492,-0.028866144278814735,0.1833331336496978,0.1504468108519999,7.601626176999932,6.173171732788573,-0.009092238923838177,-0.0014580952430650555,-0.010324046668530372,0.3608193746861099,0.40995061634490554,0.52753778244933,-1.4429529074239085,-5.989136566830067,7.567463218018958,-0.0048870723357984855,0.002188122146238294,0.0023944062850349067,0.683766928078703,0.15683855785489847,-0.35346332273209,1.4840545660705762,-5.993950249431451,7.728086957252793,-0.004387078582206455,0.004438390526497283,0.005784818065232872,0.03586900596440035,0.43318652516462064,-0.8012577863983147,0.26449485268863837,-6.007111180988711,7.790666713705485,-0.004637087964747512,0.0023883872014819427,-0.003229500546987264,-0.28732498133301115,0.4543089030602228,-0.39664638877242003
2.136098464472591,-6.081743003389151,7.3507931978262695,-0.004375055453911936,0.0032575285051045007,0.011072074187505566,-0.5656264967043909,-0.038372843449144274,0.1694189981305081,0.14530423831155598,7.6106204273033775,6.183247112044225,-0.013274130037941454,-0.0036842005907076368,-0.009647269237626259,0.36082488426875975,0.40604142036374363,0.5273519641903591,-1.428446395189252,-6.000389193468446,7.559961545503913,-0.005344049155409839,0.0007601779093908874,0.0023588332223023916,0.680833411540323,0.1507131657482274,-0.3550838912306678,1.4722906077397315,-6.0481548030674155,7.709530337826937,-0.005407586480550233,0.0019802929885555996,0.005403833651663223,0.03647961865827234,0.4300252505318264,-0.8068940030224461,0.269517765007696,-5.97709160845456,7.782700068382523,-0.007591022735949366,0.003603882919884464,-0.003061770030891415,-0.2868956536008823,0.4489333703597233,-0.39738187152835996
2.137944051917305,-6.083962990036918,7.318163925688086,-0.004023309363458116,0.0018429896138885652,0.011413083590730821,-0.5690356353902243,-0.028117155198798306,0.16993282293768422,0.13959361748834775,7.572901973854602,6.219831716473493,-0.010977117944849664,-0.0011281552372222872,-0.011635494978108469,0.3671835129251827,0.4144037176948312,0.5305963830838134,-1.4158497731644757,-5.9986949713579705,7.556219501409399,-0.006706379808649574,0.002094067311761514,0.0026993112002785488,0.6874307072523765,0.16198283110373485,-0.35232404756433566,1.4866878834890747,-6.004847791879816,7.717286759617585,-0.004680768170323101,0.001582520922446404,0.004644484241087433,0.04270490412754107,0.43656222532155864,-0.8025918050464671,0.2897394966705733,-6.0210225830875235,7.798030456223425,-0.008402020404965915,0.001916896689378091,-0.0039392768621648935,-0.28093390775811633,0.4571753157404589,-0.39449270125867464
2.1441182160681804,-6.068567577555577,7.3243157636709535,-0.001727587892001998,0.0007768526728816612,0.011071112907022704,-0.5597032031467537,-0.0381449864506815,0.18281904572812152,0.15480699199833717,7.599016672350385,6.18052875935201,-0.01014879152874577,-0.002300770439585839,-0.01096736704457301,0.3637630739168979,0.410717851329383,0.5294567361531104,-1.4309464444629727,-5.976643082790438,7.544204276346577,-0.004926837332191649,0.001593494734468514,0.0032737645659613014,0.6847393446977847,0.1560958288611178,-0.3544367915609341,1.4870967504082824,-6.018122247931812,7.688400503934891,-0.0038124021529707436,0.0013110731353842642,0.005202183585543451,0.035644242053612746,0.4334292736133053,-0.8002758722599763,0.27958751047025515,-5.996725138027787,7.794253347043427,-0.004160464180832742,0.002250618025451577,-0.00251882240412463,-0.28391308214927713,0.45207774779935056,-0.39422834159299674
2.142605000109072,-6.073477531828828,7.332865544106479,-0.005028594852062217,0.00020086491354861258,0.011153363443388657,-0.5751032550978717,-0.03715547075938111,0.17874255255389235,0.15180738969044377,7.598871243273053,6.191966861396403,-0.0094751624344714,-0.002820248792920119,-0.010879850853132804,0.36723660903013666,0.40347979397857714,0.5349093565876852,-1.42699803221809,-5.982059412438191,7.561824992333487,-0.0031018551609725766,0.00380830829489182,0.0017575103104693155,0.6874573839973647,0.15152331590766077,-0.349025546357064,1.46975197150231,-6.0072318493778925,7.678856478314655,-0.001986480754681933,0.004737151542753543,0.0047364188446827665,0.03981904853736095,0.4292429350281989,-0.7974337072271004,0.27957180018642913,-5.998010028008533,7.793264320792834,-0.009219281798507012,0.002014026588131711,-0.002817535984156349,-0.28002486111393593,0.44813175201858696,-0.3913267569434431
2.1370321159534744,-6.086605932662167,7.338183070951496,-0.001615411803932294,0.0016048161774327345,0.00995333164022813,-0.5687530760906572,-0.03545068771989282,0.1789587731926035,0.14885929385801916,7.598763097833435,6.203349999695077,-0.009552135749773382,-0.002197428838822388,-0.010349458155682018,0.3659838439858417,0.4132170548641017,0.533064740586718,-1.426650961770052,-6.006533575647421,7.544177626742215,-0.0044698614316221776,0.003022438900261604,0.0033093257434531837,0.6845190125109128,0.1563947597331148,-0.3497997692339234,1.472303131651745,-6.017640499727199,7.70013150801611,-0.0015282112386643665,0.005660622325581112,0.0059601147889241715,0.039332424855832486,0.43413411879582664,-0.7991198299224788,0.2847726098048788,-6.012155566611213,7.793606792620456,-0.005339036596195997,0.0019053613927136016,-0.003384646242613302,-0.2816765566376922,0.4547405617383797,-0.392534681189568
2.1524790281681434,-6.078235365741532,7.351874140539351,-0.00050342953043161,0.0004156192320306278,0.011566930118309511,-0.5565115917798173,-0.03424392872755597,0.18598144252853815,0.14731309604751774,7.604176482472447,6.18418564846471,-0.007545378628516638,-0.001045974885808882,-0.011792420612010983,0.36817272339323426,0.4134503950955286,0.532068106111953,-1.4349450176712293,-5.990967321681437,7.5600603931944,-0.0007173796560697446,0.0042598904846561795,0.004143551192852937,0.6854891110965472,0.1610284514290207,-0.3503491152100103,1.473750006017703,-6.0432540407218855,7.7146644288953645,9.005472831059583e-05,0.0029346734228653908,0.004526783410661088,0.04128021054714885,0.4372992624636146,-0.8006097216846432,0.2761825417324194,-6.000854518483388,7.800474908499144,-0.005479849252638918,0.0032738537600018516,-0.0045935736335095834,-0.2821170956429419,0.4584071042492223,-0.3908222450882674
2.140888575285819,-6.0645792512763474,7.3261749298569905,-0.004753980848698764,0.0012549280550595346,0.01197903834482676,-0.5687459208069081,-0.03520704650809673,0.1804229824542287,0.14814035359276415,7.600326008750071,6.166545101334102,-0.008655537343966482,-0.004574248425861257,-0.011844222668698334,0.36405706429299173,0.4044437619903199,0.5344316433506588,-1.4374461109632615,-5.96761658787984,7.576414562762783,-0.00564071318114017,0.003095974541958944,0.0016775942428530347,0.6813631574470712,0.1534941790395342,-0.34706311718149657,1.481954867021951,-6.019765868646527,7.728124566393149,-0.004145939009513492,0.003871763938354311,0.0057788167244733945,0.03761320786315797,0.42803669639357406,-0.7973976478819825,0.2675248438587578,-5.998316040767113,7.796413467571052,-0.006974989644908568,0.0026936533184743683,-0.00047508657452116545,-0.2858566772849831,0.4506319855680208,-0.39079681605485483
2.136389824235006,-6.1054113488652675,7.341221726209427,-0.002459255216752682,0.00018779081496301942,0.011638071506426236,-0.5618916280245719,-0.03570396714608028,0.18429679276625466,0.13779031942796127,7.614766488009431,6.214741194625441,-0.011196901755154736,-0.0019685749401259283,-0.008337797478382465,0.3725468845125778,0.4072940523158832,0.5279742579123329,-1.423668872882726,-5.989909205901635,7.555573933487097,-0.007419251226412239,0.0035975597934014523,0.0011041235312598764,0.6923147176106846,0.15367309098460924,-0.3534715452647836,1.4940737936096233,-6.020744493043224,7.7248565269728235,-0.004540280901468702,0.0017078607727427724,0.0059585486417990255,0.047450452692352665,0.4299537919204575,-0.8078233653110751,0.27248805300204787,-6.012500212917917,7.796727593972881,-0.00795231681124494,0.003162496251707701,-0.005048334754305211,-0.2739410800763107,0.45148942191719044,-0.3989371194931672
2.1370406085983165,-6.067040971761351,7.32526003389264,-0.00391112307944711,0.002671951261753787,0.010297303225224966,-0.5638622372743115,-0.0432682426156629,0.18161316372983569,0.15329901307986726,7.601032018151828,6.180997518226123,-0.010388697344907872,-0.00042728245905479637,-0.009373193595359496,0.36471830794865656,0.4035749111959643,0.5251611400134614,-1.4313064068448478,-5.9749909092177145,7.57107684956853,-0.0037542350576758666,0.00014275364760682582,0.0020356174807199,0.6874300270210195,0.15415396732279468,-0.35369607542001813,1.4884903436103554,-6.01188562328741,7.702950273556159,-0.0036719216369282257,0.0014354130124771128,0.006516245159282279,0.04042768970063739,0.4324356926978057,-0.8054925589069324,0.2858515023850812,-6.021582093619681,7.811189869295458,-0.004553524860050392,0.004380684108935607,-0.00499095342460958,-0.2800827828317796,0.4464243467189879,-0.3971856439723508
2.1351642967443034,-6.072078694165096,7.3338074319066155,-0.004005590189370952,0.0016008426059858645,0.012640788709003705,-0.5601823221730705,-0.03887849181554929,0.18477367915624338,0.16102440743632496,7.601885923890386,6.184031164221764,-0.011662250915426534,-0.003885803355434795,-0.011638077369932057,0.37401463920536787,0.40730394507577394,0.5284517673835423,-1.4246702561757396,-5.989910863095499,7.522950550006008,-0.007616406666585728,0.0027391546860195816,0.004287658579603261,0.6913532966982457,0.15101546980929154,-0.35099357724286967,1.4808280952988275,-6.01973987820376,7.704997046509234,-0.004920990956729304,0.0021501555220642993,0.004645471260779127,0.04753100123070048,0.43018483257082923,-0.8034294030728616,0.26077753297968054,-5.984696675841188,7.770840130813493,-0.0070014924502795435,0.003480999906297378,-0.002959893599614046,-0.2756489631794719,0.4495532948252031,-0.39599529400724703
2.1517886271732825,-6.104833084039114,7.3304025036006175,-0.005382325308968962,0.0016174022760443774,0.010815365418971226,-0.5677781039137609,-0.03520607373850189,0.17870933531579605,0.15099676995655742,7.589688663523963,6.19633260930468,-0.010170712135519932,-0.0022805883411883107,-0.010952495262469808,0.3615730596610337,0.40754393175457104,0.5297650997238155,-1.420820130043397,-5.995692840757377,7.5402741155767155,-0.004354236873648366,0.0026925874026518556,0.001884506122898369,0.6798722432221975,0.15172308754962088,-0.35216149385534345,1.4782655267774159,-6.0361410665299005,7.697587486329062,-0.003728551391158826,0.003978943950102524,0.004365403826157452,0.034533498609552925,0.42710409737785665,-0.8054024216445034,0.2805605202756987,-6.011298796483931,7.807885618648781,-0.007220997870425026,0.001670111129120651,-0.0037395378821058326,-0.285646053947821,0.4508739880668558,-0.39592539028171364
2.143812348893128,-6.0664083071957515,7.325315241927046,-0.00024951392196969854,0.001706826629373586,0.011169909563644841,-0.5563402824710802,-0.03471803415524967,0.17084300383215428,0.15268115420799294,7.610808577504357,6.205424091535553,-0.008372531045881763,-0.002569139306607709,-0.0107461457792545,0.36401271246405165,0.40974866738813137,0.5299573079099996,-1.442621549150646,-5.9937944583104805,7.54576697667048,-0.002421059813821377,0.003832984365732598,0.003023672143263662,0.6832855170663743,0.15538584918620044,-0.3524673824923677,1.4843741949088527,-6.014522324871679,7.701686203295996,-0.0004187079505566797,0.004819545082924914,0.006512804146125916,0.03998139520970085,0.43145407398059205,-0.8028019931817781,0.2807218640666291,-6.020899678705062,7.796284374113943,-0.0034888080328358676,0.00471406413459701,-0.003513320914025085,-0.28218790548236644,0.45352562290694953,-0.3939962529445406
2.132825585637349,-6.063659831027865,7.326912345842266,-0.0032759043476990385,0.0021889020090394328,0.012077838701504076,-0.5665624194666611,-0.032520483958460356,0.17724199729801834,0.15065275035590456,7.5910471180328765,6.159853888920577,-0.009869048049949656,-0.004169304180921447,-0.011427763877274325,0.368192949502429,0.39976901229168665,0.5315387400011696,-1.4375519593733008,-5.975641655641663,7.558796049728698,-0.003937024131388295,0.0035249042987837978,0.002799449351797912,0.688928681271831,0.14322225736362196,-0.34917875333663195,1.473324149475229,-6.024875135770506,7.725794096679865,-0.0013573400097084917,0.005030328786926967,0.005296078586412633,0.044557543505284736,0.42239023711409657,-0.8029109015578703,0.2650281697689666,-5.983715344399953,7.791258041198447,-0.007591998734656536,0.003604892661596178,-0.003059763080917143,-0.27815132357389166,0.44152178681748006,-0.39329345878312283
2.149425453290023,-6.096306296208758,7.323605635829828,-0.005269147967047642,0.0024473651510281327,0.009697581220020316,-0.5638598674591072,-0.03399056912450884,0.1808897537661822,0.15417167645762775,7.589323643158016,6.212118595965067,-0.009055124584102698,-0.0020435882447298694,-0.010827681924233865,0.3720684988626561,0.4107435343408741,0.5301238799556732,-1.4246650043816724,-6.010153877594754,7.556052027698123,-0.004582728425495984,0.0019791093036985183,0.0018662136914525782,0.6874507266677986,0.15591220130152614,-0.34956574046984074,1.4819027682972774,-6.01506198196684,7.741775628506682,-0.0036583077567316265,0.004041613875250707,0.005022436026513246,0.04417342810031851,0.43386388109255153,-0.8014049323645159,0.2788450793918787,-6.010250229292497,7.783855099336474,-0.007811504154802019,0.0017940038844194513,-0.0038394073634089297,-0.2789722837614248,0.4549575800339215,-0.3901124811007884
2.142636391242353,-6.076460038852928,7.363659991454142,-0.0013319267160644432,0.002533303033731569,0.011395854902652991,-0.5670586382586505,-0.038134267132029546,0.17626214864101672,0.14952857940751813,7.612097401259521,6.180277843575757,-0.008891721954870738,-0.002113325987430228,-0.00861360034759692,0.3701051016067154,0.40018503663463434,0.5263899481937504,-1.4310326929289656,-5.969630287706304,7.536158672372354,-0.004847049151240686,0.004167991815150498,0.00438782050160389,0.6893716219682328,0.14654654718938712,-0.35703332383372377,1.4666762693063746,-6.030030479279806,7.70637305652848,-0.002705945429439964,0.00047102481224690315,0.005751930194216612,0.04301164283675678,0.4238801215989874,-0.8080065943807087,0.28356367287245465,-6.006792471536997,7.806170004778114,-0.0021645695665617236,0.0025027442997205916,-0.002771739446941375,-0.27792270221369975,0.44493780165644886,-0.4003749300210513
2.1349167906317654,-6.050862008925513,7.332169285646741,-0.005412879166459923,0.001982120660057026,0.008978828198505595,-0.562690696440208,-0.034957592603739485,0.17038514122124832,0.13270964530389512,7.594856093152485,6.172319384844557,-0.011548598323868889,-0.0018078632055921154,-0.012747080896573887,0.3684063463481812,0.40485586019266967,0.5287758917935248,-1.4372918470636176,-5.967639401144442,7.547811572793127,-0.004845303072243018,0.0027897745510355116,0.0015169538860845377,0.6876804618547275,0.1500092851502062,-0.3531590930345598,1.4869787184288052,-6.008469339338614,7.707554250021315,-0.0026976297871452786,0.0017741137183165713,0.00500549858115927,0.04139341671695802,0.42558757193616886,-0.8035767699404784,0.27015050682477404,-6.000102181936677,7.789862823426292,-0.010541080111390424,0.0036323042796725545,-0.0042252023271225365,-0.27933064548587444,0.4486139641614428,-0.3974347099647946
2.1435117402261223,-6.099978330882279,7.322280489364595,-0.002928159476200544,0.0007723656323247294,0.012418865383437434,-0.5712096023067684,-0.03788743335429143,0.17603822330212102,0.1576559553884229,7.595317830185762,6.207611552787016,-0.010689212636844641,-0.005698500167709218,-0.010384453911638244,0.3672466082793192,0.40423454135920084,0.5363632377404821,-1.4318194259785422,-5.997282078995884,7.548181696101272,-0.006933871524520745,0.001386601531686107,0.002681941996719189,0.6874841795839075,0.15378502094687366,-0.34368112708906673,1.4815266611402007,-6.027899010910765,7.721692215218618,-0.0043851687327666556,0.004438391863837444,0.0057797829412692715,0.04028717298943147,0.4263097434874407,-0.7974507625077503,0.29358368780553123,-5.991249420457688,7.798346219640028,-0.0072258343183664074,0.0028591950927616284,-0.002405368126721169,-0.2810270902247836,0.4459446398071133,-0.3918079627037911
2.1505877170624688,-6.095684598740944,7.355570034481793,-0.0023687749809849974,0.0012568992011454073,0.009297603265767987,-0.5687546896480418,-0.03984491139948893,0.17919870578753247,0.1543093274261644,7.6166663808179305,6.166399634751235,-0.009373729156106007,-0.00014074033392160614,-0.010341490650113057,0.3666881420191891,0.40973526798750126,0.5287165330909613,-1.4255234677015742,-5.9669843321598535,7.543117246769461,-0.0051894102900642055,0.002408171587593197,0.002925457134549164,0.6832776946059473,0.15390063326230957,-0.3541588252104441,1.4661954682366893,-6.000439699861386,7.68807088852188,-0.003177981126593397,0.0029073652841021445,0.0050134659731381264,0.040923232564169576,0.43096458480784633,-0.8045296342751456,0.29533103332298144,-6.005575713028738,7.807941008945235,-0.00477056321449165,0.0019787530020782974,-0.006435682572447557,-0.283464281694803,0.45060826614630517,-0.3978936917568183
2.137845773575218,-6.054437683387507,7.320081818705368,-0.004368166837634896,0.0031369506892882227,0.011691936702341529,-0.5687604426268035,-0.04155300364196855,0.1782201365286569,0.13991576604948397,7.590134056642861,6.1599479787805,-0.010405924069170142,-0.004286832610942721,-0.0109237676390714,0.3644726945501404,0.3994057501905795,0.5240040105610458,-1.422698440667541,-5.993885397191703,7.5345562157912935,-0.0031406068341796422,0.0032167171951728224,0.002639827304840908,0.6844917236131245,0.1475280053168506,-0.3562867489963179,1.4794896021603698,-6.028272910784967,7.690084457965108,-0.0028602347924262467,0.0037055021123144046,0.0049210978478209395,0.039125121472058065,0.42488111519008437,-0.8072007218645354,0.27665961324605753,-5.977641129365535,7.801005611272823,-0.008776410508981834,0.004447729920555902,-0.0025904102245831676,-0.2837914798392464,0.443287188910095,-0.3993570804528652
2.1461050949799763,-6.094509610875604,7.345677441657773,-0.003412777518658185,0.0016000852723096015,0.011972945490959156,-0.5616579864299813,-0.035458080799700954,0.18209787769059996,0.1586918832437858,7.604022141756004,6.222145849555921,-0.008838409856320865,-0.003301424767833706,-0.01076761522873214,0.36892097554951847,0.4053966071569418,0.5321823144780667,-1.428524577956433,-5.980903446704969,7.559493239488016,-0.0034770286531773725,0.0049558984480846825,0.0028389702917176454,0.6857387910466832,0.15199049960876346,-0.35073102595509265,1.4728481749854783,-6.020194370424291,7.699467082529778,-0.0006997655179436387,0.004569880094738345,0.003879678999557997,0.04045226011399838,0.42827716967828927,-0.8025757758174759,0.2819064761586111,-6.00040936507713,7.790458745854221,-0.006406122805647677,0.0021700230010125924,-0.004193193863159325,-0.28078068509100973,0.44789532368725216,-0.3942505725600342
2.138884016074961,-6.076151741836419,7.332392849011112,-0.0010028825133639816,0.0013579105817431876,0.010513180276033445,-0.5621869037760637,-0.03740307031723197,0.17379850330347246,0.14618403090544974,7.589897018841048,6.164388407563398,-0.00899907759613147,-0.00264322465808039,-0.011343255301090618,0.36087487842904886,0.40981214270372085,0.5346204147555574,-1.4462820047804157,-5.994549343436573,7.570127663401951,-0.003936016173244199,0.0035279287208296274,0.002801408150324675,0.679417457347013,0.15448975857933403,-0.34535537056663657,1.47611851508128,-6.001577609913378,7.725167493299591,-0.0020758920962607166,0.006729195708379851,0.005306991061138551,0.037146704968623205,0.42925877296240966,-0.7966525452653627,0.2803214573889691,-6.023618860172841,7.7983929839967265,-0.00415799711512852,0.0016595756957709944,-0.003183907269470821,-0.2851339583300876,0.45062480840564634,-0.3922668976174135
2.1446684067868094,-6.043950450164002,7.356250357110671,-0.0007262650171487116,0.0024099715398585905,0.011339843751213576,-0.5636378280821853,-0.031788192247597886,0.17600767801839373,0.1306695003562774,7.604771963769406,6.161882014893214,-0.007847444775469456,-0.005129281560336228,-0.009526907062145188,0.3710786908462348,0.4090002519000479,0.5279602458779845,-1.4331576286994567,-5.979814765267636,7.548880248602287,-0.004697346863409464,0.0023139850812454654,0.003292968340052891,0.6908580111854921,0.15466808878771215,-0.35176641542731585,1.4689158896982544,-6.036192075026971,7.732658029561542,-0.002789997910810928,0.003767172064259069,0.0055781272212039705,0.04607776731253438,0.4299484981541739,-0.8026718793289461,0.2785397278441943,-5.967364969803688,7.778884841897475,-0.005375161457869966,0.005073875497763065,-0.0031981137776865955,-0.27560735856638,0.45321504926833045,-0.3952632479332825
2.14413975562883,-6.08924075731892,7.348264759464512,-0.005993957615751919,0.001741731970983643,0.010877406117352748,-0.5729106504171017,-0.036422720052672504,0.17751273382103666,0.1489898105166771,7.593493134250544,6.197598700256098,-0.012370000778425129,-0.002750559017913059,-0.010062268870922644,0.36456287060429077,0.4101135657709512,0.5380057303759829,-1.430063583607546,-5.959825284670093,7.552432276109173,-0.007079827912192117,0.0018684041755529564,0.0009068453950490608,0.6823628346158467,0.15770667882255962,-0.34199113560264205,1.481547164336704,-5.9945593199941,7.731265712291277,-0.005450584650879518,0.0011680390948770438,0.002758773393455036,0.03672900307258689,0.43316074267106996,-0.7941921350315306,0.26957696688347826,-6.000370549928098,7.793898902161516,-0.008518316146505377,0.0024980622256370946,-0.0026613833141865923,-0.28527937891984645,0.456241430013091,-0.386162244918786
2.155280302234346,-6.089834050720447,7.358258057782386,-0.0026820923213602245,0.002187144047679872,0.011409989776261809,-0.5670289882069032,-0.03740793228027231,0.1823667533421873,0.14359532959300106,7.602285203885108,6.207897082075833,-0.011640758052923285,-0.0005884350169129254,-0.010566227055300885,0.36034227056728074,0.40923602413432203,0.5287733141698333,-1.4330266069015858,-5.997285653645585,7.573636380904682,-0.007458018224912719,0.003010944558400972,0.001984381269591437,0.6781577333603501,0.15488959816593245,-0.3526779892090633,1.4785948018342645,-6.040187468838447,7.7191902224588755,-0.005905777645716863,0.000508408790422955,0.006892687059570575,0.034864669954173436,0.4322206907401657,-0.80246379885393,0.27503115229864383,-6.023104850008768,7.783347592323442,-0.006406112839860773,0.002171022951352753,-0.0041931938457064576,-0.28782147823172743,0.4523607244110651,-0.39493405066896875
2.1389148836474585,-6.060344257179903,7.328615326406683,-0.0025046475308343843,0.0006690818354762645,0.00919270619805294,-0.5658471453147124,-0.03837722170641369,0.1743031070586163,0.1538741697046352,7.600749759856552,6.191589748921861,-0.00877639245036856,-0.0039061244419082725,-0.01128816027532567,0.3698920362945494,0.40195889959147907,0.5307607896897424,-1.4278197655442801,-5.988349777595164,7.542459545797644,-0.0038611645698076475,0.002600425389404269,0.0022539880121694917,0.6891448038202355,0.14927568886710538,-0.3534022475152364,1.4823277743021839,-6.021428050486361,7.673160869740797,-0.003797878239299265,0.0039172820364292635,0.0037033573047338705,0.04436349337815666,0.42458305613689756,-0.800947627944386,0.2644881526670994,-5.990282274980309,7.790465220107363,-0.006411962164609719,0.0033581168927102924,-0.0028580171683366775,-0.27595329154112574,0.4441850781349662,-0.3969706605101344
2.1415763563566173,-6.069609651342523,7.314241831249635,-0.002182756968144699,0.0011142792866102329,0.013083626358523358,-0.5684675166159632,-0.03619099701434878,0.1877458249697899,0.1467220840396298,7.586135939532611,6.184428098959734,-0.010499841852708618,-0.00365189526152119,-0.010383422367745018,0.3662372840987727,0.41225515749816727,0.5340542432732055,-1.4427314355186212,-5.966039003269799,7.530671269351151,-0.005344056507744889,0.000768177340956361,0.0023587381403773295,0.6835654414879535,0.15913488005009177,-0.3451888410244777,1.4723138478117603,-6.003176454286592,7.701288144802647,-0.0022237423081270242,0.00530176906780768,0.004736343621263514,0.04204585836472843,0.43240068653620917,-0.7969753084853936,0.2864694575466368,-6.011701517478532,7.797216074838072,-0.006295636525709546,0.00277995120747177,-0.004135910663956377,-0.2818762402761854,0.4564515685118029,-0.3886270431221649
2.149711616351982,-6.096725018872644,7.36635238601078,-0.0028169690316995747,0.0016003269811003403,0.01130408886323917,-0.5670477552715203,-0.03569508110547894,0.17821738343215343,0.1260348300168784,7.612618729412629,6.199880488359729,-0.009536949790975208,-0.002762754643061693,-0.010839221488034045,0.3620448292877721,0.404571487264214,0.5268763163863128,-1.4157596046335459,-5.976480641626055,7.5512274644305935,-0.004083700706703468,0.005385984440934951,0.003900201679410466,0.6823094667699382,0.15294028601033266,-0.35267708602516296,1.4681147514748303,-6.034471681408824,7.6874019933084,-0.0011947911758591835,0.0030959463689996356,0.005378471169985669,0.03845578772286912,0.4282974522757398,-0.8049812646675226,0.27633180750051917,-5.987422217480704,7.7935128658029384,-0.006406112839860773,0.002171022951352753,-0.0041931938457064576,-0.2847029427339662,0.446958382118151,-0.3952002969823591
2.1460618330371295,-6.0719668340987125,7.302721059296224,-0.004031266236003836,0.001842986288118702,0.011422121741439369,-0.5697347890635543,-0.04106484296640514,0.17871325434016286,0.1434721345311622,7.583177567269782,6.188130970243877,-0.00969861162078544,-0.0021035415251274238,-0.011413868786753692,0.3722121768387007,0.4063860742239056,0.51626973649719,-1.425600261171264,-5.984548960879139,7.571613926834281,-0.0029528748988689184,0.00333557891716246,0.0035384833077197336,0.6888441489994276,0.15379803278924503,-0.36322124059643424,1.4823724538031644,-6.019032985269137,7.731773832653001,-0.0016039058177270621,0.00429086118579863,0.006043449959424506,0.04687208313721991,0.42826106352921717,-0.8122136966483645,0.2783126452276851,-6.010468078423603,7.792130998841475,-0.007110511590486893,0.0022800393355798276,-0.0036822546829028855,-0.27597937756767477,0.4502898585636597,-0.4094212505538496
2.1490026426440365,-6.079769808758752,7.341757219203555,-0.002076429989702637,0.0020648125531788878,0.011353979549836189,-0.5628985754897866,-0.03691768783122557,0.17819640885204502,0.15956292073155198,7.5949944131477904,6.180607732712817,-0.00870167024396965,-0.003935446789992318,-0.0101771473178073,0.3686041803636552,0.412117615863744,0.5245145446736643,-1.4295499461520988,-5.993457714764924,7.548687091536869,-0.004655569477686349,0.002912649589210584,0.002416551511742854,0.6886265006272552,0.15654649455648117,-0.35788129779710287,1.4815768263570221,-6.0468291619368735,7.73665698917547,-0.002880366402546735,0.005760217008339081,0.0061507199094025695,0.042823304689556946,0.43291524054762126,-0.8082206138339091,0.2849493215622143,-5.993493422729835,7.794856213568562,-0.0039370375060863785,0.0028774321209836993,-0.003068340930340107,-0.2776037894107219,0.45348007324220485,-0.4018414486125741
2.1382110597900335,-6.076891474681817,7.34337451059559,-0.001014724520967023,0.0014764822600827794,0.009903339703464133,-0.5638829065997862,-0.03349703786637628,0.1760072640226965,0.12395817892689853,7.605881848997947,6.185963052837021,-0.009384259989830909,-0.003411895502893787,-0.01025865368947563,0.363710995878047,0.4030223748711922,0.5210256202151518,-1.4413010187936255,-5.9609506287975815,7.528205884548865,-0.0058671978579091285,0.002392533112875051,0.0016621719525798059,0.6839907843689614,0.15019017594823658,-0.35826888330131423,1.4628774790753591,-6.0086818947448775,7.722163816299174,-0.002441840605294778,0.003813675396334893,0.003507669800554712,0.03952140008802079,0.4241592523818329,-0.8120937757518939,0.27668715688292894,-5.99921711171371,7.780172033638166,-0.005594646946441641,0.003264986621266659,-0.003977758025272647,-0.28209966177269363,0.44497949807954806,-0.4042518626037552
2.153310099197574,-6.065246188963197,7.347880173643494,-0.0040145518318842974,0.0016008408365562284,0.012648831653758713,-0.5685580931324604,-0.039103775597635504,0.16918833478874964,0.14386922531769725,7.606937291718168,6.170618366581258,-0.011268363669278901,-0.0025024509739503317,-0.00992851133553517,0.36467016232810234,0.4088725449194307,0.5201988735019556,-1.4405908011251498,-5.9770878995661,7.554139152873683,-0.005721243308321518,0.0019127303268995698,0.0034372447837686688,0.6859330917981714,0.15750661037619593,-0.35909936696268707,1.4714568193346054,-6.013368389752263,7.700032281890963,-0.007013389040882758,0.0013494903182598443,0.006333962743981731,0.03766215306823323,0.4310002449210774,-0.8093537703509117,0.2717583229070357,-5.996257615135869,7.766999377085906,-0.007338296522985149,0.002250286593436376,-0.0024606373946895474,-0.2834708637357856,0.4518294392616711,-0.4005796049905331
2.143345707604244,-6.086738682593355,7.3498098966112835,-0.004202555476661235,0.0017434592236272451,0.008865818089783577,-0.5606833148952178,-0.039120692360085564,0.18208981809639288,0.15009866197831567,7.60229565577238,6.2039418096902486,-0.010304473535742403,-0.0016123086879204608,-0.01038433314402233,0.37522569141573114,0.40851142304214877,0.5274472179798325,-1.415729061349505,-5.985476552031558,7.565337462484596,-0.006849330255098432,0.0025869074096423646,0.0009270674789521432,0.6910980749950228,0.15465958208260702,-0.3525006647060501,1.4840058944491523,-6.014608268498417,7.696531709871379,-0.004203607047435958,0.00045032185890390465,0.0046255754251919926,0.04784021480987769,0.43334891683963994,-0.8009842233857392,0.2793023141679349,-6.011176475562035,7.8207297255068875,-0.007220977938851218,0.0016721110298009718,-0.003739537847200098,-0.2758593638114354,0.4522415080651731,-0.39501756748591327
2.140752902367833,-6.072916287716306,7.313328689190627,-0.0012589240259942777,-6.186711553240861e-05,0.011528099008804098,-0.561926136728235,-0.029348494003638814,0.17624576033028244,0.15076124416053804,7.591585354224669,6.207209714157777,-0.007906425978353839,-0.002382059594818543,-0.011204621784582666,0.3764789594280409,0.409555961493549,0.5318165273889804,-1.419256351063852,-5.9946638149969615,7.5422526590529975,-0.003295247686818325,0.0015767348385409392,0.0020741082255875073,0.6918528112808668,0.1581331238127031,-0.3479066234580734,1.463888332731837,-6.0069864074832,7.708273363000932,-0.0031279005644084565,0.005022753106708496,0.006899114746706523,0.0476280513393475,0.432856804863151,-0.7990275403597054,0.2869468863505852,-6.020004575604966,7.7907898628522885,-0.005591213847817152,0.002671934599534201,-0.004644849858045976,-0.27560199508675143,0.45272694601022717,-0.39379829215152146
2.147832346708835,-6.06860164563584,7.346713238259622,-0.0028278097854510004,0.0017208980298726142,0.010694245358513528,-0.564841080237684,-0.02959359846208182,0.1794335087741174,0.1389097894868124,7.602737118846606,6.175905255466824,-0.008193708350532982,-0.00378870503341561,-0.01066335156675317,0.3662295076366099,0.40832049575582585,0.53215966640752,-1.4166277631222848,-5.984905276417151,7.533117750283895,-0.0035985854770604927,0.0017907719610179126,0.0026042358472153334,0.6864937889048537,0.15375226160947694,-0.3463606520709724,1.4721470620278054,-6.039680200962677,7.72247504051935,-0.0009463133694642004,0.003830409545769478,0.004628050206993369,0.04128230560734497,0.43241063617827546,-0.7986708491635593,0.2742632342524512,-5.965073582355166,7.79865037606988,-0.0033567926288372097,0.004533695033121122,-0.0009631960307419443,-0.28243796381454617,0.4520630209637086,-0.392773604840573
2.1371630378736253,-6.07880573346116,7.3216674878290195,-0.004042105724271549,0.001965557335634963,0.010812280086741314,-0.5653397021175932,-0.03716115396946909,0.17820785553462087,0.14779620926798545,7.595833980861699,6.189728987033739,-0.010238470099448595,-0.0022220453811364746,-0.010907834539763935,0.3728049088723966,0.4029109040149382,0.5287706776519566,-1.4269083001434772,-5.967220449667765,7.539766198779606,-0.003588891215865325,0.003913581525671107,0.0013968408938066343,0.6910892423627812,0.14999188820148937,-0.3548863213906517,1.4692052056117735,-5.999466589111844,7.714810140145704,-0.002380968600558844,0.0025702690924151532,0.004909143440125603,0.047680089447812685,0.4265328099374267,-0.8073494948305422,0.26713425911995076,-6.019604501941287,7.81340075547694,-0.007701000928337298,0.002404931954193461,-0.003781124171122562,-0.27641886886246864,0.44711988069439407,-0.397943178733628
2.1308749142302648,-6.075402799862019,7.344420983054272,-0.0015978000636206724,0.0012330939014871033,0.011802924399775214,-0.5648380755194073,-0.039605404616221224,0.18137722621850186,0.14612338865399005,7.594255059201424,6.191705798502773,-0.010687410509078291,-0.0029714774765785806,-0.010941181847343053,0.36843203743014735,0.40637526257804485,0.5324155655920435,-1.427844551418721,-6.006519953363469,7.570489107053743,-0.005000677599735151,0.0025320456995150805,0.0038250482505550534,0.6867197091489329,0.1520000505116921,-0.35000334026955804,1.4849246556209053,-6.038990335437774,7.728795679848337,-0.0026201377015061017,0.003137888147580217,0.004913111987164747,0.04096426046276858,0.42729188794453926,-0.8008785929905543,0.2889370366289618,-5.997176641663443,7.811776468171657,-0.006416364281201694,0.003952178569129138,-0.0021879184099585247,-0.2812530741392737,0.4491210837102662,-0.39375915628734803
2.1515195693522386,-6.099672006199856,7.34455974769776,-0.0035624847402792705,0.0011348399110617114,0.011259221103235285,-0.5726536929110378,-0.028856464114812977,0.17922754719947845,0.1460164877852198,7.59833941569775,6.16329775609899,-0.009637830186314549,-0.002122740912124817,-0.010292896886676537,0.36330288634606894,0.40758699809426274,0.532437387494645,-1.429219985234617,-5.970772015446068,7.569030319039095,-0.004351222810258204,0.002700636959833756,0.0018883945738824238,0.6837922211012274,0.1493117356308875,-0.3499556660397745,1.470774580027861,-6.010764273495291,7.735604098896123,-0.0025499075727026645,0.003198558126321362,0.005570138533575012,0.0409330290913875,0.42656422319809845,-0.8023444199306221,0.2887004495182955,-5.998522332815771,7.8107509776248385,-0.0075905246141860705,0.003013860210312477,-0.0037238409893724823,-0.2825044020698301,0.4469364668513768,-0.39497164075737884
2.1397063341625393,-6.069494764042174,7.336183139845566,-0.002819945721546526,0.0015993242265176495,0.01130910222546446,-0.5614364060712406,-0.03398870439049011,0.1772161238958378,0.13483270571276063,7.580518522900602,6.205706239395002,-0.010444046416562157,-0.0036660594095578552,-0.009259486316977174,0.36570693747414396,0.40947863559555364,0.5279948832754787,-1.4310477790060379,-5.99313484502115,7.541890710303431,-0.007278986079862717,0.0010129971446103923,0.004090355538846959,0.6855001494943396,0.15616031608329153,-0.34907018346459284,1.4669752191362653,-5.999923365831045,7.723237231716812,-0.005150992702275269,0.004022883259339592,0.003893997362971909,0.03995666641259312,0.4277921721093043,-0.8028123455560435,0.27712241787723685,-6.013730409805982,7.793903066787633,-0.006889535034918166,0.0034988956241073653,-0.0035656883506887524,-0.28100253405301223,0.4513157342392243,-0.39595776783123665
2.1506972778146896,-6.069893209546848,7.346443337495468,-0.0025334702317744116,0.002527811053940414,0.012749611165062624,-0.5697485546256298,-0.04252735028871902,0.17602693104586656,0.14031033610525917,7.597726883754832,6.1863625018297395,-0.010424795010173713,-0.0021271129822990186,-0.013106111107280919,0.3664388697095474,0.40849941287097574,0.5277597512733018,-1.410574070060148,-5.985914481445038,7.5479515335006315,-0.004696334459265247,0.002318021322241932,0.0032959151682574552,0.6867097555751702,0.15711506968137662,-0.351041192773592,1.4666090172413235,-6.042114757210714,7.689891912725689,-0.003965484879135766,-0.00011628167860480715,0.004618628177778165,0.04094567503595938,0.4297385796668842,-0.8028243689791302,0.2819189183082833,-5.98355057796022,7.78622402294243,-0.0043065602541549584,0.00422018107778471,-0.0030506441037985183,-0.2812202396067764,0.4532709838798567,-0.3949800541028546
2.1440948474279447,-6.075427453554901,7.333922623208835,-0.002449710915937397,0.0038440604614900396,0.00918038983903985,-0.5643858419643659,-0.03154078628484563,0.17283744671426785,0.15288603949520924,7.580217876453826,6.192147454602347,-0.008491960601720302,-0.005182267211130959,-0.010115190047214494,0.36815892068209455,0.4126893610269775,0.5301252791429025,-1.448037828626395,-5.984511085770266,7.54683474673944,-0.004425060171466776,0.0036301766743642126,0.0024387853107234367,0.6915841133858075,0.15930157181509308,-0.35231444975988035,1.4877706804755513,-5.991630421072832,7.695592687048406,-0.001194847347290843,0.003092952345070137,0.005376463020220374,0.04488449860094984,0.43532897461350245,-0.8031226662548493,0.2681519068496976,-6.0036126149671984,7.799965715837767,-0.006992156202279123,0.0017048535705173674,-0.00496016208868458,-0.27950967127343096,0.45496305929927966,-0.39718890171007887
2.1553737413810974,-6.092239087148738,7.326881006838991,-0.0026526427223034286,0.0016978510207955647,0.013868424045254532,-0.5680397288938961,-0.04277242391950521,0.17601853259017677,0.15354946267711944,7.609496900533506,6.19016373092623,-0.00905489263847436,-0.002591793656335664,-0.011307582719073119,0.3667038359837622,0.4004556768365067,0.5286106710587759,-1.423468386118374,-5.992647949601716,7.55820464536843,-0.0054917402713715625,0.002631244595795058,0.0034584721581783907,0.6862105772170907,0.14535004181531092,-0.3548049486473865,1.4857961963392035,-6.034871212660688,7.693458321510118,-0.003994307313701235,0.005296196281836778,0.0063383856010794356,0.04232206582982342,0.42314513509695,-0.8053099321116561,0.28506004541207985,-6.012292642387932,7.80532105964845,-0.005826850942058459,0.0038282956922272185,-0.0020870419717645763,-0.2835153678285096,0.4437723931921443,-0.3954528705504384
2.143753562551284,-6.065745358192863,7.327573165040347,-0.0031094218091642072,0.0006698392846568057,0.009868606707404266,-0.5690268613731991,-0.04008331968881207,0.17333971645151156,0.14379899421665002,7.604273199209837,6.181389131489076,-0.009650780660602617,-0.0021116311844398107,-0.010283960491067622,0.36767463954565216,0.41073571222679167,0.5301581599339249,-1.4182599362435095,-5.974777887883303,7.57116232915378,-0.0030968107750426934,0.0038184307603925487,0.0017673637293062958,0.6857276403809942,0.1526992264173324,-0.3526925597869371,1.4767263801815635,-6.001101698342132,7.7287035665731825,1.1989786042008985e-05,0.006223774761184404,0.0043548524621477925,0.043919554006909126,0.43044544694303755,-0.800677330199777,0.2800121056916858,-6.000660719349912,7.803103256226853,-0.00580770754985343,0.0008650160755527971,-0.005428514917029401,-0.2807855638315094,0.4491164755684381,-0.396692491739894
2.1462491154979744,-6.062308030985008,7.339568564540005,-0.0020804079334012042,0.0020618104281635145,0.01135899584421781,-0.56803353321694,-0.03666888063097151,0.1765121730854588,0.1516566768607655,7.605249418902065,6.1843589174370655,-0.011747185369286716,-0.003227626257049939,-0.009940984842781823,0.3645179676868734,0.4036581457897525,0.5307772504808494,-1.4477415885366451,-5.976490480734731,7.53587686005116,-0.005981807403822364,0.0027294325283232705,0.0030909026605357207,0.6857502042037407,0.14956899314186617,-0.348993147601864,1.471356504190445,-6.005146266080928,7.709856947442784,-0.0025499322820125535,0.0031975611009583725,0.005569135872178747,0.04093137465247669,0.4263192297632363,-0.8023451125389495,0.2872016121366927,-6.000933048688603,7.78400757910326,-0.007264503684392242,0.005432716545779604,-0.0028798857881284197,-0.28175490954060656,0.4479050287051487,-0.39399976479612847
