# sampling frequency: 40
# units are seconds/meters/radians/a.u.
seg1_acc_x,seg1_acc_y,seg1_acc_z,seg1_gyr_x,seg1_gyr_y,seg1_gyr_z,seg1_mag_x,seg1_mag_y,seg1_mag_z,seg2_acc_x,seg2_acc_y,seg2_acc_z,seg2_gyr_x,seg2_gyr_y,seg2_gyr_z,seg2_mag_x,seg2_mag_y,seg2_mag_z,seg3_acc_x,seg3_acc_y,seg3_acc_z,seg3_gyr_x,seg3_gyr_y,seg3_gyr_z,seg3_mag_x,seg3_mag_y,seg3_mag_z,seg4_acc_x,seg4_acc_y,seg4_acc_z,seg4_gyr_x,seg4_gyr_y,seg4_gyr_z,seg4_mag_x,seg4_mag_y,seg4_mag_z,seg5_acc_x,seg5_acc_y,seg5_acc_z,seg5_gyr_x,seg5_gyr_y,seg5_gyr_z,seg5_mag_x,seg5_mag_y,seg5_mag_z
2.0943623624175736,-6.197350080952566,7.215202446995295,-0.002553179844117749,0.0019305741913376534,0.011821247056691261,-0.5348986819334439,-0.2541713803149982,0.27234377948584193,0.0007794746455840988,7.5309094015849745,6.291559252539891,-0.009503002415962808,-0.0027266183616405306,-0.01154193650962306,0.5399757671355039,0.21508915904860035,0.5176101678359787,-1.306662345050459,-6.01746119959463,7.562587497839968,-0.004564892480204955,0.0015616076378279864,0.0018013573298059304,0.616008619548256,0.16792662156187996,-0.4664559034486167,-0.6852658984401844,-6.131913908482431,7.739062651474381,-0.0051996114311551505,0.0032889484466047674,0.004592996416347043,0.16686538768110654,0.4268342313382153,-0.7714520155634755,0.23367831161632358,-6.163447661230006,7.6870635332899075,-0.007159525334416001,0.00384601309580747,-0.0035833851666731103,-0.2943363558730721,0.4124534381415622,-0.36917753918482743
2.080225842938454,-6.232714030395045,7.259821830886675,-0.00205323456587736,0.0021224586667260596,0.010888315619301538,-0.5375720668263201,-0.2522071397691698,0.2774730782968555,-0.020510071648217325,7.551152884355306,6.262320448923269,-0.009016888182180082,-0.0018730394660521072,-0.011060677721942379,0.5401856814822814,0.21542003298217594,0.5080816013432108,-1.3081985725438945,-6.022062763945851,7.57076742941731,-0.005087874683862548,0.0028341553429343416,0.0029907516937096768,0.6118842331152038,0.16920804926415411,-0.46400249732758825,-0.683906440292062,-6.12309432961523,7.747885645929142,-0.0031796440030749822,0.004965086148915076,0.005962851880397579,0.15613803221339795,0.4285529616041749,-0.770330824258525,0.19655874941268586,-6.131180843738893,7.688906397041101,-0.005509346922635419,0.005624889414422916,-0.003685562719797435,-0.30386803636659426,0.41230922723555546,-0.37007688293668006
2.0866120134670556,-6.174084481917673,7.260743786047772,-0.0019030682784055774,0.0014294911032669809,0.012089667791689192,-0.5400306583833225,-0.25512116443119814,0.275761982208108,-0.01229507358334642,7.544488409828353,6.251352207265019,-0.010633605374500732,-0.00503129653800671,-0.011112810125527695,0.536523112492466,0.21837907838664133,0.5104864430613195,-1.3242984380047693,-6.005370997290455,7.554782671925764,-0.004053304233736857,0.0032215765135078377,0.0030456863851003354,0.6157066680982733,0.16901932034659145,-0.47477286279009145,-0.7015954994219156,-6.122957981081245,7.752177409922867,-0.0007006310185326156,0.001091088347166482,0.005047748249917725,0.15840840765964806,0.4271103477587294,-0.7833035483605011,0.22470527049713607,-6.153155512882153,7.697875401327354,-0.0038744460410913444,0.0002949747725571467,-0.0026750648138365663,-0.3020068125403965,0.4115991815797484,-0.38034855213089885
2.0774422974995552,-6.197964146770092,7.243145366158148,-0.004941260604116602,0.0012774421210438576,0.010932152133481688,-0.535399388173971,-0.25637089635026994,0.2784449237614086,0.026075963857957667,7.523618617972077,6.276396320177113,-0.010511084858790137,-0.0022272131327392185,-0.009403456159980044,0.5411520019882023,0.22057351775051678,0.509458083243679,-1.2976790191763559,-6.024700446487308,7.5804563706266475,-0.0038511703865942706,0.003961607486895895,0.0022784595175665777,0.6118086105524867,0.17050432166554502,-0.47476575980182906,-0.6759676491134057,-6.14487529860357,7.745346120865146,-0.0018191870180572045,0.003554619853119447,0.005419223679932507,0.15721372445170778,0.4305263551885071,-0.7815721121727168,0.20901380830888608,-6.1227677984736335,7.654435541216841,-0.010520083890079997,0.0035419836348083485,-0.003852054630509428,-0.30779938948174834,0.41579668062949904,-0.3773544283682827
2.1022703846019093,-6.231654413895428,7.235503264034947,-0.0027112042124806785,0.0010100017754407415,0.008999457602091006,-0.530087082623508,-0.2664100153417195,0.2757498896959401,-0.006180736814114716,7.535710076025604,6.264285611284069,-0.010171518015444364,-0.004943526552938691,-0.011876955859220866,0.5438587753762725,0.22043471542688714,0.5153109564475498,-1.296989454793986,-6.018064407769869,7.561641669111523,-0.006396438924384322,0.0015910945995762488,0.001850123526097768,0.6155286826980951,0.1761567904630535,-0.4712202550811071,-0.6679512772711,-6.130210227357586,7.776647043692376,-0.00453399334520605,0.003602179786843896,0.004609869209519995,0.16282907748880562,0.4341827445507854,-0.7818837547567362,0.24539435999289305,-6.176893490251274,7.699325025506141,-0.007138901726518629,0.0013914396624049611,-0.004758789321350095,-0.29823488635122614,0.4173966886893146,-0.37425222027165933
2.0745667722142174,-6.178677781938218,7.280154159436305,-0.003203671600823641,0.0004800611119474723,0.01218608713258164,-0.5422731138508844,-0.26267237019208245,0.27160570767040115,-0.00770742692352646,7.5341315949078,6.266182268519985,-0.00996410151016429,-0.002818500786761516,-0.01078472699747965,0.5394658864007134,0.21919260756550143,0.5148585136234308,-1.3087012111779834,-6.010535840094252,7.531417590562202,-0.0073945569681949565,0.0012649823353804064,0.0027220903613390476,0.617025352667902,0.17258914443203605,-0.4645832272222803,-0.6825099970402891,-6.142377917917084,7.731213558913739,-0.005093285021007707,0.004833447475110136,0.0047946060526522895,0.16172232511663387,0.42928460427708826,-0.7728439095674711,0.20073860572275476,-6.1442302186126385,7.695409192334789,-0.005319479141728606,0.0046144768643618704,-0.0025942686693909197,-0.2972470408973567,0.4151727873244493,-0.37011938721446724
2.0760834531322803,-6.205057869081348,7.233722316770805,-0.0030696486210636323,0.002068792899676443,0.010507475162066788,-0.5422274706433795,-0.25510885639526987,0.27649444204066864,0.02560996029238837,7.52179039622481,6.269058163193259,-0.008522359487692874,-0.0029741053815089498,-0.010422031325140545,0.5348171692582406,0.21987515063360702,0.5126648003583346,-1.3135375046654183,-6.002805571978968,7.544434552887155,-0.0038511573161944456,0.003962622946148944,0.0022794437287583695,0.6155177387763425,0.1698553511406272,-0.46819143572426913,-0.6983729775808901,-6.11588762200984,7.698049035426808,-0.0018382896273600278,0.002816169914333059,0.004100930170040189,0.15875038725818452,0.4288049144818658,-0.7759801142906795,0.1926279468915923,-6.113913539868398,7.658011024983392,-0.005914378366833226,0.002176921602050946,-0.003968554758656996,-0.3002002281813633,0.41447738850359517,-0.37205109716824813
2.1083428586389172,-6.2029421826845486,7.225904612412825,-0.0030696545204263737,0.0020677929174739962,0.010507474271949006,-0.5370844180962263,-0.25245880160119,0.28284375665608935,0.010042892640218829,7.546468802046119,6.2794749512218,-0.009793323233508492,-0.004176679354069015,-0.01202298010550281,0.5411706715188747,0.21447138342570918,0.5095591630667364,-1.2925267554797377,-6.042162813246288,7.539934559278,-0.004409573592785973,0.005175871639992258,0.0025428974607971245,0.6106178786373879,0.1744364585025311,-0.4735966625425806,-0.6562780980371589,-6.1305441119464,7.748495741384068,-0.002199649196360225,0.0029929897732803943,0.005966178142663089,0.1562874854705739,0.4319853250986605,-0.7778948124635424,0.24515159770414574,-6.182186230803754,7.713311650149537,-0.007758947035051018,0.0022279560101565073,-0.004565217073051456,-0.3050992970193654,0.4169895947290275,-0.3771276473158795
2.0826096992345993,-6.21206062680921,7.24061174526792,-0.0019775286808760557,-0.0001751271905416365,0.012122252752003055,-0.5410318245864146,-0.2592666328838564,0.2772234922292169,-0.01659914387144302,7.550708486147548,6.2673741504536125,-0.009940075727174215,-0.002055741169011416,-0.009542272359562662,0.5397194123194312,0.2155237553898714,0.5144293873926864,-1.30782003181834,-6.00896522262575,7.541654808626881,-0.002149829643107399,0.0033147595791148017,0.004853730466175823,0.6154676605509661,0.16854693271212173,-0.47378749061921877,-0.6867339350942395,-6.133791129010498,7.770235027281679,-0.0011082879386063666,0.002566381211456029,0.006174050074515523,0.16212346730166116,0.4261223614752316,-0.7792038489861682,0.21283427214609113,-6.138925712856113,7.6766720562288,-0.005648013107832654,0.005022562575127218,-0.0035159158284410004,-0.3003000667378842,0.40937500297760204,-0.3779306978525436
2.0584153815801076,-6.184197264753181,7.23933652051586,-0.00292997766512597,0.001710898383912633,0.009456127198900622,-0.5443939461563992,-0.24972411564580418,0.27552368361936624,0.015456807166616057,7.525106982088762,6.274502731937581,-0.01069347704726596,-0.003593542002916335,-0.009257167034944983,0.5382702181962857,0.21534822946612422,0.518832887482789,-1.3151278453186577,-6.012170862310279,7.581880639072721,-0.004957595472774359,0.0034595775805746913,0.000370588845369296,0.6150479129004333,0.1686866512377706,-0.4649960768737816,-0.6851846516784814,-6.134273120144472,7.739123027772736,-0.003155476353236859,0.0029271703213981605,0.005381542148277648,0.15949644072387104,0.4270927670912218,-0.774773109510636,0.1966629370559645,-6.140782280669812,7.68123837644928,-0.003593006079425101,0.0015045588993928337,-0.0030073715818754562,-0.30266901931458223,0.41132608551401,-0.3715548736214751
2.100448423352587,-6.210864100541861,7.237531168092471,-0.003644048810781394,0.0002732918953575321,0.01147099245072433,-0.5383679236471329,-0.2629424537421792,0.27502167098233693,0.014825080550360296,7.523953988174256,6.254584150348637,-0.009502020997080786,-0.0027307639472287796,-0.011550872444778851,0.5382411998309814,0.218180714016988,0.5129261988839552,-1.2887400290025774,-6.016729643032257,7.5498980285257735,-0.006122400220393822,0.0024537488135068816,0.002936707391201115,0.6101628334933553,0.17039909013427396,-0.466449080043869,-0.6792387875628283,-6.1560208590186285,7.767305421634502,-0.003517137215970901,0.006510970190562986,0.0046571555676864235,0.1556450228165166,0.4297754304492463,-0.7708100326238696,0.2363255570070018,-6.142086916289146,7.6924286501957235,-0.008197693386917452,0.0028706066710381096,-0.0028898756849181804,-0.30308486326193884,0.41448454615107366,-0.36665614478477004
2.0943190048731113,-6.208472615488915,7.245077554402819,-0.003574622288082451,0.0018719335524792695,0.011445403193974711,-0.5475739415830103,-0.25093037480208,0.2811382600891129,-0.02001946636853496,7.522405894457039,6.268454065087366,-0.01188997023992518,-0.0035226173875586428,-0.011637587741218671,0.5355651555180001,0.21747212438516586,0.5149003849361382,-1.2962119249088284,-6.005366821048709,7.532287151712385,-0.007014758001823054,0.001032875575466153,0.0022066835345071344,0.6103762811769206,0.17347613740743162,-0.4726036594905195,-0.660043469435854,-6.107802149685994,7.730921590372537,-0.007268651176169432,-0.0004936814150884785,0.005067873098210627,0.15677010813611147,0.4329627404345123,-0.7783882986578287,0.22111181216597403,-6.156469744478227,7.678271335648271,-0.006996162678303719,0.001997709457252152,-0.0049244531374676975,-0.30436782591914446,0.4167362382747185,-0.37689069682189075
2.0672467778799586,-6.196294916409455,7.2374679334029715,-0.003359865647097162,0.0011680570287628106,0.010992731762897437,-0.5427342335885147,-0.2582830501415414,0.2811307181733605,0.02917329548577398,7.533681827226169,6.259267490027461,-0.006703425731822478,-0.0023618659211746126,-0.010205372988202552,0.5323764439568698,0.21590573121271245,0.5093204602942453,-1.3226278486249319,-6.035527276681615,7.548688083309111,-0.007014758001823054,0.001032875575466153,0.0022066835345071344,0.6084866113347185,0.17409651979234045,-0.46478447823005703,-0.6860438944739184,-6.148598936460578,7.687413047007939,-0.005051042027230111,0.0035329865389698446,0.0055296012111736405,0.15311854223816143,0.43052281917604307,-0.7773680105880177,0.20469874878921468,-6.14511426844653,7.6838645068135465,-0.007588702946647485,0.0036721068409133737,-0.00229852712328155,-0.3087378441782492,0.4165232535976961,-0.3736815495921045
2.0836761803232564,-6.222518002324302,7.24611420875475,-0.0017789267379583887,0.001400693889849394,0.008791615396951535,-0.5434922543608746,-0.2624229124204932,0.2735591797682553,0.00987195924989573,7.519509853525764,6.259936522870142,-0.010264834436089427,-0.002316955692034795,-0.011425101282737944,0.5385185421015246,0.2106580209931104,0.5157353236468437,-1.2975671428401288,-6.007302688359836,7.5305095938054825,-0.0011871379090299726,0.00358158842765182,0.003056822847312959,0.6063865969018116,0.16511751153272602,-0.4775700826371768,-0.6757637530633248,-6.110871692421557,7.72516143463971,0.0002699528971094444,0.005297347890559618,0.0043580863644179626,0.15304747899724497,0.42711474350500017,-0.7825011210715584,0.2211825364115969,-6.14349489951224,7.660862855266868,-0.004668247911750127,0.0005078283544894953,-0.00435573252126632,-0.3098028386348259,0.41019860388262497,-0.37662816999336274
2.092079526240441,-6.183020971535226,7.23274269252648,-0.002784834275439511,0.0010139577135229007,0.010660476856760429,-0.5405453630430537,-0.25975903219330654,0.2789319547213085,0.014395963040684471,7.546604854474959,6.2626123812864325,-0.009488614162860561,-0.004687459755937707,-0.011397468504226118,0.5487430519694483,0.2199654838912982,0.5155460477646225,-1.2895895217672362,-6.036409893576195,7.5505966547281265,-0.0033984567835857473,0.003848181467558493,0.0036209176851786317,0.6084153259627346,0.16525921773497645,-0.46782056250798015,-0.6828834750047271,-6.1221899137144575,7.767916733565598,-0.0019315818417587878,0.002007136994355041,0.005212687471398908,0.15753928496859124,0.42318888985002884,-0.7747549756949516,0.23718668511178453,-6.176360822353106,7.702312779672112,-0.006540947854150753,0.0038319521413795058,-0.0033815159256548955,-0.3068540573248902,0.4074600098296829,-0.3710485183555485
2.092229578073923,-6.23764119955434,7.2578749873199735,-0.001337105296267689,0.0012634352894882847,0.011768404084495422,-0.5371105452840408,-0.25685285254387885,0.2818628449969112,-0.0320671742448977,7.537288945597538,6.292955159362422,-0.007269854138341438,0.0011167679178878578,-0.013654578617621866,0.5382569724996531,0.21330245039755297,0.5132510377397275,-1.3031019889620403,-6.023364683471631,7.565223326483421,-0.004230890535371381,0.0042027754020665,0.002797725003907577,0.6233521235883621,0.1717885095094527,-0.46681819600075564,-0.6707602267002281,-6.132473473205657,7.753388480444922,-0.0022207647546221006,0.002254543932577373,0.004646910969741813,0.16612766971047915,0.42830096467672946,-0.7719275400207903,0.24735287189361105,-6.098009177558768,7.676110277151575,-0.0044169409275214575,0.0049895178750266845,-0.0031161479774835924,-0.29529684389325556,0.4158901735935384,-0.37135248152802036
2.0523247615893543,-6.193204638756416,7.251856740749311,-0.010404385929648294,0.0018345260458827054,-0.000128240453502755,-0.5283055006156144,-0.2542159259124089,0.2786903962065818,0.003038327460780737,7.526550762250761,6.230158962897956,-0.009359441882014423,0.0008321670719966944,-0.008592984558433627,0.5362823348329777,0.22037558334452853,0.5131405596887161,-1.3507145445958937,-6.0067611674478645,7.567753394399852,-0.004492956175358293,0.00168726166052549,0.0036571208477750024,0.6106359550578899,0.16795195328425708,-0.466659620354645,-0.7054951509613322,-6.116679963492103,7.737235410256772,-0.0027176988989680447,0.0029227976098727404,0.006885921349120252,0.15803551247968886,0.4268498779089352,-0.7745093852029227,0.16175170929228735,-6.0251775021128235,7.6013624424402035,-0.01629715629366765,-0.013112570485576142,-0.018892345169421565,-0.3051272252753453,0.41062373356679127,-0.37275864735299896
2.0961010099925,-6.196646047608558,7.25084073442133,-0.005972163205046032,0.0015598694152547286,0.008302613266896587,-0.5346281163019742,-0.24978172702329185,0.2755216382331242,-0.002440859774081691,7.558642043522961,6.245766111630308,-0.010996473433850166,-0.00682639688876305,-0.015504447121252462,0.544814226724671,0.2213295381624491,0.5101651193929235,-1.2842899911447003,-6.0433846357690175,7.547100758201559,-0.003160454153749606,0.0033748012299756637,-0.0006031883621238157,0.6082162779033515,0.17549410173743815,-0.4691998457733792,-0.6625302316138058,-6.1775393513038495,7.713618824397675,-0.0005513127200958675,0.004740097636401996,0.0033987011757488634,0.15634568561331788,0.4324648256322165,-0.7735002622042207,0.23309799587685748,-6.321459294050129,7.767758065044923,-0.009830223868970164,-1.545896962398491e-05,-0.011899823095583706,-0.30508754566580765,0.4157565092239366,-0.37420273654068925
2.0958776648421655,-6.215210037292975,7.199136211621669,-0.006676289669966442,-0.0005558225920358597,0.01482787397062984,-0.537376991866366,-0.26050964891766926,0.27770963822389827,-0.1059788572580116,9.084482712050898,5.374690382515876,-0.03335556990888758,-0.021029640089819803,-0.018814999249161756,0.5384760791045138,0.21788488213868656,0.5097558436630619,-1.2996030115537367,-6.0141652879238805,7.557786564509805,-0.004731526507218639,0.0008889213717062728,0.003497399277521974,0.6167221062613394,0.1734378764864327,-0.4728963711231608,-0.7021748576937541,-6.101952383817426,7.799109767381054,-0.00394562041566335,0.003841839135538267,0.007052826780245432,0.16260401135137992,0.43100671104143606,-0.7801777939185941,0.2755628929656162,-6.400632882029952,7.718965672485814,-0.01155952385931611,0.010782497647304235,0.004852895592507655,-0.29850237695200404,0.4171652946627259,-0.37669208657597897
2.4650900477203432,-5.125273697307079,8.517995876952885,-0.03227374043321695,-0.11117977168692322,0.06537051840159264,-0.5319561177966264,-0.25224483354566596,0.28259890015048017,0.48527608209987516,5.497978705899091,7.315905798613727,-0.10153016047800824,-0.11717165895138841,-0.13527397578577122,0.5335834598097886,0.21881371859245982,0.5078039181319455,-1.228220374045526,-5.5618550314735735,7.64600174225847,-0.0468990836254419,0.1351018567421261,-0.028168182794135698,0.6137935563857614,0.16910987947794384,-0.46963164303023114,-0.8579212768853532,-6.222694641643786,7.9561238225544315,-0.023258732473247203,-0.06966424202664435,-0.021969457516994664,0.15557585194981347,0.42807635058145593,-0.7759398623475611,0.6450894511616455,-5.6415209256794245,7.896942788676268,-0.021641968710710013,0.05014051922757093,0.04370766930315821,-0.3029042428981125,0.4127964932106772,-0.37227987091204456
2.286035757661564,-6.709243879721364,6.044500550432941,-0.18985606684015463,-0.07095674953141042,0.09944356086707394,-0.5419707070948458,-0.2531627712795866,0.2826001267854504,-0.07339256465693163,7.217896746611881,6.952073212030832,0.10214674342999162,-0.029674502388038333,0.010821691349773918,0.5377326488353631,0.21436400636377057,0.5037118735926098,-0.9914789853376583,-6.718683828425427,7.087224517273773,-0.05889135327572995,-0.008302657675715652,0.008244921580770274,0.6108997677941883,0.17451127186222504,-0.4687172771853364,-0.013926533263635965,-5.599934744631751,8.137443001885996,-0.08300379831074035,-0.09105006239609086,0.02018488745715215,0.15215262708399038,0.43467392228479884,-0.7768592622264272,0.4039885691244492,-5.981018766150081,7.366902025540407,-0.2586335187749889,-0.03331788205424897,0.008999534181646415,-0.30794179994302723,0.4196734957366415,-0.36976785095250747
1.4476069396181703,-7.934500630254334,6.062632634751744,0.16448415749007764,0.0745428874378562,-0.021247151155070983,-0.5271185907874425,-0.26008854679263516,0.2860089224282278,-0.2818788549817924,8.377705932870422,5.519269436441558,0.12292817220344675,0.05330506792013394,-0.01615350710371118,0.5389624602207395,0.20871201420827695,0.5013599963358983,-1.5486773906555278,-6.157454429477262,7.467073093283354,0.04664858502423623,-0.04620254748850894,0.07087817054501817,0.613021588660299,0.16758431501958065,-0.4737534835067929,-0.938520535340038,-6.522245324602619,6.4132723990293234,0.006308133455900516,-0.05169424725077517,0.06518497683882592,0.15330319768957493,0.4261365923126263,-0.7815292830216496,-0.28779180139917654,-7.383989816464294,7.091642143319206,0.15203063581672227,0.01637339558033722,-0.008821205492048761,-0.30517088550222243,0.41089101796111765,-0.3783724173729712
2.2289133125811404,-5.497772504975086,8.731979167840043,0.1595554865897299,-0.03984367978270019,-0.04415711144864638,-0.5346574592472978,-0.2549115523314714,0.2799110736523005,-0.11339241858911016,7.535035920567837,6.104036820894263,-0.007247434056354194,-0.024077416403564544,-0.024080610974976494,0.5440927791487096,0.21815783470847813,0.5104641956293722,-1.563309876039956,-5.570898904655422,8.081376224938605,0.12792666092787688,0.02115209805905865,0.0350543196274581,0.6146555357059242,0.15945441575500652,-0.47778999004090994,-0.45121641249987626,-5.854556115651589,6.16262810679164,0.15634514257874543,0.21617422975778375,0.01780503879975208,0.15864130243680483,0.4171001083294133,-0.7833259668916547,-0.15204323857097488,-5.303826357806776,8.483843472424333,0.22432263796349552,0.007119484300680921,-0.004592227171085431,-0.30407848166925067,0.40063751791805313,-0.3813540623438864
2.0895291428300773,-5.153659264159757,6.6706354873,-0.034771831427165986,0.023630206027809054,0.016117169115078756,-0.5346539759127658,-0.25467647896578527,0.2899212866559846,0.23965513625802862,7.45819856866322,5.983736524844158,-0.09030732505709668,-0.0402200235329475,-0.004350945189384224,0.536770757796059,0.22111803483380252,0.513614651236004,-1.2749175196354665,-6.001455491762466,7.102334591290577,0.03850481950475745,-0.011672716441758591,0.029751637430170945,0.6176520173962824,0.16440461595359493,-0.4725186537327956,-0.9062981162700755,-5.882860323453727,7.866570024620211,0.06638707984095236,0.34288093256684954,0.03979749690971235,0.1677189837514391,0.42343265407056435,-0.780503591936733,0.7617972143292175,-6.269349188857395,7.253379802015014,-0.054697013169379985,0.01006312742109937,0.001024077563170845,-0.2987310534303651,0.41568763906451467,-0.37303418471817584
2.20468731425372,-6.763309585510581,7.6483866403054845,-0.11616768356065425,-0.005986836716465348,0.04611240266221315,-0.5422315272992458,-0.25634254434946757,0.2918743496663734,0.06125346700119586,7.4987480367957,7.0901916154563125,0.031097753245727167,0.035749614422901164,-0.04441327708784573,0.5440934367682964,0.21766586017314643,0.5102283129803247,-1.1627541964305443,-5.3417528776617615,7.4101250932660685,-0.023912613893763292,0.0932254227916101,0.032090601585095635,0.6143175405324411,0.16917956313011576,-0.4649980944114457,-0.7595344168332416,-5.794345719185817,8.551106547416408,-0.004541206839177875,0.15489150149825667,0.03433218153656071,0.16244730332309584,0.4287957592023421,-0.7733434124133606,-0.18178146618113375,-5.478559930938314,8.127807626925184,-0.14875303334528459,-0.0014146762887406296,-0.0014810832436857153,-0.306970543733229,0.4177036985501813,-0.3680749305706991
2.0976620977466087,-6.808545138183586,6.600354734901373,0.03215813442299893,0.00880526533361474,-0.006539720470859099,-0.5273536510232417,-0.25837313294716024,0.280395497090317,-0.3632636838105437,7.520404086716579,5.802425426985164,0.08467544191277453,-0.028235607538555623,0.001954379135431897,0.5372593067670662,0.21567138070031602,0.5090635933751212,-1.3978475870533618,-7.057909276948076,7.827077941768268,0.02295523581447808,-0.0005884239619575454,0.03469223549935485,0.6201050921059039,0.16296464551704895,-0.4700728690712016,-0.9116469148504043,-6.724978166676057,8.536831470313098,0.0050217600082029445,0.08795366540741315,0.03437523442568547,0.17220727828406235,0.4212167389590517,-0.7732421359940866,0.5819222567615222,-7.366720342144776,7.200889642006253,-0.0006353036052710204,-0.030084328828991903,-0.022388561281114428,-0.3026633581843534,0.41328606132531953,-0.37325585944466305
1.8909361292167344,-5.788012316679417,7.833779100398556,0.11629771089464659,-0.016713061600281465,-0.008221646648354432,-0.5395678845975544,-0.2597713179498388,0.28625574724627606,0.13699739135321792,8.12363174468485,5.874019140306318,-0.0757378289399067,0.01721193739102426,-0.028608096471399336,0.541918400780323,0.21182437221254305,0.5117977924663796,-1.7295567639905507,-5.800979879859837,7.655598470145418,0.06549777159471229,0.04052053892963751,0.035020900016684745,0.6125529772498257,0.16400542718835368,-0.46856624346632153,-1.037526917435849,-6.674275247237872,8.233966735524556,0.06898066911894661,0.00450273665722432,0.03328244529024409,0.1624109039358582,0.42196402512336956,-0.7755533421766821,-0.15749895246187212,-5.6204611608192545,7.859002985842204,0.17195531875948566,0.05323996682995928,0.024780530831047597,-0.3075650796618986,0.41383627688978747,-0.37614343617770213
2.2679881153580608,-5.694003848410581,7.250528661562348,-0.09442408954293151,-0.01134931552287149,0.02152017288849607,-0.5327062313593738,-0.25541707047740103,0.2855262270013662,0.007552280072616718,7.472937158513833,6.301839301904952,-0.0986940028842496,-0.04946053546873061,-0.05051270707287597,0.5389379908479172,0.21726388966014126,0.5017064014536354,-1.1694861184728125,-5.573869303637925,8.16464685409187,-0.03869469250590008,-0.02020858194785782,-0.03090012958760133,0.6151931073628855,0.15713675361119864,-0.4696997902349229,-0.6621465625869573,-5.7865848329908545,8.39811113664284,-0.03141367520010567,0.0037614292938252664,-0.026897868950714648,0.16806166055260557,0.4170688229116821,-0.772462689338692,0.3699256094461387,-5.73076474885992,7.812339079978057,-0.08764212672081162,-0.02609674741700524,-0.014460010100488387,-0.30443468473778007,0.40671060606670406,-0.3727805738641201
2.2829022175510234,-5.964054033879887,7.703722099856385,-0.17193244238651278,-0.021713331073550005,0.05082077332842223,-0.5336871837195208,-0.25614481724852867,0.28723477934303887,-0.3519821933669535,8.605507018700186,5.5317208877639885,-0.1237745101168557,-0.10043036039697119,-0.1306266178421032,0.5374995333723501,0.21912199496628415,0.5109588562501892,-1.3936067908882899,-6.209088869847722,7.735064188802325,-0.12583379065876446,-0.056506793085541206,0.00045319933150431537,0.6132485221191606,0.16754872709702293,-0.47595202386462515,-0.7048449310243254,-6.137218220976463,8.05003867371088,-0.15031277909964955,0.010227695515556415,0.013424424858481896,0.1650185068486003,0.4266123848757588,-0.7819271306624908,0.294567009822408,-6.038077665752859,7.9625532711002815,-0.21089150887712144,-0.012482475033733021,-0.007653867098613475,-0.3048790349211551,0.4150352823556819,-0.37762558682574
2.429938465238125,-5.233102040988979,8.179609801415173,-0.263838873169354,-0.14779055614972936,0.0981971816330756,-0.535379765919721,-0.2534521765809409,0.28992252611883784,0.593752008351105,6.457357060477913,6.920818357109228,-0.08044358493855139,-0.1933139729628578,-0.2237289324529788,0.5464765693118144,0.2285402944223592,0.5029588951192047,-1.384257555438927,-5.762975828903562,7.192495868068368,-0.11845338099183858,0.0025566572104006756,-0.02266073415648404,0.6145688140824097,0.16894850363359165,-0.46401929304643225,-1.051506196613168,-6.046606984925609,7.262332649061658,-0.12351965768230871,-0.023933579774296856,-0.00922322732196482,0.1659199769159345,0.42634256668185355,-0.7689983445686636,0.8492213009523797,-6.070318290443407,7.35766597789958,-0.3034598941889873,-0.016896984484955174,0.00019849968210957107,-0.3045377058820964,0.41449319433139903,-0.36517911278442916
2.4419950625192985,-6.906476107690763,6.31711301933985,-0.11608018492248177,-0.17705520223993482,0.16385495431673167,-0.5426657903916208,-0.24706282475907287,0.29188270970495167,0.01962893845996012,6.903030805178638,6.714918040868088,-0.0001240007414797445,-0.13885091792043938,-0.14218079140821907,0.5362403337317079,0.22190629969000783,0.5023707930534925,-0.8159288810799834,-6.405171125344435,7.052411983511206,-0.018694300878380955,-0.02530361136452108,0.017562417930963966,0.6197206042101442,0.17452830439304118,-0.4646344011382539,-0.2025642290049226,-5.864265075565354,6.973487751718297,-0.020807889759573296,0.013452134598197668,0.016637530150398462,0.17378526159588492,0.4336514843230703,-0.7656691271204864,0.4329795731025185,-6.77846562071802,7.664280569320961,-0.1539257362891879,-0.014351290355084098,0.0617244023865396,-0.2985806976744294,0.4241997186995178,-0.3651877675463692
1.7780283685195801,-6.791340672707109,6.353731231136847,0.04748514766296907,-0.09050520650189325,0.06792766193882782,-0.5321725404446416,-0.24810696018673475,0.29773963891392474,-0.29725055141739265,7.596771682507951,6.155324376573698,-0.038795353640356675,-0.07251015884252869,-0.023498874984792868,0.5447517825329544,0.22399917320637103,0.4944938458181567,-1.5726848397887796,-5.71690445372114,8.712799872122275,-0.028755439571331226,-0.07262461610650851,0.08490574402501742,0.6074510372091704,0.16553133497362885,-0.4663520975243399,-0.4284352820620846,-4.968705546622957,7.209346536441957,-0.06774015305337872,0.15910403015609234,0.08301793305301018,0.16570509814585735,0.426582580959248,-0.7667978670612082,-0.28692939445068677,-6.17798115519269,6.804897117681219,0.002592838276922459,-0.10500700868394913,0.048358035225996875,-0.31181176487131385,0.4162595108779661,-0.36120586667089577
1.5095990531875916,-6.592890673482266,6.85826513725918,0.045204661105020125,0.023991026995062892,0.025526164676708565,-0.535324726317451,-0.24442595384582502,0.29847556387031887,0.06319158470964209,7.96687000347148,6.268002169674898,-0.11844954278134572,-0.010475400147189546,-0.020079817819054314,0.5491574762914643,0.2260460145515816,0.4993285356751965,-1.7809084770821477,-5.369855730822355,8.639468791013094,-0.1298844909896755,-0.2678022497420122,0.10884037451456058,0.6066854406067377,0.16909119710915074,-0.47323871733513395,-0.8833416932915055,-5.8905505370735245,6.314644381013368,-0.1718818162825983,0.6285915307555151,0.1225910198009359,0.18009024698980539,0.4280348254799361,-0.7684489711129241,-0.30415307747141823,-5.7974480047775705,8.449587215367814,0.0036548210366912303,-0.026581716507287065,-0.006816607053071319,-0.3070010800885609,0.4174738955942352,-0.37149377805668643
2.3966029978874297,-6.3194818817097405,7.4484299708611275,-0.09363715711234147,0.0011499863266721682,0.01284514968255131,-0.531680165760596,-0.24762302934368874,0.30018097074504885,0.01871842701687786,6.93825168907279,6.553749371144018,-0.12280223245383966,-0.031222610030296114,-0.020922200559434077,0.5465020871762445,0.2182594260329537,0.501419969845412,-1.3381426831466872,-6.338405773044695,8.694329959947098,-0.216426384817438,-0.3370391166940952,0.07221444915609564,0.6089427532725601,0.1769282759550901,-0.470937116003181,-0.9316328251811857,-6.853534115024286,7.935050157713131,-0.21664873698182444,0.9488283033649627,0.09268219537077554,0.20032513019155573,0.435550453412105,-0.7528295913686217,0.5174036547389536,-6.680218910709206,7.510477265639639,-0.10705930956923605,0.0011166813730396896,-0.032158348686920905,-0.3032079245641872,0.42227826301721844,-0.36149557627672163
2.0883335202477666,-6.560176700006945,7.027281198333362,-0.036160750765059896,0.0030629355636620547,0.02296812318932643,-0.5299591756646274,-0.24568232155406328,0.30262335019240433,-0.13908583188064366,7.81008943671882,6.138458300139229,-0.08526245459614977,-0.0026949266217525477,-0.06036112891375432,0.5440098496906697,0.2241964267197128,0.4918067316209158,-1.3784453137325883,-6.726751519427677,7.635390622891805,-0.2725323748211932,-0.46693757983113077,0.019677883467665573,0.5969461707461297,0.17692468148923424,-0.47523858084278636,-1.681176210220111,-7.556881807732291,9.367534659756947,-0.2800754037700457,0.9596081638006148,0.03402619360519478,0.21262688045793957,0.43234861418684384,-0.7454275611093546,0.27927866859466466,-6.408063033448158,7.667381136407865,-0.03960547127478799,0.0402548742800742,-0.006151910093407058,-0.3042638136417118,0.41545755091325204,-0.3627352575465532
1.9804375563594891,-6.243355244602467,7.179733687739102,-0.015277529157298634,-0.013799986704892906,0.0054698212761176415,-0.5341525687368324,-0.2527346614646072,0.299199918970935,-0.08490991865246578,7.84467610094113,6.49783012093472,-0.11670303894117032,0.006986546640045798,-0.003407801482209694,0.5450168162823467,0.21518382948946527,0.4929298092890138,-1.0743779893288614,-5.821931250024397,6.536695134124816,-0.22690676458359013,-0.4612195093419238,-0.011502225854253053,0.5820083162128686,0.18343289061723955,-0.48572370592021286,-1.9871327352979062,-6.324295390413847,8.577510938453337,-0.2688943125227743,0.6475098491873005,-0.01589453816076431,0.2184542656296732,0.4418703900156165,-0.7486598989826069,0.10519838854442606,-6.164126116288656,7.647303361771507,-0.008375092578340442,0.06906916659818431,-0.012199129097459701,-0.31013570431107185,0.42018456900631407,-0.36999271921816723
2.202899533770935,-6.539622961897603,7.326973251314654,-0.05605516792348434,-0.01308093881023115,0.02853079800694262,-0.5348491440462756,-0.24687514748513828,0.3033562857452562,0.044430468160005704,7.842216202074707,6.582950346837658,-0.09633158302031751,-0.017913828882644065,-0.05365205938790255,0.5427866772951849,0.21576042843725235,0.48389359322523184,-0.931343006910257,-6.269410115348203,6.55576932275839,-0.24448727780008098,-0.21522911687829194,-0.013705447956800568,0.583963908433248,0.1846344975498197,-0.48624670673012377,-1.869064054913496,-6.1312967483168945,8.370235631957323,-0.28884111238282784,0.21574523682186308,-0.030668147647499144,0.22390677820055285,0.44356177075937747,-0.7426246468052713,0.25578056150992945,-6.9709856649612805,7.463113713650891,-0.04976827751735267,0.06301639333712811,0.006717558018813437,-0.3055259176938409,0.4159810992331628,-0.3683389555682454
2.457076368114373,-6.278282826062259,7.540466383873318,-0.03803220644623676,-0.09305859857401116,0.04977783976100081,-0.5368431297840516,-0.2539467644619424,0.307012391215688,-0.015416942512470045,6.211283876184056,6.175041854922244,-0.09893467253865414,-0.03742294200862845,-0.12178158499168956,0.5401496581761761,0.2149980429221582,0.49734518077066137,-0.8693134885508299,-6.319382859096144,7.3040096806972015,-0.23675800622504384,-0.10433139027206087,0.017286734371795634,0.5785974246663411,0.1882956925258638,-0.48821544295595887,-1.5088539715823703,-6.283948057132605,8.043138802152395,-0.31098332316194227,-0.06850655308989155,-0.01472294674638297,0.221938279238103,0.4496701742511604,-0.7442961484105374,0.6544000488945128,-6.786587092009378,7.844695773658374,-0.015949491955636736,0.10574322540103243,0.06588056779615312,-0.30554878050195716,0.41771025548801666,-0.3732137992517193
1.9759065737441677,-6.14505898926599,6.784532062839397,-0.06080272021526803,-0.09683758163117936,0.04106811716220392,-0.5273087364997204,-0.25180858126176775,0.30994235150589544,-0.2949983469967054,7.547621054952297,6.274417282983494,-0.0403899860771124,0.02646193861502025,-0.04523877124133199,0.5447972494734143,0.20886127640497643,0.4945005679943011,-1.198296061632505,-6.536535415298152,7.314118797893773,-0.20156501916855324,-0.21412096995920427,0.008216382495375587,0.5723633064509093,0.19242218574501652,-0.4762665880824445,-1.3607856637829325,-7.3286801170768925,7.085454965551307,-0.29434032447824143,-0.028437796445446053,-0.020498355284532806,0.21948746434652353,0.455499540030386,-0.7269171846330504,-0.15732171216053153,-4.956087759098931,6.799631416129084,-0.03439767528075517,0.03746897200652986,0.03422946346429645,-0.30644412904242396,0.41571653070478454,-0.36100720077057763
1.4979684064968943,-6.645440870913239,6.202032397718915,-0.013385360733798432,0.017844205849748124,-0.006654364478889165,-0.521441302040571,-0.2501274284287125,0.3023736487756058,-0.1511368606992319,8.043885558520701,6.693261347968649,-0.0843828903937747,0.017697667479793417,0.07259193710438418,0.5428123905195485,0.21068271388168858,0.48690808865934815,-1.0387154433840131,-6.146699034198392,7.1845005371876836,-0.10401052510410123,-0.2671324066265889,-0.06471727540198116,0.5725551328158416,0.1896590742687709,-0.4811087197014277,-1.7748399559901684,-6.461011609745688,6.766188385238861,-0.14101554122526447,0.045624097517320855,-0.06763524932811096,0.22528478193294887,0.45232770659194244,-0.7313937876354278,-0.685471914031227,-6.745456541423334,7.453787524833904,-0.017303394126220856,-0.05795071409264689,-0.03275171778494927,-0.3043268211551529,0.4118089376388283,-0.3659240145499871
2.304548636592807,-6.140856257202584,7.842329147425471,-0.04717687481897853,0.02679351909609546,-0.005312487342252896,-0.5287453593701043,-0.24666476038086713,0.30066922584765593,0.10320157178347072,7.2504961383729505,6.714579462164281,-0.07917948752995202,0.022380333832960904,-0.03324563443550743,0.5401198899737474,0.21807447629026797,0.4914334511095804,-0.888729702096937,-6.257080005191388,6.848956704719837,-0.19049404179534168,-0.04087895553923903,-0.03916156753113354,0.5722698360162282,0.19247577693465526,-0.48847555103030516,-1.570226789707599,-6.209827624165211,6.823001174870499,-0.2169939932951818,-0.06657378201006295,-0.040164811460869906,0.22331069089454042,0.45917005210593287,-0.7335518391731003,0.4144357934751632,-5.614324527488858,7.3666737602753,-0.06372323071558214,-0.10583487741059613,-0.05425902848054664,-0.3031160331747897,0.4149907497108138,-0.37104797428881947
2.4905836196085325,-6.682907333543199,7.333341798473339,-0.08685196942932326,-0.055710425495717246,-0.018193930563076065,-0.5270901204983957,-0.2559560293717036,0.30554360825135635,-0.14967088414687602,7.5380460138751335,5.951138221394283,-0.06097716474564032,-0.03219204476793016,-0.09563545942401605,0.5493629627111407,0.2186764351732252,0.4818694665385721,-0.8267948146865768,-6.886133950753307,7.468736423781739,-0.1526541975159166,-0.04002181550748187,-0.02906716156174541,0.5697194558477556,0.2065262859407476,-0.48086172264597826,-1.2856258230250497,-7.05472972744474,7.390221336968238,-0.16241119321108177,-0.07308462099987442,-0.04152778050964656,0.22219991979600012,0.4689217122807581,-0.7259497341092791,0.6661873284138304,-7.325445745875825,8.640692724705156,-0.07737995213508542,-0.020872745264264293,-0.037379597144766324,-0.3058974337265809,0.42353329586980415,-0.36342135871623316
2.189117954354121,-5.813108472764451,7.201982582897474,-0.09180545329662643,-0.08156390941201354,0.015786050881388795,-0.5279519298961513,-0.23641504948841005,0.30043419969824037,-0.4409393184346889,8.105201814422822,5.9494696490591785,-0.18811979767803455,0.0532359961104261,-0.14799152821937492,0.5408442425854396,0.2125850596100261,0.48419691023671746,-1.033875550494871,-6.374698884583696,7.994750720363288,-0.11489839920701686,-0.16132977033938647,-0.04761521133950588,0.5740541007868156,0.2080741334538873,-0.48970985574445436,-1.4035633981340325,-7.143431855785777,7.1409644765868565,-0.11830697022174544,0.05115716267632026,-0.04846385219789632,0.2323713944027053,0.47331835588628474,-0.732667295745106,0.6777677449025262,-5.184539508187461,7.412247040962077,-0.09519697790172761,0.12139986244451463,-0.019055128596546168,-0.29569907108453947,0.4241945759016941,-0.37107070752125165
1.969251644607805,-6.266044208443,7.810605011959918,-0.2642672589557743,-0.1711028093502707,-0.02047755960671748,-0.5202079542865123,-0.24818536602766103,0.30652612971451215,-0.17533231015871514,8.232663294300902,7.3210704994901565,-0.3657220668548594,0.09312625766474836,-0.18301670559751806,0.532293802592367,0.21575319313690508,0.4853948450766526,-1.175645119382601,-5.737921854202209,8.005482011987382,-0.18819985354399246,-0.2590570207943764,-0.12454471647629942,0.5637928808844577,0.2073902791387191,-0.4901075910723766,-1.6221888263617976,-6.467668071599586,6.602836993136528,-0.153840209811219,0.2883009943001588,-0.11092341506093245,0.22904254238619742,0.46964637003322607,-0.7255500889793074,0.09243473599423266,-5.836890965419104,8.554218430425104,-0.2733876692351216,0.29982947028917584,-0.14809856994684314,-0.3020933248781934,0.4196196640484799,-0.371037167132727
2.4311986606213636,-6.746924466988914,7.6662500022720526,-0.510230692637846,-0.20750546839055525,-0.02717478747516033,-0.5194621001040831,-0.24599129338034312,0.3060389328786806,-0.15133424046850574,7.943002133480322,6.968735388210825,-0.5631545466589913,0.0657894693886937,-0.15982853018112914,0.5271901144099403,0.2014826942671509,0.47978801371260194,-0.8903761828920858,-6.381217883975589,7.738402471165973,-0.3904251540614872,-0.2420646172759944,-0.10652107246967772,0.5526925030240089,0.21906073846188032,-0.48141310502996454,-1.8474753067703207,-6.476081908906022,7.961529545151486,-0.3732887706949407,0.3759679479305421,-0.13266808512583977,0.22794729588696463,0.48183813463279906,-0.7169663819680845,0.05803746547868553,-6.214726341981963,7.483012822295328,-0.5095403937862139,0.32661897003046464,-0.18965342353468984,-0.30657947806674624,0.4276873549272872,-0.3624214772907673
2.3871334332108622,-6.544466270940934,6.81733310345082,-0.5807866535054317,-0.22197874833766165,-0.07182330026813484,-0.5199062457188162,-0.23842141421099236,0.30702277129749905,-0.3949874258556544,7.928559981658575,6.23944432390354,-0.5538587321192835,-0.0016338918648244822,-0.03190163918349352,0.5164314100179974,0.19641439444779765,0.4706305250422331,-0.6827524359478596,-6.98771922798105,8.393081753158622,-0.5635968397873945,-0.2571565913124905,-0.0696837471524222,0.5541450647898436,0.22095984093495075,-0.484383449978487,-1.8343664512624727,-7.402579503231292,9.411657193603773,-0.5624431626019544,0.24078788852594032,-0.14872378653238588,0.2343535709691812,0.4886596947958781,-0.713130916870803,-0.03588629406578083,-7.07960660902387,5.812145830359539,-0.5474615325813809,-0.014350899334527257,-0.2279683806362977,-0.3053887829984531,0.4227822508828576,-0.3600105086954381
1.9969194921996922,-6.325903051726881,6.676547534018722,-0.5000159104130076,-0.22600467957455836,0.004979651217946701,-0.5072117132556739,-0.2384908694554279,0.30091611480550184,-0.10316746393486256,7.764467146904555,6.39212476393414,-0.6064474097905652,0.03649022124897011,0.09257237338167058,0.5086276156170153,0.18925125504356421,0.467113446734501,-0.7721642459908169,-6.312830558938401,8.727743365520546,-0.7392869930918387,-0.274888380679321,-0.08949529779116064,0.5430296072411182,0.23598410214814933,-0.4798927893945571,-1.9275657586186126,-7.340311570710884,8.554969256109048,-0.724873052243424,0.166720808006304,-0.1999000706428775,0.2317859265558732,0.5018304567957371,-0.7052580575738338,-0.10716370497043613,-6.72863750613806,7.587786794731069,-0.46020981617772844,-0.09207933355046233,-0.12055803898357005,-0.31332811561551516,0.4301655274582022,-0.3547874381801546
2.4447339092791163,-6.9689013675161045,6.484496888094173,-0.5084899026356327,-0.22296406193845744,0.015571096124187002,-0.5066999874117878,-0.23408925172379205,0.29017792915776564,0.20112952763737876,7.148456848725358,6.667823634244228,-0.48747853008304154,0.12230581759179474,0.07479039625700463,0.5026915626039056,0.18588732687108378,0.4420389247674535,-0.4163666495372841,-6.686118190735857,7.482978982323896,-0.8916232785832587,-0.2541832348920995,-0.14443892794613336,0.5339202411320182,0.24916967767838774,-0.46733080220992895,-1.6406553508171098,-7.4642351824710955,8.21565077919174,-0.8529420751197466,0.1272168868523537,-0.2777067468986233,0.2313479305024886,0.5164391344612503,-0.6839821842351819,0.7051151221332674,-7.655819352785423,6.979896800119694,-0.4574626822371718,-0.05780844128632574,-0.026268407896516865,-0.31391955080507894,0.435009005436108,-0.34353100604141334
2.8786135473460286,-7.339846317681731,6.911108837552397,-0.4400139436927887,-0.32270444881323174,0.01629821229668171,-0.503301506610505,-0.23803201351738576,0.3077517282542129,-0.18198838425107722,7.107325023929976,7.17705162974647,-0.30998565755440416,0.17347913414068333,0.015082207045472609,0.49706257656013375,0.18159159314986162,0.434316279047535,-0.13069134703940183,-7.497213013366607,6.53317760282272,-0.5805203249546359,-0.2200202840108657,-0.2168708665066424,0.5271554960373684,0.2650469653878431,-0.46923519103461486,-1.2699566073377797,-7.54378916661472,8.14392815381647,-0.5164132225150232,-0.08722953909331028,-0.290072650208905,0.232786021811971,0.5298716550532778,-0.6871493547279635,0.7603249728477518,-7.009292724305987,7.2695182641120875,-0.3091730968111552,0.08410117980462556,0.01751924181207954,-0.31102104622745214,0.43867577888602194,-0.3518409512085299
2.650064914566682,-7.118350585660406,6.370170705079718,-0.36957905597860097,-0.41385313453015926,-0.001067420970393433,-0.4981196683422373,-0.22853498823919896,0.30165613271095404,-0.43094246099719774,6.722574500579378,7.24314264123009,0.13204036350706475,0.04781381588156572,0.06895849501523318,0.48968614667734417,0.18403977444924277,0.42135909989813486,-0.28524997507574873,-7.503122112987348,6.658484644624824,-0.23547063754361772,-0.17876176475160763,-0.2773591875289029,0.5206143429734197,0.2700145800065346,-0.4660874060047635,-1.654966264365088,-7.070903564234297,8.278261808345105,-0.07598680435979181,-0.37876113089529434,-0.16026451791992022,0.228171784039002,0.5345118297108942,-0.6856146955080318,0.686891545831965,-6.722690511822034,5.9119311809174135,-0.32347558802225057,-0.02731288776987348,-0.09492734013091018,-0.3092720821163126,0.438638337548382,-0.34697226630558314
2.292140647187424,-7.216257851935606,6.329781502444134,0.13325670461391273,-0.42745249386354245,-0.004767215568719129,-0.48341381785086956,-0.21885874895501364,0.304102755820615,-0.35163188474041673,7.566583681716275,6.580182660287469,0.17977940211945712,0.054292973277360566,0.19304747653174426,0.4700711923467734,0.18704665007673116,0.40013336990902876,-0.48971042527103303,-8.26802050639763,7.482027942875322,0.13977552076619304,-0.1486106669821887,-0.19949970767559672,0.5111557686377767,0.28033409672953963,-0.46519778128572026,-1.832768214792864,-8.136991926268,8.81877666450576,0.1830717976220225,-0.6337659580641585,-0.1814420440456413,0.2184189142429016,0.5389164389966415,-0.6849891407300782,-0.39737939080653906,-7.463413241802415,7.69587031668788,0.13953795322407456,-0.06764087409225861,0.01830494941460365,-0.31164421516356594,0.4442714691425048,-0.34546534386251454
2.432527468818697,-6.671197454486041,6.601779784259278,0.18510493499659064,-0.31500117997726607,-0.024072578151040813,-0.4789554677465801,-0.20814208453018615,0.30435539776728715,-0.3918577465836438,7.208007120358143,6.537033780110266,0.2126224249758806,0.18705712681070646,0.1934008364426051,0.46884423595546726,0.181559458111056,0.3933915423121776,-0.5459862665572166,-6.386733007786034,8.01194342644912,0.1797392021780024,-0.18326875326563563,-0.2366080713984093,0.4908764950070652,0.28234351334166946,-0.46849018692440214,-1.7081198202996948,-7.696927986870181,8.634954919293316,0.23358396222732677,-0.791237839309268,-0.2077157560980474,0.1948876357155006,0.5396879643699868,-0.6920044791014016,0.13492669792932002,-6.414016935267013,7.463160483233015,0.18209969651958594,-0.05771175915865242,0.0181025407136237,-0.32272427813511173,0.44025849848818355,-0.35173824981383695
2.5063944411905035,-7.833083295411952,6.696592108576913,0.2590800440549333,-0.38768259839900854,-0.05472147925711474,-0.4785032304651437,-0.21450024934579057,0.31265064162258693,-0.5401524172737426,7.570132940706342,7.817114267343807,0.5413958521166562,0.29701996299744265,0.10733173609365242,0.45657806623303415,0.17900648604655586,0.3741860888945062,-0.5484473290659183,-6.623849871830403,7.513473866893983,0.1424833370444821,-0.2557681123818624,-0.3184775995690866,0.48603283746301307,0.27737698073736844,-0.45982881414138665,-1.4240383655350075,-7.494960265908492,7.065545644578362,0.18846352159755758,-0.7627320403924799,-0.303442957490813,0.1903461988012866,0.5377253496989953,-0.6843790095809443,0.4291493724613998,-7.471873709549223,7.053360941082918,0.2900469881335771,0.05110812539454231,0.032304004864665184,-0.3158847010805532,0.43380771034095056,-0.3435198485706343
3.118935324447469,-7.649738552339132,7.258224693945977,0.6040972261187725,-0.5372984653739379,-0.13693231918146956,-0.46353013916189023,-0.20066473700055312,0.304114912891587,-0.7045517600504378,7.706925284941136,7.460391894759271,0.7186183144928726,0.17602469833716597,-0.02442753511372853,0.4474466357045302,0.18618619991492008,0.3523672335333392,-0.4503441353201822,-7.690513439535663,7.19931785969824,0.42934077367535994,-0.29178586003532037,-0.31102268155922613,0.4771823028591023,0.2724710032180995,-0.464323276045264,-1.1423866571486005,-6.691638939339575,6.6294210071883475,0.4251509878357953,-0.6700985798524478,-0.29683612261310116,0.17897816405681455,0.5250609479918052,-0.6937771543152733,0.9835222082517402,-7.472350179066087,7.242175370170252,0.6481380654895242,0.09491942144616719,0.0852836972980301,-0.3136984892661867,0.4194357317554329,-0.3570260128462584
3.100416450897071,-6.844505215591683,7.302313228589285,0.7614145705211615,-0.7001299311961163,-0.12177057250172013,-0.45143623162100355,-0.17851892176794235,0.3043761830114816,-0.8594678708534358,8.257519211809434,6.774964154104269,0.6646963350754455,0.1251317567784411,-0.08436910746720248,0.43246864034161836,0.19018384940660996,0.3311082066635556,-0.4227849341248179,-7.750380797841204,7.516261678027277,0.6665211037189497,-0.3305234783820793,-0.17727452634116458,0.4629728585209958,0.2712394578528968,-0.4698095911670649,-0.9744135973642186,-6.367243885326703,6.33497129580004,0.6501238409770665,-0.5363426709989303,-0.14196398735228172,0.17063109665524073,0.5204370798672275,-0.6968508340904122,0.7814590918541819,-7.25401392918506,8.423976110352198,0.7760813896505931,0.2539941696052693,0.14286927918042416,-0.30965854157711026,0.4133146899302828,-0.36294484597824395
2.9659612773115414,-6.6671623235077755,7.560103862502545,0.6777593912708125,-0.784986596192225,-0.060355101663093394,-0.42966754058688594,-0.17156417853292677,0.30095993577275165,-0.46130858148015097,8.564226291864935,6.519237655824195,0.5239202928381136,0.18491417126405618,-0.06453015217053698,0.4126167501988596,0.1872782218023924,0.30680683382197627,-0.4408727749071927,-6.410407781008255,8.136347510847571,0.6894976181396624,-0.39794901598881843,-0.1425750897676843,0.4494995791222392,0.26832182525916864,-0.4735660632208752,-0.9546624321331771,-6.735837455026854,6.514580031193716,0.7485390096521845,-0.27977374392852256,-0.007709398624045622,0.16860395838299544,0.5141011245582534,-0.7019639371353235,0.0789790390058411,-7.010833298137342,8.712249502102852,0.6741865326614583,0.48747244110661236,0.184745803712779,-0.3015540874009338,0.4040064560987829,-0.37550157072812906
3.4017683011852657,-6.925200129099532,7.649113915680361,0.5966599727056758,-0.7884790095950226,-0.03363264414098787,-0.4264022158881337,-0.1559546990467673,0.29706718073513555,-0.4495867522640806,7.987890349363904,7.033051590426281,0.5599111212724455,0.23088384352059368,-0.026971814744114486,0.3915680561050298,0.1862162598174615,0.2907811880413241,0.13740179961965263,-6.192981656777113,8.063667327773913,0.4931746815143907,-0.36748126554939864,-0.12846301678067384,0.4335867001597146,0.2656623928925184,-0.4773086208505257,-0.654585105211927,-6.692533323006733,7.301006236469062,0.5010106526618685,-0.10224707450699011,-0.08123435565750889,0.16681624618415009,0.506545380145694,-0.7073265631213658,-0.3068586021902222,-6.847833184516692,9.038636923582164,0.5860899259584053,0.577458323745518,0.21106292544188698,-0.29217658335645913,0.39735762916602735,-0.38488358289578933
3.7413096318134373,-6.9764644056872465,7.820199964235434,0.640613463548482,-0.6912556213848108,-0.04706396550777186,-0.4106343708289059,-0.13112877813242402,0.2785310817134169,-0.5520217229305526,8.149697451764895,6.847299033224088,0.5111757549731076,0.2084365682102599,-0.08692756625146723,0.38027706698608,0.1692887339391783,0.2586247681946464,0.18814155889007889,-7.326740259117214,7.936614794217901,0.5200350819758621,-0.34069337127040167,-0.12067413084322025,0.42000767303917,0.26688762275225064,-0.465989594600431,-0.7257826224632921,-7.126897521413771,8.545978954429359,0.5213876615932618,-0.11360781564182082,-0.07959357874479857,0.15934984800768873,0.5080039262906165,-0.6996560904231767,-0.7616831168988825,-6.822390297709995,9.486978385048726,0.619065387109921,0.5877217601951158,0.23038347186505906,-0.28661358657073566,0.39119347841588364,-0.38373380583412375
4.061001122546071,-6.851601830521786,8.246740161155016,0.5674711561632683,-0.582575273234284,-0.014395146394629807,-0.3863429227690222,-0.11026703104089768,0.26877971255605404,-0.5058276037102565,8.054922996947042,7.02267770009506,0.6066233026949186,0.24574053723306535,-0.17286381773498363,0.36258662936337593,0.17389289775800248,0.23028496041042434,0.2387070655214825,-6.806165322745899,7.264385548146954,0.5135750732799953,-0.3534006008762222,-0.10371322964681322,0.4122908478783544,0.25189785569499706,-0.4747302393138761,-0.6963033224689745,-6.834213534304125,8.081889357291649,0.5353322737440102,-0.22823780712994754,-0.03986377174303733,0.16263834690246856,0.48970532759181207,-0.7080363712465824,-0.8974010199038642,-6.8283175922401895,9.400871923941079,0.5329085952481013,0.5135956145042891,0.23942696384003384,-0.27253860031512284,0.37403869842861265,-0.4029644131956357
4.151809515896061,-7.062895450417511,8.07614221413761,0.6699032708627074,-0.5085022701123805,-0.04132304866538676,-0.37770332699358666,-0.09345150151348866,0.2460879273122723,-0.5511505844002897,8.193985668479153,6.934561568735797,0.6512558513474165,0.22441455613452058,-0.2428111800652882,0.3385941343678164,0.15516689950794,0.19502737923379362,0.4445934276956225,-7.005097711286921,7.427422423709088,0.6262310436198095,-0.3071817247876736,-0.07778367687577047,0.3981463027939166,0.25900805267606647,-0.47766176506759134,-0.5018005281852645,-6.653487892904126,7.972199900709039,0.6354931911696173,-0.35271643867676256,-0.004744782211831268,0.15942652876262436,0.49581935752805345,-0.7114006955732953,-1.1398576894632229,-6.6398186887058035,9.077436910024034,0.6127241700356959,0.37123139063395527,0.2757611768234379,-0.262797122710674,0.3746876867168122,-0.40670389461473677
4.319867210538856,-6.396997986768662,8.15023846988902,0.725961617701538,-0.39425260710059956,-0.05855466708594949,-0.36024305558562886,-0.07106726158684507,0.21705130197001007,-0.5916590421832723,8.115027035402575,6.435868380355685,0.38488652773862697,0.16017263838800366,-0.3235342944157992,0.3241629631223091,0.13938474812134127,0.17360726356899564,0.5200997093367501,-6.601922142699696,7.553681647360662,0.6522835409366411,-0.30232044987197887,-0.01684649454223524,0.38019635669851864,0.2484635431227708,-0.486636329984776,-0.34119134634512105,-6.165933132747033,7.893851392983628,0.6548111652082921,-0.4138268376826966,0.054565746215899213,0.14532165601540153,0.47754848651637544,-0.7241920682228303,-1.299551562571126,-6.434306064714235,9.495556083878688,0.652354051333752,0.18721896884603234,0.3059633986961,-0.2589349835277554,0.3566347199242195,-0.419751079288731
4.1892686933203676,-6.181468526040573,7.932091154481311,0.45551220825841693,-0.27768968010230144,0.03539549080352128,-0.3404005801956361,-0.05870854921139847,0.1894702546944167,-0.8297468957994697,7.888446615209956,6.533321371478427,0.3619764541666,0.14286722873874255,-0.3646439617921667,0.30925300054596994,0.12414568871133215,0.15559727458314734,0.5543395899488166,-6.440553583120125,7.6122140787887655,0.4096231327954209,-0.31646958026823285,0.04320010361924466,0.3767791274018456,0.24365306687761853,-0.4831162448680799,-0.2157521747090983,-6.452512620187235,7.462473119282021,0.4181418063979747,-0.42200980831500595,0.09312097923223608,0.14605456103066583,0.46973429600086686,-0.7234837365025627,-1.4780984675971252,-6.353482013633394,9.335866267251209,0.36541182470513855,0.05742562894160355,0.24912835711199624,-0.24388154139319373,0.345728019044969,-0.4167458563632294
3.9927095168516136,-6.2994654677278845,7.76179404254348,0.4421669078549793,-0.15506689207680383,0.05238552114475068,-0.3355616782839736,-0.024048729653528417,0.1672831509964304,-0.7685777808938706,7.769587833037735,6.770181727095828,0.3719526232814679,0.09167886801752517,-0.40742890395019793,0.28870763358092455,0.10532357283177497,0.1286326743990514,0.450088453762575,-6.65598179461456,7.785896491859828,0.430960468257913,-0.3475454684633299,0.05922553681922102,0.3614478819778461,0.24431585435151948,-0.4771476561309048,-0.18897087061319456,-6.481335987157973,6.822080601319488,0.44690188716962215,-0.3002023810674349,0.11032467480429264,0.14419432420122325,0.4665482518926209,-0.7161408417819026,-1.3907532435851817,-6.127592997519269,9.077495179322826,0.3412742288435167,-0.05395677322736841,0.26198399739517175,-0.23587758454122856,0.33855732545775497,-0.414400255120442
4.092648757659662,-6.158703037335585,7.590465031717047,0.4638654140578231,-0.057117204428635014,0.049069395515146684,-0.32110103869705875,-0.013363603322190106,0.13555170914421238,-0.6961064769558396,7.449754367068704,6.2822793183676495,0.306488653951908,0.009521138788198314,-0.4767921733259927,0.27209548936075145,0.07598733533590345,0.10011863706664284,0.6388710463698355,-6.61598098203243,7.494873933266424,0.4300747715489304,-0.3652031079386889,0.11563435462723701,0.3413775160737453,0.23900855587437264,-0.47983948382783875,-0.008949361604419379,-6.00812839696675,6.738335134369811,0.429459628931378,-0.13268140095480618,0.1716599506955337,0.1358402701881122,0.45850686407264635,-0.719465061611395,-1.2902236870388017,-6.026976796949352,9.028992876939716,0.36394707012307254,-0.13162570037952917,0.27345497095212906,-0.23407475405361358,0.3280625999603663,-0.41982984009237007
4.139558907532991,-5.793507949461154,7.375517875708302,0.41967497669978593,0.052386704825978465,0.074611034187377,-0.3117434634302031,0.0012552169968339402,0.10773081714547839,-0.7888281774243163,7.001746987030779,6.007427067687784,0.24854441341024255,-0.04415358288467123,-0.5812372485061542,0.2679116235156253,0.0609526673122516,0.07767391042521173,0.6754725607756792,-6.4571337468956855,7.122669985349948,0.3716133761892328,-0.40949226414918616,0.17834543514543003,0.33022088799121746,0.225200063542929,-0.492234401913918,-0.07513547232864244,-6.230697863296551,6.971292685094977,0.3509433751445123,-0.027687412383597575,0.2243819745582935,0.1361774117737484,0.4458316699262212,-0.7299929264899762,-1.0018200216286022,-5.8822585787411175,8.92039283828597,0.3243707748579073,-0.201555545199741,0.26728062090491334,-0.2235846043771586,0.3128681494145208,-0.4319425662254677
3.9289653606082626,-5.643405124895668,7.120736561518808,0.3551515564908492,0.1319980024028394,0.10355818155407721,-0.2921097247550621,0.019725870735977973,0.07161025672506247,-0.9783900192949806,7.1433628722319495,5.560368950766405,0.21232011248662588,-0.08850241725215038,-0.6777050841916362,0.2503408852233585,0.04805293771995229,0.06866854950461426,0.5719370682380209,-6.125672865638788,6.667162293147737,0.3477530984004535,-0.4575404654441825,0.20915168305324572,0.31943954891967613,0.227837396471871,-0.49902886611990027,-0.2453869146112236,-5.834335567177692,6.709374338436926,0.3225802823569317,0.023264649026848504,0.2532772525557314,0.14343025379141958,0.4429036684102703,-0.7352212239938767,-0.8054695288085115,-5.51402027319703,8.54562012064456,0.2490938786114105,-0.2470927491945106,0.25640752930992994,-0.21194088964501634,0.3105798092784353,-0.4383949755164283
3.749357271878676,-5.451484569932039,7.139199308534283,0.3104770899904157,0.2041920259865975,0.1246926615024798,-0.2964669685566162,0.027100821622464032,0.04451870865420212,-0.8319812807284855,7.640308362262908,4.823583528053482,0.07103266674898515,-0.03242520760395418,-0.7219341472159134,0.25133548519463844,0.02733230076411575,0.05582370396091264,0.5513889763325345,-5.6731171364965745,6.782463429779615,0.336734064344304,-0.5027622726539422,0.23453233911554536,0.3006419154382652,0.21972712918564175,-0.4931405582097738,-0.418072448387114,-5.971964357781333,7.109264382137085,0.310836665213361,0.051082053172672226,0.28956835008629866,0.13940072898443653,0.4414262200574516,-0.7258933838797528,-0.8476494645122006,-5.460145062034459,8.563674898162464,0.1919908891034942,-0.263433966662141,0.24564030822301908,-0.21195404951924873,0.30567886562886554,-0.43402101813649746
3.73480512297752,-5.63479479252238,7.155835895481082,0.184559785238485,0.28781281720157675,0.16573092343680487,-0.2727005315961361,0.04261782841332714,0.008638671802829852,-0.7697175533911587,7.717171264628211,5.2597260234286125,0.10647687363331648,0.1243752989273829,-0.7022002647834868,0.24079815738128427,0.019678405033164845,0.03791705514842835,0.9812289085986279,-4.995321247633649,7.068944335049055,0.16573452676161793,-0.4936932479511349,0.16145331570631122,0.30030589308926187,0.21157356684713519,-0.4993587335187417,-0.278267011862556,-6.8972122210470745,7.8306207737316695,0.14521432371445067,-0.026463509725755542,0.19203515282924002,0.15035999243840711,0.42969724951012467,-0.7270359806793304,-0.8907979966218418,-5.620887539622873,8.69134974098407,0.0643899794982326,-0.29015986159495033,0.21990542944051303,-0.18989093768881085,0.29498144700833556,-0.43986187845110275
3.825079829239194,-5.970008707610273,7.192219689123517,0.2492436644229366,0.3965268357940766,0.13913060576725722,-0.27440604961117937,0.044114516012733994,-0.016750656516961213,-1.1553209241985123,8.004440897570278,6.450288570623986,0.17244629604241019,0.1458103012068,-0.6471864367191541,0.23738880488299902,0.004103213914732327,0.02695527964594989,1.3948119342070395,-5.790552672214129,7.664707132495567,0.13551200924758658,-0.44374515234095574,0.022992956173228732,0.2815288428217343,0.21848021350834068,-0.5012739674856507,0.19506099923039028,-7.117555714523093,7.146052197745612,0.12281040891724554,-0.06920453465783903,0.035097675726049035,0.14422135894942784,0.4355689784283177,-0.7301183420142874,-0.7108292413977015,-5.639574736533973,9.2443733639973,0.14260550645024606,-0.26814539087288053,0.23439393137984377,-0.1897006477886759,0.295251344977009,-0.44669861106547437
3.7098689169056875,-5.785995680756214,7.319078284253246,0.31868613111786304,0.5326136516744301,0.10311271093884146,-0.2652964951954294,0.058000482966999535,-0.04310715048128689,-1.6682725100507545,8.793053843733063,6.6875888785149,0.14971182524046533,0.011976771956418114,-0.5587929672729179,0.23297614545264475,-0.01507046652196705,0.005312045824197714,1.4775001171184496,-6.84054880996704,8.288154143922185,0.1842888646964446,-0.4608700594285122,-0.027317269981736662,0.27172478552572493,0.21410934659518358,-0.5030839649895257,0.2773640165444584,-6.759303826064173,6.724035940886214,0.1832199200584024,0.14184594633606884,-0.0028531953697054427,0.14545016564907143,0.42824131378897956,-0.7289275342933249,-0.8318562820036317,-5.445851206856841,8.896812590985437,0.22661587955462384,-0.2639245716783235,0.23195128503006332,-0.1805384142723888,0.2878547817447525,-0.45168777165060847
3.3527686666400545,-5.461344624749723,7.303783566076968,0.25265825923465324,0.6114512204555675,0.11362446813038005,-0.2535113628181301,0.0701639409358907,-0.07093072670880568,-1.7711123853804882,9.25965091873951,6.435056931293179,0.03442599695421692,-0.14010441985340027,-0.38435796062557415,0.2320048188092447,-0.027684463392819405,-0.0042419486019022005,1.8422614580798018,-7.023696459375287,8.236365867456273,0.20793284693481495,-0.4271378914589414,0.027875479360765554,0.2562499187137244,0.21086316776713673,-0.5129236976163395,0.28614472327156826,-6.158928329546958,7.092456291357088,0.20044481527281877,0.36502923426232536,0.06860970992582575,0.1487869171223029,0.4245869580718553,-0.7348389082367166,-0.4401030787552667,-5.454347963754614,8.24092872182881,0.15701139704216896,-0.3176649156822619,0.20077570281398058,-0.1738665498800721,0.28296109395476216,-0.46567947227435813
3.031708356885745,-5.232984123272141,7.151684604481649,0.15631215168512766,0.5914595983516325,0.14468433423937513,-0.23981141124021274,0.07571973106924548,-0.09509858204925405,-2.215165295675051,9.385479560960079,6.880899432831399,-0.25530705906909074,-0.24361527095396784,-0.2273662662852971,0.233047567396639,-0.06724190751994161,-0.019217085980674172,2.1388259035100967,-6.196761449320189,8.241301776064955,0.11504521209956053,-0.2453142314395219,0.10243524981276612,0.24746826466100869,0.2157551223211712,-0.515374188738479,0.31516355738984686,-6.094342778782225,7.551630802191293,0.07878696525379535,0.42993945543052975,0.123123487768162,0.1554496789164719,0.42823190052902443,-0.7297918460458883,-0.1336352582840652,-5.180345864132571,7.8452395978661436,0.06435767910652923,-0.29508680535481696,0.18129161587759482,-0.16509076891644697,0.2853328322511011,-0.47037991384214234
2.829109667872317,-5.50413446708253,7.707477517868055,-0.11298680019019629,0.5127132034997516,0.17466414388993223,-0.23241523855694057,0.08838261507956928,-0.10778381063136108,-1.8928820634502201,8.763224649212294,7.215421650339398,-0.4817172898823495,-0.40596900087251353,-0.1390389682929844,0.2254445126633811,-0.07684781804473094,-0.03758949517796852,1.7162073274311627,-6.324439280213376,8.476362533839248,-0.21283207077200525,-0.04859324926982932,0.18557426128722804,0.24447641761818345,0.2009143355538855,-0.5129211391262016,-0.2835511420589985,-6.019887116866339,8.093111007203948,-0.28834962659863717,0.4262522973101849,0.11201708898295948,0.16647297758378013,0.41356402123890584,-0.7258135166701541,-0.24100484220445445,-5.404751655550633,8.142424962855396,-0.17495216413037334,-0.22698517397037696,0.1114949189592809,-0.15285312296337616,0.2671579309674686,-0.47421801048729084
3.0504913310196824,-5.637357630860691,7.687010559690451,-0.3765756233910542,0.4362187480635601,0.21297379834031044,-0.22508637514499497,0.09032088239534125,-0.13976659279460718,-1.7290858356382375,7.923825257386007,6.355312984185972,-0.4742303199433689,-0.5400468167183037,-0.11329986984033515,0.22695306627050157,-0.10660681285670198,-0.050775358206057525,1.5394715894577142,-6.996966783726423,8.359219264354875,-0.4355051734703488,0.07597425109896369,0.3239472108531157,0.2360530007800615,0.22148874624310194,-0.5117124333875298,-0.48571026617316404,-5.924968921007343,8.113889223616013,-0.5530714519350864,0.4170713739774256,0.14432795796379097,0.1712659079972852,0.43429059087364497,-0.7158254462244868,-0.14655435724731325,-5.346519734016654,8.235590723550091,-0.4367913851239701,-0.17353407184148326,0.0416744853909266,-0.149510660586685,0.2849520465695296,-0.4753926803136221
2.974659104224893,-5.683830902309195,7.396943498821387,-0.42397042766013177,0.39390462400406706,0.20170575474908878,-0.21527968145908505,0.09784867419032849,-0.15831589312216832,-1.9855788230914768,8.186791228775542,5.921454755070204,-0.3315562068675006,-0.5191193584785158,-0.10194644151950298,0.219135585411359,-0.12870010298414597,-0.0711373678898173,1.1859638339483736,-6.969939473443181,7.781200390609735,-0.3357987328083098,0.1180918143252801,0.39627429700612293,0.2336409545950409,0.21793950111315605,-0.5052893808259449,-0.80571983515697,-6.511828875756772,8.209143870239144,-0.4462069639178349,0.3934247127068633,0.2882425669496962,0.180945955795448,0.43108321583643966,-0.7035065911236265,0.1470316214042146,-5.334899816067396,7.6738106514265985,-0.48165984522859373,-0.19344641613414118,0.009393041532101933,-0.13880487239647432,0.2804462616997642,-0.47452327653301246
2.2369722044849105,-5.97133843197577,7.134388747177018,-0.2838059060298215,0.25613306118694457,0.14354430995897072,-0.2088242951277299,0.11712095577459271,-0.18417904391339604,-1.471942686430008,7.910188207353165,6.628116855028518,-0.16801766574565372,-0.49483573202023057,-0.009030373324747317,0.2054946891007136,-0.15410611786785727,-0.0840994834413336,1.2183041667792818,-6.160738779907806,7.578284558550591,-0.19014666381838585,0.20129862997967088,0.3548646260027129,0.2260905175404452,0.2240522882409741,-0.5072793998747408,-0.9647309862053979,-6.8295926487013325,8.895224258093432,-0.2855855884748773,0.22347114512566865,0.2873540517631174,0.18192217276459996,0.43913955659643716,-0.7042368842072186,0.07034512137243251,-5.465781371816353,7.31485227190662,-0.3155204005541531,-0.10714762876954476,0.02354906769302256,-0.13342490335444337,0.2865212445278266,-0.480889529414067
2.5991147255368796,-6.0276728841931995,7.20858062116256,-0.14321693617428477,0.16325547971237808,0.06438978543008321,-0.20446206039421153,0.11197878320752602,-0.19614752303232305,-0.9609348359330782,7.939633711440202,6.655716640798839,-0.21836316586405716,-0.5508005252776125,0.01458683206637289,0.20819400280252245,-0.17508986899652212,-0.09841101369178137,1.383731445106731,-6.767618110493271,6.764152413309838,-0.047587718498086407,0.4017766331270031,0.33070767072639307,0.21289824120673534,0.219275777533521,-0.5049051327043017,-0.8192095537931523,-6.592594717901233,9.684159442583995,-0.12685174595678392,-0.19876073489360518,0.29885447353062916,0.16804578668178694,0.4362194823378026,-0.7008861456908951,-0.32892016953365827,-5.266153829205365,7.934903403787511,-0.15558368641313577,0.013231594161232927,0.004296041090521237,-0.13757509527347536,0.2868079708280084,-0.4810982590573515
3.3631636272335936,-5.826947739699693,7.7456177524208245,-0.22239834181266535,0.22433926023750445,0.04352339063154588,-0.19488641060899453,0.12169962970652264,-0.209812819389659,-1.2498098930467791,7.36974047050464,6.146445238333002,-0.3951379071877301,-0.5638306713630581,-0.08301610125502092,0.20818494372260288,-0.2004020317100538,-0.1228969964104057,1.1577293923287242,-6.597787566238951,6.842041122783088,-0.09054519509361808,0.5649270845290558,0.35035470993974055,0.22371265898471593,0.22588472675118854,-0.5002084450032098,-1.0152928920888125,-7.005875873631738,10.424518344626032,-0.15885856532818401,-0.8009142474221942,0.3110829530848825,0.16365684491848892,0.44135122518468994,-0.7008186212375486,-0.16782654068527347,-5.798006915696045,8.637178060657455,-0.22516327979985393,-0.06803254453905462,-0.045343734366660296,-0.12459267686153076,0.2927906497656974,-0.48337816802609
3.0712503311566537,-6.23199587012889,7.784965338411701,-0.44098560728111524,0.23963627023648396,0.0927166782032923,-0.18921980573553585,0.13071165467061296,-0.22250094897028305,-0.9856786007526765,7.263810717185076,6.298614459865161,-0.3681431932693471,-0.4636872952040564,-0.20162314086878638,0.20820747644654714,-0.22134934817837437,-0.13451458213431483,0.15845083336812038,-6.301690986925636,8.045326524249662,-0.22695775949926275,0.5313541975283017,0.31203048156250585,0.2267950770004634,0.2174724352373137,-0.506206089846128,-1.5251161938933218,-7.400898212021789,9.214897033375687,-0.2606898267161463,-1.1756812984109017,0.2604959496317792,0.14933881265618665,0.4306452923532022,-0.7118824136860422,0.24129847553985345,-6.031308272178456,8.153208978004173,-0.4616763175767692,-0.14106332282054646,-0.08566676944755439,-0.11595787907514546,0.2846822430593503,-0.49227211534281623
2.737533105604173,-6.557556749170068,7.27470008033852,-0.37577095086451623,0.16344422886878646,0.035376425538275136,-0.17617377412706342,0.14944887695545103,-0.24030991902245924,-0.628243934509382,6.862060827904721,5.9821537571993035,-0.1737455011809775,-0.3631687188202108,-0.23231682778450993,0.20234300712645714,-0.23402252099613277,-0.14673722883316667,0.5274501528662736,-6.483728854646293,7.690228010461421,-0.2705513980331474,0.3823181159167997,0.2129631813556933,0.22924436857532984,0.2160258540095587,-0.5042482467643682,-0.7383473765959829,-7.524047405750512,8.283344616904925,-0.2789502718404096,-1.1638842631955721,0.17153055997944275,0.13249538469555203,0.4345709841567008,-0.7118987965690446,0.0865683107943748,-5.77996766839914,7.740057338980817,-0.37114393733113854,-0.11357790831892253,-0.10778328641416693,-0.10742890491043391,0.28607645215282684,-0.495998544558748
3.0126359793786306,-6.333573182182588,7.264013549067823,-0.16999116817781662,0.19650463230507587,-0.06886216716157131,-0.17309390119063062,0.13381369999066234,-0.2496014879951985,-1.1382025168511312,6.980980349350517,5.695035398427009,-0.09038156958935697,-0.24092034420054165,-0.3391244698305576,0.2111333415842497,-0.24910451693568803,-0.15970322430591705,0.6909093174614005,-6.37382182017149,7.581675503987283,-0.10814398702861451,0.3195593041521556,0.12648101737551365,0.2234018482335285,0.22212935488112076,-0.5062523820308805,-0.3084684815112286,-7.3498402949323625,8.864328616562492,-0.1017822863907484,-1.2820215553916772,0.11830552542538406,0.10681795670121041,0.4338723309091757,-0.714980469691737,-0.021516673766034833,-5.560372538453692,8.07156036629251,-0.133069324840703,-0.16265493082142618,-0.12234107477015443,-0.10669577099965034,0.28778609635292907,-0.4979505551575706
2.782040718162725,-6.373809276884342,7.689511947061187,-0.14699312289286529,0.22289559997779781,-0.1072523557957611,-0.16933940751171803,0.15041730362856362,-0.2759544662035619,-1.1415437153537265,6.9577514584421865,6.312076160692141,0.07721847919239286,-0.11097049473434357,-0.42596522651811497,0.2067687107280785,-0.2692845725673313,-0.16838808850710876,0.062085530966502295,-5.729461131280372,7.906515291565687,0.00041452417518208546,0.14862087936061688,0.007790131756597455,0.22020873147801726,0.22452352795085184,-0.510415563590439,-0.5453115262596337,-7.4472029338420445,8.640155536827553,0.030738327015568032,-1.3223467112805034,0.030435816794050278,0.09181094487027651,0.43683591041513703,-0.723812587071961,0.02806312667181328,-6.042329139620425,8.255262073302415,-0.12019297769527956,-0.23312113178935315,-0.16066485492475652,-0.09644352452358022,0.2925910562566657,-0.5041190901147052
2.577574882692233,-6.65672531474812,7.353849381776027,0.020236198884935743,0.2119886711195182,-0.16096624569974316,-0.1688718293452819,0.14699757398497534,-0.2771786103221344,-0.8036584364775,7.521689504443972,6.570520578227949,0.11145928131579114,-0.08563764406616568,-0.4733310504101374,0.20237704477415544,-0.27175865521746617,-0.16955322034061704,0.22362028985697313,-6.456369205801005,7.8242323484614,0.16557476994745057,0.011175655585727888,-0.08519060951230485,0.20790675433845865,0.21401325770176577,-0.5152838856575329,-0.11137291179927615,-7.227838419965391,8.241407410774423,0.19649699326442582,-1.316571821915614,-0.08438426507851701,0.06096437086603128,0.4217426202471268,-0.728808437160271,0.0961334916936219,-6.069443039413215,8.146988856070154,0.05617892097318922,-0.18680890360657396,-0.15807028697891937,-0.10029415962285611,0.2784920050351452,-0.5097612025723905
3.0986489919425297,-5.890826070837011,7.467746708945714,0.09441217784213511,0.25751129286157814,-0.21759083894746942,-0.17301908390699416,0.14801252947709354,-0.2923128651749304,-1.3372040094809627,8.18532450820814,6.243514802527675,-0.2823914070193793,-0.11475562003315523,-0.4543136161589496,0.210652070064528,-0.27879534931502653,-0.1831388735682338,0.6635360038892921,-6.621497571069348,8.189957972375337,0.17360743702921042,-0.11017829511447734,-0.12386624981735696,0.19499543474738687,0.21848449936903472,-0.5147653055093553,0.6781738519913829,-7.209257761482614,8.39670426840858,0.20734638249593826,-1.2904072662777646,-0.12163230793417637,0.033572528393253476,0.42471022482818,-0.7325935841847653,0.11721201868726375,-5.430061971464073,8.286209654649221,0.1566040483375228,-0.23673672057339645,-0.19349784376434903,-0.10293296003117186,0.28487473708730293,-0.5119101341570229
2.7592178895171164,-5.237661392649441,7.6333132752337125,-0.39348194640111767,0.3296642264900744,-0.1663448843099447,-0.15338762282765545,0.16573792834021267,-0.31354208317828003,-1.382223215538453,7.555752002569421,6.300904879594497,-0.5120341366278808,-0.14952425249159346,-0.40729160633454137,0.2160116371237495,-0.2872570730966702,-0.19376050609722267,0.7194241907837047,-6.02040610681315,8.768015440619624,-0.2545578714766863,-0.20115590330517372,-0.19725360282828414,0.18621148537206844,0.2250623889343485,-0.5187062981810535,0.9877335664710227,-6.893829905495507,8.03109599861882,-0.2037845616712285,-1.2028025795112913,-0.1519635228581144,0.014271761320015921,0.4281519185762215,-0.7337987615697679,0.24111114692768676,-5.247795961875201,8.484433640129819,-0.3318235568360541,-0.3167195981165349,-0.2875277871086038,-0.09947646411707516,0.29218117424907325,-0.5160583840285873
2.486284611342412,-5.695984803699241,7.223689311810567,-0.7084312666001186,0.3721158491205614,-0.12462772026172698,-0.1526590158361396,0.1652511411036473,-0.3208666689029631,-1.4691126416564109,7.507180893496138,6.503508270820515,-0.6177078358631483,-0.15839971029496494,-0.3739590226705825,0.2199199004204348,-0.30457972204086864,-0.20838089338894122,0.7818884884412115,-6.12537726660923,8.03166586049737,-0.5064818053921989,-0.2485106160110925,-0.232251652589268,0.18109724554562684,0.2338094917243158,-0.5231976932626939,1.2097259648600793,-6.399868009349524,7.204144531554798,-0.47414294035574917,-1.0389375870453155,-0.2104219925370493,-0.004520743045319652,0.4325662485055793,-0.7335435989674557,0.25902965567190434,-5.676674440606939,8.260254381787004,-0.6721550190593759,-0.2766908823262086,-0.3186665463503097,-0.09430793200036415,0.29848840450285574,-0.5187607813502813
2.561802524030665,-6.216612280724008,7.285145862926257,-0.7710519232805368,0.4024571679077457,-0.10817688283113834,-0.147963090874998,0.17523817244920203,-0.32598572806087817,-1.741975819717633,6.8318343423973085,6.9300157138250285,-0.6795827645654174,-0.13232494548830512,-0.39555344890436916,0.21864355634822571,-0.2984102853286141,-0.21897928677958417,0.7905551285746372,-6.007853312507585,7.813205569766739,-0.6851543385721156,-0.25119934778327535,-0.24137203353136008,0.16742544122658257,0.23557342517493227,-0.5243402392983346,1.344099214166626,-5.858564833403009,7.167868955997468,-0.6460095800207672,-0.9225352215141911,-0.1967593601767248,-0.020820462195062017,0.4318434496324111,-0.7289357002675635,0.44748880957798537,-6.307012933959333,7.950240740928677,-0.7364175848960057,-0.25496274602271934,-0.3121922643924548,-0.09235455420215039,0.2982237637310322,-0.5185339147830347
2.144853342853701,-6.65713429071258,7.1266322774123125,-0.8258825842535777,0.3991655486487829,-0.10477661976580553,-0.14185274800723152,0.17667671254106632,-0.33672769796599494,-1.9911083475897486,6.924697532173069,7.038523028941202,-0.5516701177235241,-0.13507908391275386,-0.4139712858414267,0.21959984990344017,-0.30915471176210535,-0.23394263798349402,0.3762500084168026,-6.098410091823319,6.844210139820362,-0.7822292632877041,-0.24187761244573824,-0.21001904147701683,0.15316771602385068,0.2574375608146046,-0.5206639802251197,0.9810789665018108,-5.271504750192391,5.7646936185858815,-0.772506891269399,-0.8161639779611984,-0.1519147394752773,-0.04242586879580181,0.4540697399341943,-0.7212845255840545,0.3642984240169781,-6.287581000754296,7.678090169038545,-0.7817195732552698,-0.22695228645682872,-0.31215992858087405,-0.09750056980595521,0.31803842660422554,-0.51523528724615
1.9600402107727595,-6.530498941010105,6.935852808563687,-0.7157080820994699,0.3925639842809581,-0.15478402085796308,-0.13344333352983567,0.19543663698554628,-0.34818769840163055,-2.507149303608889,7.453449597823408,6.567132043239998,-0.5553674868458258,-0.1810557709650883,-0.36282234447149064,0.22517601451846833,-0.31304615164129657,-0.24879235962575885,0.5222274751385274,-6.736600317722517,7.809259302196165,-0.6123822629293665,-0.24152354558718886,-0.1335065084387327,0.14095324973933415,0.26376718826630374,-0.526039687035122,1.6562288359116033,-5.60531734238564,5.326696892839941,-0.5805322170426115,-0.5405316279462786,-0.029107012219328498,-0.05610459580234302,0.4614108766890508,-0.7223119201660023,0.35317590636503116,-6.032748334229317,7.518883187411322,-0.664704778835798,-0.17603282393817626,-0.32487633565128116,-0.0965229829057221,0.32269062971323087,-0.5208392505833832
1.514633430213289,-5.850673898694672,6.8478566708560145,-0.7555171339103659,0.3162642986888123,-0.17031490774368502,-0.1255960140577829,0.2014958372265117,-0.3508689010316878,-2.091840531105115,6.733743534139221,6.7162393200229324,-0.47629694747154333,-0.19398358919517267,-0.33002905622724854,0.2298293653654505,-0.32360966437033806,-0.2535168978802624,0.5390775217608406,-6.3572482863938005,8.266361636055446,-0.6029896697221577,-0.24266541973949243,-0.09621495756907597,0.13564280838089285,0.2709210706657962,-0.5231795960937727,1.7544519028113263,-7.013967561583596,5.8444861060496835,-0.5933370401978458,-0.15537098512323647,-0.016874981721323432,-0.05752858742602801,0.4636037896382195,-0.7193587329634967,0.46198446032392787,-5.497260019471939,6.976118406625319,-0.7051952002462978,-0.0592057480401477,-0.34842598558745647,-0.09032392347963666,0.33190470766533675,-0.5206079267316548
1.8167123507317646,-6.406947280065653,6.247270912318994,-0.703936387334492,0.16984406949798425,-0.1912899584082447,-0.12650873536223695,0.212741105644887,-0.360624695413443,-2.056504546799174,6.617209333057442,7.018203900082186,-0.29187570149660785,-0.23383527641822127,-0.3281085998938113,0.2254093676694455,-0.32647435074873143,-0.26346471700410856,0.6818231727774643,-7.099524655717105,7.586912610520012,-0.5856161325588009,-0.260969725036259,-0.1387808247755153,0.12738644119463774,0.27612669119792166,-0.5209993541894776,1.7049727495013074,-7.871286301428753,6.205701060322114,-0.5928427592579428,0.1466750516437711,-0.09128383808060349,-0.05421385942607895,0.4665100443590247,-0.7088976889532579,0.8887687904115498,-6.515108784893265,6.375805951809543,-0.6560143616399381,0.1399175042852465,-0.3480656991283866,-0.0822009473738518,0.3347343017509365,-0.5160237132227106
1.9679316961090403,-6.722639907740957,6.376367700815571,-0.47947631324039625,0.04802433049031091,-0.20656937867785463,-0.1286548882580077,0.2212971732772255,-0.35866363003492446,-2.195369508764101,6.625260385246155,7.030201522768948,-0.2093232501595966,-0.23499689574032437,-0.3387344461566229,0.2368587422122696,-0.32730128565036354,-0.2713043260662107,0.7622662729814813,-7.024020310897379,6.837856904565568,-0.36725679145141615,-0.26959010812073836,-0.16853906809775476,0.1088791173308795,0.2818759017213111,-0.5187479988732934,1.352922904658483,-7.279201784445887,6.181093758960323,-0.3794440935021281,0.29206689000063124,-0.14325951417866592,-0.06125526642411946,0.47188397076037425,-0.7063536715553564,0.8952140799666176,-6.486038427758121,6.472290720346273,-0.42463610118965384,0.2716570415231766,-0.3120450639127707,-0.08633607395352359,0.34041196184053757,-0.5210934033589066
1.7840023579433113,-6.803787972233893,6.5366679930734675,-0.40936433180286974,-0.05289808871343532,-0.23464766218962324,-0.12859321224161102,0.23204638109125866,-0.3669550649191728,-1.7935694190730715,7.286337640157632,7.085589218126181,-0.15705839863845808,-0.22763944162710106,-0.26232433971483626,0.2314769943487972,-0.336536239850017,-0.28236443944105055,0.8838738929660912,-6.161785274532871,6.749596369714625,-0.24029845657517465,-0.21085928955233163,-0.12283967855328695,0.1111074071984456,0.2898970307311428,-0.520355635857733,1.2509268990839542,-5.37666653415467,6.303176551237432,-0.2548940937047898,0.3444104102898548,-0.11997762404460119,-0.05170193704039416,0.4757754102103741,-0.704274324856743,0.3781879599640403,-6.443881250399855,6.777286386756903,-0.34920628040745116,0.3729250698197885,-0.33537142766028594,-0.06841371125173044,0.35073221290196627,-0.5216868190769771
2.1841152875500827,-6.608416729247345,6.557814446709425,-0.39818400534179865,-0.04875721344863886,-0.2647092666921323,-0.12221095775605778,0.2378686987758326,-0.36792717883303927,-2.350101715460794,6.5883452771321265,7.476362843477839,-0.2764916226971397,-0.23888303667145966,-0.1963097308284146,0.23023403423506966,-0.3401192670466169,-0.2920681936766085,1.8539878780871908,-6.356003284534803,7.118020038057672,-0.15640162222178372,-0.11857808839456822,-0.028008776393916527,0.09517836633888062,0.2891370418910511,-0.5275452140969099,2.0080600554295627,-5.720865316630003,7.302066328128573,-0.16813664638021195,0.3172714237015795,-0.025247243877072573,-0.05787998240940017,0.47408387767624605,-0.7098120128313846,0.34373923394996364,-6.28246775524563,7.092182448261496,-0.3171758752892854,0.366149599106899,-0.3614387415722515,-0.07066329097847791,0.3515176452135462,-0.528989391304414
1.8852381733857255,-7.062155172512227,6.661792082109291,-0.5636151986338753,-0.038427538227047586,-0.2754412854107133,-0.12438969331719991,0.24105777853727073,-0.37036489244004905,-2.2118299566511,6.910956662311265,6.942780570226121,-0.20949647802690674,-0.20830639547171495,-0.18040851686354298,0.23193173996572336,-0.343635855972171,-0.29836462691938775,0.7335238225924745,-7.263858771571923,5.474153512705043,-0.2562604335491524,0.061442687118425585,-0.016225296942358837,0.09275799349215909,0.29619506221103137,-0.5298338456630644,0.5061978300593462,-7.738119710837729,6.534471327341932,-0.230827888006299,0.09047466712819806,0.005808508121130811,-0.05569250833141719,0.4743269156328271,-0.7105723145542638,0.24064407867244547,-6.624057183780768,6.767352124048466,-0.4779259813486246,0.3239336993277053,-0.4163278431931041,-0.06597323137849098,0.3580697227977298,-0.5307098009298841
1.9824735934664561,-7.145142479098468,6.47215717910279,-0.49527365771316006,-0.0813649687143239,-0.31532952814879983,-0.1296886453787709,0.25354242397396304,-0.37279468345354205,-2.306720760573696,6.818532476635656,6.604977732366336,-0.10963837400850396,-0.15456352582813632,-0.08067771673979401,0.22636542726398984,-0.3518352022443195,-0.29112865147609585,1.1255537111885958,-6.235651655016452,8.859542349823165,-0.18748672900278737,0.12130021737104453,-0.01326026540355529,0.08986312840926163,0.2982131997816756,-0.5266683659367393,1.8923330080774194,-5.808301047037634,8.53072992632144,-0.18428724615289896,-0.0007822049247483769,-0.008717990699497448,-0.06098287159153858,0.4801818529644924,-0.7048760674196823,0.2622579060660821,-6.789029779810146,6.577220002636207,-0.39986846935980985,0.31876026223950593,-0.44662175282541283,-0.061999440611306446,0.3638850469080868,-0.5297412703778935
1.7138094919618363,-6.903568572107741,6.192800243400542,-0.4341421195135103,-0.14085800575877638,-0.34190904978806497,-0.1299341866830799,0.25380191532970414,-0.38744240814730163,-1.7110112533905983,6.2934875568724316,7.477394001641789,0.13615306543655548,-0.11231827976820806,0.015103537437950985,0.23193706371644152,-0.3567398973394616,-0.3081578772736887,1.2543563592085119,-6.28006209814647,7.545112563320268,-0.05268713894264749,0.029151677635967013,0.004162014421745597,0.0781925307043202,0.2974065527861745,-0.5197281313705256,1.4745511200757244,-6.8248079224895335,8.169208431836314,-0.0366700800531351,0.0557024950479846,0.02200686716290879,-0.06772595517080518,0.47675709291379376,-0.6974695541753707,0.06772605290398578,-6.481815736402517,6.281448103586524,-0.3317761661561002,0.30877419184890764,-0.46637533193321207,-0.0657963476733031,0.36681363029091846,-0.5199325156081809
2.448161676699008,-7.279310804354799,6.240361406451297,-0.14192641615188714,-0.10920253061108738,-0.44279254225361103,-0.14162988683179759,0.25778110730263926,-0.3920754751955769,-1.8364710957676895,6.337097296756234,7.403512135233431,0.1754457165599576,-0.14676844564401284,0.051905243713939626,0.22757386864875864,-0.36824265481373025,-0.30892942007192103,1.3116736001933036,-7.2438615640919695,6.826955648041958,0.1422909403830539,0.1032116608527099,0.010344288469072536,0.08515101160272759,0.2978497165405669,-0.5359055178860693,1.5874942879555718,-6.686686661019489,7.356066948362996,0.13431579532798857,-0.08556033950209921,-0.0029162797697417807,-0.062317062303517495,0.4733627736234624,-0.7129294566493674,0.12335078538736172,-6.46605681382258,6.564975600611545,-0.019195919919533445,0.19432655728423764,-0.4730020179253982,-0.05491462269438689,0.36994587886156577,-0.5366106068171564
2.564147129891178,-6.879817882281497,6.487460910447443,-0.13026569313318145,-0.006705450225629685,-0.4911535838898088,-0.143562990863189,0.2612075268727274,-0.38865402495722245,-2.0855239150971436,6.317161000886262,6.875168382021532,0.24136659328686155,-0.17783815958973911,0.020208969786440243,0.22734992701346038,-0.37978859708135104,-0.3131329072310246,0.8197122074245633,-7.042427824155897,6.996894151487786,0.22716570783355888,0.08863918181425193,0.08484396104483896,0.07877528445014287,0.29347834998744865,-0.5365199409765156,1.1495847283881393,-6.569885243942212,8.110231615392815,0.22664482610954503,-0.17712829530388602,0.05568419984621717,-0.07331261082741186,0.4667831486921847,-0.713041904069935,0.18025490121957785,-6.517347573259538,6.87034329838381,0.0039066564840863904,-0.024269651129194374,-0.5174487041999261,-0.060816170409176064,0.36683604111533363,-0.5377960859448415
2.6569193493392964,-6.742053069050201,6.4249317366162115,-0.12332968638961314,0.01952445684010792,-0.4904326201071238,-0.14162303856110636,0.25900260888598087,-0.39378338853737216,-2.136782472059143,7.114980844221318,6.674198978270615,0.2180203935492614,-0.24334908794089768,-0.02315562877484531,0.23390707809608227,-0.3767166374322109,-0.3205313225744427,0.4486136524742931,-7.010102925078044,6.979627317370672,0.3902332460121414,0.055763580419766284,0.08403262675649159,0.07694680197739702,0.28262143697696473,-0.5443946210163422,0.8700854460264981,-7.517013670908046,8.245456404993504,0.4082591430257441,-0.3609034339362686,0.06744958852279533,-0.076575654643872,0.4555679422402315,-0.7188802896594562,0.6899729534585248,-7.0368919930040486,6.353547825815529,-0.003996935184213458,-0.1895539486422564,-0.5164055693311819,-0.06332908686505923,0.3637070286479426,-0.542671634925691
2.6550153149055378,-6.289884997908836,6.117342031300556,-0.09203740744938113,-0.09310865271597006,-0.437068381356297,-0.14645931971498535,0.2670921886096126,-0.398170192327792,-1.4891873715725896,6.659072001214641,7.028242638334064,0.05297488263521056,-0.3125022798924745,-0.031034748714806517,0.2351935358666498,-0.3984388929281358,-0.32017567728162066,0.8657482556282935,-6.334378514845841,7.569450196765744,0.32585499702082404,0.03637163692648143,0.060053198065107,0.07881689697254626,0.2867910142805439,-0.5581482532209125,1.4388337278380732,-6.606070490155935,7.797615491074723,0.3386968511555236,-0.44757641644661217,0.029316426438804156,-0.07940269201319462,0.45730109084652587,-0.7298268031510183,1.3298331623178972,-7.037518479209352,5.7428345884229905,0.010281248379931685,-0.2543669553971105,-0.45759329365251245,-0.06066541017543794,0.37227922348030745,-0.5558415025123127
3.1594981411333416,-6.437119288619668,5.9483117174036515,-0.20926575908705716,-0.20166614804289454,-0.36501517638484443,-0.15407343228062334,0.2595715849122771,-0.40110434226694264,-1.1160258003452634,6.597621984184821,7.180888566629542,0.01467676328239094,-0.39462803496805887,-0.04262426329921922,0.2320369459734089,-0.394653410740087,-0.3121694617680428,0.9613187712049036,-6.011430626764568,7.182360952879703,0.19498384672489824,-0.006646387896292772,0.1176268063380682,0.08288660216836563,0.2684952646913519,-0.5556961417657171,1.6554013466076827,-5.218486716503767,7.741267322198813,0.19945850555870878,-0.47843179594996355,0.05248792853008214,-0.08548101636567962,0.44240859523386944,-0.7266025603727837,1.3964499210710315,-6.851159709130393,6.086702237849167,-0.11507331775261566,-0.26406970794563384,-0.41294600785927593,-0.06192876564735643,0.36028969880972705,-0.5463594730815885
3.4211560910735535,-6.652918570991328,5.893067917661397,-0.26224541869596885,-0.18822883855076064,-0.336394369594391,-0.1556988675296025,0.27374141459501977,-0.4010913802670369,-1.5026278945213265,6.749549613985733,6.441241123761821,-0.13040701745472547,-0.42715936837071317,-0.03223302126230739,0.2334556599982002,-0.3975925845372157,-0.3277528392551645,1.2354264182003396,-6.383907100764744,7.159214483234817,0.25644995450477026,-0.04048170934173902,0.24850217608759928,0.0790567550912746,0.2747062027949125,-0.5501474311731708,1.9954481575236456,-4.695636817773992,7.251008190044046,0.2901342028186468,-0.5303990860618852,0.212803642138722,-0.09467359827240888,0.44558081973908337,-0.7203712482656432,1.2791813705436834,-6.75507009863334,6.328900444406812,-0.18408318231576415,-0.4310857407055078,-0.40084266662106327,-0.06834349080928251,0.3700818774186457,-0.536743744134286
2.9943979575646438,-6.479283621218939,5.792790780668303,-0.41454435277632273,-0.15759202248700419,-0.3125819547554134,-0.164257417864575,0.27110086011864354,-0.3954769840197961,-2.2449418316553644,7.298249230246913,6.071279605677306,-0.23911442925010593,-0.36687150589131057,0.009720953679457415,0.2249382449985058,-0.40516998450415453,-0.3266219438293994,0.9325588185195716,-6.227133408066384,7.727732001023257,0.03596267320936391,-0.12004443390619245,0.28917186376578596,0.07777127032419827,0.27385908147647375,-0.5579384226624141,2.054935727455526,-6.712488051631295,6.875120787955504,0.08135994243732635,-0.42073234479576554,0.32047883411116557,-0.09721149489634336,0.44559762707876965,-0.7276625539264666,1.3814177254593347,-6.558375544627134,5.835813963509332,-0.35106032962782013,-0.5928887014940633,-0.4144680857186592,-0.07616237022344817,0.37580749533413577,-0.5444690895759188
2.3821286119062197,-6.446125832492342,5.638654287121941,-0.5498155010702963,-0.28728787368335534,-0.28724092666490875,-0.16468746255025052,0.2813643079655504,-0.4030357511720601,-1.6733906817596886,6.347981156560124,6.377474612030332,-0.2932440220993267,-0.300164800693384,0.05614137107971889,0.22931072197884425,-0.4092240729960932,-0.3363361143321208,1.0273089722730446,-6.001677929207929,7.71018365906745,-0.1810986641826736,-0.11803981543884658,0.13321902438996563,0.06681279601365928,0.2730065817155836,-0.5536884096103236,1.9029701145641291,-8.472745258871784,7.146078330403501,-0.13719391870573203,-0.3261076747856427,0.19367063737713697,-0.10908190301281705,0.4443758810130422,-0.7204285123383062,1.4809023229777547,-6.744125405403121,5.023421653723414,-0.48314193404203837,-0.6128012709272479,-0.41038062636906786,-0.09312884828740056,0.3800885256423236,-0.5345455439592656
2.800837723907045,-6.847999144999226,5.235385419589094,-0.6319198432160144,-0.49176712829034136,-0.27603041761356456,-0.17339515492366384,0.2950857367618144,-0.40058074173846125,-1.2509289818309428,5.7581684809912606,6.760310180686918,-0.18477264632622808,-0.24797829163805327,0.010331640328391307,0.21656233589486115,-0.40729207718225485,-0.3499984517027547,0.6266739115847291,-6.342627671045283,6.987892574258622,-0.2880715687010477,-0.06877752790318549,-0.003453539581947435,0.06798166061030018,0.2755523237100582,-0.5622834904855852,1.6009022056835025,-7.505619017546285,6.713516611651023,-0.2692644629606338,-0.3077193703844769,-0.014184002880096906,-0.11059973503323584,0.4419440255169007,-0.7243196404271356,1.7780543364857746,-6.712493466416252,5.051390300420396,-0.5711781925168206,-0.5377463042457686,-0.42010848081922253,-0.09869213381678989,0.38232665596632454,-0.5308284031533133
3.3510238238601824,-6.960821206151752,5.35032056542209,-0.5204378663535063,-0.5547916904995926,-0.32459937702345365,-0.17975078655332702,0.29365863989419927,-0.4010687162444227,-1.7083395811527362,6.46656272982765,6.409273570293351,-0.15179484391486692,-0.20183414898472246,-0.015587689965933033,0.22342836983462594,-0.4140620717942546,-0.3472233591112373,0.6334539027085593,-6.465814462525654,6.292044512740066,-0.21294411089223572,-0.08135427344742803,-0.07931914027620512,0.05532149388332436,0.2843861889465999,-0.5637882048863261,1.508848240781662,-6.9093189978537914,6.294896033628892,-0.2066320661038966,-0.2868344453948018,-0.052328852573808184,-0.12820168604273463,0.44880375237562686,-0.7265175869876496,1.8355022644711538,-6.6664885956730995,5.531759659131058,-0.4520229670707143,-0.6232899739760698,-0.44008601547595,-0.11718536046697646,0.3905808404096129,-0.5333283568010848
3.0098234627495453,-6.776592910632354,5.2108423846912375,-0.5214013473617634,-0.5847935084332121,-0.3459809309900079,-0.1924183508498457,0.29836875424990994,-0.39691192967909456,-2.038581794231771,6.9768546033333,5.9077572206298985,-0.1963959030623819,-0.12500235466487553,0.05899934401794792,0.22073345297337435,-0.41807674114524,-0.35325246361466067,0.9471992900263584,-5.668852546140085,6.715356982155799,-0.17570542531492248,-0.08168837731462145,-0.1013453637400658,0.05999472046117391,0.2820155378428116,-0.5576825857779811,1.770351716480999,-5.8434853141009295,6.272689917895394,-0.18305159781474428,-0.273228335883867,-0.0810764986207584,-0.12542945869002323,0.44585763204266676,-0.7197230654821574,1.9755029827685198,-6.6784202746781,5.181054341186857,-0.45362353219223706,-0.7130639215353165,-0.46079625258037255,-0.12075088858559971,0.38836101093934683,-0.518902669837954
2.7308647577111507,-6.527536488175015,4.809422169406739,-0.6012681320922724,-0.7777610968219135,-0.3557356267955795,-0.20141224248230238,0.3045130931717829,-0.38249961055562304,-1.0907736428430381,6.521503455050757,6.498919967686782,-0.21244902504937746,-0.020407958057498583,0.14423308021911047,0.21733118721231445,-0.41850615558311516,-0.34908310407971244,1.2802972349069135,-5.123083352893262,7.250022614651532,-0.3261625666900363,0.04310675922341559,-0.13974041701104975,0.05561854416090197,0.28642135683513636,-0.5584504405792348,2.1952173770516756,-5.84412452567151,6.070968682844618,-0.33094132993346015,-0.23905241788706413,-0.08632519530948733,-0.1303279737574195,0.45172520642505415,-0.7213565807106271,2.320178216854074,-6.5311610232528485,4.371240942362324,-0.5349689736874123,-0.6322022535645859,-0.49040481260862007,-0.13183859943286091,0.3969900409564309,-0.5119394959113752
3.6571793741354064,-7.035122670635046,4.545954489105272,-0.6244655161800343,-0.9291600777117306,-0.38366884956005254,-0.21991099450568238,0.31389416497306843,-0.37662846923245435,-1.1152748990490187,6.008708819387149,7.061404807631787,-0.18250153099647917,0.04147910982724471,0.16927051564250792,0.2141340700996451,-0.4225910668683372,-0.35925991939491503,1.4562182884338275,-6.119281627452075,7.0860023270526336,-0.4464915435056936,0.0871334944033297,-0.22824033299346588,0.05278510232675921,0.29435961181800413,-0.5514711867366304,2.639149194220127,-6.879312522306552,6.070390067910093,-0.46750380256139273,-0.12171893352169653,-0.17018261625377343,-0.139205284816837,0.45561977727307174,-0.7097565363458794,2.6000764386110675,-6.692045799015207,4.842434251827948,-0.5377002470197022,-0.5882790168495732,-0.5182153010520344,-0.1495094053906235,0.40101925326995463,-0.4983500546448753
4.08277804834877,-7.248022287434314,4.685336881108533,-0.6310638240659838,-0.9301637637453236,-0.4279394154180601,-0.24036211424191659,0.32328414625016444,-0.36782692009892115,-1.8352936515137503,6.068638293652721,6.9732265979460415,-0.1752319569213817,0.08422175323401562,0.1576986110296841,0.216783236382018,-0.42053197333408643,-0.36809337725837626,0.8219859898004455,-6.6173245696131815,6.442592638640402,-0.4366755235880056,0.07101016913602669,-0.2685952078452146,0.04814070091551061,0.29968653189607936,-0.5559128819099838,1.9170811766394558,-7.077936743021101,5.985625717404365,-0.46182789318311257,-0.016379346541182435,-0.2012360963245199,-0.14267471402322446,0.46100296259843454,-0.7140959794823505,2.7380540479638076,-7.007363543503765,5.29919387589399,-0.5304131722887434,-0.7134121979564317,-0.5688045252004988,-0.1609545149039494,0.4048004399204375,-0.4992163921900548
3.5732460483671127,-7.216575370169338,4.343310806637271,-0.6821204445204699,-0.9863844949000596,-0.46171911621888795,-0.250335272635783,0.3289469931474089,-0.35536883101314154,-1.5685280746258463,6.25124072859781,6.842778555504661,-0.1269311851678944,0.07567623919346196,0.2125787596337123,0.2138680802283367,-0.4234420305656974,-0.3663259179212478,0.5977582846594365,-6.420271454948719,6.13692281352639,-0.382293659355128,0.11502062610982922,-0.28688052975963396,0.047660164800952774,0.3081568622001389,-0.5609250119544597,1.3572201013016583,-6.518876500557028,6.0554618334663015,-0.4069000812456723,-0.02060719818418441,-0.2283134394779751,-0.14540606003764153,0.46614041073485346,-0.7179565411766035,2.907070393366642,-7.0615995262205455,4.582111174170252,-0.576023141885109,-0.7468689216123042,-0.6207449116895614,-0.1748315927213613,0.4068840999822944,-0.4968966624652557
3.749232711638829,-6.751398656419891,3.743790251784685,-0.6691858416655229,-1.1439670420054775,-0.49043822856160346,-0.26741647560260934,0.3302631301650447,-0.3490161675121452,-0.5019014467377834,6.863609686364697,7.333302100074784,-0.05108655236494003,0.04105744849329279,0.3562244432877745,0.21359666740296665,-0.42778637407772485,-0.37797265886143055,1.2888926713251563,-6.466713569152887,6.5012629824090515,-0.3251970840261155,0.2299465089040337,-0.26991854642421054,0.04626432083328221,0.314823442302862,-0.5566234922983504,2.0384372435915057,-6.284882608761863,6.437486803041598,-0.36828056510804946,-0.07796643166055546,-0.23126741600107797,-0.15045082337038732,0.47345908046079493,-0.7122606859853988,3.228030887455168,-6.739367562696773,4.186375130676532,-0.5489030223800406,-0.6672923292494478,-0.6474096096992253,-0.1885775844551922,0.41037391804736323,-0.4804115749578698
4.810141346438328,-7.110095951047768,3.5249718183941012,-0.5282955570576061,-1.1573710290746666,-0.5291009598638439,-0.2857118528674733,0.3325578837115156,-0.33753638167366995,-0.4240780187320901,6.059419776205851,7.129592193413009,-0.08840559154806896,0.05733602826202536,0.4665612046239724,0.21484338210895898,-0.42815330428959547,-0.37088983106022866,2.1847612282143127,-6.911808011715,6.4443340524027635,-0.4210080156891151,0.36600638430729887,-0.23673864762816302,0.05062618067908067,0.3234284869210161,-0.5670461368670376,3.074853863303999,-6.262737765248141,5.870515491653198,-0.48649119978038685,-0.1804827330310835,-0.16722384876228139,-0.1531976908553959,0.4810403549216143,-0.717581445947052,3.5006909540851536,-6.9164125404806445,4.799768860331343,-0.38846713097545577,-0.7217026829726232,-0.6518573796949877,-0.1993140948412361,0.4129338871574334,-0.48275386270403975
5.241988758172813,-7.163636135589282,3.6717019806630975,-0.6156466186372785,-1.0368616734994993,-0.5503287184304511,-0.3037526883385491,0.336313247546919,-0.3216593440731188,-1.5609670290946938,6.337659482817251,6.8932767073979315,0.01462404214661171,0.09024979940943634,0.532308478115698,0.19683175199039057,-0.44651998685242666,-0.370767773253963,1.4559362411209098,-7.040662042401645,6.9878201011272045,-0.3716776882916157,0.35837920738354373,-0.2130980708156306,0.055407300484520056,0.32779642830221256,-0.5515240187610423,3.164817330352823,-7.0649938389752,5.397256709184666,-0.390505416536418,-0.04573375939242452,-0.11665735029373181,-0.15085451371621636,0.4859001900598559,-0.7068598516008954,3.6775715429665903,-7.22853154758977,5.594920539097207,-0.4773883422275305,-0.8541554886418503,-0.70033463663898,-0.21088088940245428,0.4112576987759015,-0.4621569366691142
4.335395386407461,-7.008438561229381,3.5374623706110224,-0.5321782128387678,-0.9690805467230332,-0.5832803593056448,-0.31254927440882946,0.33464589863270694,-0.3101850293176998,-1.6964007610153962,6.5499101231172805,6.908783935269447,0.06212907902775137,0.05775591544411327,0.6823118626400804,0.1970939389194429,-0.45163339587700413,-0.3699518105332427,0.9644710185835188,-6.82931526753646,7.098944227465087,-0.17168643208240975,0.2857816847571424,-0.23517579129064578,0.04386312173198757,0.3187812432730625,-0.5542242114985644,2.4217951867744194,-7.703820776603877,5.68225847690922,-0.1789220853864984,0.20143356196378565,-0.15989359594595495,-0.16331876136655837,0.4729746939493449,-0.7067212774037702,3.4782608188336135,-6.976756440705818,4.760809060187964,-0.3890214851806425,-0.890819186726303,-0.7044597839608272,-0.2404721601428081,0.3983309230570968,-0.4522020922460807
4.184649625961447,-6.828871986569469,3.1295670345522977,-0.4289991345200093,-1.0543784969455687,-0.6049164652428349,-0.3364511105657937,0.3384396199389121,-0.29967876304577995,-0.7881472417080071,6.51819785891646,7.152579466567704,-0.02021850443232204,0.00519895484581826,0.8056884187476145,0.1792726777719292,-0.4571340157414457,-0.3744392906968789,0.8404550300206713,-6.633073658061973,6.689319318724611,-0.1136637800431244,0.3967541400793279,-0.2396355920814378,0.057292793322425706,0.3242692929864054,-0.55783260578368,1.9177144796062568,-6.509260270096646,5.694028609874898,-0.14955689255951832,0.29143887926872203,-0.219076068039236,-0.15331062727930442,0.4778467948556172,-0.7073312387555352,3.7148437980556133,-6.964507869403947,4.132223987405843,-0.2747640076190508,-0.7961810090429631,-0.7002864214030197,-0.24797407903570873,0.39690156471291627,-0.4423799869397697
5.206329669218284,-6.614372642075117,2.8568075003427635,-0.46625608141959785,-1.099292295088187,-0.6017808899965066,-0.35112298848374046,0.33412327535799674,-0.29089061091807583,-0.2263769248630199,6.826186332177954,7.4306981387472915,-0.1811749610443647,-0.056022229450570886,0.9094708363059041,0.17972323248149868,-0.4573186599715905,-0.38566938098867787,1.2426548339799555,-6.842767824851512,6.3033756986574385,-0.2649348829578932,0.503954948333579,-0.20399169632655878,0.05221677800801164,0.32801953293602737,-0.5539450969607842,2.2549332732753067,-6.13164974191213,5.9716752408910185,-0.3054540880766473,0.296542289444673,-0.15592689855562314,-0.16085086764384704,0.48297866669272016,-0.7055132074872474,4.252321834505203,-6.860229320296624,4.438728842379405,-0.2983183417504315,-0.7384618225307098,-0.7099248560783706,-0.27015302964941096,0.3939166466029175,-0.43390883710332134
5.903896485835861,-6.579115329918761,2.635618401489476,-0.5682107575930451,-1.0491504795458548,-0.5764533685132219,-0.35718083995376215,0.3417210560664076,-0.28404659894598994,-0.38655774891885275,6.816024418763316,6.979344214043464,-0.4637482301760622,-0.12011484053835562,0.9936313242511104,0.15532698475377643,-0.4639911049005776,-0.38596333417753736,1.5360278690509213,-7.311761281184906,6.196161150709377,-0.5158213032992921,0.5881366026626867,-0.1962106976314307,0.071244125261015,0.3380317091005467,-0.5630393361243565,2.5906298912718375,-7.24006830886207,5.381544433459877,-0.5567977974377348,0.2747345986136476,-0.07625283670844764,-0.1460012234603575,0.4912710863683203,-0.7095983916382343,4.853938010100252,-7.057457993760505,4.89806127042261,-0.3995687432257831,-0.7742284351569636,-0.716379873609224,-0.27090867488942005,0.3919731454930003,-0.4343987153606485
5.974990937039362,-6.648008374026416,2.5956304613868184,-0.8895699821879184,-1.0038968736789302,-0.4933023808232197,-0.3879734661328441,0.3355282202228795,-0.2532838186065858,-0.47953330388709736,6.326426231868763,6.704001036782955,-0.6296765027191012,-0.13360371632364337,1.0586961595689073,0.14405690031670648,-0.46446704213761436,-0.39788157589046275,1.1892852103480291,-6.9013909664285835,6.259352600276915,-0.7163817188971348,0.6984339174269957,-0.19155115301810915,0.06480581159140736,0.34416936608081555,-0.5474577100575976,2.405016731913147,-6.670389022344862,4.695311546926354,-0.739229081767762,0.35101015282266124,-0.030079318629308367,-0.15563120732678346,0.4976107515817796,-0.6996938906051875,4.94320477507182,-7.712956310265465,4.557512699690513,-0.7361239875824541,-0.7431915448877083,-0.7403366569791936,-0.2988476896748426,0.38801648178834636,-0.41270072473597963
5.78431101866594,-6.871077089107692,2.1626933847404612,-0.9952466416516691,-1.00211886169057,-0.4231491891142768,-0.3884335417619792,0.3399163160142703,-0.24351380930561506,-0.0932797903330392,5.961592826135844,6.617404795187467,-0.6565898561069522,-0.1142698777070186,1.113967783127176,0.12890139080735163,-0.4700526578735334,-0.4079925775402751,0.6249161348391276,-6.612675214027948,6.308157620571571,-0.8705422023853362,0.74446602049811,-0.20698461483114222,0.07514259560503066,0.3573225647839815,-0.546033872591194,2.00291422568678,-7.151927345918696,5.085680109602932,-0.8966851761461931,0.5134709358386791,-0.004571665191312269,-0.14384921981612622,0.5119949535918276,-0.6961583674709327,5.019443905619271,-7.600595434285205,4.03932076223942,-0.8425847884386913,-0.726335710686513,-0.7091129300486939,-0.3065850237059366,0.3863395260502709,-0.401413651087606
6.060435701389895,-6.914050938924116,2.0785756648857756,-0.9173340863937861,-0.9765813689833438,-0.38233731807880855,-0.4052891684466006,0.3378054588739366,-0.2286202429025744,0.15877142388175497,5.445906809236393,6.466102705832335,-0.5824256179837168,-0.0899468681576801,1.128499901316305,0.12003819056817357,-0.4585478329823323,-0.41938553715325694,0.7462008615476,-6.658047684432583,5.582790594755238,-0.8375815311424686,0.8043555686253059,-0.22128967971529728,0.08135991466049132,0.3640404574970291,-0.5359313753623605,1.7947213897849272,-6.900783755514236,4.857288732191478,-0.8714849017165168,0.5988224374534457,-0.0432216780732438,-0.14029849637083394,0.5163673564377785,-0.6864296490883413,4.868994207966261,-8.047823641998544,4.31972569737365,-0.7722623052539165,-0.7115567900784608,-0.646490580001862,-0.3201704731090268,0.3827533846862985,-0.38642330647403283
6.466932626744983,-7.2556446960224505,2.150032218821041,-0.6840394263241744,-0.8586819246347979,-0.3055338329605638,-0.4162559406851628,0.3402909859798943,-0.20591077871530103,-0.061452913087978525,4.749996089374743,6.6425679667022335,-0.5126218299118404,-0.007602820705373697,1.034420823291545,0.10051971806833514,-0.45681273777675,-0.41421974129002187,0.35825480478960575,-6.220668453795232,5.775006274487674,-0.7643323571263176,0.8139331136463012,-0.19941937639498494,0.10082149963874917,0.3913359599440824,-0.5326016440973846,1.830400552630344,-6.22431370718672,5.120927064251553,-0.7975300150186796,0.6774060663432028,-0.016824835117561054,-0.12316106004069814,0.5402705008106838,-0.6848991684061417,4.968266124448549,-8.63471636498244,5.0704308243406135,-0.5788611591935988,-0.7697045113309636,-0.5059364926735425,-0.32531196506193844,0.3969229794339134,-0.3758238305347937
6.403347806333527,-7.483734420385395,2.3879499963457116,-0.48569727270834967,-0.7094647276960901,-0.2174932916753607,-0.4225577259997013,0.34764068225438044,-0.1917429350006678,0.24533817926694124,4.402058379667074,7.070234356309902,-0.39769119568753963,0.04601158974138003,0.8945988560394463,0.09609848932911795,-0.4626515260074469,-0.42680464472360435,-0.2726233178033237,-6.361310359030875,5.224459754413021,-0.6202574780951539,0.6899540592450109,-0.18647036523901528,0.10074387362817823,0.39795094764302485,-0.5156116278541517,1.244492505098917,-6.6526533332483755,4.716357551594863,-0.6499983111386305,0.8297941526255983,-0.037699912086011075,-0.11845976515564693,0.5490108119967568,-0.6622369626711654,4.800400203487297,-9.003193643708155,5.733328780025892,-0.4223801789500839,-0.7282848277846697,-0.3629538982539642,-0.33712513066393257,0.3918152384989693,-0.3513329547848055
6.505731002260264,-7.59126195913176,2.343719229395812,-0.21652255126079406,-0.5167181954616269,-0.1029704029097529,-0.4298754793013446,0.348157734512625,-0.1758719733228572,0.5638941051495832,4.168950678524911,7.2034812640198655,-0.2516315152014098,0.03950834636135142,0.7542725781766391,0.08264273693840753,-0.4618403943927804,-0.4343411077603066,-0.09981722789828856,-6.899490149395577,4.712643793611936,-0.5576491331784964,0.5443510544298829,-0.17437580412243597,0.11000369449499556,0.4000401833943905,-0.519378668269341,1.1772375305674703,-6.940559821129095,4.258082952946886,-0.5976596048016863,0.9945624191689665,-0.042813498818308524,-0.10021948134419432,0.5502223841465911,-0.6678454689253659,4.486645900513896,-9.158993672895269,5.990670363039538,-0.1950638748900701,-0.6882910771044366,-0.17979535695975468,-0.33989043076971115,0.3852577108315254,-0.3530465230547285
6.585724570301413,-7.028790338522159,2.3869482662328103,0.03345289708191022,-0.24599631321636073,0.0118909085769452,-0.43376040584105546,0.351845322257821,-0.1787968944162426,0.6766472864144948,4.128732573547846,6.966598915881184,-0.23972421368091493,0.025082529876807383,0.5596020191127317,0.07432411457609331,-0.4577401812854695,-0.435845800575416,0.10549915470403909,-7.043213943106835,4.506560066160352,-0.3244475645914932,0.4105295051791547,-0.10567074034474795,0.1110266005749002,0.4083385539226093,-0.5192720112110547,1.2556501004703935,-6.629310128530075,4.458242577405053,-0.3501779182881009,1.119336448378384,-0.031748755882349475,-0.08951889753530881,0.557053826935159,-0.6716350070998062,4.483726482469369,-8.692848990482691,5.935175209100142,0.005699883125059772,-0.7270070443682769,0.01292509312395496,-0.3478928570519278,0.3894823802280751,-0.35149819618757655
6.5452597380598565,-6.874702883638297,2.243151812395881,0.07354646875567669,-0.013399867148513106,0.14913910147232506,-0.4232736677850972,0.35007877550031086,-0.18368361228197286,0.8731133777569756,4.642734119206163,7.226021135412336,-0.18598833694583636,0.0774382038531213,0.3985053349569168,0.06921245818066878,-0.4616448431861206,-0.4347874408366131,0.2019877320055531,-6.9094160786917636,4.134795929769689,-0.26292898911587326,0.23404402819096123,-0.0642896438911709,0.11256452498921142,0.41572214625883824,-0.5150034542290938,1.0340410661448747,-7.079919781496473,4.767111282587066,-0.28039069710781744,1.1658799005325995,-0.006543295690111932,-0.07426833388456806,0.5623923807014152,-0.6635230922198598,4.893407423481715,-8.223715909127499,5.791180630332671,-0.00054620849392932,-0.72934491275071,0.15573474460421596,-0.3560821965132521,0.39417213735965007,-0.3435991352792129
6.808893397153191,-7.375359307079047,2.39845979332595,0.10321684474803333,0.20839820528850514,0.2466977810333738,-0.4222985292080801,0.35008106345753837,-0.19271681312778965,1.416646086757817,5.041359345737394,7.5273664588108105,-0.25726253025415224,0.17645928331603936,0.34748994696224117,0.07485032245674625,-0.4721689960728933,-0.4373176871527576,0.49719440381623276,-6.822817983984798,4.285144447888709,-0.20526382358492118,0.1455980342024244,-0.054434445837980204,0.11039525885681041,0.41458276454081844,-0.510574172261612,1.0416159315268063,-6.897792369132697,4.87684078114657,-0.22590432330672164,1.1141721235366284,-0.017317240981517643,-0.06008528575920612,0.5611522852050199,-0.6617584508870428,4.955061866770935,-8.399400844742097,6.068736971591145,-0.004006128503380844,-0.6594330423064758,0.2558614955827472,-0.3611666498330797,0.3942024030391913,-0.3384300273845047
6.901777613487724,-7.5817435952737835,2.1363117600541517,0.11255687493719119,0.5402819000162159,0.32321772642638474,-0.42520936099463275,0.35352085710765324,-0.19784015490391815,0.7182899680451641,4.958833284205754,7.261761573752807,-0.29714956485881483,0.241975623607902,0.3477957364442295,0.06455007525778687,-0.45954298908628294,-0.4396890169936685,1.1189257835457802,-7.33937974581309,4.493452527305817,-0.3130788217029716,0.15507022399449827,-0.06884236738647977,0.12014290589473739,0.40604303842153544,-0.50685409846777,1.4236469376568417,-7.61918726391079,4.71176287662154,-0.3310691628926753,1.0282593505099218,-0.01783243290908054,-0.040034291737538745,0.5530685044207151,-0.6588629476536885,4.913961095547538,-8.540220996287088,6.081372788489491,-0.004508193189460385,-0.710422403546588,0.3353924124413898,-0.3570113786434021,0.388024604043984,-0.3304324540078452
6.404043332290339,-7.2712301219127236,2.5164503211751903,0.14123736106309243,0.8722198540312147,0.408326774746281,-0.4114656416755806,0.365897510099793,-0.20515593244231242,0.30316665665432707,5.263347118639496,7.127935734736695,-0.18513230652760507,0.2528104570102782,0.2860669003293166,0.06551077708580043,-0.46308705439737446,-0.447447681509445,0.37682484146105066,-7.116918510133455,4.750817245285664,-0.31158713016809403,0.17748967080500241,-0.08525808369968861,0.11321696462703192,0.42232933989446814,-0.4982640221066982,0.986971363382135,-7.2547732187778395,3.98632508431079,-0.32303202336392034,1.0301783393469448,-0.03235746575030696,-0.03233377340466734,0.5691562777250667,-0.6501431149997379,5.056730183402592,-8.421663682912984,5.124195500508026,0.020903309898089573,-0.8286014276000776,0.43270643353596894,-0.36678600186889915,0.4051818172294491,-0.3227126469177635
6.173425983979633,-7.136815092306209,2.476970202431472,0.21790035006194344,1.0006726049008616,0.498508653828403,-0.4034567776111345,0.3585426554403635,-0.2237191311520147,0.44647723475860146,5.767405201392445,7.246046460188872,-0.0818097259126135,0.24465094485649735,0.26418432071742287,0.06108031187699845,-0.4550969927431931,-0.45073940488724823,0.05446450199194402,-7.200207940509535,5.344093775923773,-0.18632213069576972,0.1287049847943228,-0.048373116842742744,0.11610355713383778,0.4198118528809075,-0.5021537598660085,0.6457311060509989,-6.913663874815763,3.7380298553668148,-0.20549942920130823,1.2502141845528343,-0.02425649865145762,-0.01796604042694102,0.5664604220152989,-0.652779099839009,5.717917801217316,-8.473063237963782,4.171157908246801,0.09953713031844255,-0.8368632280677286,0.5296403626585027,-0.3679850801072268,0.40935497461525616,-0.3251265839118986
6.023600948801856,-7.401147583144468,2.266502096885239,0.22017731024002418,0.9699478985737305,0.61391685106525,-0.3853088506019749,0.3726058335837756,-0.23494130633229388,0.694421605631684,5.4421531649280634,7.526298207602021,-0.2032615448847311,0.30933525756153135,0.2275147995964516,0.06989879210592059,-0.46335019586198256,-0.4494116218733063,0.21341020993667303,-6.831778305522137,5.646321830819411,-0.07782054924247972,0.11982283080815724,-0.009177965717876291,0.1134282134157804,0.42781661171499186,-0.5064084753674725,0.5080599297960711,-6.714358592696636,3.966008954904471,-0.09392325211128204,1.5116214302623379,0.005356538199671428,-0.0010831974575637136,0.5749819224132697,-0.65078598663632,6.145296081698733,-8.735660460137552,3.4843157438099013,0.10690046974765746,-0.7000297490962745,0.6317789809917207,-0.3744192042536526,0.42381831057744584,-0.323548653522683
6.124350129361346,-7.671845366152159,2.253705236906618,0.31492002402147856,0.9231475195099997,0.6910128233259105,-0.3738450888785605,0.37107926566820904,-0.2417810106057213,0.5625658662586083,5.816996386969252,7.810160006541504,-0.2947856730073507,0.35664337666962387,0.22113814586202013,0.07378997826746508,-0.4584602036485193,-0.4497500305145573,0.3510383750617331,-7.147536081256864,5.501901912371965,-0.19190496233371854,0.05698390535528885,0.004326754921827024,0.1254071665355025,0.4234382368857735,-0.5013054125606509,0.28744129274173985,-7.295835519048251,3.9049520149306423,-0.20811465437893625,1.803284148912111,0.015483986988488395,0.033209087355550296,0.5690680113821079,-0.6419696456372562,6.187604378140615,-8.592017594986645,3.320510319765326,0.23793548429573075,-0.5063644635590347,0.7061664089763312,-0.3616586331362716,0.426602277271028,-0.3192477342945078
5.815207499198037,-7.483059322868705,2.4593647172645365,0.2593391318119875,0.9072717764098228,0.7374700408729625,-0.3522999837824263,0.3819582582914287,-0.2630157218093253,0.8361547075498268,5.465871631626017,7.892764453341187,-0.4585214064212307,0.34825656829820445,0.2619694506018872,0.07276412426360716,-0.44581849546890345,-0.45288647625204453,0.4748830290925614,-7.2493281232084765,4.80388706150681,-0.29173106707086616,0.09704860062268486,0.021365477618635265,0.12527696881418093,0.42898116223166743,-0.49040319259574416,-0.28725245754192247,-7.122147891937125,3.815436418030404,-0.31970089753593267,1.9743257616045446,0.019321407825338546,0.056356922894978664,0.573897366276849,-0.6273707759844298,5.913056407875767,-8.220814482486857,3.3419156150195812,0.2161261471985452,-0.3865958854908078,0.7434180936214096,-0.3568792229632168,0.43801580467441903,-0.31606549819237106
