# sampling frequency: 40
# units are seconds/meters/radians/a.u.
seg1_acc_x,seg1_acc_y,seg1_acc_z,seg1_gyr_x,seg1_gyr_y,seg1_gyr_z,seg1_mag_x,seg1_mag_y,seg1_mag_z,seg2_acc_x,seg2_acc_y,seg2_acc_z,seg2_gyr_x,seg2_gyr_y,seg2_gyr_z,seg2_mag_x,seg2_mag_y,seg2_mag_z,seg3_acc_x,seg3_acc_y,seg3_acc_z,seg3_gyr_x,seg3_gyr_y,seg3_gyr_z,seg3_mag_x,seg3_mag_y,seg3_mag_z,seg4_acc_x,seg4_acc_y,seg4_acc_z,seg4_gyr_x,seg4_gyr_y,seg4_gyr_z,seg4_mag_x,seg4_mag_y,seg4_mag_z,seg5_acc_x,seg5_acc_y,seg5_acc_z,seg5_gyr_x,seg5_gyr_y,seg5_gyr_z,seg5_mag_x,seg5_mag_y,seg5_mag_z
2.0402052503943993,-6.034331089002516,7.363948872239394,-0.031751593430585555,0.0025191899461359454,0.01479473482810975,-0.5662075323964313,-0.09546222934101757,0.18850760069765696,0.12992795925565886,7.533565640605244,6.284965213550889,-0.04211462092834803,-0.002484277612598073,-0.00507739793645272,0.41888248212179163,0.325755811755855,0.5432942936758777,-1.4365438585887824,-5.92355720640519,7.712800100340797,-0.06865653721379525,-0.03252131607952886,-0.01900970079370337,0.6650650047433528,0.12030671537169034,-0.40334049862516796,1.5053132450865343,-5.9633614437944535,7.983019470521025,-0.08423298217305727,-0.04539299088632374,0.011538560249335476,0.02113408505279924,0.4160743732250564,-0.8052074523943239,0.32032875871297795,-5.99083968090772,7.797290676385478,-0.037365510492883044,-0.004231440528698576,-0.007850972019968877,-0.304757391484785,0.4290807123505801,-0.4095516579140027
2.0756631518399593,-6.102247191603597,7.382727103933465,-0.024951616714485775,0.0021417060657397723,0.015201010080299518,-0.5723731989657498,-0.10617064620166464,0.19142831603719232,0.1335219604942756,7.518850627506706,6.282313400094648,-0.01974002330154255,-0.0015747930753220534,-0.009369673197314559,0.4240144070776348,0.32802453680927146,0.5466576097299523,-1.3823779859873675,-5.963644616933698,7.448333652660858,-0.06648422226034699,-0.032688666457391505,-0.015607438664758234,0.6650473294244765,0.1251014802512561,-0.40903100223493627,1.442590666843512,-6.008348915656241,7.421896168540049,-0.08203338503708929,-0.04408034660417188,0.013061368979273496,0.022954521267898417,0.41804508713310545,-0.8154824333032784,0.35623673532407457,-6.054961790815998,7.8157674449234955,-0.029605567210941812,-0.0015526096460959711,-0.005869512365201792,-0.30189015213654513,0.43104667811490543,-0.41957747624137154
2.0994462385040156,-6.118927603954873,7.335329360089254,-0.009640723425532193,0.0011516283997424883,0.012657000271047695,-0.5738160713564886,-0.10250224572675365,0.1938738814564189,0.12707835227785674,7.503570268704941,6.308971511675227,0.004716147509360383,-0.0022042547812145845,-0.01396961311309109,0.4161887942481708,0.33215049396970164,0.5466160122105251,-1.3466948506582455,-5.944588328825347,7.278804715857682,-0.02395844403251849,-0.008837531496948459,-0.005914076646537734,0.6738064195251946,0.12354327463528682,-0.41200515099817336,1.4029283422577292,-5.9653253201379695,7.062687242733447,-0.027358782474814602,-0.012828408888901405,0.007121828197515902,0.027622801951973797,0.4216982814697506,-0.8135834597401678,0.3567987670191076,-6.059083610016057,7.812547589048493,-0.013016281658771112,0.002998416107761351,-0.0034307886300755986,-0.2974842184705079,0.43222243491020085,-0.41960878899909654
2.0665221679315717,-6.1133926424875025,7.353718023893225,0.008494282017346711,0.0009942649496569663,0.010832156351330237,-0.5796249113291246,-0.09392565683562991,0.1970557135017912,0.10112233508128564,7.572752252717084,6.260582892719579,0.021329279973243406,-8.046268069862719e-05,-0.016465034089852733,0.4210594567942679,0.3281423713093486,0.5395847588299669,-1.3783400584819054,-5.931079398294709,7.344938740298327,0.027013788523528242,0.02094041211128247,0.014575920149882404,0.6638626552540106,0.13387305620112327,-0.4106238451228393,1.4001412707922731,-5.957237221090719,7.1444746537173405,0.03724407802571431,0.02832492529109741,0.003596367232118351,0.018609893492368218,0.42756515130632433,-0.81247674459187,0.33937966977466405,-6.024477531330214,7.781233936751488,0.005823601726701426,0.00677150913539077,-0.0021758292575658417,-0.30641805571459557,0.439870651181938,-0.4168185533536922
2.069296174032576,-6.09508038607257,7.372484787736398,0.015717482559170954,0.0014228377997026198,0.0038920605850750064,-0.5723320669879696,-0.09958855665191171,0.20242117910008167,0.08430575054065759,7.575232960479458,6.22748360374858,0.01885063915303526,-0.0012579243555822601,-0.01650804209582975,0.4196146163036709,0.3284830824527602,0.5456879319287318,-1.412513068165709,-5.94451429817936,7.520008125546691,0.055596886063655565,0.03756776665941119,0.020381591234467804,0.6693653318422106,0.12226633758228123,-0.41707852925676103,1.448381244568696,-5.994616799041024,7.588852428682862,0.07451931929565107,0.05057966170527936,-0.0015901872507042517,0.02192577017766954,0.41951916593497524,-0.8196164463511811,0.3383520739201327,-5.989625089299327,7.798935743304593,0.014993417951940868,0.004033519405845918,-0.0030765487678698807,-0.30141933391580045,0.4315408888555242,-0.4222654066621362
2.0413547589840295,-6.026529715715111,7.385276600103208,0.01764051099713365,0.001121196720808598,0.007589400613569866,-0.5704433195393441,-0.11033818662290715,0.1982602101549935,0.06710695925161507,7.645356175544704,6.159792646087242,-0.0027083111377728757,-0.0032276668354526295,-0.008629473829865562,0.4171842576077633,0.3324904483490148,0.5522227736393442,-1.450562478300233,-5.933677468980571,7.766180862191778,0.04832243353094135,0.032200248961010994,0.018949556630609213,0.6703656340839426,0.12206656835159123,-0.41390869823923726,1.5135350350787657,-5.995459597531879,8.110628727305054,0.06250401056043953,0.04166550096570579,0.0007244453997598467,0.02489317932570638,0.41682386654303644,-0.8164873234491588,0.3178878919479986,-5.999186279827643,7.779271329230112,0.01658251991067518,0.005842646580962058,-0.0040721369503043,-0.30188769105166496,0.43129066368530783,-0.41957648402333175
2.0425994366579308,-5.9663640824691315,7.407851983302581,0.002016586718801989,0.0017445281891951677,0.010792147719645744,-0.5640469670728473,-0.10182664676423825,0.1936284888379635,0.07667274564276394,7.605865682338984,6.17825901362631,-0.030732413850754377,-0.0019532002425476543,-0.009775833300464588,0.4178783220580485,0.32908946920897114,0.538358776220568,-1.4898553369773186,-5.926658280426128,7.863686229136474,0.005170648383558894,0.007370186030956602,0.0064348932518490136,0.6685470518611938,0.12814477754423478,-0.40056034786514366,1.5527549122534157,-6.027442968172751,8.365806659667658,0.010988688517545173,0.009190013642199329,0.006689164665379457,0.02113710067430429,0.4216898313475532,-0.805440651837959,0.28770731325572285,-5.912168974908445,7.801466239443917,0.0004077509676776778,0.00628492040049365,-0.0011463191997941266,-0.3044663391780351,0.4349439918291532,-0.41099478067762263
2.0327142346406584,-6.011246200661774,7.382726986076325,-0.016805299023241498,0.002215758919563086,0.013954412210831917,-0.5667350543921814,-0.1022987104433971,0.1924076164259339,0.08823368664169973,7.570249444095163,6.215660056039302,-0.04032013344782787,-0.004609903493974399,-0.004764268099676389,0.4254532018084215,0.3340946586110885,0.5443547562752648,-1.47968148294843,-5.940042329330314,7.7906398945321325,-0.04156570560045052,-0.01718470689261504,-0.00997382479049966,0.6657237183948673,0.12715711675860528,-0.41785965187745727,1.5179973817885224,-5.9859922582666245,8.207906038822584,-0.04925318597309087,-0.02516805072398472,0.0075673086533493954,0.021647707239141854,0.42147762112198656,-0.8222952453885645,0.29576955362082724,-5.9562066741676345,7.790836836955889,-0.021853537615074456,-0.001663569575398869,-0.00617366041942161,-0.30483556681186685,0.4345192579306842,-0.42564313051881314
2.05995669088202,-6.045278687143737,7.367187082640572,-0.024894715733310025,0.001108369737784302,0.015181077401885887,-0.5664510795513612,-0.0954627482106768,0.19070465088235916,0.11870342331724731,7.525131152129738,6.274099861917192,-0.03384625297269615,-0.003548568498059752,-0.006492264806894039,0.4220626184080642,0.32901577078072963,0.5478690366584803,-1.4273423932524065,-5.9326228531326715,7.604622635113163,-0.06238006306066961,-0.030195312043924373,-0.01594023594922357,0.6714102863861919,0.130410639427953,-0.41087247814839606,1.4697168877974964,-5.980479824982534,7.7437914262447505,-0.07770165358930173,-0.0408471889830155,0.011526644423854284,0.026409164623968497,0.425361121701056,-0.813316426266606,0.3166654288026042,-5.990915263012747,7.794715344113097,-0.02974737454472974,-0.0008642492822897636,-0.005350469313399203,-0.29892510527268873,0.4354150281974589,-0.4205607466270693
2.085963429726912,-6.102850255477267,7.357211452571686,-0.02063743257656031,0.0013112052958642352,0.015240388949105755,-0.5791576727782439,-0.0975898238999941,0.1963203517805957,0.13256745140213033,7.500828378300185,6.310644402828951,-0.009477867204180184,-0.0028293081132683214,-0.010440162923063975,0.4184286576011855,0.3214651545668944,0.5497148745834995,-1.3686746826085325,-5.952853129854605,7.410586242986426,-0.046743365627232795,-0.020491459155913883,-0.0129015030713613,0.6704291622557293,0.12485118741231731,-0.4076046625589742,1.42935826552686,-5.989133992741492,7.292592596931313,-0.05504293770110069,-0.027497147694301474,0.008349848256736167,0.0250051239049172,0.4224232700175382,-0.8084202531543787,0.3520898805809859,-6.050377221846009,7.777780921627739,-0.023620164836595865,-0.0016896757713426452,-0.006684279383731487,-0.296948485722285,0.4341562311385429,-0.41618702051339623
2.0908004266543756,-6.140697736510462,7.348529726408894,-0.001604436530147035,0.0022722097748539335,0.0104433572743533,-0.5765062494356922,-0.10296851614902916,0.1872820123894939,0.10079673341714436,7.542854379425462,6.245510339412511,0.011246056691460296,-0.002777794917216012,-0.013935454864852816,0.4205676554191429,0.3338198431360117,0.5433988970111125,-1.3428722256624277,-5.954029604785215,7.299991497689545,-0.005244688597224278,0.0023316485076134734,0.0025897451139232776,0.6662559323652213,0.11782514173857118,-0.40550937153589345,1.4183207662749167,-5.951544857304654,7.150475632597796,-0.0022806589762524895,0.0055603701146199795,0.005297147800701802,0.022320243395359027,0.4136357791318658,-0.807668950563129,0.36836696306745875,-6.065281202289225,7.824239347350924,-0.005534602387056926,0.004912205146616782,-0.0027272718996710554,-0.3031141794778166,0.4261529422661392,-0.4139724908256618
2.071178691237501,-6.096454013824826,7.356192172176844,0.011308780519042242,0.0007778205274454438,0.009525388202021751,-0.5640288466563845,-0.09865109161602437,0.19070131440668006,0.08122361589414234,7.560969794495789,6.2375839803328015,0.01569386764832772,-0.000495852923321738,-0.01634984348901254,0.4171777857981818,0.3307250450409654,0.5488335680870638,-1.3771551919852814,-5.933082827427604,7.437483830957392,0.03619242464729961,0.026128692927106498,0.015105830598497882,0.6677155275733847,0.12988165049861888,-0.4147431324894377,1.4234339424381366,-5.98976494369369,7.352242365462604,0.04926656908454783,0.03307440603280711,0.0011055700857420018,0.02222776292025718,0.42561433249151986,-0.8157022764479446,0.33025279820361514,-6.009486285571303,7.787799386920485,0.00893708065234698,0.006769001401799547,-0.0019044021203204497,-0.3030398219151774,0.439119542312414,-0.4207555853401753
2.0453563711206058,-6.0476928462266555,7.358478908332093,0.01646714759593939,0.0021150104889933272,0.006607525609863035,-0.5757763405837771,-0.1034599607246197,0.18630442490132804,0.08343328330413954,7.605524248294332,6.222149815935248,0.009753828648323035,-0.0018215478178315162,-0.013170085050845574,0.4142594102390367,0.3258187668081283,0.5479487415516491,-1.4325384019913654,-5.942843312003061,7.608098894548725,0.04736986622949987,0.032155721093506534,0.018912640438497927,0.666527426176415,0.12512398675794584,-0.4070895488973415,1.463502364677787,-5.976568582440412,7.822787489723708,0.06409448966243286,0.04344416981345742,-0.0005390965885255949,0.0220443047247068,0.419501695553655,-0.8105842410088001,0.3277512807303704,-5.9902439630156366,7.77281014344409,0.014247324561331891,0.006440193491357149,-0.0047995071244816365,-0.30644306600385507,0.43399377361162633,-0.41269155862277745
2.0527934985226906,-6.022689648425562,7.4038356950428446,0.009788310484325439,0.001427987638416916,0.008193277620523621,-0.5696202013205132,-0.09496451933075084,0.20022674604022725,0.07859486084103773,7.615527957578144,6.17512085423468,-0.015737070551706207,-0.003045081209211988,-0.008362864334659824,0.41717492157092295,0.3297208606210118,0.547140977632487,-1.47098126856258,-5.929108369508252,7.8038548367662015,0.025996626624876396,0.02081985209474648,0.014515687647495314,0.6652476565037978,0.11704042810170778,-0.4091518587761444,1.5381598830370475,-6.025010592300262,8.193274707589824,0.03487542856165888,0.026961611834754307,0.0019986722874609742,0.018113511224895826,0.41218430244451476,-0.8117679160267633,0.3062412847638536,-5.980915910724488,7.8066129624829514,0.007267270312904969,0.004777493962075785,-0.0028309891630840856,-0.3109413644478075,0.4279565895599656,-0.4178068770718584
2.0510843463095405,-5.979794844288083,7.379167267473996,-0.005841518482929671,0.0020673506517624534,0.011400040223448704,-0.5674416653283891,-0.09790142283500497,0.19460868109420534,0.08091530793946106,7.60139210977872,6.227230643461416,-0.03186736058497599,-0.0038012432045500433,-0.0061718051206256525,0.41573755170376636,0.3276209345788992,0.5532855792048142,-1.4623630655714386,-5.915650352308884,7.844714246701551,-0.01484064595363133,-0.002875229672647703,0.0006011430848743566,0.6670048333020753,0.12364890607397223,-0.4075593216212589,1.5445121584556596,-6.010068891374526,8.268443861565718,-0.015128424038859185,-0.004968803563599581,0.008096623385512485,0.020316228620225564,0.41950637811069375,-0.8120266823596983,0.30390862295297427,-5.973752149564595,7.7914132044611915,-0.009665335295032232,0.0020568277403719385,-0.0062013374590519305,-0.3064844399490641,0.4354870522038155,-0.4195213117839662
2.030891740852335,-6.0043191916027325,7.385946533853184,-0.018514696299663354,0.0014286572938766687,0.015271060220819156,-0.568197343568789,-0.10180020601279671,0.19143135893088067,0.09699877405253915,7.527789561795725,6.243453710995032,-0.0355779265129243,-0.0028253785761549084,-0.00749546622581696,0.41692864614675434,0.33268207915842807,0.549046017839179,-1.4597971498128253,-5.914793374634486,7.701623246895186,-0.04726928942548865,-0.022170141081495346,-0.011702058136754364,0.6628609058050955,0.12320254559103608,-0.4062989989566023,1.4837677637900237,-5.975706633237493,7.977818864852723,-0.057422437506991636,-0.030908943655125257,0.01013263119233753,0.019406862014621957,0.41974151870052406,-0.8068868423544425,0.3002353826797436,-5.9557861332090045,7.793650018983177,-0.02159350369804926,0.0012412951019558404,-0.002562590000798698,-0.3059558462520071,0.4325168632798385,-0.41099261695654293
2.0614659764522285,-6.077536006653568,7.3793670273903755,-0.02320396316802558,0.0019186515726856933,0.014909454297174763,-0.5764749005422639,-0.09809670110184504,0.19973735362901485,0.11405107388622254,7.516061578002633,6.311953515319798,-0.019711967120705394,-0.003267456805550483,-0.007649470782746433,0.41740903496781673,0.33239812473297053,0.5466077302300439,-1.416979787607099,-5.924619784854736,7.5239791372576095,-0.05223185953564417,-0.023003257093229958,-0.014153911846253033,0.6663016656366638,0.1292671190302273,-0.4076414946855048,1.4597864968543997,-5.999864578839168,7.56339937581116,-0.06404229254931228,-0.03175297670608305,0.009799837821680951,0.019606301232073027,0.42292232943034685,-0.8105456294621582,0.3259637806490372,-5.9920644873450915,7.789641984538429,-0.027660467064551574,-0.0015828559715784201,-0.0059616187184435105,-0.30520283023505257,0.4378974012239741,-0.4151276513348677
2.1005825527739908,-6.1188793482934205,7.3353761711028,-0.010501650626408843,0.0025442747080911157,0.012047417122795022,-0.5728355648433214,-0.10177588631632732,0.1948503290917389,0.11899676830384354,7.533765706551837,6.261506956071017,-0.00011729889712337084,-0.0023519878539708947,-0.013059489618798548,0.4220775558680467,0.3241334634059901,0.5479499104543167,-1.372081839549397,-5.971654531132223,7.38181354619627,-0.026462482235209864,-0.008748414858727327,-0.003623679540301717,0.6653307035271872,0.12879971999528994,-0.40664951700223767,1.412165517907107,-5.968010245180833,7.275059519070395,-0.03075150502530719,-0.01065614183640262,0.007900618636599068,0.021086414382683195,0.42511585124508666,-0.8095847251434818,0.3771426734227959,-6.062556976915538,7.822129478664824,-0.014763843574939534,0.0008235149023732152,-0.006283579561069137,-0.3027582921302644,0.4366448271052247,-0.41319884638587023
2.0802141306681996,-6.086765948883456,7.3806879728574915,0.004484826207045559,0.0011584272166390893,0.0091401206379537,-0.5784617453472263,-0.1034465096645182,0.18899098633286573,0.10092271392094167,7.528881529753558,6.258476333665133,0.008984189006703091,-0.002407458630586214,-0.015010003891866628,0.4162097918158083,0.32556447262017135,0.5469691395044067,-1.3677707439089068,-5.943965850873482,7.380201011884146,0.013009936051747117,0.012975685444047947,0.007543782419090099,0.6687181532034046,0.12340709483310934,-0.4068357414670938,1.4273943068322386,-5.985629097877281,7.259404227775288,0.019168067267898558,0.016215716199886952,0.002656065010130524,0.023298350717307518,0.41851818494351195,-0.8079173646471783,0.335838434336846,-6.0332219986893785,7.810907996587959,0.0006384860135510478,0.005356830645866123,-0.004169193452217014,-0.2996766644924088,0.430279478222261,-0.4166687179540637
2.0630789271078442,-6.083641115848475,7.35519624623004,0.00974661242770649,0.0024593227665508045,0.009237205839105369,-0.5764991456713399,-0.10199840921843821,0.19387487838841663,0.0847479006272865,7.582214499728699,6.222906731452766,0.01065062377617077,-0.0021732163422725384,-0.014399502696556762,0.4179208528675513,0.3290478075935563,0.5505680694204237,-1.4104560387492053,-5.933343217571594,7.519526863627927,0.03524835975079329,0.026526960989163805,0.017165260864840885,0.6650522146602394,0.12390347870060654,-0.40754813156656605,1.4517927243058708,-5.968490715084859,7.568121367612134,0.04915781594096853,0.03477951823023027,7.020389546901992e-05,0.016946849385793356,0.4197469932894124,-0.808319676571957,0.3572656904149921,-6.02032539586702,7.7759970290046345,0.007802904221536984,0.008021322804323203,-0.0023489085078744246,-0.309419044823249,0.4318385153222268,-0.4156061805146347
2.049295152207736,-6.0739791147385525,7.386075685685041,0.012945550276545113,0.002607417676581144,0.00927768468408444,-0.5713652811829084,-0.100806587714061,0.19265389193635132,0.05932988220470209,7.626094918562703,6.192956228177839,-0.0004733013526610095,-0.002238512747559714,-0.010369766463550754,0.4171467915150429,0.3350344530559802,0.5436345108730548,-1.449966345898373,-5.954148815330844,7.673363411651662,0.032499559139155136,0.02365885859381476,0.0168902884166741,0.6672658860281273,0.12368186083194793,-0.40536352894931843,1.4874195884970898,-6.019379534713686,7.947475808728467,0.04773918078421078,0.0336292507902334,0.003630908335392942,0.021847109980422302,0.4192508787107171,-0.8069198160683593,0.3050141424334915,-5.974749188102359,7.781534568379605,0.009985773198816522,0.005344287165366775,-0.0033669896518839504,-0.30376275845864037,0.4337238093027023,-0.41295870602585766
2.041336137414428,-5.982317973626628,7.40230201862196,0.0027592148373181114,0.00037133005153438734,0.009435771535722507,-0.5698427371670521,-0.09129949266433528,0.1994980579509408,0.09045163030018516,7.585823236167805,6.190228721520526,-0.02080086801436856,-0.003438577433697721,-0.009205130313107124,0.4232538535707349,0.3325959451388594,0.5426778823212826,-1.4913440036531467,-5.937581616615413,7.791374168150603,0.011020937414599915,0.010887421366969838,0.0061665821555802166,0.6630928083882225,0.12728212826866417,-0.41075909966940416,1.5120575066648532,-6.009108791670347,8.175116390777664,0.01643353200107062,0.01254692945243723,0.0025548440823954413,0.01856847179209837,0.42488582470123454,-0.8154116412145819,0.29857400663206046,-5.948842055370786,7.80818109442875,-0.0006901116796112495,0.0032496298040224766,-0.00626511276885524,-0.30937060122713644,0.4384392416960079,-0.41777628133175493
2.041720803470661,-6.025406609146454,7.368148519268823,-0.012196056922114446,0.001756097091254023,0.013350061106925073,-0.5754628609663488,-0.09199543830152633,0.19510358333494238,0.09605034098996354,7.582950226855649,6.231121026580335,-0.031894184360636436,-0.0031717634700652634,-0.007592348942171575,0.4152094959687865,0.3299023174951847,0.5437262090304757,-1.4489106218317864,-5.934380453801969,7.743470555532718,-0.02859608389517937,-0.011272227004033235,-0.004249850612598846,0.6711029516399184,0.12907689249193388,-0.41817539992426034,1.529688394722598,-6.00688350800178,8.138235090680055,-0.03327325687715775,-0.012903169975752804,0.007283309849478159,0.025841120996138518,0.4253734533021847,-0.8194124846134803,0.32824805048389305,-5.957025959004665,7.780175209318816,-0.014695212500640192,-0.0013538142247661667,-0.0022240059815227618,-0.3003932507706434,0.43690378480663694,-0.4227396021880151
2.074367604809182,-6.061890806029749,7.3894403424444945,-0.017878835191428247,0.0011469763097811956,0.012939678339995464,-0.5735215659106995,-0.09395927217927208,0.19436943620559466,0.10461644939557264,7.534668799255888,6.23632660721195,-0.02707794214188639,-0.002993616156086748,-0.008534922241629952,0.4127710792418803,0.3281781416498141,0.543275065461105,-1.405974169354807,-5.947674245452631,7.615818183857762,-0.0457425060351702,-0.018439781849283764,-0.011641078814836815,0.6635708147782797,0.12556688618180462,-0.41098109398133603,1.4718785899770994,-6.009087476428045,7.797543459289639,-0.05659654218475166,-0.031081128714812143,0.009752427007822495,0.01855963532968854,0.42268977391856793,-0.8159038158552139,0.3319766573416021,-6.0042131965468695,7.8125961573314235,-0.02299984475399108,-0.001049303654942016,-0.006583713248010904,-0.30642618801611804,0.4376656898593639,-0.41511856381501144
2.0512035543242226,-6.080394652168592,7.372779572048133,-0.014308531806270453,0.001646675885350603,0.014340395325009409,-0.5659979951875684,-0.10157330576683045,0.19607011404151137,0.10295614724936633,7.533163185077803,6.282737888553129,-0.014225523736924223,-0.004340966026144588,-0.010193824128856842,0.41790270212025366,0.3319318942507582,0.5478349428766789,-1.3954452783228304,-5.9195384087947645,7.484519725183647,-0.03706754251001019,-0.0159718051857987,-0.006929198826378242,0.6645331032100392,0.12722467611253366,-0.4139438682757559,1.43525810602858,-5.951926132934709,7.438813002636719,-0.04516548782125254,-0.02224866853222364,0.009181456551742176,0.018819864266726966,0.4200006831031805,-0.8144473034155394,0.32548275644659996,-6.031797407080382,7.786302926883098,-0.018486023913771445,0.0029584643673192705,-0.004385066641086831,-0.3055247602896116,0.4337683318949858,-0.4195363268180918
2.0672420209320985,-6.093759376078752,7.349040374827646,-0.005834373391698287,0.002055392366655451,0.012429028535864639,-0.5676987216194965,-0.10009650936135671,0.19411877681270623,0.13880546465420174,7.5122181847490825,6.2827562960856875,0.0029405728235757243,-0.0017425889253242224,-0.012578987292567923,0.41767578917624815,0.32606893251362973,0.5476878640379211,-1.3845508841235306,-5.950281296886932,7.396723280040447,-0.01054693361244005,0.0005288304167818098,0.0016488807613253018,0.6662856180138924,0.12730296934177268,-0.4083428444378732,1.4131066820414662,-6.009957324621228,7.288048183146939,-0.006997383293924322,0.0026174586118794126,0.00536335654725724,0.022038740942399965,0.4231651042283625,-0.8113101465993586,0.3403596640193801,-6.016603020903901,7.778054426910927,-0.009016940685787893,0.001621535550670272,-0.0040553786662771,-0.304778784585911,0.43375388209583315,-0.4178334420736675
2.0937990170324197,-6.124608546748173,7.36583846228237,0.005480791272096305,0.0012203268964900303,0.007146971617224738,-0.5615803777992895,-0.09769177887734076,0.1943636710694363,0.10256434827997452,7.567680193917955,6.211570996424159,0.011770083415472183,-0.0016570369074832766,-0.0152640129088017,0.4211075533330967,0.32267786957467315,0.548709462743776,-1.380750058824509,-5.949149861304092,7.452133536920995,0.022039132041164578,0.017915064723854065,0.009886009802353657,0.6667229648579999,0.11705532938132693,-0.40769832370195896,1.4552439144354077,-5.98607046633203,7.444605213369957,0.03076161894858627,0.024595730660623857,0.00170205344570189,0.022499875426441135,0.4134009597447874,-0.8125551917758469,0.36281733896920504,-6.054283185029691,7.800289552597586,0.0028214035504312424,0.00268379062096908,-0.0051862583727011104,-0.30480889184814286,0.4283710420121772,-0.4149254071380887
2.067700966129861,-6.044229906637654,7.381288442090487,0.013012225478420597,0.0015360292725122796,0.00925071608972664,-0.5662649403892178,-0.10522792549363207,0.18947490828946784,0.06610017709192374,7.600691532417062,6.199568004752669,0.0028520100110186603,-0.004256108405360667,-0.014625321197801695,0.42473782714844427,0.32971930022632384,0.5456499022518758,-1.4085470121905945,-5.93066452140099,7.590157986324825,0.03287592253214698,0.02295661675902205,0.015218064746861163,0.6679382282051328,0.11703728607078731,-0.4084395891308438,1.4721893236753347,-5.994979468626983,7.763518674228542,0.04557309745158912,0.029994145282636223,0.0018051413883881117,0.021772802353054635,0.4129128102348,-0.8120585512601262,0.3384643416890828,-6.0021078626414575,7.798420003411754,0.01226320459206636,0.007987201318610063,-0.002316685397095647,-0.30507075065634154,0.4274006065742157,-0.41590432441003633
2.0424251207600603,-6.00621505778529,7.392454491775752,0.005982241324173139,0.0004983799206682585,0.010490227127857143,-0.5767239248964688,-0.09832358942324879,0.1821591948926562,0.07206547568209283,7.6036043550062296,6.222883650814791,-0.012968127667014797,-0.0023411514590447363,-0.008643048574306294,0.4198415227656156,0.3343470274752768,0.5458339943483691,-1.4685112349754272,-5.926548028648445,7.7177836694698305,0.02066045863490664,0.018288313857025607,0.010453977867885355,0.6721211476657825,0.12094307029835595,-0.40706776685613216,1.5029522452572792,-6.01964891757975,8.026229390315857,0.030452631135067423,0.022359465914892202,0.004098993895127901,0.027652870514262688,0.4141246332528697,-0.8106682457568555,0.28608959480640517,-5.953392591079372,7.767406032195416,0.0030177230553566432,0.006037313861942536,-0.00353988614132792,-0.29796534799902685,0.43050628392558815,-0.4166818340669529
2.034884248398629,-6.046134729130763,7.381722445107105,-0.0038056523289913846,0.003222286467747434,0.01148365400343524,-0.5679327349997366,-0.09838566540495275,0.1936323493312615,0.08382694861493045,7.5931013465572486,6.1974948197670505,-0.0219818885030891,-0.003624536773696575,-0.007352740578442874,0.41985648105550355,0.3341708557855869,0.5499884577054487,-1.4799166871578817,-5.9493281868188435,7.760977037493698,-0.009361308181688338,-0.00035380533007177124,0.0018264687010369986,0.667255597193589,0.12704228368101134,-0.4090784206590963,1.5139960443420635,-6.005273244776496,8.133607719084882,-0.009004841317873118,0.0033474015123342656,0.005510123860236481,0.022951673525157965,0.42414948787945,-0.8162026530047515,0.31173632995319894,-5.979203742449997,7.801327707128015,-0.008483181349292082,0.002083533539352222,-0.0058639225084765045,-0.3008104672359876,0.4393262472888821,-0.4171108851101047
2.059646309005471,-6.0262236791602914,7.39208514087493,-0.012205536318294907,0.000729944283151839,0.011317147543717808,-0.5698782048249889,-0.09715547094089418,0.19509784369823546,0.09809795695325826,7.568199111148218,6.234665992060114,-0.02875354902674046,-0.0039233816767404684,-0.007780669867398932,0.4276795848359136,0.3300327507864755,0.5492971601882652,-1.4294462909242198,-5.9304120910748095,7.676138342903201,-0.03180148268803059,-0.012932951297599495,-0.0079276245860163,0.6672608709916938,0.12874342440640216,-0.4095940701713333,1.473451656483009,-6.005254274285654,7.975209860345394,-0.03979661828820151,-0.018575398612108242,0.00959514487772183,0.024242194934984505,0.42047531597935733,-0.8106112019105051,0.3063186743074559,-5.989401876831219,7.809240226476914,-0.016221552697618963,0.00045983237205532933,-0.0034889967423287886,-0.30323229082156433,0.43983266542232063,-0.41537981775310545
2.067432407706752,-6.05092699418504,7.357193517484753,-0.017911218539434507,0.0021953470776868078,0.0150056202684564,-0.5733044825274392,-0.09885189361445731,0.2036420347786311,0.11226649887381332,7.543463990634569,6.271559705806777,-0.01937618137960042,-0.004086851348128434,-0.008996233389765225,0.4208310861997366,0.3321805950077349,0.5475757602836864,-1.4159178698471144,-5.934874862287964,7.5451440394191955,-0.03986722430375436,-0.0161312126293964,-0.010014446485919211,0.6760387162999708,0.12843272621665427,-0.41087756359899436,1.4563528161123622,-5.984384850051424,7.65565948903578,-0.04636443979644091,-0.025923882213041316,0.007895968488194894,0.030545101713086185,0.4187655913665757,-0.8138715046410824,0.3383904542604082,-6.007037980717271,7.79462599268346,-0.02091010947341671,0.0010109189329429535,-0.004906258525673713,-0.2957286775929924,0.4346359695171668,-0.41692808071053744
2.077545177551338,-6.102807061009209,7.393688225202313,-0.008578968939519625,0.0012025134472394617,0.014737829702638235,-0.5706250348264071,-0.09984045735842129,0.199978605000192,0.11924655670830084,7.519565262535593,6.27018968504839,-0.0039209971575786306,-0.001378850632128062,-0.010968297735954306,0.42038432519923435,0.3261862434186949,0.5542695910729581,-1.383369639782257,-5.931073099010741,7.454141259908737,-0.022754660565253135,-0.007531780742176563,-0.0034864174179079785,0.669453698575873,0.12655003602661422,-0.4085997354181068,1.43617168971927,-5.9749249897003285,7.388174078178208,-0.025119306039448553,-0.012005236446269307,0.007304049011725655,0.023271185543489593,0.42291789519596895,-0.8103497128434192,0.34260622765959636,-6.031202030579762,7.787518797534194,-0.01240087339626826,0.003641809263943031,-0.003323169314793459,-0.30253683231727857,0.43640852151415804,-0.41564374949619237
2.0726096707417545,-6.097472054562945,7.370325978483495,-0.00021645000494230533,0.0016464825164693706,0.008789515442748887,-0.5679426672627387,-0.10034659375968635,0.201442606775018,0.11000203155901522,7.54433627791258,6.260093358886994,0.005068264741850912,-0.00425989993544242,-0.012546546897315157,0.4206038389074316,0.3300317323743836,0.5505425755882051,-1.3794472269933893,-5.943439332215542,7.445333331648459,0.005355320407457438,0.009556940936085112,0.005887272736815455,0.6646203042566757,0.12281094772874543,-0.39946951389527985,1.420023783737895,-5.9813308947611565,7.362529331839664,0.009911529210267266,0.012259121203841995,0.0036119647040814607,0.022103287116762228,0.4177837276371573,-0.8059489298741177,0.34326192685614276,-6.023048675617508,7.78469412349581,-0.0028188686555274704,0.0027051646276558343,-0.005550856225859612,-0.30375529571732396,0.4312667461411204,-0.40906279766868486
2.0659457388468723,-6.071250647576049,7.358386706297643,0.008051484296778258,0.0006039417613801543,0.00850489788107971,-0.5664470541645933,-0.09497976175781661,0.19632008291227587,0.07807155473469378,7.591564177630408,6.223134667094475,0.008241545062294839,-0.00013849884665919937,-0.013807892636301805,0.4225639299861455,0.3266038883999381,0.5496155423363723,-1.4018209411213527,-5.949006027459592,7.52561202207861,0.024634100000290475,0.01903185400773248,0.01285389793813713,0.6675194427716555,0.12442385262508625,-0.40464496012399487,1.4464541416106051,-5.994865215881934,7.600078223989301,0.03687703536972997,0.028478990888101394,0.002211359838452973,0.02157592233451542,0.4207193882602638,-0.8091106099800721,0.3431967566435964,-6.022938369596401,7.784782120229297,0.0035595034093018224,0.0047826187184773885,-0.0032555304748747792,-0.30275794065137374,0.43468181394055583,-0.4107658915585461
2.062549605956362,-6.060991145442376,7.37941255320946,0.008352087843948319,0.0020119515639628297,0.009900092098119,-0.5684280356499664,-0.09935302268156228,0.1860625850571726,0.07431003529288943,7.585410988148267,6.207025211278533,-0.0013536882781699162,-0.0015141462979114096,-0.011579930959814336,0.4211167117808346,0.32495143901204,0.55331141104165,-1.4328578504528395,-5.930838434310294,7.635888368405964,0.026359385647232465,0.0215597828683757,0.012005950939803504,0.6719154551366531,0.12198979397607386,-0.40268782962759053,1.4865622526360458,-5.993638410407163,7.894284164538261,0.03462701998603079,0.023023821063644218,0.0004651811650495553,0.0262165986777214,0.41680743458216485,-0.8086910357935257,0.3340215881799647,-5.989643592396707,7.796521134663511,0.0062789531819930425,0.005347418585018511,-0.0037955471825466833,-0.2996288904565024,0.432218180111886,-0.41324292087533043
2.057573566844432,-6.0213699232266045,7.371366881771665,0.0023271489429968505,0.0010501583549134288,0.009135464696812865,-0.5711198958105211,-0.10056381396979318,0.1924100581238632,0.06898770702576548,7.596078344588106,6.204074219343202,-0.02019416795184334,-0.00438408276417694,-0.009822625822537984,0.41085300376443484,0.32313906217932525,0.5489809595674585,-1.4592029663909154,-5.931338068130823,7.758393273847561,0.005728837397214142,0.009088797982528301,0.00524157603293801,0.6699444014874996,0.11858286049290019,-0.4026193843692544,1.5189908936254999,-6.000799010542562,8.041533728171835,0.011746140589163984,0.008860552006764888,0.005450478914279835,0.022801826752987205,0.41656666158289385,-0.8084026661264851,0.31780682526053206,-5.980113094412029,7.784868374190962,0.0013968031134510043,0.005317832283881653,-0.004575601256967178,-0.3030656664814416,0.4295636488262689,-0.412249664006196
2.0374469383745484,-6.011681430653346,7.393177636162404,-0.009330669133435216,0.0005043517717532954,0.012023359755604448,-0.5652876579953503,-0.10548630111243668,0.19801948201565475,0.09031973270419631,7.571127519604327,6.23398898803834,-0.024344519637828025,-0.0026518241019990643,-0.006398637240496012,0.417163097314934,0.3316452607393773,0.5453998761502623,-1.4627439960266841,-5.93268256686411,7.729800392683279,-0.020765373784334733,-0.007141791884059601,-0.002303763286807965,0.6620958473370436,0.11661922288564758,-0.40594633523975787,1.484456602105692,-6.018481760487686,8.021710957210058,-0.023874019437569796,-0.005898364440671536,0.009785737264997513,0.015188194734979265,0.40950053442764844,-0.8112466736019093,0.3097683260247434,-5.939393518386891,7.793207716513312,-0.013919075531092572,0.0009569159192726058,-0.004786901532639114,-0.31169774864828526,0.42454108377954347,-0.41659378506991795
2.0574346908918204,-6.0746404110136005,7.387498434871264,-0.01575292344005797,0.0012574899650616312,0.014003343210799392,-0.5767862923479364,-0.10957136328528293,0.20119219001821478,0.10918874137254227,7.536765048526093,6.2621059071844964,-0.02187265270014433,-0.00462469168010258,-0.010452983101625055,0.42300624855954805,0.33183399377650125,0.5409821146839466,-1.414260632177392,-5.931926940192125,7.6025919174185,-0.036095134492742494,-0.014187303529078118,-0.00671054502441038,0.6660156934473518,0.12701082654376641,-0.4115106735547845,1.4821411100551058,-5.969624404618229,7.809348153016362,-0.04098518710485265,-0.019134546064359458,0.006710406536948874,0.020033924510677988,0.4234187723239899,-0.8151896893008066,0.3334084564513307,-6.01255786546754,7.797038112534155,-0.020692450149963078,-0.0005522288767493702,-0.007891658891448428,-0.30477431929799104,0.43399685521511583,-0.4175884601875823
2.0653557109006546,-6.076633134566448,7.376218036613153,-0.01122895646121806,0.0018401451722902169,0.011381937732080872,-0.5689484479820013,-0.10521839687114835,0.1965554676744901,0.11411311767309701,7.531180117522664,6.272056033703162,-0.010637585841128514,-0.0033448342942993827,-0.009649536310947844,0.4225671145777713,0.31918787117660014,0.5441226488000355,-1.3921396320381518,-5.946543603742533,7.505625428049781,-0.030444814851234216,-0.013107931130518136,-0.007464357450689388,0.6718559819316926,0.12597550546565486,-0.41324913025107973,1.453128865164532,-5.994260841786314,7.530398674662177,-0.034141784745808666,-0.016268023148057247,0.008745327794036108,0.026849837242351397,0.4231702096985809,-0.8167447479027449,0.3417198817032821,-6.025108116409097,7.80138495110778,-0.01440602124721462,0.0017609725510285684,-0.003089493566804253,-0.298918802370994,0.43663899334369244,-0.4212877504745391
2.0776037171189534,-6.083361571341419,7.35943553142943,-0.00261783856038555,0.0011542735484223327,0.0114485681570741,-0.5752445875286933,-0.09639167033569937,0.19607662064569917,0.1086284486257937,7.542733558889939,6.2680457608926785,0.0003965487282891253,-0.001917657918513913,-0.013017440540046773,0.41306176917584875,0.3234503123147463,0.5526307633581493,-1.4038229932789361,-5.945263919859268,7.462810673463584,-0.007814935513300297,0.0016728469843089332,0.0017358432792295348,0.6720506519577661,0.11331517017832415,-0.4108558327364951,1.445965303423398,-5.9766032126897635,7.391494608890618,-0.007584353545871937,-0.0022086311250512623,0.004700666744694263,0.023475749376196037,0.41047043898388313,-0.8123296455409,0.34242301141786796,-6.017603281155007,7.798069175721323,-0.0074277535667322675,0.003436649922790736,-0.00504794257693949,-0.3009665119108924,0.4234561566933373,-0.4166864365871517
2.0549561004557524,-6.076100085299965,7.368703632041015,0.0040748557016871915,0.0018172186943298284,0.009857791853524074,-0.5691529660023825,-0.0983817265871175,0.19729460352586567,0.09134467751197671,7.564231865452792,6.235207934289587,0.005232611305118333,-0.0023883069674036847,-0.01255712844399542,0.4118142739014179,0.33049732282655336,0.5508089841764828,-1.3960965972337311,-5.9325377303893,7.4897633095262615,0.014589253521095358,0.013538985162423162,0.008349859188566726,0.6589354531571575,0.1181126825058616,-0.40521198042733275,1.4485063962097997,-5.982821394468753,7.496382464602394,0.022775335046083492,0.020203590295930395,0.003771539963042706,0.013746102057533202,0.41560274309677375,-0.8099948377228469,0.33936529783525604,-6.020302780391786,7.784342509100567,0.0015992974504633387,0.004174827271477319,-0.0031259459237598314,-0.3096572936489159,0.4306109241505265,-0.4134122244047201
2.0534642100564056,-6.075598013739124,7.36953338452467,0.006290686233360593,-0.0001790540826842116,0.00779655919934439,-0.5696623678663061,-0.1017913462298244,0.19118766586177424,0.09986293376227098,7.5760631318857214,6.216402006632399,0.0006704923693265484,-0.002047676269369053,-0.012283118328768867,0.41523373071271885,0.330019652690086,0.5508051951958263,-1.418983087284529,-5.937323437076349,7.570563879949126,0.02381374814171518,0.01921410460989613,0.010991141500450483,0.6602173118161649,0.12499060793320077,-0.40215573335055876,1.4713347307566502,-5.995064307987569,7.744133019036461,0.03282389562433215,0.02751319422091581,0.0013166000930856603,0.013570838767493126,0.42267501760551485,-0.8053394500856917,0.32978161641362347,-5.997051132094081,7.797472265071208,0.0038759008741051587,0.004038892042377791,-0.004364262306980209,-0.30982038603959255,0.4352348785241946,-0.4092405215363055
2.042874176050193,-6.0430103264269786,7.364328591311373,0.005208914899995004,0.0008075284171749449,0.009837660312293007,-0.5750622303430184,-0.10664192237721165,0.19045244462228864,0.07916961356743767,7.584384158495407,6.196788128497899,-0.012115002928317211,-0.001392339127662443,-0.012684271946014307,0.42350170667867826,0.3410370980329359,0.5510823441515074,-1.445791864582164,-5.937381517614665,7.693454557140103,0.014016648424352225,0.013485822492048207,0.009744345163276543,0.6655636267788214,0.1263605339121794,-0.4063692421178686,1.5017770474593912,-5.99450397627659,7.972794742801379,0.019158198863350965,0.016179701965593513,0.002669126002433636,0.019585682395441697,0.4187737011134551,-0.8117744907040646,0.3342147309862877,-6.007844466230337,7.791565815849486,0.0013958681855513401,0.005321829651745963,-0.004572576862816311,-0.3069584664291043,0.4332768553716795,-0.41513240327962975
2.0453278446295724,-6.0270666966772515,7.381381308599421,-0.004102103812376519,0.001803331603106616,0.011122449615157758,-0.5713437711747419,-0.09739452424509588,0.1992489316028964,0.07565420883100395,7.576596211698211,6.227092569017782,-0.02206116390357437,-0.002674427334830287,-0.007762273806710238,0.42156489116290624,0.3349169696461725,0.5504583119508977,-1.4473993255037565,-5.942650566006269,7.728380510418896,-0.007227641005300493,0.00026224010391004236,0.0012052027324894845,0.6743707667174257,0.1326295053176373,-0.40848870375219715,1.4942552941067526,-6.006261805512928,8.034330119245755,-0.0050133234422168865,0.0006177626635440001,0.006662567699862392,0.02740268522630808,0.42877616660458867,-0.8123457733319365,0.30996996848089836,-5.957590705243579,7.788308345551378,-0.0056053511620883885,0.0030111325099174365,-0.002561572048058121,-0.29589367699770613,0.44146895167753547,-0.41567731974515393
2.0534086215304472,-6.0281110230280195,7.370861723381772,-0.012935349319837605,0.0010540320706354997,0.012691586006793976,-0.5684149188985537,-0.09740702146267555,0.19387732019068313,0.11360122427567801,7.559892364684813,6.245655163981705,-0.023060468779067037,-0.004149519024278004,-0.009985725239401957,0.4096007733707773,0.33140689649741245,0.5471389612694517,-1.445608891255051,-5.933848847868231,7.67037854062459,-0.0274656289213741,-0.010722511281508966,-0.004976309955307397,0.6689923434388266,0.12733026450249643,-0.4056788787008159,1.4840872916485566,-5.981164881413427,7.884512906914349,-0.031472040060339115,-0.014981799941107777,0.0076116822690540775,0.026966762718552847,0.4216877409807617,-0.8077143550024496,0.3055675373559182,-5.990545459007842,7.7785233504299365,-0.015140105740695714,-0.0003338835451994004,-0.005023238092983219,-0.3007985309928043,0.4371121530971929,-0.4129689949091907
2.060355144932912,-6.06294851161898,7.375230254861991,-0.010871541035867818,0.002199821587894225,0.01275418592019407,-0.5728424128293764,-0.1032486942111277,0.20363802139461915,0.10044657097372109,7.5388353496155585,6.252068083510165,-0.01579020944900004,-0.0031007076289609175,-0.00845077314548281,0.42131120557807106,0.3311536130044789,0.5444176845487592,-1.4107110599783619,-5.940278682304412,7.558544927420388,-0.030218143844730923,-0.010182454077497585,-0.004888350799482724,0.6589381191956194,0.12391377252172255,-0.4089650421801044,1.4647815840798306,-5.999289542374104,7.64957652172395,-0.03453164645381739,-0.016013796673988483,0.007289807354979658,0.013462407648422128,0.4202486063391583,-0.8134004291862053,0.325623492940889,-5.990587276715366,7.800046349729593,-0.01666833971123382,0.0014837497251218267,-0.006280196416045166,-0.30991227718421643,0.4333184630073738,-0.4180370911850054
2.066407873875935,-6.077418664806349,7.360837115174057,-0.00869734346363839,0.0012458828519031505,0.011737891275473642,-0.5684370148002373,-0.10131708597030183,0.19851184145153952,0.11863787102681553,7.530507936636618,6.261313147082498,-0.006637418201027822,-0.003432883644117096,-0.011417022707808632,0.414710365053816,0.3365404727168964,0.546548309060982,-1.3930055445008274,-5.925300573668312,7.49804970274637,-0.016662568334638913,-0.0061695820178588896,-0.00173769048406235,0.6679523613044427,0.12358649745095736,-0.41122826095688475,1.4419344686781517,-5.966613651367745,7.473761060709388,-0.020010663725653407,-0.00616442246761578,0.007066286995273584,0.020306623030894082,0.41950779384401893,-0.812758617963664,0.35066416083239454,-6.0344884384454325,7.799061462275195,-0.013282634016832329,0.0022393279671898813,-0.0047268054572036184,-0.3030893458642358,0.43301082437365923,-0.4193154650246443
2.078645614870221,-6.083697381413992,7.344446013102577,0.0002589400991885449,0.0009136695056300402,0.012154766598314999,-0.5637624967681365,-0.09498951376591015,0.1894835232158008,0.10379101007889413,7.560484182963312,6.23145090213751,0.0018263830479987404,-0.0018624217431330238,-0.014173415791992,0.4281496034763727,0.3334153205409941,0.5470421698704507,-1.3948677344162912,-5.943210926067478,7.469285116852316,0.0029958593855010534,0.007939881098169592,0.005160698469125523,0.6616373442721873,0.12730910661415476,-0.40952803453066916,1.4365727418202545,-5.9953701544881906,7.472911727803446,0.007234621002926991,0.009691090919132011,0.0062103539948319105,0.014687438616332288,0.42488627489420216,-0.8134075356071027,0.34169187497581854,-6.000154193330705,7.77257250467189,-0.0024000965511343066,0.005549724544403128,-0.0025053638511167782,-0.3076868337221034,0.4357352082216621,-0.4175573225260112
2.063050320089657,-6.066464930803679,7.39371857796042,0.0054763146330966015,0.0022166251218200643,0.010231861859341546,-0.5676873934686305,-0.09839297961217207,0.20022329547240753,0.08344055900197513,7.545763271356618,6.2270088916204305,0.0012991518409513913,-0.002943592178888509,-0.012869506384416576,0.4252171644188247,0.3311653385965634,0.5444041182364786,-1.4156957268391395,-5.926908046675254,7.542004591143295,0.018124975160834167,0.01593695643328159,0.009463181814951515,0.6794731359253919,0.12482500577011364,-0.4062092526607498,1.4422975217564091,-5.993414058205712,7.6414642162425555,0.026688252777584087,0.020476849664910212,0.0024216028742222767,0.032563591785943875,0.42217249661088174,-0.8092519964982066,0.3314349181241428,-5.9871692815972075,7.78691224143433,0.0013051857899051044,0.0027867028786989407,-0.0043533419483979,-0.29228999455401594,0.4350814730160834,-0.41500039567664077
2.050213386815019,-6.0471159835009205,7.384873441818024,0.005515942136391947,0.0011733011142760384,0.00918892337780735,-0.567915306302981,-0.09545736999328114,0.19436695618020344,0.07989436189632745,7.591123167963786,6.208008570389593,-0.006902533350944451,-0.003977022586758586,-0.010768004396521742,0.4188924192544972,0.3255563442469587,0.5459829503974187,-1.4479280604738838,-5.933330437423413,7.644480529682722,0.016940700725633355,0.01512737309769661,0.009094945634120657,0.6728433036907406,0.12792293622366294,-0.4132871721605286,1.4933855699138534,-5.982317825965071,7.855157078904192,0.025166595404485688,0.02051227685140884,0.0035977426420016273,0.028789048784524644,0.4224369859760808,-0.8177477013251255,0.3271164243313517,-6.008054958764177,7.777321644391459,0.0031845890927048905,0.005992944332014568,-0.0041094649948624105,-0.29751000745929146,0.43346261172252,-0.4242426274082605
2.062915197162725,-6.029672781733162,7.392935399457468,-8.926639770872272e-05,0.0005530272674780541,0.011806516097124752,-0.5686743058424438,-0.10009249254590338,0.1960719804091421,0.09082326817690856,7.583275876401158,6.223911489481427,-0.015588349409669784,-0.001577901432194869,-0.009478848440202272,0.41523906523614135,0.3332660397903585,0.5551469970496702,-1.4445733245315993,-5.931584233228999,7.700358732970488,0.001400569973727866,0.005415407935364592,0.0031401470733521597,0.6686991014954473,0.12264373656348021,-0.4087769831276329,1.5037012306870734,-6.0163066224472965,7.965221659026507,0.003405447282949795,0.007855669516444407,0.004468898885794566,0.022493501101171067,0.4163323702170486,-0.8132825025836139,0.31638725788913735,-5.962282960495095,7.808042999926501,-0.003382424099112982,0.003335796102836699,-0.005774619950614865,-0.30433642090324914,0.43082725346634493,-0.41980230271813207
2.0494936031228335,-6.034638662515537,7.35919969956131,-0.008403708460035601,0.0026589258377072425,0.013142091405415612,-0.5713719360685806,-0.10202995922533033,0.19533780397997558,0.10908439409796328,7.574020812408386,6.234319854366705,-0.019089855960465935,-0.00459072248064624,-0.009338912009134281,0.4203646785645864,0.32955926071407976,0.5515283655560076,-1.4589348708256231,-5.934088655746812,7.6800031934321495,-0.015902076256955774,-0.0036796470962744787,-0.002656565821665673,0.6663119544712023,0.12590669618116387,-0.4039266029757269,1.501917428434306,-5.996880806618625,7.952827547161855,-0.017485340594492728,-0.006276081790041141,0.006473880649139178,0.01917597392899235,0.4199838925334606,-0.8059062575202635,0.3164164204239523,-6.0059081458441,7.792381079296788,-0.010656174008750132,0.0030368936994647415,-0.0027619864506165646,-0.30715019824748924,0.4354609790618388,-0.41145861006063883
2.0548054487491485,-6.0596243224913255,7.383779354575498,-0.008666673282894813,0.00020960646435598673,0.010700960907210974,-0.5701287497138965,-0.0983768389346011,0.19827080753077292,0.09695529666068353,7.555645257457539,6.227083869733957,-0.01864946818241237,-0.002862874709474095,-0.00859894870964133,0.4256965916593598,0.33706542960763836,0.5467460316810927,-1.426047670747902,-5.928308773482627,7.604134229124865,-0.02665837241274701,-0.010925657267855179,-0.0031111256111980468,0.6667977518445813,0.1237263892172439,-0.40267518120226287,1.486097169706931,-6.000042193998547,7.760556117803166,-0.0327594940662781,-0.015276589544220905,0.009286153908852162,0.02474106769611137,0.41876390451043816,-0.8096449732873224,0.31814373712524346,-5.979531941545622,7.78547904410285,-0.014606500049625652,0.0029079696698824336,-0.00454214901773705,-0.3011033388561517,0.43248297157483045,-0.4146947725888064
2.0778000031602613,-6.075611229750636,7.366893402641522,-0.00955642119935485,0.0026494316965360977,0.010102317038477412,-0.5781651025532222,-0.09466258705235372,0.1929047568417575,0.11936552158762503,7.538455036438887,6.270958332067459,-0.011265820839198967,-0.002107645267157164,-0.011525158100733382,0.4108545317704609,0.33206438605478555,0.5571352046817125,-1.39962673885071,-5.934818666154839,7.528750203813926,-0.019264913164808543,-0.005596150571081244,-0.0045168527248708795,0.6750975545236745,0.13164966525609847,-0.408479063291023,1.4669984280641235,-5.9889490757259365,7.586599890310009,-0.022579685022668713,-0.008421361046666824,0.006429577622111178,0.029123533939215296,0.4280404316013822,-0.811393694179585,0.3332092238787722,-6.01020365643045,7.79899060022726,-0.013564005929855983,-0.0008794684531036478,-0.0038783994604510734,-0.2961157785821578,0.4424412679336782,-0.41420639861054986
2.0741921754283785,-6.100497832749997,7.371885959021699,-0.0030276855874959863,0.0018340664350401134,0.012164258065954055,-0.5762592191504151,-0.10273292302234596,0.19509417520889388,0.10842658431420596,7.555480800607386,6.246856160509551,-0.0018192674116706406,-0.003223718150653944,-0.012359116528699674,0.42840802300483105,0.33175180988089015,0.5497552427834098,-1.4062382441284487,-5.959748613996908,7.479019780936635,-0.005457141655911976,0.0015768940337728414,0.002284118900924798,0.6641760940673258,0.12893961176157648,-0.39809643724761573,1.455850571220791,-5.969234042427931,7.509170495253228,-0.004115527916889296,0.002259658787703685,0.006200921393507448,0.01996588293843666,0.4231490663503339,-0.8017601366264908,0.3405223528474636,-6.031111070420935,7.805978073441358,-0.008526210196076536,0.0035953148002003743,-0.003468194657135127,-0.3083482321355582,0.4337440970127771,-0.40657368663926896
2.077995792087954,-6.084030968634849,7.359516854748541,0.002054755171520693,-0.00039483522227125697,0.009781232608028653,-0.5738265959816433,-0.10445956247943339,0.19875414101528915,0.09318174793481158,7.558906786371412,6.24674354918601,0.0004346481005840856,-0.0028930968448486875,-0.012680356961654716,0.42230216962293027,0.328251224038824,0.54592660918367,-1.4160774354159102,-5.943777244555385,7.528835641282224,0.010636212399157356,0.011096700793133869,0.00579624881347182,0.6755349896221268,0.12405619554994211,-0.4098292393374434,1.4622241198012498,-6.004379189015937,7.585746622785247,0.016520688713304987,0.01489440931873066,0.0038203518796292163,0.032288419113497356,0.4209570157675311,-0.811448929660546,0.32845378796672925,-5.998228751491487,7.766718983162271,-0.00029405780670496587,0.005474127569739634,-0.003157004015919573,-0.2935432652193078,0.43388295223897866,-0.41743717769117705
2.073808063546187,-6.054855741265211,7.360636715271276,0.003304570929151168,0.002133347586042395,0.009207230639629709,-0.5708992827921547,-0.10471562038154734,0.1928943126183639,0.101170402646046,7.594292813168778,6.212422845108139,-0.004449811227659238,-0.002110672225063625,-0.012121524441939749,0.41618721262534364,0.33239041560441074,0.5463680059451451,-1.4203084623479765,-5.936574883253098,7.599943953572501,0.015963836717420608,0.015061604065959891,0.009034545767209,0.670166728774754,0.12191911140169268,-0.40780092752269076,1.4718030182806958,-5.981536852459529,7.775418789216076,0.022619877006195385,0.018234266168143044,0.002985702016931195,0.023218222249035074,0.41559952380742504,-0.8137814739232123,0.3333509316808749,-6.003475957122357,7.795122188289693,0.0007615520080543664,0.004049384459113039,-0.004629648911237457,-0.301138163823725,0.43102919096239345,-0.4171426224928111
2.0635445466012023,-6.032845278760783,7.364543431316918,0.0016417684744830282,0.0002978941176175335,0.009465934257688597,-0.5740210352269846,-0.09565926977870412,0.18753202005883168,0.08836304849647716,7.577614304098034,6.203126762392034,-0.011532937059777,-0.002654839506456356,-0.010879082726506903,0.41937427955786427,0.33172063299539367,0.5495416512662691,-1.4455183120254922,-5.925955917323166,7.6663071245547245,0.007710150842327724,0.00944327184850354,0.0064528502836973985,0.6640624929773614,0.12484757413599373,-0.4099965434598801,1.4972804907005568,-6.010225511994038,7.910532864601315,0.012426947891608352,0.01211445344194193,0.0030296253732552607,0.018116027900466958,0.4202412264838188,-0.8122404080279958,0.3203859744893738,-5.99247021770493,7.796273397609586,-1.959874289411412e-05,0.0034593336504761337,-0.004163661199468618,-0.30793865321474256,0.43476070631957436,-0.4173152874336085
2.070435809674496,-6.023350831526648,7.374730491244731,-0.004928264847013823,0.0001057371848527613,0.010491104910610094,-0.5676728060036104,-0.09545228123455086,0.18704290813903526,0.09128490522882308,7.566948190082344,6.239924797312937,-0.018838771538259948,-0.004066053762135274,-0.010013563288493886,0.427895505673545,0.33782515625542975,0.5479470860424167,-1.4522056682360676,-5.938052940802215,7.680448846333215,-0.009195549412295086,0.0001314035986059612,0.001060498514997985,0.6665485775002052,0.12275084681242872,-0.4026580300357668,1.4996116024703718,-5.989652653989229,7.931687925093562,-0.00881615698927646,0.0006205581090357232,0.0047953111029152016,0.01889593780558497,0.41925735323194696,-0.80859022406494,0.32046316453663315,-5.9933722177044695,7.795576991336329,-0.00957761886831375,0.0022481785985464793,-0.00428918299940187,-0.3030539845281463,0.4315205831348293,-0.4132176808675918
2.0645860506887312,-6.051640292070976,7.366267466671952,-0.010244357820321988,0.0029532934665807246,0.011452728912772684,-0.5688770325183491,-0.0930090033973714,0.1936373345668262,0.08760314527603291,7.554877261266768,6.241376656527636,-0.01744529156492819,-0.0036947413956292816,-0.010134504143472863,0.4237624950525739,0.32922439579394286,0.5454174094442995,-1.4407708338641747,-5.933628920108315,7.635434248880974,-0.021783944667765624,-0.007453417593199506,-0.0034541705072433492,0.6731426449250785,0.13093117099746615,-0.4082086405448836,1.479837805664655,-5.997425614445057,7.821689694332162,-0.02474979815217288,-0.010364084264047557,0.008576486214903029,0.030108526547458433,0.42754895909235374,-0.8106745069059379,0.3257992048353845,-5.9972109468713874,7.785907823568978,-0.012624267265116012,0.004155778195675477,-0.004721260912856705,-0.2951956602195375,0.44049680867535596,-0.41861721150518666
2.0758700921061157,-6.069724419434639,7.387879052610645,-0.009160240533567376,0.0009358637577961796,0.011450709340212637,-0.5696474627185314,-0.09960287264989777,0.20071161746951216,0.1041312762418187,7.539141413543655,6.236113113784117,-0.01584495029708258,-0.0017874107934017385,-0.011271754687652387,0.4162169599978669,0.3246078465512513,0.5482061460449831,-1.4230820417527907,-5.934977962564066,7.561252708831627,-0.021152523638338628,-0.008157700453127865,-0.0008216891422934499,0.6733361042933147,0.121410144816849,-0.4080616339435185,1.4712212950659238,-5.987324345379142,7.661402199095135,-0.025294183433534314,-0.012067171424873444,0.006329138269419941,0.025674453258152916,0.41705998836117986,-0.8128337975453944,0.3211825889568105,-5.988365010604275,7.790371638460739,-0.013076282676193136,0.0010903245931716838,-0.003287207120614135,-0.29821981346617155,0.4302688051396962,-0.4176577706183138
2.0746922607509313,-6.060986804233828,7.347984064593336,-0.006436996585836973,0.001789120845855863,0.012228914160825858,-0.5667456786595271,-0.10425559222321422,0.19679987618883082,0.12110428826871776,7.556554075925311,6.2712694736713015,-0.004980082751107246,-0.003190017678015031,-0.010827636307434585,0.42157178953832475,0.3332162995685304,0.5509745470711962,-1.4032422532002187,-5.935377972106409,7.515165932989144,-0.011359741670264477,-0.0007410732548453931,0.0006228399600296461,0.6652742672491807,0.12240689043215243,-0.4094798083517633,1.4481964882851426,-5.9668134150771825,7.52836830563991,-0.012764391355573886,-0.0015059141353775535,0.006274138740785119,0.020793727647488373,0.41584480290435705,-0.8125280741100325,0.3332237383498012,-6.020644649502575,7.790931816013871,-0.009599542233303265,0.0016151445082302986,-0.004235627359501835,-0.30407913278592014,0.4293467045988328,-0.4163924150549399
2.0882459753661586,-6.097110361028488,7.360292103983585,-0.0006683084460430164,0.0013064827522350903,0.009530304960443804,-0.5725913666576667,-0.10177385004948962,0.19094427941210856,0.10044955697561214,7.565389387438029,6.251117863321683,-4.2840533284570694e-06,-0.0004446138904254514,-0.013134497673505746,0.4235405593982044,0.33305103428834315,0.5553661757697537,-1.407052321968812,-5.942097724815045,7.521621289564376,0.0030102496433924803,0.008169418639321168,0.00622116791125005,0.6714423055064331,0.12902578224963096,-0.40572434777207605,1.4686783611817014,-6.0056954801030935,7.556648822112743,0.008010243680518569,0.011223883739955295,0.004831019144101939,0.02500940759927781,0.4233997957072359,-0.808174399077083,0.3346440121353556,-6.002619646644347,7.786686762971223,-0.0029853529818560398,0.002773462198651922,-0.004964180496957388,-0.2988301112717189,0.43683941861960607,-0.4107892027846115
2.0596403994223094,-6.064316245060654,7.386381186351675,0.0038412329949990254,0.0008604720138744998,0.009978986821890766,-0.5738304218798446,-0.10494341976935666,0.19411570857690105,0.0882268044130093,7.580732740270317,6.239438747402346,-0.0009699216300847891,-0.003257774680997632,-0.012579490973777295,0.42255093275018146,0.33223832729400865,0.5507433700806854,-1.4164816535555835,-5.941815562613641,7.571827710023504,0.013230159568900503,0.012212464449942286,0.008762160569193324,0.6714606842806933,0.12471516109887021,-0.4002844381666441,1.4549727301061448,-5.966611219259585,7.686883721245569,0.019951009912027858,0.016406605711539422,0.002783171305587923,0.022618523313811607,0.4221738854479322,-0.8042390497444766,0.33397527162513674,-6.012459508749569,7.788168489288787,0.0002496592630005272,0.004216429096077719,-0.0028766768901194407,-0.30175605089724095,0.43514983504562255,-0.4083310759257361
2.056744911607008,-6.034238679455386,7.3583525751200725,0.002799880266438245,0.0008046364456145124,0.009954149671569065,-0.5689147309826927,-0.09935580209500687,0.1924106846096342,0.09124860168256099,7.570283646769384,6.231779477445589,-0.009329462924462684,-0.00200353277407927,-0.010186319942170794,0.4130277892361579,0.32873558188981555,0.5474155413223636,-1.4456942539387527,-5.937230626194199,7.631703074931644,0.010271338986782178,0.010085186922280217,0.007311086455601284,0.6675245261701899,0.12467543001025895,-0.40416084962180665,1.4824094522166966,-5.995627682475147,7.863480101911449,0.01664401324130777,0.014986486438997849,0.004750993521033787,0.023744078178389486,0.4199892628663466,-0.8113386694823816,0.3163747522822949,-5.980576971857934,7.794039600701095,0.00031551639075694135,0.006122522654282725,-0.003035315429236066,-0.30207934056003155,0.43298379308327756,-0.4151736979386265
2.0553163033321984,-6.044846925728319,7.367885415274505,-0.0032830949212817825,0.0009134462217869341,0.012288489684975812,-0.5723167320023326,-0.09665112146209802,0.19290179023609152,0.09208038508087203,7.577660381286726,6.236074992459992,-0.01519838915916743,-0.0033723222691203147,-0.010466586190334323,0.4186426428133885,0.33271148858480265,0.5505048723598243,-1.4321332917344645,-5.935295344046113,7.665020672730723,-0.0023224422617825176,0.004200449477210855,0.0029769728131250305,0.661844758469206,0.12022874217254788,-0.40941920565167117,1.4978932777609397,-6.003759637711329,7.921713312346321,0.0003326034610733046,0.004984426399205286,0.004280652217663505,0.0176111947133225,0.4165816530762269,-0.8132179472484898,0.31330366455455033,-5.9832791659593285,7.780271030978467,-0.006507005057613458,0.0009785968402658283,-0.0039116568617933,-0.3072672826985316,0.4286496987515565,-0.4173461602953363
2.059871348823565,-6.049302182968902,7.373846516556298,-0.007381864002503086,0.0006666494923410818,0.01113410612949735,-0.5701296967230801,-0.0983727049097305,0.19363280946986214,0.09879774476594144,7.57728429153518,6.219133805950181,-0.01899185096395758,-0.0024446844655130417,-0.00834667118238779,0.4210628685005909,0.33534274600257213,0.5467904488481016,-1.4363789439070904,-5.943010238531133,7.657130753674479,-0.016273028306445496,-0.004681394889187904,-0.0011588358939509137,0.66554887411263,0.12464035095403973,-0.40707440731083117,1.4865467529043672,-5.990265512788749,7.865700376730939,-0.018258804731454904,-0.005970604717560858,0.0077137302315572346,0.02031148850327176,0.42390178305378573,-0.8127501828210206,0.3282690281820858,-6.016526136071295,7.830943297306998,-0.010379719583164864,0.0010240920049261624,-0.003771651884825811,-0.3055022489603861,0.43400218880480085,-0.417094437961942
2.0620101508155924,-6.057377145855391,7.366208879132281,-0.008175541406791454,0.001013093934934081,0.01253157756967726,-0.5674548752533575,-0.10034860172174409,0.2004655049770091,0.11683393583657939,7.541066251761097,6.259522084950237,-0.01682161644968931,-0.004613934216732741,-0.01073649160867761,0.4203823527043862,0.3276631834556135,0.5549782223145859,-1.4309434636500817,-5.905269259277065,7.584910003600004,-0.020596395936288453,-0.006414470944866272,-0.0020403781348335586,0.6699740871361707,0.12806068809610174,-0.4054528572712342,1.4596737615465905,-5.990602959780298,7.711614806627789,-0.023402861381687727,-0.011785315131581327,0.007918004508639106,0.022276856419603586,0.4236537828415938,-0.8118003692349912,0.3337789495125663,-5.9745257669986644,7.799598987764518,-0.012668152468282255,0.002886714341846036,-0.004615161790114686,-0.3015788848686512,0.4359168203645684,-0.4173627310740926
2.057858996482385,-6.072809495081406,7.361224969214541,-0.009287505789316938,0.0009857336567928338,0.013564780660639899,-0.5786852278378612,-0.10027996070481168,0.1977828581052565,0.10426624935790885,7.5517881030159,6.263735016500086,-0.00907539594435633,-0.001460675302488872,-0.010850281338005007,0.42404006326221094,0.3321120511911095,0.5575773441561395,-1.4101038928805385,-5.945798188536929,7.5451452604071925,-0.016063380294161118,-0.0037122424906078813,0.0001926271426400983,0.668746889174304,0.12104919179291215,-0.4014273708717106,1.4606406082304837,-5.973910886905049,7.5953971788099,-0.017895336221288503,-0.006025814325316016,0.005008615901010568,0.02504912316693976,0.418754196475468,-0.80476560523593,0.32484375789781517,-5.996564236621884,7.7957357711676725,-0.012391689828750104,0.0008739084979176228,-0.0056238272666680085,-0.3018262668621105,0.42978725643253124,-0.4103058342240331
2.071420273860034,-6.087112269373133,7.396632466407175,-0.0021781046126905608,0.001961854321892813,0.011268198121964602,-0.5791410354433865,-0.09490835325200211,0.20022874011378966,0.11757458251211005,7.552862790381437,6.237942958367337,-0.0019320560458770428,-0.0018953831542634903,-0.011725653932046783,0.41883148514582186,0.3440874936930283,0.5444558278608057,-1.4022452485886496,-5.946070681866849,7.508133885152027,-0.002719071497270874,0.002720034126969701,0.0023810494620753477,0.671938589877122,0.12493463137246988,-0.401756794455016,1.456276398659663,-6.003393797093601,7.543133828145827,-0.0023078601145791705,0.005554428354572355,0.005282491963596088,0.02556050692728589,0.41875036206040356,-0.8030631734614041,0.3535887152097249,-6.027466880575419,7.807264922689684,-0.004987532069941106,0.0008936160157951506,-0.004735525236721202,-0.3008177034761562,0.43221424680098236,-0.4093270065333961
2.055753108198263,-6.061873577826505,7.364259148070298,0.0027361976981649795,0.0008210706550542116,0.011012177765363467,-0.5755466450482425,-0.10615409885601101,0.1938709797772236,0.09526707232954412,7.5564541500582765,6.2447107670323545,-0.0015564527842470333,-0.00334221868974656,-0.011651950993731413,0.42742840130200566,0.3379248349078207,0.5540509070319565,-1.402826405463767,-5.92863297881246,7.536159698376149,0.00949177146053041,0.01075909987041849,0.007546664065626691,0.6689978028604191,0.13506986677845823,-0.41043834713800953,1.460246097561083,-5.989203784284128,7.627327587327248,0.016894386632510517,0.014083767894149,0.003937890579356892,0.02275987572885191,0.43366559172866403,-0.8130084504225247,0.333808315672819,-5.998396156072178,7.799274685270368,-0.0015389499695244967,0.0035522932548960745,-0.0033347605045220873,-0.3034458827093291,0.44644396089534877,-0.4197448153102411
2.0639978294839687,-6.060951281645757,7.355363282981617,0.00167795386515551,0.0018003407600405356,0.011001266698619134,-0.5732845301579694,-0.09493247184225764,0.18850951790685597,0.08754932274347019,7.5859044012605095,6.208645948241017,-0.006004462894665787,-0.0008418077332133072,-0.010343976947329497,0.423493777734637,0.3375305705214317,0.5457687232633642,-1.4221027697512667,-5.92936274680789,7.608489702389204,0.01046632048221622,0.012515187258708675,0.007803750216594409,0.6754090735063288,0.13130028264461838,-0.3994416613571572,1.4767502882283594,-6.002999198343878,7.799805505071341,0.017283223636559687,0.015130388052259447,0.003912810130418938,0.02946787545694811,0.42607206156091953,-0.8035883330538601,0.32594736270705044,-5.98929084746705,7.792270739619854,0.0004193640882212136,0.004165075465648015,-0.0034573085090815027,-0.2953834890347924,0.4404708962770848,-0.41177948667277525
2.0499596735859935,-6.043160740002963,7.375126015005305,0.0007241158979184248,0.0006829233014825563,0.009905465003253204,-0.5640616226263236,-0.10426751497911801,0.19240531568082586,0.084923579966969,7.5818135456829845,6.223906918246738,-0.012414450082722274,-0.0026308224094687077,-0.010715439916001311,0.41862390241114983,0.3316294232376047,0.5441739627583754,-1.436515006973248,-5.941444018057785,7.672944783688074,0.0035761359102531014,0.00650850222290671,0.004642438235002877,0.6723770686251305,0.1299021661138436,-0.4118492017486596,1.490665852284465,-5.982316454020472,7.877368724771487,0.007186118503597767,0.007285463705454623,0.004999231285783162,0.026654495477655474,0.4265818546920611,-0.8133172846960237,0.3130744738016511,-5.978538365187805,7.793253134684858,-0.002054437367781974,0.0026791134801534187,-0.005959260613727286,-0.29911672981565746,0.4398081671640613,-0.4195639015765966
2.0729022840765277,-6.025598098092977,7.373242983932485,-0.004576073502864989,0.0014803606959127992,0.010854258404256531,-0.5776793324449322,-0.09565355240980494,0.2053547795751594,0.0960217295317514,7.573486290489094,6.240328286587212,-0.016149643464562158,-0.0027020960515673326,-0.008230117307525394,0.4201313631430501,0.3249080354144666,0.5508731540433552,-1.447451299353356,-5.936991022998575,7.659665221911439,-0.009216987520649636,-0.00011006312061229292,2.270169592253818e-06,0.6657380902619174,0.1259781730363088,-0.415154966655644,1.4789238071025592,-5.995286165244715,7.905332184262505,-0.010983157632308458,-3.934596874959621e-05,0.005473530699521801,0.019071057377360305,0.42073147347279355,-0.8139611435068147,0.32603176799354094,-5.990423209942213,7.791396310679085,-0.008696866377090657,0.00365067409727406,-0.0028865385593340436,-0.3033068748853512,0.4364351290255275,-0.4202765101724733
2.062664251458918,-6.047714453689922,7.371400360468451,-0.008902545682954826,0.002358092213714238,0.012884925008494334,-0.5715830999229725,-0.09641131485824299,0.19387885459675624,0.11137087042689894,7.552533296971062,6.2619450912404035,-0.01609240438230395,-0.0036970939304319613,-0.007869771767082437,0.42254831749965727,0.32727205119772734,0.5456979614851434,-1.4347433867961412,-5.932239340710046,7.628615750517113,-0.018241951800427893,-0.004809288758175091,-0.0013075787361976595,0.6669774328927248,0.11707304180619542,-0.4064793904432001,1.4833182562605802,-6.0133333784285155,7.782553813012125,-0.02121055728478834,-0.00798534564183123,0.005632384543796625,0.023787237496497894,0.4126577244717856,-0.8074460730426851,0.33430714461255895,-5.992034984737867,7.795136807681021,-0.012539412642967176,0.0015632917735851975,-0.0050957309976131775,-0.30066428062178807,0.4256323415182442,-0.41228570291471356
2.0648490025176787,-6.09835541925737,7.359239771082745,-0.008829945862560078,0.002327605160833552,0.011826882568095413,-0.5682029513947171,-0.10302814830447492,0.19924326883055288,0.10229687303215715,7.546914813715048,6.242145429976075,-0.011301949873868213,-0.0021256292824637776,-0.011577743916761281,0.41961568256610976,0.33146122505842446,0.5485689847716022,-1.4176755420715554,-5.932838852769173,7.554826401145077,-0.018244980659771606,-0.004813287525012834,-0.0013084929981149202,0.6708891207012105,0.12310170280638463,-0.4100223159340541,1.460093231758114,-5.97901257753247,7.658576052729428,-0.020077518351353706,-0.007972514878435774,0.007150674748873374,0.024905189357574915,0.4160899787620945,-0.8155118146157192,0.3310160474782398,-6.009728960227706,7.818037391080084,-0.01110379248958301,0.004071791408872343,-0.005546133434286745,-0.30090403889350087,0.43004979590928016,-0.4171486097279542
2.075322664573469,-6.063452813233908,7.376346749685408,-0.0022039932430299156,-8.99464474693226e-05,0.012298374991081796,-0.569671558668957,-0.10325392691432614,0.18850136296178902,0.10042823962345127,7.545486983475733,6.243901740880091,-0.007369595499427537,-0.0015394011883959773,-0.011268875505390165,0.42256211715741476,0.33551303725418036,0.556793927210883,-1.4067319233157496,-5.9277823070691555,7.5101207993807435,-0.008207316242333906,0.0004227270002607359,0.002181453410360313,0.667982085102081,0.12388757528391466,-0.40757063213012346,1.45341705356007,-5.994939935421675,7.573516372713941,-0.008602084565812218,-0.0010104593817870065,0.006762520533083346,0.02550740102186575,0.41997938541899166,-0.8072104644262212,0.32924783948043446,-5.9943163131746955,7.800110109013475,-0.006814123658227103,0.004093016772063386,-0.004929254352739113,-0.30283252471516053,0.43128427754376264,-0.41566258397791395
2.067232594262425,-6.071499523557502,7.378923230294787,-0.0014570189227750949,0.0026639035132881086,0.010941676513705137,-0.5745147311613513,-0.09713855023977852,0.20681781038855043,0.10020311145601789,7.550219407530947,6.2177243336007235,-0.0016810111755029052,-0.001347568543260502,-0.012391687433479313,0.41353618210517434,0.32932714065215013,0.5535088698808313,-1.4103241733203546,-5.9403303937296235,7.551532666255659,0.004753056368816513,0.009005384676222337,0.005204446463180565,0.6700158772590541,0.12886972589048226,-0.4005830601057566,1.4668272856861153,-5.990570214597923,7.598229023770598,0.007763913451943034,0.011557132846947905,0.004322851404887264,0.024851162424449548,0.42558477689766994,-0.8018195375788209,0.3370130095592151,-6.004688771854081,7.806140542297415,-0.0057237958298626945,0.0015736230986552297,-0.0043766407941965195,-0.2995183891133164,0.4365794927172043,-0.4051693898750898
2.0752966587939476,-6.0708520283543095,7.369872157088075,0.0027849207456361077,0.0028447362416417436,0.009981971155839693,-0.5718409474955266,-0.09910453156839524,0.20364151076101217,0.07835923100061605,7.584489670320662,6.223836026980964,-0.0033988543893800497,-0.0012741597085066448,-0.011989966341779706,0.42691531360616847,0.3405311050365693,0.5493697998944972,-1.421228429115315,-5.940158787604851,7.587902161191608,0.010088084574141402,0.011269240269901538,0.008265187860188044,0.6624154156544507,0.12449737601075903,-0.40167603262427426,1.4750831925669405,-5.983466426649754,7.7357965278962535,0.014251929708883804,0.014647770094209644,0.004940744968141225,0.01795774130959712,0.4194967429558146,-0.8056471907836089,0.3415249153959926,-6.016359803861943,7.799459771189864,0.0014897777946538632,0.006149254931871923,-0.002684834986624894,-0.3076417233630295,0.4330138980191131,-0.4087796131530024
2.0531297913456132,-6.040744074973379,7.402848533370796,0.0017763740450307281,0.000722694263539612,0.009930285607855803,-0.57403160946905,-0.09761636993629039,0.19216927971929718,0.08751512864894206,7.570708237763264,6.223384018220797,-0.011027001216955844,-0.0022606936404571116,-0.01084634193750368,0.42522478786240975,0.33615687708282743,0.5509133006293182,-1.443152613703202,-5.941003364775225,7.632615320245287,0.006916574445191001,0.008170764517306715,0.005458705629254278,0.6775628806509125,0.13216621825754504,-0.40582085466808654,1.4667549850942947,-6.008452417504515,7.8395376158137156,0.00988740812704877,0.010381863606174128,0.003757663315408532,0.0308342487159062,0.4268171115982638,-0.81117348945034,0.3134160256531682,-5.977447524197226,7.78508350958538,-0.0011536900133827964,0.004717642250004111,-0.0046051433152505625,-0.29296392489301915,0.4414394976046681,-0.41570150781397897
2.052607949482173,-6.04068984661067,7.37347167597668,-0.004244857543469856,0.0018420889408968467,0.01121851334934681,-0.5762422767854373,-0.10005175820207723,0.2004675638197076,0.08190795447218785,7.581013543627658,6.221029086843284,-0.0152817181251926,-0.0024001616675307963,-0.010872470469579384,0.4215450278223533,0.34002300706163546,0.549152571793135,-1.441687347261141,-5.940966522267998,7.6599615204728035,-0.00584883346734092,0.002027965453823933,0.0029192213327203357,0.6743645026365801,0.1282703679871366,-0.4062233279566333,1.4869532959934497,-5.990464746641875,7.896842396231744,-0.0038660754013491866,0.0032062268936115935,0.005241394289477227,0.026693171737408025,0.4238897225754695,-0.8101487202239407,0.31799988684309766,-5.993312884331647,7.814393267523593,-0.0078088827379228405,0.0022842599485542758,-0.0037775399233894915,-0.29862313776185234,0.4363652021648557,-0.41469903612124587
2.067950547828652,-6.064077802692641,7.389231703270007,-0.00599336089466277,0.0010731208971774522,0.01152118508341777,-0.5757361118976324,-0.09687495372729213,0.1929022889115936,0.10874197487884645,7.550076515048317,6.227324848075725,-0.017481388621562642,-0.003737937310810071,-0.010199674040005106,0.4288529197675369,0.3367419800519203,0.5413688180663628,-1.4323527901167095,-5.92478581620657,7.650627290013304,-0.014322636065929692,-0.0028605640962309975,-0.0008433262561335114,0.6680070884538435,0.13142408516323523,-0.4096416769561241,1.4819506019396909,-5.998999090449997,7.833218940455047,-0.016620958471734434,-0.004607084267725521,0.005978722274111359,0.02009031732589004,0.42805020648625836,-0.8112751274541927,0.3186734669108995,-5.985385303870786,7.8114655054210935,-0.009745271558212478,0.0023055159183706553,-0.0037095434499186592,-0.30274232790620803,0.4398267473099179,-0.41513985667809294
2.062851668229729,-6.049129827476668,7.35594505416292,-0.008746363931898172,0.002294053270381739,0.010768835153508556,-0.5684599142276326,-0.10497336347443299,0.19216158449382442,0.10475289023195748,7.566543635804343,6.2409695507726095,-0.013789620815006967,-0.0033397923519225565,-0.011661118549451685,0.42204111998003685,0.33188364927117825,0.5441580501613862,-1.4197326428173893,-5.914208364945412,7.5846293399090685,-0.01806608035642164,-0.0043100580382653035,-0.002068845393474536,0.6794260439387184,0.12690367867388253,-0.4138104587692518,1.4722481161126202,-5.980280537654648,7.7041551089993545,-0.020583447384495496,-0.007276958186101554,0.006111567583479305,0.03170786650786493,0.42414470106640895,-0.8187597893984573,0.3155058267566486,-5.999160032681494,7.79815280381531,-0.011746515718397882,0.0004216723676495738,-0.0034839125838333406,-0.2945125004746151,0.43855175069234154,-0.42229304939682843
2.075654699055677,-6.076025842576352,7.358199467485127,-0.005350845627979734,0.0018106933388746561,0.01225171162320127,-0.5758230678153025,-0.11177060611590123,0.1972840314400982,0.09122786096291388,7.546640477263776,6.245681371904678,-0.0084587821529766,-0.002370039710549055,-0.011461408825223238,0.4196200753154607,0.32974842371486884,0.5483533247120933,-1.4065289990536936,-5.943231751768798,7.525196455294054,-0.013546412078788336,-0.001845199910490024,-0.0008851938104082342,0.6694277579129897,0.12625556898486592,-0.411769422665034,1.455616193127661,-5.995058522175771,7.605371087739256,-0.013459303470492234,-0.004034402560758005,0.005884333102990083,0.02004273267943603,0.42268535645415645,-0.8144581590020222,0.3507358081627776,-6.003192986263229,7.796522623294208,-0.00869584628886968,0.0036526639264140735,-0.0028865386817128833,-0.30525816420127816,0.43620774716035027,-0.4197724045357882
2.0747082164971267,-6.074887723517243,7.400311692797661,-0.0007061273568223329,0.0012997648837146719,0.010587307136520093,-0.569169758904074,-0.10106354386668015,0.19265321460901202,0.10668257272933038,7.5580633382921505,6.264637876728706,-0.004464189624566689,-0.0027716960419309905,-0.010786329034803973,0.41472106994663094,0.3291608658640666,0.5432521009208705,-1.4155237875280837,-5.939920377168117,7.524888594034806,-0.003094707467023703,0.005101782277671743,0.004263106412556723,0.666998162812405,0.12097850921853098,-0.4065404687668109,1.4470087803287313,-5.995021129671147,7.582002054047008,0.0031338346555963414,0.006343691040127091,0.004091505632257475,0.021790247620227257,0.41999137711530027,-0.8113130242110272,0.3235005065563859,-6.002223589949751,7.800793535866047,-0.007155413250881247,0.004202718827789112,-0.0037619463929806276,-0.3050082694250032,0.43399424164076866,-0.41636549759318287
2.055006707229096,-6.0758750632409475,7.360483818841955,0.0006415621647882753,0.002754481528038121,0.010990328771261075,-0.5701543408292893,-0.10227267135219752,0.18581633504620668,0.11087743905721993,7.577841323035206,6.213156369816081,-0.0012492408515698751,-0.0037806216821290955,-0.011970782680818508,0.42350923091891984,0.3294312153372422,0.543217533776196,-1.417167141927873,-5.945539304399104,7.559685262914019,0.008680799235760723,0.009253103018044995,0.005494135251872004,0.6630306816840839,0.12087786712763565,-0.414322279781347,1.4462227767361295,-5.987021278034026,7.65495025795318,0.012576578293372045,0.012188454122584453,0.0039848890238420925,0.017341088898665723,0.41902716022657976,-0.815406865617562,0.3420121192547162,-6.005931379056697,7.789445616883016,-0.0013145972550170756,0.0030383350175282073,-0.0019416769500520523,-0.30751898575093173,0.43258122946686933,-0.4229430163599465
2.076617317975327,-6.058687062580452,7.388363738254852,0.0014650336463884544,0.00033984930007149725,0.009565007781920027,-0.5747914654271669,-0.10225313903123048,0.19460630296151765,0.09257798722051117,7.568464113952558,6.225419170894803,-0.00900186253143576,-0.0027873210394863505,-0.011555647856696298,0.42231269641057684,0.33201790853432744,0.5522130489629151,-1.434980438382,-5.923795684355678,7.624986356088977,0.008127595975805741,0.009440355676397129,0.007942881174811997,0.6747441818321189,0.12128797090321823,-0.4153957727600084,1.4759299739840812,-5.996934611021692,7.809877884936706,0.012206041681494952,0.012979065273380554,0.0038812713250859967,0.02853135488589822,0.41584721192832586,-0.8182461086426338,0.3236838649310646,-5.993648148223585,7.798387510739914,-0.001420842855341055,0.0039685137779622666,-0.005889111730520142,-0.29922698508290224,0.43127583020788335,-0.4225285254721834
2.0474441117191327,-6.038215372273916,7.381372939249964,6.011379973127636e-06,0.0020108678988765543,0.010259795424694325,-0.5674356582406914,-0.09692652852891168,0.19583054933867536,0.08395949994266941,7.567077716988194,6.234183903377821,-0.0132750882748344,-0.0032847602876000747,-0.009158433444009939,0.41376558290441634,0.33049509811198663,0.5503142709004709,-1.4509136545886165,-5.930097225386323,7.640702710244834,0.00023370895336725185,0.004835392644382045,0.0038353568412563643,0.6672630979521957,0.12174434843549589,-0.40435713790194805,1.4859054661281013,-5.997623366357022,7.865984586404291,0.0024946799066012434,0.006190779778656961,0.004934671305747939,0.02430758105326092,0.4187564042406428,-0.8054879337065121,0.32841637778403254,-6.005512694512739,7.791529117090596,-0.005047364589250282,0.004128101688818729,-0.004413599001943231,-0.3027941482233479,0.43249103523243804,-0.41248375728781284
2.04952794739714,-6.045296729246331,7.374562199033492,-0.005274245877273939,0.0017801826892798651,0.011193668345044315,-0.5684440246175768,-0.10228862874729569,0.1924079743580543,0.08750127111944189,7.5552599630076385,6.228211777643509,-0.015594241397756366,-0.002635621048406528,-0.009210260469590316,0.4169296089028851,0.3307040772174129,0.5476135903909496,-1.4456468208814692,-5.941966262310866,7.6460447382478565,-0.011182558046710958,-0.0019341395953952462,-0.000334074179583427,0.663850741352002,0.12032475325444268,-0.4025992408756564,1.4616349698842122,-6.00215472120935,7.818174103377264,-0.011385028490552973,-0.000532490779740342,0.006821969058768051,0.019618809102576344,0.4197459757350534,-0.809330829990817,0.31371816850400513,-5.978945368888271,7.774929382691394,-0.009936889662009235,0.001724835399346485,-0.0030753521245891853,-0.30768165726245517,0.43205215086221743,-0.4124454310276219
2.0515383961407565,-6.053101155553422,7.367177829062634,-0.0076910765444236934,0.00233880733725328,0.010792659580799625,-0.571155451027287,-0.10666866362054327,0.19460162481650506,0.0995451090457789,7.549539244899993,6.23124579434369,-0.014737831744926698,-0.0026723909753294467,-0.009414611831255104,0.4203688045663717,0.3271014155036464,0.5505919506385382,-1.4274663953796831,-5.924939622908955,7.600755186238025,-0.015123324169571843,-0.0041194096363345225,-0.0018616324315284187,0.6652884284141758,0.12436725038878231,-0.4090214217225428,1.468910319739431,-5.978377924092834,7.755771129438803,-0.01769145406482208,-0.007639790092787261,0.006959990618559764,0.020096877892765562,0.419502865980392,-0.8100706386681353,0.32626187755972524,-6.005323703408222,7.810157387035651,-0.012140486225338117,0.0009939755227036098,-0.004294336138757832,-0.30529738505650894,0.43132097361497923,-0.4185723086892921
2.066157369591433,-6.056755384972961,7.363719585491428,-0.004989835591272788,0.00010423379848507892,0.012588117019130412,-0.5736012873569125,-0.10713455021747746,0.18483570487379195,0.09805541007225294,7.547564408552209,6.233660967912557,-0.010945459222801468,-0.003582200061752549,-0.01154482005574666,0.4181249704312531,0.3318274227960328,0.541487004430768,-1.4132427941812469,-5.9140582687770085,7.54878617763479,-0.013545084768035464,-0.003540434179479292,-0.0010767949886159563,0.6685078748051526,0.123236790323033,-0.4021927484271382,1.457958868662347,-5.993916189540811,7.638228446131103,-0.015903077874775382,-0.006186252677053638,0.006171264694086326,0.02209420876701644,0.4182731441061753,-0.8066809285786384,0.33462343578658166,-6.006867585717458,7.8139574603815385,-0.008353516435167671,0.00354695158155297,-0.004053838630915457,-0.30329240815702524,0.4312750005905894,-0.4122407001169335
2.064598248602815,-6.078274949334513,7.382120730331679,-0.004586918798804887,0.004556443155977569,0.010895002464410712,-0.567191510080317,-0.09692427388430482,0.19167949976147639,0.10199769591695546,7.540489912642306,6.255544851204592,-0.005488139975319316,-0.004595292138319885,-0.010617577867611689,0.41987029557717176,0.3354766511735083,0.5550945009449711,-1.4133896429631905,-5.932480014495422,7.533309267183367,-0.005259917267982526,0.004233232328581896,0.0038203937475381157,0.6650163993348432,0.1252807096284665,-0.41318518773391194,1.4450402712906525,-6.0009587620633775,7.602733225618864,-0.0033854677873491816,0.001965290104653523,0.004929660096332401,0.023429971080293342,0.4212209128071659,-0.8167036375302087,0.32662879135411155,-6.00519006354302,7.770975268618523,-0.009572589756183615,0.002255148668608806,-0.004294195598977817,-0.3033200959458992,0.4347242010402192,-0.41979448047147255
2.062010064594013,-6.069142975412095,7.372523394460883,0.0013208125973848636,0.001413824176749719,0.011693995394210973,-0.5677029523941939,-0.10057962495935627,0.18752634430114307,0.10663737286658617,7.563795036128456,6.233544588885738,-0.0044577361585625965,-0.002416058870344461,-0.013227594599006782,0.4137680711235649,0.32580111026561803,0.5469735763758383,-1.4162306767604613,-5.93862415054837,7.553941275256397,0.004356431650135566,0.007520032390153895,0.004612600690362586,0.6680466035566086,0.12933019094975062,-0.4030163227331871,1.462842706232493,-5.975663688537517,7.648717582735853,0.009373380983823384,0.009222145334644067,0.002864087002659094,0.023360620019154864,0.42266067454787076,-0.803514782630699,0.35824917644894033,-6.0240267087250015,7.794483375299897,-0.004063812875557665,0.0035691644374368126,-0.0034339556099326762,-0.3029793032753567,0.43712613486720325,-0.41099794068320955
2.0663468795339592,-6.062318223954652,7.370035591068173,0.0015266952670839715,0.0013364317764085608,0.008521883047101084,-0.5740619989852966,-0.10299293166685768,0.19851149624309242,0.09207856572164642,7.569211572348631,6.220762826178975,-0.005037186178771295,-0.0025122647173776856,-0.012286882045100566,0.41862650025475506,0.331889580221604,0.5451467816494775,-1.4252322815960057,-5.9391018127840765,7.603735162503462,0.00594568053523271,0.010029618142971108,0.006638431959366585,0.6625494018177265,0.1189620613197229,-0.41209032664639833,1.4794347059521762,-6.025739068029042,7.729920150774566,0.012337395082451748,0.01307412986207109,0.004813813553638776,0.016422885830652288,0.4170662500337434,-0.8107592002529384,0.32425927731013315,-6.003183576183468,7.791024906362664,-0.0006815005303962057,0.003295471973994696,-0.006246992516058042,-0.3089733949435248,0.43013787083801674,-0.4187910325556294
2.060016724265284,-6.036629424743879,7.357679775822588,-0.00035905567173272033,0.0006203934614162558,0.010937630866765826,-0.5647718631275996,-0.10035160808511565,0.18606094844461923,0.1046503717721779,7.56735371366406,6.208985896496923,-0.011528914443407307,-0.003683516643945382,-0.010610009938278651,0.4181297361296401,0.3358137935769551,0.5463046127881511,-1.4331118061833585,-5.9335528292285735,7.632475154566405,0.0023905415323042956,0.0073912003521771595,0.0044688496882648076,0.6638180949016785,0.1265386232591909,-0.41124220811922335,1.4789204069719897,-5.98282562318027,7.842557805907165,0.005078869568259955,0.009734516767104361,0.004106541515626861,0.021736600245532506,0.4207314016747132,-0.8154612539070125,0.32777690073111315,-5.991864958478997,7.802477463095911,-0.003497205381256106,0.002944506599065823,-0.0032111922099698664,-0.3035714686431114,0.43399369721879133,-0.4197954468955429
2.0651773621074327,-6.060497019318066,7.383210458682716,-0.0031776588555033516,0.0018717724845893772,0.011242321911597054,-0.5745669856174318,-0.10567534670503545,0.19777720810869118,0.09281588926512374,7.581743951920915,6.242338695715298,-0.014145540163847864,-0.003261428290337638,-0.008977814710716202,0.4237507452432915,0.32668968608718857,0.5398436586744436,-1.4243882687372722,-5.939042608655165,7.644578885242279,-0.009196334983947549,0.00035671118988687836,0.0021011487310592563,0.6665099359499101,0.1313673151140809,-0.4137797968844835,1.479852249372013,-5.990449761823207,7.854063844569311,-0.005053638232854509,0.0006148523688260349,0.00663908903208717,0.02226513079841172,0.4246326680868335,-0.8127744078309717,0.3205788925211697,-5.974032539487682,7.793191187592361,-0.00678141743429021,0.0029963822833365735,-0.0029029875635302803,-0.3030226814236056,0.43862042591051226,-0.41807168351244367
2.056346092259887,-6.049067673144104,7.36630944223649,-0.007023688214942912,0.002038227857006457,0.011508255691554429,-0.5742964111384853,-0.10128034692766538,0.19607206957817233,0.10378473861515486,7.54148254440519,6.216964758973258,-0.015828001853052782,-0.003514113802978158,-0.009611958776413689,0.4167045605605881,0.32584631332921776,0.5491600887744523,-1.4289906481232193,-5.924129406197628,7.615784664321262,-0.013767514022056662,-0.0011212974235690265,-0.0020599453246071165,0.6742242854940339,0.11881086816746034,-0.41779546895622716,1.4702628497727126,-6.005218019571605,7.778968511342794,-0.01627365922511775,-0.005388633807199577,0.006063660785090609,0.027547641258302186,0.4116977500754047,-0.8184852463227138,0.32726916492029423,-6.00412084312727,7.802054761268794,-0.010598041397681501,0.0015460143500239006,-0.005170752185373931,-0.2987920046548808,0.427617244867188,-0.42450036277076736
2.0623458806024466,-6.063033876635319,7.352333762722189,-0.006687539442308228,0.0013719202029658002,0.011859593296747828,-0.5698908665941738,-0.09935373764959465,0.19656088749697162,0.09646784486566579,7.574265573323959,6.2545658834480635,-0.01131421670952607,-0.0028185762653585725,-0.010238026034653281,0.4230078445302199,0.33630119111223,0.5453026940914493,-1.4270559934977962,-5.937399596446349,7.578749981586789,-0.015113013427622252,-0.0038860536722933694,-0.000814192847281731,0.664578824114831,0.11958887992321877,-0.40259341585507646,1.4681185501666962,-5.994216649102333,7.6935544128988145,-0.017032929012747076,-0.005096202795936371,0.007319300260913544,0.019378758727818655,0.4146178366025873,-0.8086055342886043,0.3332691737076213,-5.998163501400971,7.790863722974332,-0.010460565181404544,0.003621558667938756,-0.0034021942772664454,-0.3060530470479692,0.42667745878703944,-0.4156552459547308
2.0695216355254384,-6.074456983948421,7.381062127705224,-0.00414637616330812,0.0017914488653255495,0.010160447661165035,-0.5772248210046286,-0.10101950165004907,0.1965609002206449,0.10838085690298876,7.5413809490853385,6.243673534854516,-0.007584098512343519,-0.002728403191856569,-0.012728645245183625,0.4218030918086948,0.33736644338933564,0.5509049659936421,-1.4145372197439499,-5.932078177727055,7.548062148012,-0.007647836362754345,0.00046383710325044583,0.0007792561261745903,0.676050376216391,0.13062942665313693,-0.41091191820139394,1.460730167483134,-5.99550990811651,7.618249240092139,-0.007104620840092703,-0.001044831591555149,0.005571698992570289,0.026416933484817134,0.4265811729463989,-0.8128251253368913,0.3356630694730037,-6.007473506964219,7.804465004732931,-0.007848789176420254,0.0010171765130602345,-0.0036764654772467077,-0.2979070581909271,0.43808395667123096,-0.4188489619031025
2.068845768364901,-6.074736627439925,7.351432004062232,-0.001861863759061412,0.001273723772419402,0.012675520781974498,-0.5664769017090553,-0.09985710498108898,0.1911887395008008,0.09329532508821822,7.570934783047066,6.214981274956971,-0.005057741095107854,-0.002865391806434926,-0.009872613676756162,0.42450200764035595,0.329263003587238,0.5476115524594215,-1.4239645371675875,-5.92805799312821,7.548228662231216,-0.0017365271153582547,0.006396827436116439,0.003884308088987475,0.6728935723156878,0.1306809179923865,-0.4086908772800043,1.47157571327701,-5.97016673857544,7.640587901064665,0.001330270559849735,0.004335741455082331,0.0035402407082397113,0.023277360504764415,0.4256024166913749,-0.8101005799259698,0.3380800079770758,-6.012487118837484,7.782071400461804,-0.0059572532930472835,0.004862477538694804,-0.0034680379738644468,-0.30102372534718835,0.4385774943888715,-0.41247304390187717
2.0593065306353004,-6.0409572980474895,7.387997075911412,0.001467994913611293,0.0013498365433482892,0.009579907423344598,-0.5713929412734238,-0.1056945056705405,0.1982645431436639,0.1047575770143207,7.566840580393308,6.216087050437129,-0.005033745281364317,-0.0021536535499225113,-0.014729186733463889,0.41251065152475763,0.33354764733031855,0.5431869567147479,-1.4342378221374987,-5.929139642587938,7.583783680489869,0.004765442678358538,0.009224043742040822,0.0062721022093231655,0.6752852294939943,0.12139193369345899,-0.4085645577022149,1.4748617685146663,-5.998143511217848,7.705736402647511,0.010323865366573731,0.013248633451016694,0.003629469186184233,0.028354924717926607,0.41608155940429575,-0.8131158888952609,0.31467935516379736,-5.989476817202943,7.797093726999323,-0.0017211289749023784,0.005353280444716206,-0.004820854025167175,-0.2981760478363448,0.4322095319315607,-0.41471995287567126
2.063629366462659,-6.066679381438932,7.371284259200474,-0.0013248025286179083,0.000535052233604617,0.009855751537426372,-0.5740068279829161,-0.09346774960606347,0.1936379730955922,0.1019710808329021,7.56306162028305,6.230825326880324,-0.008139684002290684,-0.0035026047264806394,-0.010397579019795359,0.4247023012797423,0.33301543645262016,0.5382703410257358,-1.4347222541082187,-5.934686887485412,7.632446338747646,0.0035554415419307016,0.007952509810282346,0.0037919496514690777,0.6623418830194804,0.12724801694344573,-0.41319510777860075,1.481088474200545,-5.990886878231247,7.801840182677222,0.01065799484613968,0.010617825947369451,0.003854016218314093,0.019315847869071798,0.4214642076621677,-0.8139629387477049,0.33281534641066585,-6.002547529579303,7.78750611747098,-0.004896587851850604,0.00344569614021317,-0.004943691486979052,-0.308627818903747,0.4394078154331083,-0.4177783636044588
2.053728818839035,-6.055335264163361,7.384194397580461,-0.0010810950228140948,0.001959360568413437,0.011292971916842491,-0.5715970575727426,-0.09885522966583675,0.19607368001059597,0.08226772557535453,7.574323764134047,6.241380637793524,-0.01282132274331794,-0.0018942536467414482,-0.009465075130894885,0.42180789371696387,0.3274814495478066,0.5437437457977111,-1.4489879198064122,-5.935510002311435,7.626773061989848,-0.002114452860473789,0.0034625414824196025,0.004147043836681459,0.6759722780147825,0.127574172378885,-0.41892187893728844,1.4788809292310792,-6.004255661774386,7.844136015767309,-0.001710061832879738,0.0044145964305258596,0.00589049640381151,0.028752721321578634,0.4214661832631352,-0.8204353386533328,0.3338126053189965,-5.988025838682059,7.8199935578465265,-0.004105722889776379,0.002300092926607685,-0.003330872870785613,-0.2969920386737459,0.4366325308093123,-0.42447773870188665
2.0511091270748882,-6.0364492260348594,7.364817758220921,-0.005247364743298821,0.001760025550086394,0.011191644888658125,-0.5728079542892653,-0.09713905718487524,0.19607545694752462,0.10061310737294202,7.565755256288989,6.251016225477206,-0.015337323790316973,-0.002791184069228614,-0.00850546086009814,0.42303755926800146,0.33074667718439665,0.5490571836785788,-1.4344809144101682,-5.9128955006141375,7.638182485832284,-0.011776945798790706,-0.000526650267474151,0.00018666855148999714,0.6723311193444337,0.12159849263746499,-0.4119633615545893,1.4722579729921599,-5.990945984103051,7.820532590063769,-0.012168731198230536,-0.0013288790439057142,0.005391587012362784,0.028080265027921478,0.4173065414641354,-0.8155511297473651,0.32591835163065785,-5.985873586664466,7.7773275247059015,-0.009570586180462316,0.0022571367439438933,-0.004296203891982096,-0.29921185888078367,0.43077672631623903,-0.4200886173789646
2.0739934830239006,-6.062149602081357,7.357982175007509,-0.0059664303591266165,0.0020779702145087143,0.011532075249377573,-0.5664978069870714,-0.10377339271062051,0.2016832574215474,0.09931879861092593,7.563584809278147,6.253662005060182,-0.012722734246003894,-0.003209395003474071,-0.010144714388154818,0.4264681296149695,0.3263595173360955,0.5488741220497286,-1.4394189199469567,-5.954646362561935,7.587765299338643,-0.015516059664789868,-0.0036664422304280185,-0.0012335525321667319,0.6684534166366257,0.12216093823815982,-0.4085235078286124,1.4648566361286406,-5.9856209721027485,7.724265543319677,-0.016128137251124726,-0.003445312333890901,0.006856579448297982,0.023007356992330807,0.41657206437370187,-0.8113356107441975,0.3226015809742341,-6.003371962720274,7.800393137592235,-0.01074673761298545,0.0022363993203587066,-0.0046406436792262844,-0.30186700912226716,0.43054352441878213,-0.4161616094759711
2.0640723340515468,-6.061566546639457,7.379870729606203,-0.003880813240528071,0.0021746230291185805,0.01158273556951764,-0.56868398908042,-0.10180320291267263,0.19802345838132898,0.09925665742921952,7.567479937186727,6.228772100559574,-0.009595946622487445,-0.00253446566048235,-0.01308702411681921,0.4154675568960537,0.3272467536810408,0.5454785866686654,-1.4172046733213728,-5.931649026617441,7.54901730807053,-0.011577294243885069,-0.0014870981333903303,0.0002981142938080361,0.6748046119469355,0.12454810757863845,-0.4098312412380559,1.4580946178298728,-6.001216498622715,7.639343643634777,-0.011044838001721265,-0.0018674727514385139,0.005572813117122131,0.03031872497946421,0.4172980255740429,-0.812406243497442,0.34448325447343575,-6.006042591042472,7.801564370805141,-0.008982000420090258,0.002268500370306494,-0.0041239840595494225,-0.29848503890898415,0.42856438393889823,-0.4181506852506341
2.0762464060228942,-6.067631177750657,7.363809831495527,-0.0010074952198415854,0.0019288676163542247,0.010234929267004063,-0.5748129692513344,-0.10591550882945187,0.19509104314617529,0.10045739958627237,7.551120508910899,6.248528940558936,-0.006452781426216233,-0.002891305044441246,-0.012205743115659423,0.4196055644213153,0.331164657703917,0.545399480484275,-1.4065945759955056,-5.93178125952901,7.539686586008829,-0.0035304722478664446,0.004840702047005701,0.0017461790856494793,0.6652708876720529,0.12070955503419054,-0.40872019586813496,1.4667641293926557,-5.976030666250737,7.61987687733954,-0.0003357361553360693,0.003528731915779721,0.006588810082295417,0.021496052032140042,0.4180457284565986,-0.8149752488427016,0.3276124684015137,-6.0178021647340945,7.79149272501576,-0.004652331775968736,0.003562792216606067,-0.0036041551947166217,-0.30434471792157025,0.42960530071209346,-0.41931928447224026
2.0557628455428487,-6.047432193959444,7.376410023314012,-0.0031567713092624313,0.0018526489399938433,0.011242300601129523,-0.5735773349704105,-0.1034818435115527,0.19631396057767278,0.0992466549669626,7.581166044096187,6.248950207572216,-0.004489358690891733,-0.0027675175742883375,-0.010831318572570935,0.4189026970654091,0.33328512041878977,0.5556222083176291,-1.4303944515172689,-5.934206132518893,7.555747603944548,0.0030055961619000478,0.006441611326749488,0.00605512503807018,0.6687078643688661,0.1267675176821727,-0.4105506331768717,1.4544189377558825,-5.99529563880316,7.6691529510569705,0.0049324590951733815,0.008334634472600412,0.004648803016108796,0.023721694537566947,0.4229230328941498,-0.813285872963425,0.32071035590718566,-5.99010558579508,7.780838891377552,-0.0032099844746804507,0.004333651508120661,-0.001971734839798191,-0.30109293035937457,0.43591292715440516,-0.417610749335171
2.058109335862881,-6.064241941783867,7.379337562256079,0.0014112707236583562,0.0013592304744590132,0.010636927820656053,-0.5796942452454714,-0.10564357832037419,0.19606928261956363,0.10325616876963975,7.57369660540029,6.227658223384865,-0.005633744463672999,-0.0026060026332479984,-0.0113751559810641,0.4262341615363484,0.32640734307102254,0.5518045499429322,-1.423834898490535,-5.927877883641334,7.603787278290167,0.0043554484911689124,0.007510179541890798,0.004621763374442632,0.6668548838147709,0.13060334691358225,-0.40009648370531686,1.4658675829700818,-5.9824536092537475,7.776109964051965,0.010661053554147768,0.010611813045761727,0.003858964886779155,0.02139577934240874,0.4233966754957556,-0.8044646593172833,0.3394242821945239,-5.993770345944464,7.769474488447369,-0.005718730117011904,0.0015825847516624965,-0.0043796453455258655,-0.30445449063547464,0.43591892165964297,-0.41074682213741803
2.064314241152699,-6.0446511658351145,7.380424757762953,-0.0014679680899351416,0.0026350267584936593,0.011998653452323496,-0.5757510044732244,-0.09956404085706916,0.1975388970058431,0.09605162180437,7.578102837785167,6.20916121226967,-0.013617033914258832,-0.002509000885706017,-0.011350433336813672,0.41571064772859656,0.3317015523669625,0.5490664399983102,-1.4352896029178963,-5.928923212552793,7.625595815585196,-0.0023047764372006434,0.004649460863851898,0.0050901537550484925,0.6718932142511387,0.12097866364870095,-0.4048692188189267,1.4840662181598099,-5.99171996832268,7.824651503086454,0.0022504686698799556,0.007074464801232406,0.005761657794594579,0.027942284569354513,0.41753622213622515,-0.8074911658403788,0.3257068258107084,-5.9972873736189,7.807881195683155,-0.002845647968134173,0.004865956360327921,-0.0031885702659402225,-0.29892147613423997,0.4319779813106561,-0.41593584224673097
2.051795167003263,-6.036642747447371,7.3799514519762335,-0.0031408921903018036,0.0008155500928589985,0.011227372947174189,-0.5691549600713102,-0.09837302178183803,0.18752860760890697,0.08747525169407691,7.548971517868027,6.248107932717181,-0.014130242615796151,-0.0036032103141132523,-0.010051356527902403,0.41647005935074755,0.3244050677613127,0.5506499902462206,-1.4279780383863887,-5.91799329072372,7.637825451635053,-0.008252545075986035,0.0016389391395707866,0.00025054393946289755,0.6626620887502519,0.12570925889542697,-0.4021859250223904,1.4750618307423498,-5.998301554914564,7.822328728631236,-0.008367908325603442,-0.0006032880095299901,0.00445503207977832,0.01839388834628345,0.4190147725153264,-0.809561190560932,0.32735576500237334,-5.965459103246119,7.766070948869494,-0.00723823970540491,0.0016655739931882346,-0.0035577850188445643,-0.3079110348261311,0.43450152568359596,-0.41365443471565544
2.0516987738125145,-6.057339789289179,7.368989019018575,-0.006994789417724046,0.0020210588660632724,0.011506234486642565,-0.575792821782528,-0.10664369736395847,0.19728859507396374,0.1079523584157891,7.577057693578805,6.230027785172126,-0.012733768212178776,-0.0032187250580744363,-0.010162524544572038,0.42399200241719825,0.3353474979423029,0.5465363073173564,-1.442076216518789,-5.937537805907821,7.602865401727114,-0.012364946811602407,-0.0008133133146003084,0.0005227550081417919,0.6638365879502076,0.11836440889341707,-0.4030566276566335,1.4795346105367073,-5.973337869582151,7.7699367073156225,-0.01397427318328587,-0.002779372930019106,0.006167542956054245,0.018447506320027285,0.41534428130586915,-0.8051736071264902,0.32347244379393564,-5.992268753441102,7.790965656717042,-0.009569574306188221,0.002259130722473742,-0.00429720397201686,-0.3050265180582611,0.42958733132846466,-0.4132095000509321
2.0685440420757835,-6.048029212544668,7.369227878439715,-0.006585096551410268,0.0002982536039118898,0.010784614930369937,-0.5764819603848836,-0.09906802550106975,0.19338848663796104,0.10023376573015724,7.5509893640402925,6.255143826719808,-0.011620274643700496,-0.002703414338194383,-0.01101799864408307,0.42130679148274863,0.3398025883019542,0.5506222506753649,-1.4195619235631112,-5.937278483823061,7.584880845192068,-0.011208060539801737,-0.002174725100253554,-0.0014012860787385234,0.6733452504218763,0.12843206834793308,-0.4118337885363129,1.4707997420095382,-6.002460238500116,7.685011534101676,-0.0124566198925225,-0.0028187957786521413,0.004991448007488965,0.026149988117229267,0.4260967434672052,-0.8145317094251835,0.3295360849321296,-5.986089729304468,7.77994402276984,-0.009569574306188221,0.002259130722473742,-0.00429720397201686,-0.2976402872993817,0.43954136330913474,-0.4178680642615426
2.072596666000217,-6.074775005439745,7.35171220409527,-0.0038002371569621917,0.002140088853999899,0.010524687893131527,-0.5701682925796967,-0.10471558617758886,0.18801116135016416,0.10020812621284515,7.55526620661912,6.229864415429766,-0.006500196542613804,-0.002573527322667497,-0.0111867013469957,0.42472374572705635,0.3393117870414176,0.5498865830772183,-1.4252160664857367,-5.9445839415593555,7.563363407052881,-0.005292362403896216,0.002060171045357045,0.0015221870613358706,0.6697548119937184,0.13342565374725518,-0.40602391153647177,1.4695756036952372,-5.976178977014163,7.651755501685068,-0.005288889226855701,0.0022489196513738106,0.0046581622071064045,0.02310020373321187,0.43096469539931914,-0.8054484749683596,0.34397746695177717,-6.0254743019032,7.795579642155649,-0.00860704763030611,0.001061170429966394,-0.0032690373825037386,-0.30097539724043887,0.4429692096355994,-0.4119671965081351
2.0712917727770046,-6.063542286697539,7.384493496387282,-0.0007389734406826213,0.002305023315856719,0.011658210315795585,-0.5750379412922099,-0.10274143172925224,0.19655891887075577,0.09449489172747974,7.566743703206328,6.226202233456427,-0.004817744030631896,-0.002317842235559596,-0.010552606968250397,0.42006080884304964,0.3352184341533734,0.5394708909374845,-1.4241325109065828,-5.922037540021994,7.5698913610985965,0.0016360170968739846,0.006826872356038475,0.00662683573759707,0.6743954071165298,0.13267900576542185,-0.40531518542762407,1.452024230896373,-5.981010925689539,7.677994780693339,0.0049062565812264345,0.0070398518530912476,0.0061117713672633415,0.02768804435198547,0.4285257644806237,-0.8091757233408943,0.33788028846820806,-5.988395167614935,7.783175054577967,-0.001893697229836158,0.005411630623817153,-0.004232169513745312,-0.29807627868008646,0.4405019372712052,-0.4127332798279618
2.048253982760121,-6.046134733226868,7.384116716207699,-0.0003500741959263438,0.0026503500724587253,0.010967438422474255,-0.5747619172980986,-0.09712318368657369,0.19119286802440577,0.10844979338157107,7.571770589640278,6.229612644957231,-0.007864325223236894,-0.003279216077758665,-0.012117470020533537,0.42275796152372874,0.3385011907615505,0.5455111192004375,-1.4180046220231566,-5.909536143414588,7.583142833231786,0.003371517379675873,0.007443323876182379,0.0045534341142479335,0.6704143636773701,0.13230773862881762,-0.41480192932892135,1.451728030262504,-5.987487137889665,7.741298711177341,0.007637695925726018,0.010881582292907466,0.002077003550509922,0.024422950213358302,0.4241469589115233,-0.8157339233267074,0.3365480846984759,-6.0081122835957,7.785975301802225,-0.003303472027109523,0.003534154032512039,-0.0038423635747523673,-0.3023639649873438,0.43595052923575073,-0.42370441112903373
2.0832500216059064,-6.047003303205536,7.362883787481391,-0.002744046383372917,0.00115183070754861,0.010535591367694842,-0.5745235234756899,-0.09835156539560985,0.19900472771095565,0.09969289754021415,7.570667384826074,6.237929093740307,-0.009519906754508829,-0.004213871132014469,-0.011360204728271067,0.42109873214057864,0.32833252724526624,0.5510571157877682,-1.4459399386438425,-5.94044133628982,7.613440283696252,0.001220649591794183,0.0068111389621395456,0.0051600831013150685,0.6687287846881168,0.13212254843472637,-0.4116114715149078,1.4798773905297127,-5.984680605461297,7.8123019986595095,0.0019979412271726453,0.006869295829650418,0.003911411977471975,0.023214635887623007,0.4268328577173501,-0.81498080640678,0.3289116664768275,-5.999715131250776,7.778442551027098,-0.005280844147665095,0.0022823452730248153,-0.0036753087139412637,-0.3010800607777174,0.4395868683043822,-0.42052573386349584
2.063505322004426,-6.046826884514,7.39441398948031,-0.001369597924175412,0.0005323764794815017,0.010911758740468435,-0.5703891393874285,-0.10105895848872949,0.19558346890021666,0.09190628153993222,7.5720354243110854,6.233199397742508,-0.012524055858062842,-0.0023608318418319543,-0.009792407052339797,0.41352103493741366,0.3242991752226101,0.5448020022349634,-1.4248971936844361,-5.928022610683637,7.645397096770957,-0.005876326838381276,0.00177751693288558,0.0018601799487751051,0.6689377127172119,0.12021696632630532,-0.4077648349661417,1.4918101966439408,-6.008101292547848,7.827625462714158,-0.002631020583525237,0.002765748418545572,0.006340432191450294,0.024040905866660793,0.4185159741622645,-0.8071940493890679,0.3222918359176464,-5.976337284776159,7.80384700549038,-0.006456995580188233,0.0022616078494396286,-0.004019748501185451,-0.30401448076227666,0.43495732273619536,-0.41539362316844064
2.052465086098398,-6.038142945011822,7.36446897153305,-0.005673041824902282,0.0014149757925404013,0.012938424979858795,-0.5720695523342204,-0.09616487537458784,0.19436717378794857,0.09679789143142721,7.566943562462841,6.242491370653995,-0.01382294932762578,-0.004062527463929243,-0.010364841122309138,0.4183706883191566,0.33431430676786,0.5441303273074203,-1.4280555483288044,-5.929342145346968,7.616611826297802,-0.011797386012168839,-0.0007641697466969972,-0.0008746295662256447,0.6647599605435991,0.12187593163474478,-0.4123969777620049,1.469615405909094,-5.985185112755101,7.78879261648905,-0.0105641844202794,-0.002552959868699156,0.006590269527351485,0.018299858579228244,0.41512200335447325,-0.8164040875105593,0.30984381200693484,-6.009036453855998,7.78879493393174,-0.007997493605671091,0.0017075656327848756,-0.0031473569287549844,-0.3080040441988545,0.4276780835117071,-0.4166111090608403
2.060914893414757,-6.058861154423497,7.373447783040727,-0.005228392160291123,0.0027719192622494915,0.011205542959704209,-0.5757726141235819,-0.10297566935317164,0.1904558575433247,0.09949095198179876,7.552587677346111,6.249671097207791,-0.012425481052694518,-0.003676039489635143,-0.010476045736811792,0.4132714152555018,0.3272442021660407,0.5457301823451092,-1.4335177881875434,-5.937375183918499,7.594553163304912,-0.012185031421264633,-0.0003130264641696711,-0.00023355876246257789,0.6667263062861604,0.12792941454953308,-0.4149490379143284,1.466189880684814,-6.0218874871920365,7.706007300051721,-0.012975567789677102,-0.0028676073626718083,0.006755318611956399,0.022952712833067365,0.4221960207642736,-0.8159624236356816,0.32503940107460283,-5.982988942041256,7.7801288324929505,-0.009152674901464704,0.0023228638759077097,-0.0035433319858716394,-0.3028400568567394,0.43693136051899595,-0.4234514199716728
2.073080750829303,-6.065456388270495,7.356984413492777,-0.005152841997908945,0.0017164089466463264,0.010133586269058857,-0.5723496574355581,-0.10226689236589773,0.1938737918162773,0.09694838679054354,7.548209534178962,6.265022556606043,-0.007399534322721948,-0.0018652156404421506,-0.012396534855414629,0.42081260896992345,0.34348688302454,0.5520280846062202,-1.4128605980960718,-5.936679507817229,7.56297515573181,-0.008854900777078853,0.0011178639978826287,-0.0004657620748045023,0.664540603968646,0.12192674086701824,-0.4092225855186077,1.4645034876061045,-5.974796615626672,7.661266570256619,-0.00748829402716294,-0.00024818511467257146,0.005457264398177056,0.0176138562144575,0.4160931823634876,-0.812974905525307,0.34007998760752356,-6.012774418734618,7.794148292000893,-0.00924517075244657,0.001523360497104327,-0.005414968933795332,-0.30628616102551,0.43035486521877786,-0.41881220585458456
2.0697072223915147,-6.067411287597382,7.385931371942693,-0.00034014516250161766,0.0026382912942441053,0.010967425646665791,-0.5725879393282293,-0.10128825286811585,0.19363071266660323,0.10198962789840046,7.574297279553113,6.230040945102485,-0.006189923243927732,-0.0030217707358681,-0.011496379119276397,0.4132681275214801,0.32970509127362274,0.5469105788848317,-1.4218954676262174,-5.93284062276198,7.563065439206661,-0.0021328473734748606,0.0032191679217714033,0.0030958226649631226,0.6707708571843819,0.13760406407981474,-0.4038986416093122,1.4533052568632019,-5.988072798333387,7.638111803858172,8.552571427228787e-05,0.006407548906305762,0.00644483726446976,0.02355746855246343,0.4321898873589154,-0.8078943209461791,0.33827022210152646,-6.000771162533011,7.813011762264126,-0.0038710327496710747,0.004161813447274869,-0.0040631066046876085,-0.3016813336417642,0.4461534177778388,-0.4126802156552696
2.0637500082262665,-6.062065810411572,7.392404355647705,-0.0013616511578179865,0.0005233294462312737,0.010911749053892333,-0.574523324191308,-0.0983524353413351,0.19998072730290234,0.09585071853532415,7.554923276708162,6.226872585653851,-0.004827798329128286,-0.0023171209883554042,-0.010567586650630739,0.4198504178887742,0.33587556961853343,0.549716187645086,-1.4289165501905392,-5.928125559268551,7.591405711839047,0.003371527203682381,0.007439386804003921,0.004557496055428023,0.6642788633136117,0.12140967357144593,-0.411165784489725,1.4531819594100397,-5.995257129297953,7.700856046656454,0.005935166234841471,0.007686938313782407,0.003911327539966681,0.019103317895801206,0.4180412871100249,-0.8112815340963738,0.32219140536372287,-5.99282614099103,7.800132254431543,-0.004995653331117952,0.003668510464661931,-0.0024358470325445327,-0.3086925763303401,0.4315891861095548,-0.41610120321362837
2.0589374212822005,-6.0455855528226286,7.360304014361236,0.0017464426460458004,0.0027299374073253804,0.011019081306359353,-0.5695915940166294,-0.09008073629047976,0.19925509289340737,0.09330307685140844,7.578338055828481,6.212095142417722,-0.009026235717135782,-0.0034818342324258412,-0.01024786715158866,0.4196422309991626,0.3263875542581651,0.5518274452656544,-1.418296460118298,-5.926557922703661,7.597019669663781,0.00022334576539914894,0.006510818850918039,0.00403633850904611,0.6687791622801338,0.13101593712478804,-0.40426949014017394,1.4653925413490934,-5.989830731505274,7.777480050452296,0.006456334737548991,0.008832625836873807,0.004816784049810358,0.025502919070809028,0.4246197916945054,-0.8079344944741391,0.33274429260752486,-5.996839006522203,7.783456216501377,-0.003739307733600932,0.002839373110292051,-0.004546696384627271,-0.3037186135611827,0.43909955807913026,-0.4141578133274627
2.059535709519306,-6.0531295363603475,7.383132177506087,-0.002021960506694872,0.0018538731084275458,0.01021006954957778,-0.574508630900098,-0.09566247826583282,0.19436811961670616,0.09502956430181542,7.561531841497075,6.232254644939619,-0.011959661903223801,-0.0022690019119302016,-0.01075299839506332,0.4230185137292188,0.3311506392428822,0.5439228188763119,-1.4403470121833881,-5.929283562638025,7.626737870460143,-0.001563258065675619,0.0032693472845616626,0.0017014066395278356,0.6679586712974562,0.11876890060681801,-0.40700153517546406,1.4894963717184413,-6.000676538521231,7.806698344545182,-0.00047105980795415423,0.003424665875047389,0.005659302810560334,0.0218222085567295,0.4141267247016719,-0.8083945294678658,0.31456233845265774,-5.985326343292733,7.7919176909281616,-0.005675733154611226,0.0028586374971634916,-0.004480707959403039,-0.3040715829420144,0.42909665683196935,-0.41517346299922003
2.0586730913245987,-6.043531321458976,7.343861892473289,-0.006314490009358295,0.0017054038547967439,0.012220814523335123,-0.5708887460031868,-0.10325891539604234,0.20217261276231716,0.09662336804168956,7.571781222070648,6.223201032318305,-0.012687607083229384,-0.004231383312138606,-0.009839853798067457,0.4215899646906682,0.32339503909925293,0.5477187841101617,-1.4382625701259606,-5.924328308597478,7.618593172325597,-0.010624497219928815,0.001726735235874709,-0.0003124967982453529,0.6740371414260103,0.12351529736758696,-0.4137157654132231,1.4744832757264024,-5.985845969999131,7.811434452128962,-0.010508475875212421,0.0011254667085921393,0.006340630841480154,0.028311195636891794,0.4199946323471815,-0.8167700684079733,0.3326527044415987,-6.003166859687358,7.817983174084229,-0.009506627295279001,0.004169229305542745,-0.004449801733387662,-0.29746715559314535,0.4349133424713403,-0.42081881476560684
2.068218309282181,-6.061965861526216,7.395429533641481,-0.0031239431699005946,0.0018234556745693633,0.011241267876628162,-0.5725566528280793,-0.09591560678465001,0.19168149430615014,0.09444760188079862,7.567005786381798,6.23901388647544,-0.012000023053424754,-0.0019529708741151733,-0.00971994981891019,0.42231317644106114,0.3310299157083595,0.5514973186048846,-1.4313430047471147,-5.931036152511796,7.602272590473561,-0.011002448710648155,-0.0012066132365901635,-5.3776080576611865e-05,0.6699039038651947,0.11801877369687915,-0.40749401246062117,1.4571321762295628,-5.9993048309572075,7.713523496255975,-0.012983654523486182,-0.00286358517797528,0.0067484319025412935,0.02523138729820596,0.41510043972560595,-0.8091694509870083,0.3172541109827628,-5.986430207798121,7.802897465415823,-0.007955526817904835,0.0029806286082835524,-0.003248423486720695,-0.30113808620951565,0.4278391669993523,-0.4132486948985692
2.065974032036205,-6.053177618686606,7.3854908210269015,-0.0041642489251665004,0.001775614956088254,0.011215437638227292,-0.5711132909501292,-0.0993402240807547,0.18948114618267037,0.10898341989336104,7.543352208974883,6.23027788484078,-0.009959900844717312,-0.0024583242039702994,-0.010415657649499295,0.41743118759244435,0.32903825513442264,0.5500818342212876,-1.4134494163133724,-5.936363208463237,7.577884056490272,-0.00981416930953866,0.0015167922590839152,0.0015667718425133187,0.6692189900703316,0.12512082370363387,-0.40637828677965765,1.4561795871109906,-5.9663695314898195,7.659262921959672,-0.009020189849299278,-0.000753165871608539,0.005288375010572,0.023803060570444914,0.4182712949498488,-0.8067033583476991,0.3247533086671409,-5.997217639735027,7.808591347246107,-0.008523124141187041,0.0036062964401014437,-0.0034711745649025363,-0.2991259784728128,0.4326971832766712,-0.4120250126255894
2.067227982168056,-6.072785663656782,7.345382070828042,-0.0041543581071317795,0.0007405523597672932,0.011199513021562659,-0.5765164747259045,-0.10492713960297244,0.19362827133544808,0.10907501138101826,7.5794043090014505,6.246924471988715,-0.005980228516433624,-0.0021558455088439873,-0.011124394411977278,0.42327374866605144,0.33690314580611624,0.5521287853256077,-1.4170792847187028,-5.9373705436219115,7.549204593590174,-0.005683036672335725,0.002507315561046629,0.0021623436031816766,0.6638038600673835,0.11926412247928522,-0.4079541483915656,1.4720442917548244,-5.998238026868046,7.634180896943899,-0.0027299250887415126,0.004500876799058138,0.0052909935786730825,0.019850465207828467,0.4173051353885808,-0.8100716557813581,0.33254576969006333,-6.003878380958148,7.778036408552586,-0.007022562813441928,0.0028902553986752404,-0.004242503890592349,-0.3059883868103789,0.4322880727750122,-0.4146554541105756
2.0663526565181995,-6.071625061895853,7.387604301697092,-0.0003183192423390886,0.0015921572122160855,0.010952488725013369,-0.5713587759647075,-0.0995825628521599,0.1892369801991851,0.09509379689990112,7.556474115363922,6.221615722130644,-0.007988014179369788,-0.0019686961035738334,-0.011470672958547827,0.41765089323758864,0.3380868813511855,0.5509072395876404,-1.4211871771028584,-5.927141026182797,7.570009105699883,0.0013902693713879737,0.007075132639999404,0.0033603760505924846,0.6702496740631582,0.13295311389553927,-0.4047991978471672,1.4644123019861752,-6.011592617198455,7.694611534531783,0.004931536643728642,0.008321622048101465,0.00465579056875556,0.025001154022184183,0.42462220844218274,-0.8089039907326718,0.3443298115165316,-5.9928431416845,7.794403097600934,-0.0038002291234954092,0.0009342665745348845,-0.004397094674514544,-0.2973532711874518,0.4400086325407154,-0.41322928648968177
2.0535047745946153,-6.043252625987639,7.368352206416006,-0.0018082011677233267,0.0012164071225773704,0.012674458735945573,-0.5772414580548497,-0.10395227860949979,0.1997322908485359,0.08533682309911561,7.579954007023429,6.213730864242982,-0.007567576687818206,-0.004091580578891992,-0.010013721408169108,0.4239931009504668,0.3360965689917175,0.5475000273784496,-1.4352149734030797,-5.934292206247167,7.599000932973211,0.0017769095175024694,0.006622994921610514,0.0027193285632542614,0.6665801626770527,0.13223347960670803,-0.405247555603407,1.4679342284589127,-5.970156992738178,7.746483020779118,0.003648073476057446,0.0074693726479736055,0.0050040150038733805,0.022572944381904155,0.4273084273035479,-0.8081348638434677,0.3439618334205059,-6.003014613981923,7.795529962465763,-0.0021272272203181875,0.0035608745037117146,-0.003493899558080227,-0.3039140799209659,0.4425127174699016,-0.41243297221148045
