# sampling frequency: 40
# units are seconds/meters/radians/a.u.
seg1_acc_x,seg1_acc_y,seg1_acc_z,seg1_gyr_x,seg1_gyr_y,seg1_gyr_z,seg1_mag_x,seg1_mag_y,seg1_mag_z,seg2_acc_x,seg2_acc_y,seg2_acc_z,seg2_gyr_x,seg2_gyr_y,seg2_gyr_z,seg2_mag_x,seg2_mag_y,seg2_mag_z,seg3_acc_x,seg3_acc_y,seg3_acc_z,seg3_gyr_x,seg3_gyr_y,seg3_gyr_z,seg3_mag_x,seg3_mag_y,seg3_mag_z,seg4_acc_x,seg4_acc_y,seg4_acc_z,seg4_gyr_x,seg4_gyr_y,seg4_gyr_z,seg4_mag_x,seg4_mag_y,seg4_mag_z,seg5_acc_x,seg5_acc_y,seg5_acc_z,seg5_gyr_x,seg5_gyr_y,seg5_gyr_z,seg5_mag_x,seg5_mag_y,seg5_mag_z
1.856061,-7.486213,6.244929,-0.038117,-0.005179,0.00153,-0.339355,0.371094,0.015869,0.000572,8.244978,5.209856,-0.065104,-0.004453,0.011766,0.131104,0.321289,0.562012,-1.501334,-7.121212,6.592516,-0.099491,-0.049993,-0.026532,0.639404,0.115234,-0.270508,2.162152,-7.198117,6.092732,-0.074319,-0.056104,0.015469,0.079102,0.305664,-0.604004,0.64512,-6.083924,7.837363,-0.078727,-0.031481,0.003518,-0.253418,0.378906,-0.426758
1.868241,-7.419622,6.210092,0.016043,0.004771,0.003075,-0.333496,0.371826,0.020752,0.004655,8.235722,5.252799,-0.001244,0.014039,0.008054,0.128174,0.327393,0.565918,-1.371511,-7.191916,6.464085,-0.016004,-0.008575,-0.013571,0.645508,0.119385,-0.269531,2.08387,-7.148119,5.801637,-0.025586,-0.004724,0.014443,0.083008,0.309814,-0.603516,0.598483,-6.020157,7.851456,0.053245,0.023027,-0.012989,-0.245605,0.378418,-0.426025
1.835852,-7.365693,6.228079,-0.002172,-0.002322,-0.001268,-0.343506,0.381592,0.017334,-0.047172,8.234357,5.28401,-0.00902,0.001566,0.004535,0.123291,0.334717,0.56958,-1.46499,-7.066587,6.528764,0.049791,0.03018,0.014333,0.635254,0.123779,-0.270752,2.059378,-7.104853,5.884319,0.046693,0.02653,-0.000579,0.072998,0.316162,-0.603516,0.542643,-5.817703,7.834094,0.029362,-0.00984,-0.002757,-0.257568,0.384277,-0.42334
1.836582,-7.450577,6.255523,0.027523,0.00546,-0.006361,-0.335938,0.369629,0.011475,0.01879,8.254217,5.201536,0.042562,0.00746,0.00375,0.13208,0.329102,0.56958,-1.495176,-7.008331,6.682312,0.049357,0.043509,0.026595,0.641357,0.115723,-0.277588,2.186807,-7.166328,6.255778,0.048646,0.043644,0.007652,0.081055,0.306152,-0.608643,0.61096,-5.883643,7.81752,0.000395,0.003301,-0.001566,-0.248535,0.376953,-0.430176
1.807215,-7.274125,6.271968,0.049111,0.001985,-0.002933,-0.337891,0.369873,0.01416,-0.087986,8.38369,5.167215,0.04158,0.014723,0.002859,0.130127,0.323486,0.56958,-1.611786,-7.052938,6.813039,0.04472,0.050187,0.029753,0.640381,0.114014,-0.269531,2.227009,-7.262979,6.676857,0.057532,0.048177,0.001906,0.081787,0.303467,-0.607422,0.518301,-5.91766,7.842444,0.021226,0.012935,-0.003167,-0.250488,0.377441,-0.430908
1.7951,-7.235105,6.321547,0.00427,0.00411,0.001221,-0.339844,0.374756,0.025879,-0.045362,8.396764,5.101706,-0.011442,-0.003014,0.005353,0.139893,0.330078,0.562012,-1.676305,-6.971223,6.929031,0.039514,0.004912,-0.001589,0.636963,0.12085,-0.263184,2.242827,-7.209598,6.901,0.020452,0.005773,0.003675,0.07666,0.30835,-0.595947,0.525933,-5.802932,7.797496,0.068978,-0.004883,-0.007784,-0.254395,0.379883,-0.419189
1.787812,-7.286355,6.292545,-0.024841,0.000853,0.001794,-0.340576,0.373535,0.011475,-0.059001,8.360448,5.152776,-0.030375,0.01282,0.010724,0.138184,0.329102,0.560059,-1.624262,-6.879548,6.874878,-0.044973,-0.014261,-0.017683,0.638672,0.116699,-0.280518,2.247311,-7.222923,6.757899,-0.058515,-0.02672,0.018991,0.078369,0.307617,-0.611328,0.524487,-5.636311,7.898368,-0.016037,-0.005487,-0.008266,-0.252441,0.381104,-0.43457
1.834197,-7.335005,6.239004,-0.024389,-0.001753,0.002178,-0.334473,0.378906,0.01709,-0.048511,8.317723,5.18197,-0.051371,-0.003122,0.012031,0.134521,0.33252,0.562988,-1.589076,-7.050473,6.733495,-0.099695,-0.04426,-0.020253,0.643799,0.120117,-0.269043,2.154467,-7.192364,6.38367,-0.065723,-0.042086,0.017093,0.083008,0.3125,-0.605225,0.562434,-5.882337,7.818007,-0.105971,-0.009308,0.013213,-0.246582,0.382812,-0.426514
1.840209,-7.380198,6.243955,-0.029166,-0.001734,0.000709,-0.337891,0.374512,0.020996,0.015285,8.283721,5.243971,-0.040949,0.007241,0.010389,0.121826,0.327637,0.565918,-1.428672,-7.135152,6.569294,-0.043948,-0.030434,-0.024156,0.639893,0.119629,-0.266602,2.139224,-7.141224,5.992978,-0.057057,-0.037449,0.015259,0.077148,0.310547,-0.600098,0.566042,-6.031161,7.820655,-0.0047,-0.006887,-0.011518,-0.248047,0.383057,-0.423584
1.862962,-7.463425,6.212685,-0.009278,0.00208,0.000102,-0.339111,0.366211,0.021729,-0.016969,8.228768,5.264059,-0.019248,0.00409,0.008068,0.123047,0.326904,0.557861,-1.432313,-7.09411,6.514014,0.002745,0.009657,0.000392,0.638184,0.11084,-0.264404,2.112275,-7.170342,5.880916,4.3e-05,0.009966,0.009606,0.076416,0.302734,-0.596191,0.64093,-5.919471,7.869616,0.021221,-0.0123,-0.003441,-0.252197,0.371094,-0.418945
1.830753,-7.39503,6.227286,0.045756,0.00271,-0.000491,-0.338623,0.377686,0.01416,-0.002883,8.24678,5.213718,0.033988,0.008579,0.00403,0.137939,0.328857,0.561768,-1.478022,-7.074299,6.606532,0.040882,0.026143,0.018378,0.638184,0.122314,-0.273682,2.091842,-7.1455,6.066747,0.047182,0.034424,0.002595,0.078369,0.313232,-0.609131,0.574201,-5.898591,7.812743,0.018156,0.023197,0.001664,-0.252686,0.384766,-0.428223
1.809368,-7.268322,6.286671,0.017504,0.001932,-0.004347,-0.342773,0.373779,0.020508,-0.055493,8.353898,5.185737,0.027123,0.009334,0.002962,0.126709,0.326172,0.557129,-1.562207,-7.026754,6.743619,0.057843,0.050704,0.022775,0.636475,0.117432,-0.26709,2.193775,-7.20615,6.42691,0.051927,0.036808,0.003152,0.074951,0.313232,-0.602295,0.501416,-5.853596,7.836289,0.034218,-0.003588,-0.00795,-0.255859,0.379395,-0.424072
1.821968,-7.375447,6.263876,0.006017,0.001361,-0.002414,-0.344727,0.365723,0.017334,-0.046382,8.336515,5.152749,0.004284,0.0023,0.008172,0.131836,0.334717,0.571289,-1.649943,-6.987757,6.862268,0.031507,0.025099,0.014699,0.634521,0.110352,-0.268311,2.248284,-7.23276,6.757426,0.032901,0.030213,0.006391,0.072754,0.301758,-0.603271,0.596015,-5.831111,7.846446,0.019133,-0.007388,-0.000715,-0.256348,0.375244,-0.425293
1.813796,-7.231711,6.296079,0.028298,0.001115,0.000746,-0.341064,0.37207,0.018555,-0.059868,8.376525,5.118741,0.003485,0.010317,0.005553,0.133545,0.335449,0.566162,-1.616875,-6.960807,6.889359,-0.001467,-0.002077,-0.007857,0.638184,0.116455,-0.26709,2.237615,-7.249236,6.790804,-0.013621,-0.010938,0.010077,0.075439,0.308838,-0.603027,0.510714,-5.787417,7.840446,0.009567,0.015605,-0.006749,-0.253662,0.378906,-0.427002
1.798718,-7.241013,6.327397,-0.041692,0.001933,0.001459,-0.343506,0.372803,0.025879,-0.078158,8.369077,5.168703,-0.044995,0.001187,0.01172,0.134277,0.328613,0.561768,-1.632929,-6.979047,6.807043,-0.058412,-0.021496,-0.014829,0.635742,0.115479,-0.262939,2.219362,-7.179273,6.586443,-0.049673,-0.023965,0.014605,0.073975,0.306396,-0.597412,0.516937,-5.809709,7.828896,-0.025102,-0.018558,0.002021,-0.252686,0.379395,-0.420898
1.843227,-7.423515,6.228459,-0.032335,-0.003604,0.001947,-0.341553,0.376953,0.02002,-0.015009,8.297647,5.210281,-0.051447,0.0007,0.010095,0.127441,0.332764,0.568115,-1.518247,-7.052646,6.671974,-0.063291,-0.037634,-0.023351,0.636719,0.118652,-0.269043,2.134064,-7.172006,6.243807,-0.067342,-0.040294,0.019113,0.075928,0.310059,-0.602539,0.575774,-5.842208,7.826996,-0.028897,-0.004128,-0.007228,-0.253906,0.38208,-0.421143
1.853759,-7.39747,6.222542,-0.002905,7.3e-05,0.002068,-0.341309,0.378906,0.019531,-0.015275,8.220267,5.245964,-0.031814,0.008468,0.010574,0.130127,0.324707,0.566406,-1.428708,-7.111554,6.559481,-0.036947,-0.007916,-0.007436,0.637451,0.121094,-0.265625,2.158545,-7.171113,5.992472,-0.028748,-0.018622,0.011531,0.07666,0.313477,-0.599609,0.596378,-5.969439,7.859266,-0.048737,-0.012153,0.001265,-0.25293,0.383545,-0.423096
1.858453,-7.414304,6.235569,0.007871,0.001312,-0.001081,-0.337158,0.369141,0.02002,-0.023214,8.246925,5.217232,0.020341,0.005355,0.002932,0.125,0.322754,0.557617,-1.470182,-7.138143,6.545671,0.021064,0.011818,0.0083,0.640137,0.114258,-0.266113,2.094812,-7.169002,5.975866,0.017964,0.028243,0.009129,0.077393,0.306641,-0.601318,0.625971,-6.015721,7.824455,0.028611,0.007355,-0.003461,-0.249756,0.378174,-0.426025
1.821178,-7.341296,6.243168,0.029044,0.004769,-0.000414,-0.342285,0.372803,0.020508,-0.03682,8.335766,5.21122,0.011094,0.008029,0.005424,0.126953,0.327881,0.561523,-1.486064,-7.018463,6.655977,0.06369,0.038368,0.014265,0.63623,0.116455,-0.265625,2.152477,-7.15344,6.256373,0.053237,0.0215,-0.001825,0.071777,0.305908,-0.601562,0.534321,-5.816602,7.842255,0.062168,0.006094,-0.011833,-0.257568,0.380615,-0.424072
1.823226,-7.345711,6.281276,0.01064,0.002217,-0.004313,-0.338623,0.374268,0.02417,-0.052208,8.274063,5.17534,0.005932,0.009295,0.003901,0.13208,0.329346,0.561768,-1.59993,-6.984295,6.792731,0.019897,0.035822,0.023636,0.63916,0.116943,-0.264893,2.239267,-7.165612,6.553588,0.030333,0.038605,0.008189,0.076904,0.306885,-0.599365,0.581149,-5.808159,7.820049,-0.004833,-0.005083,0.005252,-0.253662,0.378418,-0.422852
1.782478,-7.291778,6.279208,0.02649,0.003543,-0.002223,-0.345703,0.37793,0.016357,-0.071593,8.393974,5.114562,0.036806,0.010065,0.005457,0.131592,0.339111,0.568604,-1.64561,-7.052106,6.847007,0.012409,0.010238,0.004746,0.63501,0.118652,-0.273438,2.188541,-7.293056,6.740642,0.002578,0.017829,0.011885,0.074219,0.309082,-0.60498,0.512079,-5.857613,7.811303,0.013094,0.017614,-0.008054,-0.25293,0.383057,-0.427979
1.836157,-7.208005,6.281517,-0.012628,-0.00314,0.00257,-0.337402,0.378418,0.013916,-0.05579,8.400995,5.179005,-0.046448,-0.003194,0.011503,0.126221,0.339111,0.563232,-1.608576,-6.945438,6.835053,-0.000548,-0.010356,-0.013543,0.641113,0.119629,-0.275635,2.247224,-7.192486,6.686209,-0.003574,-0.030127,0.001929,0.079834,0.312988,-0.613525,0.527141,-5.797005,7.849586,0.007363,-0.025431,-0.00542,-0.249756,0.381592,-0.433105
1.838368,-7.412411,6.26774,-0.0466,0.00098,-0.000429,-0.342285,0.373779,0.017578,0.012801,8.249628,5.174876,-0.051878,0.007613,0.011528,0.130859,0.331787,0.567139,-1.54616,-6.966296,6.747167,-0.07117,-0.026387,-0.016071,0.637451,0.119873,-0.268555,2.211739,-7.146608,6.422593,-0.069446,-0.02177,0.020529,0.075684,0.310791,-0.601074,0.619491,-5.820966,7.864537,-0.035161,-0.001794,-0.003162,-0.253906,0.379395,-0.427002
1.816174,-7.385769,6.244909,0.014603,0.001892,0.005227,-0.342773,0.370117,0.014648,-0.084641,8.298032,5.223818,-0.003149,0.009987,0.006559,0.135498,0.331787,0.565186,-1.521679,-7.11223,6.619917,-0.054433,-0.016418,-0.0117,0.633545,0.115723,-0.271484,2.112161,-7.22105,6.134755,-0.046784,-0.025278,0.014852,0.072754,0.309082,-0.606934,0.531825,-5.955193,7.862595,-0.046009,0.011904,0.003582,-0.253662,0.379639,-0.42749
1.834298,-7.305978,6.255943,-0.015254,-0.000905,0.000163,-0.34082,0.374268,0.01709,-0.012601,8.313413,5.230335,-0.032438,-0.003084,0.009264,0.137207,0.328369,0.561279,-1.473791,-7.104649,6.568737,0.010982,-0.005889,-0.006283,0.636963,0.12207,-0.268311,2.14183,-7.14098,5.976208,0.002388,-0.004097,0.00654,0.074951,0.310547,-0.601807,0.553184,-5.941804,7.779693,0.034217,-0.019059,-0.008262,-0.251953,0.382568,-0.424072
1.86476,-7.492369,6.19418,-0.006525,0.00093,-0.004585,-0.34082,0.365967,0.018799,0.016197,8.202832,5.219465,-0.00389,0.011515,0.007791,0.139404,0.330322,0.563232,-1.46937,-7.037227,6.59498,0.022861,0.026621,0.010797,0.63501,0.111328,-0.266602,2.140403,-7.183616,6.116842,0.013528,0.029915,0.009105,0.076416,0.302246,-0.602051,0.639259,-5.816496,7.898083,0.01306,-0.002474,-0.0086,-0.253418,0.372803,-0.425781
1.828824,-7.33654,6.26885,0.062694,0.006178,0.001862,-0.339111,0.365479,0.016846,-0.034184,8.295219,5.167943,0.045595,0.006731,0.000725,0.134277,0.324707,0.55957,-1.562773,-7.067634,6.732286,0.033365,0.033032,0.021507,0.638428,0.107666,-0.26709,2.164898,-7.195913,6.383089,0.055958,0.027104,7.9e-05,0.07666,0.300537,-0.603027,0.587887,-5.960995,7.827182,-0.024477,0.017617,0.011466,-0.252686,0.373291,-0.422852
1.808262,-7.208401,6.314377,-0.000268,7e-06,-0.001576,-0.33374,0.367676,0.019531,-0.054182,8.418256,5.174819,0.011997,0.009157,0.004319,0.123291,0.330566,0.55249,-1.599202,-6.998274,6.813827,0.042762,0.025818,0.008675,0.643066,0.111328,-0.26709,2.232665,-7.168859,6.626643,0.01916,0.019661,0.006842,0.081787,0.303223,-0.604492,0.478354,-5.883314,7.777156,0.084129,0.008202,-0.014563,-0.245361,0.373779,-0.425049
1.804018,-7.35945,6.246457,-0.018513,0.000582,-0.001399,-0.338623,0.377686,0.01709,-0.072809,8.333907,5.164921,-0.041019,0.002772,0.009476,0.135498,0.32959,0.563232,-1.652082,-6.947143,6.858899,-0.012815,0.003085,-0.0014,0.640381,0.122314,-0.271973,2.240683,-7.252975,6.693169,-0.022447,0.00453,0.016084,0.077881,0.311279,-0.60376,0.547894,-5.633303,7.879844,0.011077,-0.022189,-0.005522,-0.250977,0.384766,-0.42749
1.842798,-7.310527,6.290734,0.014821,-0.00038,0.00094,-0.339111,0.37793,0.020752,-0.022925,8.301455,5.151941,-0.007863,0.004455,0.009204,0.132324,0.333008,0.566406,-1.571603,-7.024855,6.782946,-0.049931,-0.02437,-0.013063,0.63916,0.119141,-0.267578,2.189023,-7.226019,6.555713,-0.025551,-0.020799,0.009262,0.079346,0.311035,-0.603027,0.599969,-5.856429,7.810784,-0.085095,0.006818,0.008035,-0.252686,0.381592,-0.422363
1.8144,-7.279883,6.275665,-0.034446,0.002506,0.001204,-0.330811,0.375244,0.018311,-0.04405,8.37698,5.223505,-0.025975,0.009483,0.00894,0.129639,0.330078,0.570312,-1.521863,-7.063566,6.671932,-0.031647,-0.012355,-0.018623,0.647461,0.118896,-0.269287,2.164894,-7.155897,6.302544,-0.041973,-0.031248,0.01299,0.086182,0.307861,-0.601318,0.514545,-6.00114,7.827628,-0.006883,-0.002609,-0.009389,-0.244629,0.38208,-0.421875
1.847726,-7.475052,6.231748,-0.019442,-0.000474,0.000954,-0.337646,0.375977,0.018555,-0.017665,8.250451,5.231139,-0.052599,-0.001949,0.011068,0.131348,0.331055,0.570068,-1.50712,-7.058057,6.62758,-0.023861,-0.013508,-0.008878,0.63916,0.120361,-0.269531,2.163912,-7.141734,6.07534,-0.031399,-0.016707,0.013453,0.077881,0.311523,-0.604492,0.619203,-5.863627,7.852716,0.031728,-0.018595,-0.004039,-0.250244,0.382324,-0.425049
1.831134,-7.384539,6.248065,0.027651,0.004265,0.000104,-0.338867,0.36792,0.026611,-0.009185,8.212093,5.202755,0.016368,0.012184,0.004214,0.132568,0.330566,0.571533,-1.458265,-7.08073,6.591659,-0.001008,0.011129,0.006419,0.63916,0.111084,-0.259521,2.133673,-7.166104,6.099743,0.008898,0.013903,0.008134,0.077393,0.303955,-0.594971,0.584255,-5.827418,7.848998,-0.011997,0.016837,-0.005606,-0.25293,0.375488,-0.416992
1.83793,-7.319822,6.272765,0.00379,-0.001394,-0.002784,-0.338867,0.375732,0.021973,-0.05603,8.3358,5.209476,0.015957,0.00415,0.004884,0.136475,0.335449,0.566162,-1.532642,-7.081069,6.653896,0.031673,0.025462,0.012661,0.637451,0.119141,-0.263672,2.158989,-7.174355,6.25007,0.030495,0.030149,0.005833,0.077637,0.307861,-0.599609,0.553138,-5.955076,7.823125,-0.017277,-0.010189,0.004763,-0.253906,0.37915,-0.421631
1.82612,-7.388989,6.250856,0.009584,0.004191,-0.00166,-0.337646,0.370361,0.022949,-0.018175,8.321957,5.173861,0.001723,0.005197,0.005104,0.134521,0.330566,0.554199,-1.549928,-7.014614,6.765757,0.043267,0.025896,0.011142,0.640869,0.113525,-0.265137,2.180528,-7.205812,6.504314,0.031463,0.023833,0.003946,0.07959,0.304932,-0.599609,0.598942,-5.907899,7.819237,0.058651,0.004139,-0.010568,-0.249268,0.376709,-0.421143
1.805938,-7.289935,6.2493,0.029637,0.00119,0.001135,-0.339111,0.367188,0.023438,-0.068846,8.346614,5.145981,0.002606,0.012877,0.005764,0.131348,0.331299,0.563232,-1.630713,-6.974029,6.84551,0.007432,0.018278,0.007525,0.640381,0.11084,-0.262207,2.236661,-7.20403,6.657994,0.014486,0.001995,0.00618,0.079102,0.304199,-0.596436,0.515841,-5.749378,7.86489,0.023722,0.005391,-0.003246,-0.251221,0.377686,-0.419189
1.804308,-7.237743,6.298227,-0.014692,0.001349,-0.000527,-0.348633,0.36499,0.02002,-0.04648,8.366208,5.156066,-0.00988,-0.002318,0.008531,0.135498,0.327393,0.565674,-1.620028,-7.013924,6.814678,-0.030831,-0.013571,-0.006954,0.633057,0.109131,-0.265625,2.238458,-7.208876,6.600264,-0.033162,-0.006451,0.017871,0.069336,0.298096,-0.603027,0.535408,-5.773339,7.813096,-0.023969,-0.00723,0.001439,-0.262207,0.37085,-0.423584
1.827287,-7.374042,6.232698,-0.030731,0.000571,-0.002893,-0.341797,0.374023,0.017578,-0.054313,8.345311,5.16998,-0.040309,0.008808,0.010969,0.124023,0.323242,0.571777,-1.546029,-7.027501,6.710829,-0.032237,-0.01454,-0.015592,0.63501,0.117676,-0.268555,2.166376,-7.22373,6.404968,-0.036918,-0.016211,0.011465,0.074707,0.308105,-0.605469,0.570647,-5.870811,7.854416,-0.034883,-0.006026,-0.00571,-0.254395,0.380371,-0.425049
1.852793,-7.373455,6.254324,0.0048,9.1e-05,0.003669,-0.335449,0.374268,0.015381,-0.020428,8.250279,5.194371,-0.035534,0.001309,0.010384,0.133545,0.326416,0.567627,-1.528439,-7.038058,6.650417,-0.032701,-0.017447,-0.00987,0.642822,0.118896,-0.271729,2.158869,-7.145665,6.213375,-0.023132,-0.023978,0.009397,0.082031,0.307861,-0.605713,0.581967,-5.945941,7.850147,-0.013885,-0.003659,0.002578,-0.249023,0.379883,-0.429199
1.839424,-7.355139,6.261824,-0.007886,0.002583,-0.000414,-0.335938,0.361572,0.015625,-0.004781,8.273884,5.210933,0.00398,0.008995,0.006027,0.127686,0.334473,0.568115,-1.470171,-7.097543,6.605553,-0.01248,0.001743,-0.001025,0.641357,0.106201,-0.268066,2.151738,-7.171019,6.093254,-0.021054,-0.00325,0.014925,0.080566,0.297607,-0.606201,0.565983,-5.894236,7.82308,0.023806,0.001339,-0.011513,-0.248535,0.368164,-0.427979
1.822602,-7.39573,6.220411,0.005769,0.001476,-0.001785,-0.347412,0.366699,0.02124,-0.058123,8.305497,5.216274,-0.002103,0.006394,0.007496,0.133301,0.333252,0.562988,-1.533122,-7.069864,6.650313,0.022202,0.022249,0.010514,0.630371,0.113281,-0.264404,2.156006,-7.185491,6.158628,0.028974,0.020488,0.003949,0.071045,0.305664,-0.59668,0.573481,-5.862902,7.843,-0.003222,-0.004159,0.003461,-0.258301,0.375244,-0.419434
1.84319,-7.345991,6.279966,0.027512,0.001245,-0.001768,-0.348877,0.375488,0.027344,-0.0121,8.312006,5.189851,0.006811,0.003952,0.005644,0.135254,0.32959,0.561768,-1.537879,-7.02199,6.711578,0.036182,0.019514,0.010836,0.632324,0.117676,-0.261475,2.188862,-7.166533,6.376672,0.029102,0.02999,0.005343,0.070312,0.30957,-0.597412,0.565279,-5.891497,7.815517,0.011285,0.00603,-0.003399,-0.259521,0.380615,-0.418701
1.815248,-7.298754,6.263853,0.001574,0.003856,-0.001742,-0.342285,0.371582,0.022461,-0.058264,8.328812,5.180354,0.009309,0.009427,0.006747,0.124512,0.324707,0.561523,-1.592959,-6.998255,6.793473,0.013573,0.023788,0.010555,0.635986,0.114746,-0.262939,2.204356,-7.209014,6.560539,0.011171,0.014447,0.00946,0.075684,0.307617,-0.598877,0.554479,-5.855595,7.849191,0.027585,-0.001944,-0.006825,-0.253906,0.379639,-0.420654
1.82626,-7.330921,6.276165,0.006231,0.000923,5.8e-05,-0.333008,0.381836,0.020508,-0.052124,8.355547,5.151573,-0.00437,0.003543,0.007495,0.131348,0.331055,0.568848,-1.609726,-7.016198,6.816044,-0.007398,1.1e-05,-0.001534,0.645264,0.123535,-0.266357,2.237142,-7.216597,6.614927,-0.008006,-0.002791,0.008389,0.083984,0.31543,-0.605713,0.558856,-5.804049,7.830798,0.006829,-0.000354,2.9e-05,-0.245117,0.388916,-0.425537
1.796973,-7.262213,6.259987,-0.005018,0.002184,0.000614,-0.337402,0.377686,0.021729,-0.058224,8.369226,5.168273,-0.027917,0.007377,0.009232,0.133057,0.334961,0.561523,-1.581016,-6.994114,6.774551,-0.022542,-0.008839,-0.012123,0.640869,0.119385,-0.263672,2.194122,-7.197895,6.493603,-0.023846,-0.013541,0.011797,0.080078,0.30835,-0.600586,0.522254,-5.799549,7.845201,-0.016291,0.001013,-0.005586,-0.251465,0.381592,-0.421875
1.843789,-7.369421,6.277942,-0.030201,-0.003449,-0.00045,-0.3479,0.371826,0.02002,-0.021685,8.288088,5.177302,-0.036521,0.001211,0.011435,0.130615,0.330078,0.572754,-1.549269,-7.034153,6.703108,-0.037969,-0.016115,-0.011266,0.631348,0.118408,-0.268066,2.174004,-7.157978,6.308323,-0.036528,-0.017808,0.013234,0.072021,0.309814,-0.603516,0.564429,-5.887928,7.85664,-0.031355,-0.016001,0.001511,-0.261475,0.377686,-0.423096
1.848026,-7.391808,6.246012,0.008004,0.002284,-0.000665,-0.3396,0.371094,0.016846,-0.015526,8.29334,5.203569,-0.004981,0.009598,0.005077,0.131592,0.32959,0.568115,-1.49928,-7.074733,6.617262,-0.019838,-0.006283,-0.006352,0.640625,0.11792,-0.268799,2.152871,-7.185739,6.167535,-0.020285,-0.007317,0.013435,0.077393,0.306885,-0.605225,0.593585,-5.914253,7.860354,-0.001327,0.005689,-0.009348,-0.252197,0.378418,-0.425293
1.823877,-7.339738,6.242997,-0.000186,-0.001402,0.00048,-0.344238,0.378418,0.015869,-0.033008,8.283208,5.235081,-0.019177,0.003227,0.008197,0.138672,0.336914,0.559082,-1.516424,-7.070915,6.639241,0.00648,0.010238,0.002755,0.632568,0.119629,-0.269043,2.155647,-7.177456,6.157709,0.007813,0.006125,0.006353,0.072266,0.313965,-0.604004,0.574761,-5.922774,7.804411,0.006361,-0.003119,0.001061,-0.258789,0.383545,-0.426025
1.847756,-7.390545,6.247586,0.007991,0.006181,-0.002161,-0.328857,0.371826,0.019531,-0.019452,8.273428,5.17519,0.014113,0.009296,0.004244,0.132812,0.330078,0.569092,-1.52546,-7.058451,6.692729,0.02373,0.020317,0.009573,0.648926,0.114502,-0.269043,2.15581,-7.18798,6.280906,0.018004,0.021785,0.008256,0.0896,0.310059,-0.603027,0.551587,-5.845537,7.849164,0.031657,0.002301,-0.008629,-0.240479,0.379639,-0.422607
1.802029,-7.307122,6.227089,0.025989,-0.000228,-0.001667,-0.334473,0.375,0.013428,-0.064154,8.354505,5.197885,0.009878,0.006166,0.00633,0.133545,0.334473,0.562988,-1.585164,-7.015104,6.76679,0.027047,0.021014,0.008427,0.643799,0.116699,-0.27417,2.188921,-7.195414,6.480104,0.028987,0.018936,0.003203,0.083496,0.312012,-0.610596,0.552168,-5.842932,7.851063,-0.005842,-0.000406,-0.001872,-0.247559,0.379883,-0.429199
1.828843,-7.286516,6.289994,-0.004215,0.002271,-0.002159,-0.340576,0.368896,0.014893,-0.024334,8.346064,5.157207,-0.010926,0.001315,0.007642,0.132812,0.330322,0.566162,-1.581833,-6.988254,6.788699,-0.001519,0.005027,0.004584,0.63916,0.112549,-0.272217,2.221497,-7.189173,6.583893,-0.006048,0.00658,0.013895,0.078369,0.304443,-0.604736,0.545326,-5.852038,7.813518,0.016737,0.001993,-3e-05,-0.252197,0.374512,-0.42627
1.81337,-7.351686,6.245105,-0.008149,0.00064,-0.001244,-0.343262,0.372559,0.02417,-0.038405,8.338999,5.165353,-0.014738,0.011832,0.009965,0.128662,0.329834,0.567383,-1.594095,-7.015385,6.779482,-0.016117,0.000273,-0.00858,0.633057,0.116211,-0.26001,2.19885,-7.231982,6.525757,-0.019097,-0.009151,0.009913,0.073486,0.308105,-0.595947,0.540536,-5.789096,7.854236,0.000316,-0.00542,-0.011249,-0.257324,0.379395,-0.417969
1.834775,-7.303717,6.287231,0.00074,0.001495,0.004876,-0.337646,0.37085,0.021973,-0.053708,8.314454,5.172358,-0.022968,0.00066,0.00692,0.132324,0.332031,0.566895,-1.582826,-7.012928,6.727154,-0.029517,-0.014985,-0.009554,0.639648,0.115479,-0.262695,2.182548,-7.15942,6.4011,-0.020203,-0.015712,0.011019,0.078369,0.305908,-0.599121,0.566679,-5.874328,7.830186,-0.024214,-0.000972,0.008712,-0.250244,0.37793,-0.420654
1.830905,-7.364523,6.236303,-0.02158,-0.002479,-0.003411,-0.332764,0.379395,0.021973,-0.02119,8.300308,5.199824,-0.0225,0.005905,0.009138,0.122314,0.33374,0.563965,-1.511017,-7.058459,6.650766,-0.022436,-0.008602,-0.009221,0.646973,0.123047,-0.266846,2.155164,-7.174816,6.25955,-0.032801,-0.01379,0.014451,0.084229,0.317871,-0.599854,0.530463,-5.871087,7.84365,0.002074,-0.000722,-0.016297,-0.244873,0.386475,-0.424316
1.855462,-7.392132,6.227233,0.002495,0.002749,0.001949,-0.342773,0.372803,0.030518,-0.051625,8.270238,5.212395,-0.016656,0.006828,0.007488,0.127441,0.32959,0.562744,-1.511778,-7.064972,6.639618,-0.005793,0.005319,3.8e-05,0.634521,0.116455,-0.25708,2.160934,-7.1721,6.178416,0.003705,0.003212,0.006559,0.072266,0.309814,-0.592041,0.604206,-5.890823,7.871871,-0.017289,-0.014806,0.004524,-0.256836,0.378174,-0.413086
1.844832,-7.354532,6.25975,0.014037,-0.000249,-0.001581,-0.32959,0.371582,0.018799,-0.017937,8.293914,5.188043,0.010444,0.002898,0.005901,0.130127,0.326904,0.569824,-1.516734,-7.070049,6.675687,0.010468,0.01237,0.006174,0.647705,0.120361,-0.268311,2.152933,-7.160627,6.255745,0.006329,0.015904,0.009032,0.084961,0.30957,-0.602295,0.580959,-5.938826,7.826232,0.014154,0.018395,-0.004655,-0.244141,0.37793,-0.423828
1.83963,-7.348383,6.254675,0.005969,0.004934,-0.000811,-0.338623,0.370117,0.018555,-0.034137,8.331557,5.177378,0.002448,0.011157,0.00662,0.132812,0.330078,0.563965,-1.545191,-7.035117,6.723565,0.026556,0.024071,0.009603,0.638672,0.112305,-0.267334,2.176248,-7.227232,6.405234,0.019779,0.01592,0.007182,0.079834,0.306641,-0.604736,0.515273,-5.827141,7.827836,0.03211,-0.006655,-0.005726,-0.250244,0.374756,-0.427246
1.818518,-7.339569,6.289815,0.010733,-0.001138,-0.001505,-0.342285,0.375732,0.019043,-0.05253,8.324792,5.153957,-0.004023,0.001387,0.005024,0.129883,0.334717,0.556885,-1.604122,-6.992869,6.796623,0.012001,0.010441,0.005219,0.633545,0.116455,-0.267334,2.210772,-7.178215,6.525391,0.013637,0.013395,0.006118,0.073242,0.311035,-0.60083,0.585247,-5.833087,7.830159,-0.00132,-0.003991,-0.000695,-0.257812,0.379639,-0.424316
1.831091,-7.28274,6.263729,0.003112,0.001436,-0.000345,-0.341064,0.37085,0.022949,-0.052355,8.344563,5.173465,-0.002014,0.010066,0.007568,0.132324,0.33374,0.556641,-1.587606,-7.006081,6.787984,-0.010235,0.002273,-0.002155,0.635254,0.113525,-0.264648,2.196236,-7.191595,6.549175,-0.01613,-0.001235,0.013688,0.077148,0.305908,-0.600586,0.523345,-5.845092,7.829054,-0.002591,0.012951,-0.004828,-0.252686,0.375977,-0.422119
1.816416,-7.344759,6.260834,-0.019852,0.000503,-0.001787,-0.332275,0.37915,0.018066,-0.051094,8.33232,5.16753,-0.031747,0.003067,0.010772,0.130615,0.336914,0.561279,-1.572267,-7.030523,6.75914,-0.023375,-0.006454,-0.006847,0.646973,0.123291,-0.265137,2.203942,-7.198453,6.447145,-0.021223,-0.015439,0.009844,0.085205,0.316162,-0.602051,0.554678,-5.859797,7.843518,-0.01196,-0.018989,-0.00186,-0.24585,0.384033,-0.423584
1.825059,-7.384174,6.241822,-5.1e-05,0.003572,0.0016,-0.333496,0.367676,0.018066,-0.026363,8.296853,5.187289,-0.015779,0.005218,0.008241,0.132812,0.329346,0.570312,-1.53197,-7.039145,6.673015,-0.023108,-0.011997,-0.009326,0.643066,0.11377,-0.269043,2.174166,-7.191467,6.296562,-0.026214,-0.009051,0.013481,0.082031,0.30127,-0.605469,0.604612,-5.867451,7.835713,-0.000322,0.004689,-0.006613,-0.247803,0.376221,-0.425537
1.832654,-7.333464,6.255089,-0.00399,-0.002063,0.001808,-0.341553,0.369385,0.019775,-0.054403,8.300948,5.203465,-0.011961,0.004955,0.00677,0.135986,0.329102,0.564697,-1.527589,-7.057431,6.654831,-0.010606,0.001515,-0.00195,0.637207,0.113525,-0.269287,2.154577,-7.164331,6.207273,-0.004595,-0.007429,0.006795,0.074463,0.30542,-0.603027,0.539173,-5.859598,7.853854,-0.01428,-0.00214,-0.000166,-0.254639,0.375244,-0.422363
1.850356,-7.382504,6.26478,-0.003579,0.001066,-0.002249,-0.339355,0.374023,0.021973,-0.020197,8.274437,5.203011,-0.014418,0.001336,0.008479,0.130371,0.32959,0.560547,-1.511661,-7.043923,6.654816,0.00115,0.004401,0.002795,0.639893,0.119385,-0.26416,2.183504,-7.154726,6.223615,-0.001698,0.009211,0.010861,0.080078,0.310791,-0.600098,0.59696,-5.918455,7.816045,0.004033,-0.008405,-0.002509,-0.25,0.382812,-0.421631
1.824867,-7.371302,6.236647,0.017983,0.00344,-0.001039,-0.338379,0.374756,0.025146,-0.036102,8.30121,5.184294,0.014203,0.013874,0.005237,0.127197,0.326904,0.560303,-1.532516,-7.058141,6.699619,0.016261,0.022209,0.00856,0.640869,0.116455,-0.259766,2.161495,-7.210909,6.339341,0.014346,0.019391,0.006753,0.07959,0.308838,-0.594727,0.56438,-5.870152,7.890882,0.017727,0.009532,-0.006014,-0.251465,0.37793,-0.417725
1.813141,-7.295887,6.267802,0.016154,0.001647,0.000579,-0.339844,0.370117,0.019043,-0.07487,8.349551,5.191929,0.003985,0.003383,0.005175,0.133545,0.332275,0.556152,-1.610096,-7.034219,6.762988,0.022143,0.014035,0.007803,0.638916,0.113525,-0.266357,2.188808,-7.164401,6.47517,0.025443,0.01217,0.004786,0.077148,0.305908,-0.601807,0.533444,-5.855926,7.808677,0.013819,-0.00062,0.001194,-0.252686,0.379883,-0.424561
1.814525,-7.293933,6.254674,-0.010882,5.9e-05,-0.001112,-0.345459,0.370361,0.019043,-0.031251,8.331363,5.172374,-0.019336,0.005276,0.008073,0.131592,0.336182,0.561279,-1.561366,-6.976834,6.761637,0.001961,0.002959,-0.002252,0.633789,0.114014,-0.266846,2.215674,-7.18328,6.525251,-0.015269,0.001034,0.013136,0.073975,0.303467,-0.600342,0.536616,-5.783458,7.829418,0.017835,-0.003944,-0.010233,-0.258789,0.375488,-0.424561
1.832872,-7.379994,6.266764,-0.004832,0.003585,0.000132,-0.3396,0.375,0.02002,-0.05321,8.292811,5.163588,-0.011744,0.009482,0.009727,0.134033,0.333252,0.559326,-1.594859,-7.028761,6.777715,-0.031086,0.001066,-0.001488,0.638672,0.118652,-0.265625,2.203685,-7.243747,6.474494,-0.018412,-0.004818,0.010834,0.077148,0.309814,-0.600098,0.578872,-5.838579,7.881678,-0.042228,-0.010736,0.003832,-0.251709,0.382812,-0.423096
1.817302,-7.300687,6.274765,0.012101,0.0011,0.002534,-0.336914,0.376221,0.019287,-0.054109,8.343712,5.160636,-0.01016,0.002574,0.004562,0.133301,0.333496,0.571533,-1.541701,-7.079459,6.686123,-0.01479,-0.013179,-0.009957,0.636963,0.119873,-0.266846,2.171143,-7.17776,6.367298,-0.012605,-0.011258,0.011213,0.077148,0.312256,-0.602295,0.557688,-5.961573,7.77469,0.000407,0.011348,-0.00112,-0.250244,0.382812,-0.422363
1.841382,-7.328205,6.265999,-0.028281,-0.001014,0.001436,-0.337646,0.368408,0.027588,-0.041143,8.304022,5.214726,-0.036435,0.004077,0.01061,0.125244,0.328613,0.56543,-1.520579,-7.002151,6.677369,-0.004463,-0.000123,-0.006419,0.639648,0.113525,-0.260742,2.159507,-7.147849,6.262654,-0.019765,-0.013668,0.010047,0.079346,0.304932,-0.594727,0.519365,-5.812789,7.849889,0.032302,-0.013512,-0.013619,-0.250977,0.376221,-0.416016
1.837937,-7.464014,6.233923,-0.001345,0.001874,-0.001129,-0.335938,0.37085,0.027832,-0.026926,8.253308,5.189645,-0.004206,0.006229,0.007656,0.123047,0.341797,0.570801,-1.531377,-7.058025,6.657407,-0.026969,0.002481,0.0046,0.641846,0.119629,-0.257324,2.160759,-7.168326,6.219635,-0.012486,0.008303,0.014744,0.081055,0.30835,-0.592529,0.630802,-5.84677,7.87328,-0.042217,-0.009589,0.003896,-0.249512,0.379639,-0.413818
1.832,-7.289972,6.283817,0.035676,0.002666,0.00094,-0.340576,0.386719,0.018799,-0.035286,8.322083,5.196671,0.015974,0.008702,0.004896,0.126465,0.325928,0.564941,-1.505427,-7.111404,6.663674,0.018157,0.011912,0.004388,0.638184,0.130371,-0.270752,2.148749,-7.201128,6.267651,0.018352,0.014265,0.005926,0.079102,0.320801,-0.603271,0.550033,-6.000558,7.804593,-0.002178,0.022907,-0.001418,-0.250732,0.392334,-0.425781
1.825755,-7.312935,6.247038,-0.019354,0.000274,-0.003042,-0.330566,0.37915,0.024902,-0.033225,8.32857,5.189912,-0.018462,0.003668,0.008829,0.128662,0.335938,0.558105,-1.565969,-6.991954,6.736587,0.035249,0.019576,0.004958,0.645264,0.122314,-0.261963,2.196977,-7.165472,6.424071,0.02243,0.01431,0.003126,0.083984,0.313232,-0.595947,0.514425,-5.841733,7.831665,0.058949,-0.016281,-0.009519,-0.246094,0.383057,-0.419189
1.834135,-7.401611,6.251687,0.015252,0.002861,-0.000907,-0.337891,0.376709,0.017334,-0.05911,8.300058,5.15971,0.004467,0.007671,0.006494,0.138184,0.327148,0.561523,-1.584407,-6.980592,6.770262,-0.009073,0.006751,0.004573,0.643311,0.121338,-0.269287,2.2015,-7.192727,6.519639,-0.009047,0.007028,0.012542,0.07959,0.313721,-0.60376,0.604765,-5.737622,7.871188,0.001449,0.000858,-0.002942,-0.247803,0.385742,-0.426025
1.800954,-7.244534,6.296436,0.017114,0.000867,0.001172,-0.34082,0.374756,0.015381,-0.058889,8.379364,5.166082,-0.000584,0.006136,0.008821,0.125244,0.334717,0.576904,-1.575924,-7.053848,6.765447,-0.017532,0.002518,-0.000791,0.639404,0.11792,-0.272705,2.206246,-7.217004,6.485713,-0.005768,-0.003922,0.010009,0.074463,0.307861,-0.607666,0.509335,-5.888016,7.834751,-0.041029,0.010408,0.004351,-0.253906,0.381348,-0.427734
1.830301,-7.329395,6.260546,-0.037005,-0.000687,0.000133,-0.339111,0.366211,0.021973,-0.020421,8.323038,5.167521,-0.03787,0.002447,0.008493,0.131836,0.336914,0.562012,-1.545676,-7.027138,6.733238,-0.007301,-0.009995,-0.009765,0.639404,0.108398,-0.266602,2.198949,-7.164599,6.420769,-0.019229,-0.005433,0.011086,0.080078,0.30127,-0.602051,0.554492,-5.925963,7.826966,0.015819,-0.018515,-0.007445,-0.251465,0.37085,-0.423096
1.834886,-7.413934,6.242319,0.009537,0.001814,-1.5e-05,-0.336914,0.369141,0.016602,-0.045068,8.269968,5.174692,-0.013116,0.008739,0.009544,0.135254,0.328857,0.565918,-1.525712,-7.013711,6.687417,-0.018903,-0.001356,-0.005208,0.641846,0.114746,-0.267578,2.152259,-7.179082,6.303382,-0.020738,-0.010715,0.012543,0.07959,0.306152,-0.60498,0.59844,-5.809614,7.870133,0.004659,0.001576,-0.006604,-0.250488,0.375977,-0.42749
1.83394,-7.298217,6.263875,0.009617,0.000406,0.002042,-0.340332,0.373047,0.02002,-0.042048,8.322363,5.200308,-0.002984,0.002436,0.005906,0.131348,0.32959,0.556641,-1.540162,-7.059093,6.673459,-0.021222,-0.001973,0.000868,0.641846,0.116699,-0.267578,2.169515,-7.168149,6.248074,-0.00823,-0.005438,0.008634,0.07666,0.305664,-0.599609,0.539956,-5.894458,7.818942,-0.026069,0.004514,0.004585,-0.250977,0.376221,-0.422607
1.835937,-7.35883,6.263841,-0.015339,0.000497,-0.0019,-0.336182,0.377197,0.027588,-0.032748,8.312494,5.181226,-0.010026,0.009056,0.008391,0.124756,0.335205,0.575439,-1.509857,-7.075202,6.662187,0.013767,0.012991,0.001119,0.639648,0.12207,-0.257812,2.16848,-7.192593,6.243663,0.003414,0.008798,0.010304,0.080078,0.312012,-0.591797,0.553067,-5.896357,7.836194,0.016833,-0.008923,-0.008716,-0.248291,0.38501,-0.415039
1.838415,-7.393618,6.253289,0.015831,0.001223,-0.000101,-0.343018,0.37207,0.025635,-0.053816,8.291776,5.173067,-0.004595,0.005609,0.006412,0.13208,0.332764,0.573486,-1.559954,-7.007676,6.710539,0.020099,0.015903,0.006327,0.634766,0.116699,-0.258301,2.184503,-7.17076,6.368084,0.021284,0.018129,0.004218,0.07251,0.305176,-0.596191,0.603288,-5.860047,7.869682,0.005229,0.001022,0.001951,-0.255615,0.377197,-0.420166
1.819081,-7.291514,6.293453,0.017164,0.003246,-0.00047,-0.330078,0.381348,0.020996,-0.041101,8.343373,5.168728,0.013039,0.006377,0.006206,0.130371,0.335693,0.562744,-1.569109,-7.02784,6.74492,-0.000572,0.00899,0.00553,0.648682,0.124512,-0.265625,2.177806,-7.180282,6.456277,0.000173,0.009518,0.011784,0.088623,0.315918,-0.600586,0.533849,-5.860768,7.812247,0.016972,0.00869,-0.002566,-0.242188,0.385986,-0.419678
1.816225,-7.3214,6.276416,-0.011711,0.00181,-0.001294,-0.333252,0.377441,0.022461,-0.064616,8.366862,5.213893,-0.016738,0.008855,0.008386,0.127686,0.333252,0.571045,-1.586532,-7.018893,6.776358,-0.000349,0.010348,-0.001247,0.64502,0.120117,-0.265137,2.210978,-7.238071,6.488063,-0.005897,0.000123,0.009058,0.082275,0.311035,-0.602539,0.537254,-5.808286,7.852254,0.005167,-0.012287,-0.007994,-0.246826,0.383545,-0.421631
1.840548,-7.348387,6.268222,0.001089,0.000189,0.001007,-0.341309,0.380127,0.020508,-0.033194,8.298238,5.147746,-0.022382,0.000317,0.010262,0.127686,0.334473,0.563477,-1.569622,-7.016684,6.737295,-0.013533,-0.008523,-0.004278,0.637939,0.123779,-0.26709,2.192316,-7.182302,6.432065,-0.007383,-0.003322,0.009148,0.077881,0.313721,-0.603027,0.598022,-5.866898,7.833748,-0.016258,0.001654,0.003666,-0.251953,0.385742,-0.425049
1.831529,-7.310661,6.285309,-0.003063,0.000943,-0.001299,-0.330566,0.376709,0.011963,-0.018808,8.325202,5.180799,-0.005815,0.009415,0.008182,0.134277,0.329346,0.55835,-1.530208,-7.013172,6.691097,-0.019888,-0.004387,-0.005905,0.64917,0.120361,-0.271729,2.170214,-7.148232,6.349022,-0.025241,-0.011994,0.010962,0.086426,0.312256,-0.609131,0.518976,-5.868102,7.834062,-0.001421,0.000477,-0.010221,-0.244629,0.382812,-0.429688
1.829872,-7.366143,6.263559,-0.014096,-0.000185,0.002472,-0.338867,0.377441,0.014893,-0.033015,8.317765,5.189491,-0.026221,0.002475,0.007977,0.129639,0.31958,0.567139,-1.544775,-7.050133,6.66255,-0.019879,-0.001296,-0.002271,0.637939,0.118652,-0.270752,2.17659,-7.184979,6.278455,-0.016556,-0.00483,0.013883,0.077637,0.310547,-0.606689,0.592415,-5.886956,7.862776,-0.006541,-0.014448,0.001427,-0.252441,0.38208,-0.427734
1.835848,-7.382032,6.262311,0.011505,0.002631,-0.000472,-0.340088,0.37207,0.02124,-0.034877,8.282425,5.187635,-0.004487,0.008333,0.005561,0.134277,0.330811,0.561768,-1.520891,-7.072252,6.654453,0.002712,0.004545,0.001294,0.637207,0.117188,-0.266357,2.15944,-7.18964,6.243965,0.001781,0.007892,0.00868,0.074707,0.306641,-0.599854,0.580544,-5.885848,7.844852,0.007212,0.012395,-0.005624,-0.252686,0.379639,-0.421875
1.833786,-7.320223,6.263758,0.008953,-0.000551,-0.001525,-0.344482,0.37207,0.013916,-0.047343,8.320253,5.207825,0.00172,0.006135,0.006093,0.130859,0.330078,0.554932,-1.539654,-7.013157,6.676543,0.01556,0.018712,0.004579,0.635742,0.114258,-0.272949,2.170785,-7.151642,6.317139,0.01766,0.008558,0.003172,0.074219,0.303711,-0.60791,0.531119,-5.868607,7.833107,0.00674,-0.007848,-0.000967,-0.25708,0.375488,-0.429932
1.823199,-7.361055,6.272675,-0.001095,0.001759,-0.001757,-0.335449,0.368408,0.01416,-0.019783,8.319977,5.158463,-0.000898,0.004512,0.007653,0.128662,0.330078,0.564453,-1.567942,-7.032525,6.725194,0.002542,0.007306,0.006989,0.644043,0.115479,-0.272461,2.200103,-7.180109,6.424703,-0.00299,0.013724,0.011609,0.083496,0.30542,-0.608887,0.603692,-5.865604,7.843947,0.013566,-0.0022,-0.005216,-0.246338,0.378174,-0.432373
1.825068,-7.320446,6.243753,0.015583,0.001339,0.000525,-0.338135,0.371338,0.028076,-0.059002,8.350166,5.166256,-0.005557,0.010148,0.007467,0.134521,0.336426,0.56543,-1.572239,-7.024958,6.755528,0.004742,0.011712,0.001897,0.640625,0.115479,-0.259521,2.195048,-7.225211,6.473187,0.005376,0.004222,0.007135,0.078857,0.309814,-0.595947,0.53502,-5.845404,7.83524,0.004297,0.009769,-0.004397,-0.253418,0.378418,-0.419922
1.801114,-7.290231,6.294083,-0.008898,0.000982,0.000631,-0.343262,0.370361,0.023682,-0.038729,8.325136,5.163684,-0.016139,0.000908,0.008949,0.134033,0.330811,0.561035,-1.591924,-7.024321,6.769466,-0.008295,-0.002865,-0.003262,0.634033,0.114014,-0.262939,2.200249,-7.174167,6.479801,-0.007794,-0.003716,0.009807,0.071777,0.304932,-0.599365,0.542092,-5.846878,7.814597,-0.003542,-0.010063,0.000868,-0.257324,0.378906,-0.421875
1.830557,-7.375058,6.25824,-0.011075,0.000604,-0.001384,-0.341064,0.372559,0.02002,-0.025533,8.325212,5.184977,-0.014232,0.008739,0.008638,0.132324,0.32959,0.56665,-1.541295,-7.026768,6.712756,-0.023889,-0.005489,-0.005159,0.635498,0.118164,-0.265137,2.173452,-7.199129,6.383262,-0.02982,-0.006882,0.014239,0.075928,0.306641,-0.601074,0.572476,-5.839496,7.868961,-0.003105,7.9e-05,-0.008962,-0.254883,0.378662,-0.425537
1.82805,-7.340217,6.268839,0.010303,0.00158,0.00031,-0.340332,0.368896,0.019531,-0.059967,8.31451,5.18682,-0.021634,0.004428,0.009953,0.129883,0.329102,0.556152,-1.561853,-7.056176,6.682458,-0.012581,-0.001542,-0.003639,0.637939,0.114502,-0.264648,2.157971,-7.177079,6.301092,-0.004005,-0.007778,0.006477,0.077148,0.303955,-0.600586,0.565508,-5.89026,7.859208,-0.019794,-0.003818,0.004793,-0.249023,0.375,-0.422607
1.827982,-7.327229,6.263758,-0.006244,0.002971,-0.00156,-0.34082,0.374268,0.015381,-0.019144,8.292063,5.192127,-0.006633,0.005403,0.007535,0.13501,0.335938,0.565186,-1.516497,-7.034894,6.672844,0.000326,0.001614,-0.003878,0.638916,0.11792,-0.272705,2.153471,-7.15845,6.276615,-0.008681,0.002549,0.011722,0.077148,0.30957,-0.606689,0.571553,-5.901407,7.838867,0.020466,0.001766,-0.00899,-0.253418,0.382568,-0.430664
1.821245,-7.390063,6.241406,-0.002104,0.000161,-0.000706,-0.339111,0.376221,0.023193,-0.037599,8.314988,5.198138,-0.004611,0.00752,0.008286,0.133789,0.330078,0.560547,-1.544987,-7.030383,6.676435,0.002224,0.01369,0.005808,0.638672,0.12085,-0.260986,2.156788,-7.186483,6.293204,0.002618,0.00849,0.008433,0.078613,0.311279,-0.596436,0.566548,-5.828294,7.870011,0.002748,-0.005491,-0.002826,-0.253174,0.380615,-0.418457
1.821266,-7.335998,6.276957,0.020403,0.001651,-0.001103,-0.346191,0.369141,0.016602,-0.03379,8.318044,5.175135,2.2e-05,0.004695,0.005623,0.127686,0.329834,0.56958,-1.561249,-7.056826,6.713587,0.004844,0.008951,0.005097,0.635986,0.112305,-0.269287,2.202628,-7.192999,6.368165,0.008775,0.011319,0.007373,0.072754,0.302734,-0.60376,0.575891,-5.880063,7.839576,-0.006754,0.000949,0.000584,-0.257568,0.376465,-0.425781
1.825229,-7.289929,6.277281,-0.001084,0.003815,-0.000305,-0.342529,0.374268,0.017822,-0.045744,8.336032,5.176053,-0.000208,0.008636,0.006351,0.137207,0.331055,0.558105,-1.559801,-7.015504,6.750595,0.014413,0.01431,0.001791,0.637451,0.115967,-0.268799,2.185261,-7.200825,6.463267,0.00687,0.007318,0.009187,0.074219,0.308838,-0.606689,0.548973,-5.874379,7.854598,0.023462,0.001564,-0.00982,-0.253662,0.380859,-0.42627
1.822225,-7.333452,6.26466,-0.00566,-0.000615,-4e-06,-0.339355,0.377686,0.018066,-0.053403,8.333983,5.188642,-0.01595,0.001703,0.00724,0.128174,0.327637,0.569336,-1.603187,-6.98054,6.766197,-0.003826,0.002242,-0.001606,0.639404,0.121826,-0.269287,2.21189,-7.168816,6.471224,-0.002457,-0.001338,0.007931,0.078613,0.312744,-0.602783,0.554769,-5.804562,7.82508,0.001299,-0.007499,5.6e-05,-0.25415,0.38623,-0.426514
1.832336,-7.32999,6.273049,0.004009,0.002172,0.000394,-0.33374,0.365234,0.010254,-0.043803,8.323266,5.171001,-0.010999,0.008016,0.008556,0.128174,0.331543,0.563721,-1.547327,-7.05103,6.728494,-0.026534,-0.005826,-0.003619,0.642822,0.108398,-0.274902,2.199817,-7.190244,6.408644,-0.027975,-0.006549,0.015151,0.083984,0.299805,-0.61084,0.556058,-5.834047,7.854339,-0.01077,0.003541,-0.005862,-0.246338,0.372314,-0.43335
1.826941,-7.325997,6.265501,-0.010293,0.000475,0.001143,-0.341553,0.368164,0.022461,-0.043006,8.331103,5.184007,-0.022421,0.004149,0.00837,0.133545,0.329834,0.564209,-1.558907,-7.071593,6.702703,-0.013689,-0.00078,-0.003357,0.636963,0.109863,-0.26416,2.180006,-7.202041,6.33053,-0.011878,-0.00495,0.009702,0.075195,0.302734,-0.600098,0.545247,-5.895228,7.825261,-0.016824,-0.007238,-0.000808,-0.255615,0.373779,-0.422119
1.836985,-7.388598,6.24463,-0.00224,0.001138,-0.00187,-0.335938,0.378174,0.014648,-0.018665,8.286156,5.192761,-0.01256,0.005537,0.00914,0.125488,0.334717,0.567627,-1.521906,-7.038679,6.667618,-0.000716,-0.002527,-0.003788,0.644287,0.119873,-0.270264,2.143417,-7.157222,6.263271,-0.005088,-0.001125,0.010174,0.081543,0.312744,-0.606689,0.569723,-5.897442,7.851354,0.015414,0.000581,-0.005213,-0.249023,0.384521,-0.427979
1.818952,-7.352529,6.240106,0.005478,0.003218,0.001189,-0.336182,0.378418,0.023682,-0.042339,8.311156,5.186715,-0.003381,0.010284,0.008383,0.135498,0.334961,0.563721,-1.533147,-7.020592,6.671675,-0.004259,0.012496,0.002128,0.641113,0.120605,-0.265625,2.169953,-7.179568,6.297804,-0.000992,0.000429,0.008144,0.081543,0.312256,-0.603516,0.560038,-5.835197,7.862857,-0.001166,-0.000227,-0.003952,-0.251221,0.383545,-0.421387
1.832633,-7.341386,6.264937,0.006539,0.001242,-0.001459,-0.333496,0.372559,0.02002,-0.046853,8.312936,5.175095,-0.005741,0.000929,0.0055,0.131348,0.32959,0.567627,-1.550044,-7.060249,6.714027,0.003485,0.008182,0.004305,0.643311,0.115234,-0.268066,2.181649,-7.19182,6.347722,0.005173,0.013641,0.00709,0.083496,0.305664,-0.602051,0.576229,-5.897949,7.821813,-0.001687,-0.002696,0.001134,-0.246094,0.377197,-0.423096
1.810835,-7.336742,6.256846,0.001832,0.001794,-0.001621,-0.343994,0.377441,0.018311,-0.045057,8.329327,5.178121,0.001429,0.010124,0.005855,0.129883,0.336182,0.562256,-1.546517,-7.025862,6.720852,0.013585,0.012647,0.003217,0.633789,0.118164,-0.27002,2.175116,-7.202209,6.435044,0.007962,0.010523,0.008699,0.072021,0.310059,-0.604492,0.545017,-5.862113,7.846665,0.015481,0.002587,-0.00914,-0.257324,0.383057,-0.429199
1.836912,-7.348182,6.231071,0.004701,0.001397,-0.000589,-0.330811,0.374512,0.009766,-0.049579,8.320982,5.157196,-0.012876,0.00392,0.007946,0.130371,0.330322,0.564697,-1.606325,-7.013671,6.749895,-0.004131,0.005696,0.001439,0.64502,0.116699,-0.276367,2.201596,-7.183345,6.473,-0.00134,0.003202,0.009278,0.084229,0.309082,-0.614258,0.573235,-5.864851,7.833737,-0.003531,-0.005468,0.001126,-0.245117,0.381592,-0.433838
1.808164,-7.300569,6.269021,0.004452,0.001512,3.7e-05,-0.334717,0.368408,0.01416,-0.05565,8.325275,5.163361,-0.008553,0.006977,0.006874,0.12915,0.331787,0.567627,-1.547417,-7.043254,6.749151,-0.011191,-0.001724,-0.003096,0.644043,0.112549,-0.270996,2.172522,-7.187518,6.432123,-0.016544,-0.004503,0.011741,0.081787,0.304443,-0.606445,0.539118,-5.839745,7.848589,0.008272,0.006515,-0.007202,-0.249268,0.375488,-0.429443
1.825781,-7.337141,6.273101,-0.014308,0.00025,-2e-06,-0.337891,0.369629,0.02002,-0.070376,8.338079,5.190681,-0.019662,0.004748,0.007882,0.135498,0.327148,0.568848,-1.583509,-7.041923,6.731017,-0.014339,0.000896,-0.004299,0.640381,0.113281,-0.266113,2.191397,-7.185103,6.356997,-0.011753,-0.0085,0.007442,0.078125,0.304688,-0.599609,0.549961,-5.850915,7.856859,-0.012684,-0.010428,-0.002459,-0.249512,0.376465,-0.423584
1.836056,-7.387374,6.246352,-0.001724,0.001017,-0.000919,-0.334961,0.369873,0.018066,-0.007431,8.304736,5.178,-0.016034,0.00368,0.00812,0.134766,0.328613,0.568604,-1.533168,-7.044033,6.674513,-0.015411,-0.005308,-0.003672,0.645264,0.113037,-0.271484,2.164844,-7.173399,6.312723,-0.016659,-0.000965,0.014003,0.081543,0.302979,-0.603027,0.591486,-5.907906,7.840315,-0.008834,0.000934,-0.000977,-0.245605,0.375977,-0.424072
1.830789,-7.342263,6.279441,0.009408,0.000846,-0.000427,-0.341064,0.370117,0.017822,-0.047579,8.297477,5.165649,-0.005289,0.0109,0.006794,0.127197,0.321533,0.563232,-1.522095,-7.072188,6.683219,0.002275,0.008695,0.001697,0.635742,0.112793,-0.267822,2.158291,-7.19518,6.286414,0.001747,0.004862,0.007151,0.073975,0.302734,-0.60376,0.549041,-5.881949,7.865814,0.00789,0.002066,-0.005692,-0.255127,0.375,-0.422852
1.82177,-7.343823,6.257969,-0.002666,0.001907,0.00069,-0.339111,0.374023,0.015625,-0.045841,8.323578,5.178665,-0.002926,0.002403,0.006928,0.128906,0.327881,0.566406,-1.564086,-7.033298,6.707527,0.007608,0.008503,0.002284,0.639648,0.117188,-0.269531,2.177081,-7.155579,6.343536,0.006439,0.005234,0.010151,0.077881,0.310547,-0.606934,0.577859,-5.85482,7.83342,0.015433,-0.0031,-0.000819,-0.250244,0.380615,-0.427002
1.839723,-7.353952,6.252286,0.007169,0.001985,-0.002298,-0.3396,0.375977,0.027344,-0.038227,8.317559,5.175293,-0.002633,0.0078,0.006219,0.121826,0.327637,0.564209,-1.549118,-7.026525,6.723753,0.0028,0.010802,0.00362,0.640625,0.119873,-0.259033,2.190202,-7.189676,6.403219,0.000235,0.009795,0.009674,0.076904,0.311279,-0.594482,0.5522,-5.83928,7.848262,0.003514,0.003413,-0.005848,-0.253662,0.379883,-0.418701
1.831935,-7.326082,6.262749,0.006556,0.001352,0.000743,-0.337402,0.370605,0.018799,-0.04471,8.332251,5.190311,-0.011978,0.006965,0.008705,0.125244,0.33374,0.566162,-1.590672,-7.036664,6.758349,0.001165,0.009454,0.001985,0.644287,0.112305,-0.263916,2.199533,-7.179918,6.443971,0.007458,0.005456,0.008118,0.080566,0.304199,-0.60083,0.546458,-5.87881,7.839399,-0.010602,-0.004675,-0.000573,-0.248047,0.375977,-0.420898
1.83145,-7.338467,6.268702,-0.003182,0.002028,-0.000262,-0.344238,0.371094,0.022461,-0.0426,8.35048,5.141993,-0.003339,0.004625,0.008457,0.133789,0.331787,0.554932,-1.547389,-7.026765,6.755645,-0.00161,-0.002374,-0.005812,0.636475,0.115723,-0.263672,2.184751,-7.180286,6.437665,-0.013165,0.000925,0.012277,0.075684,0.307617,-0.600098,0.554149,-5.87976,7.8191,0.016413,0.000988,-0.007007,-0.255371,0.376465,-0.423096
1.829167,-7.331611,6.233623,-0.005722,0.000901,0.000139,-0.342529,0.366211,0.022461,-0.042596,8.329641,5.194517,-0.021849,0.006559,0.008872,0.125977,0.325439,0.566895,-1.568639,-7.014435,6.730557,-0.015539,0.001488,-0.002986,0.633789,0.111084,-0.263672,2.174318,-7.174269,6.406901,-0.012961,-0.008175,0.010189,0.073975,0.30249,-0.598633,0.557191,-5.818662,7.848349,-0.004002,-0.004544,-0.00224,-0.256104,0.374512,-0.422119
1.83101,-7.352175,6.273091,0.000822,0.000196,-0.00057,-0.335938,0.378662,0.017334,-0.035759,8.294941,5.182262,-0.015632,0.00243,0.007534,0.125244,0.331787,0.55957,-1.547192,-7.045908,6.703748,-0.017567,-0.005679,-0.003599,0.640869,0.12085,-0.268311,2.149679,-7.181266,6.30896,-0.014468,-0.003074,0.011647,0.080566,0.313232,-0.605713,0.569663,-5.871599,7.836161,-0.015057,-0.001645,-0.001202,-0.249268,0.384277,-0.427246
1.832578,-7.338184,6.253716,-0.003182,0.002028,-0.000262,-0.337158,0.381592,0.022217,-0.042131,8.319177,5.207501,-0.005077,0.008863,0.007932,0.130859,0.327148,0.556641,-1.530656,-7.065029,6.684668,-0.002784,0.006375,-0.001685,0.63916,0.125732,-0.262939,2.172767,-7.184897,6.318887,-0.006881,-0.000146,0.011099,0.080322,0.318115,-0.596436,0.55059,-5.899273,7.85807,-0.000409,-0.001665,-0.007551,-0.251221,0.387939,-0.418945
1.850349,-7.36154,6.252912,0.000573,0.00031,5.6e-05,-0.333252,0.381592,0.023438,-0.030864,8.315637,5.182232,-0.015424,0.000389,0.008657,0.125488,0.328613,0.563721,-1.540557,-7.04244,6.697971,0.003516,0.004222,0.004359,0.64502,0.125,-0.26416,2.172318,-7.168954,6.316691,0.004681,0.008225,0.008649,0.083252,0.315918,-0.599121,0.586853,-5.903869,7.833751,0.007686,-0.0014,0.001617,-0.246338,0.388428,-0.418213
1.821504,-7.313498,6.291375,0.014377,0.002239,0.000561,-0.337402,0.378174,0.012695,-0.050407,8.30214,5.166401,0.00518,0.011769,0.005269,0.127686,0.33252,0.561279,-1.552552,-7.031237,6.718032,0.009018,0.013387,0.002016,0.640381,0.119873,-0.271729,2.157227,-7.171055,6.375219,0.004871,0.007499,0.009001,0.079102,0.314697,-0.611084,0.528668,-5.833627,7.853411,0.023851,0.007193,-0.01129,-0.251953,0.382324,-0.428223
1.829244,-7.314191,6.272128,-0.004135,0.000861,-0.000106,-0.339111,0.37793,0.015137,-0.061119,8.346725,5.179675,-0.006166,0.004115,0.007972,0.128418,0.33252,0.567871,-1.578522,-7.018333,6.739323,-0.001516,0.010058,0.003784,0.639648,0.122559,-0.270508,2.204997,-7.186878,6.429646,0.002959,0.004011,0.007607,0.079834,0.31543,-0.60791,0.558575,-5.846024,7.859891,-0.015201,-0.010009,0.001804,-0.248291,0.385498,-0.429443
1.836496,-7.366439,6.273917,0.001203,0.001052,-0.000782,-0.339844,0.371582,0.02124,-0.032248,8.312783,5.156438,-0.014328,0.004199,0.007692,0.133545,0.329102,0.565186,-1.568763,-7.03751,6.733778,-0.006626,-0.002469,-0.001882,0.641357,0.116211,-0.265381,2.193997,-7.192628,6.430442,-0.010864,0.003127,0.01331,0.076172,0.306152,-0.598877,0.578913,-5.899869,7.837069,0.001528,0.004921,-0.002152,-0.251709,0.378418,-0.422852
1.818644,-7.31744,6.264132,0.006113,0.002013,0.001101,-0.341553,0.369141,0.013916,-0.052548,8.33816,5.180409,-0.010222,0.011194,0.007371,0.131104,0.337646,0.564697,-1.560132,-7.020901,6.723067,-0.004081,0.006721,-0.003267,0.633789,0.114258,-0.269043,2.184418,-7.183921,6.414556,-0.003909,-0.002965,0.006651,0.073486,0.303223,-0.607422,0.527856,-5.843157,7.844189,0.005437,-0.00239,-0.005752,-0.25415,0.373291,-0.428955
1.830032,-7.325287,6.264235,-0.01031,0.000365,-0.001063,-0.341064,0.374268,0.014648,-0.030916,8.319592,5.171078,-0.013971,-0.000791,0.008007,0.128174,0.327881,0.559082,-1.540388,-7.023757,6.706814,-0.017593,-0.00774,-0.00307,0.639648,0.118408,-0.273926,2.166698,-7.167056,6.369471,-0.019006,-0.006347,0.012492,0.077393,0.309814,-0.60791,0.57134,-5.859149,7.808922,-0.001149,-0.003917,0.000449,-0.251221,0.381836,-0.429932
1.823531,-7.375837,6.23595,-0.002166,0.001678,-0.000563,-0.344727,0.368164,0.015381,-0.026244,8.31858,5.203053,-0.013901,0.009508,0.00899,0.131592,0.32959,0.565674,-1.519159,-7.054734,6.680422,-0.010243,0.005243,-0.002437,0.634521,0.113281,-0.272217,2.169723,-7.19591,6.306241,-0.013032,-0.002806,0.011087,0.074707,0.304688,-0.60498,0.539331,-5.854143,7.852543,-0.006016,0.002042,-0.007475,-0.255371,0.376221,-0.42627
1.839068,-7.351067,6.240884,0.007055,0.001123,-0.000507,-0.338867,0.38623,0.021484,-0.047063,8.287474,5.18613,-0.01189,0.004097,0.00693,0.131348,0.330566,0.56543,-1.566238,-7.050419,6.697282,0.000547,0.007174,0.001101,0.641357,0.130371,-0.261963,2.166198,-7.174769,6.296479,0.009085,0.005503,0.004713,0.081299,0.321289,-0.596924,0.568379,-5.919619,7.828114,-0.015119,-0.0071,0.002534,-0.250977,0.391113,-0.419678
1.822951,-7.334639,6.276848,0.003244,0.002409,6.9e-05,-0.342773,0.370605,0.018555,-0.011536,8.327812,5.16504,0.006665,0.005848,0.0056,0.126953,0.331543,0.571045,-1.517954,-7.046947,6.697287,0.007727,0.007722,0.001019,0.634277,0.112305,-0.269287,2.167235,-7.169815,6.338296,-0.004018,0.008938,0.011363,0.07251,0.305664,-0.600342,0.551596,-5.886612,7.821406,0.030999,0.010469,-0.008798,-0.255859,0.376709,-0.426025
1.824312,-7.332665,6.263779,0.002411,0.000156,-0.000814,-0.339355,0.377686,0.021484,-0.048678,8.342217,5.199487,-0.014938,0.007538,0.007185,0.132812,0.338379,0.568359,-1.580952,-7.019456,6.741808,0.003655,0.014595,0.005615,0.63916,0.12085,-0.26416,2.194837,-7.188401,6.401306,0.006833,0.004267,0.00766,0.077393,0.311768,-0.599609,0.552598,-5.782978,7.871654,0.003756,-0.009681,-0.004872,-0.252441,0.383789,-0.420166
1.824583,-7.319103,6.259265,0.008701,0.001514,-0.001647,-0.337891,0.366211,0.020752,-0.043906,8.31453,5.149507,-0.006675,0.000772,0.007562,0.128662,0.336914,0.561523,-1.577629,-7.03942,6.749074,-0.00749,-0.000182,-0.000512,0.639404,0.111328,-0.263428,2.183757,-7.183128,6.436602,-0.00597,0.003786,0.01026,0.079102,0.302246,-0.598877,0.586411,-5.877639,7.838174,-0.011833,0.002274,-8.2e-05,-0.251221,0.375488,-0.420654
1.819579,-7.314452,6.252373,-0.007441,-3.1e-05,-3.1e-05,-0.334961,0.373535,0.014404,-0.050432,8.349371,5.183257,-0.003031,0.009086,0.006852,0.12915,0.330566,0.569824,-1.556991,-7.037447,6.742307,-0.00454,0.005802,-0.002042,0.644775,0.117188,-0.271729,2.188474,-7.196992,6.436182,-0.008977,-0.002917,0.009352,0.082031,0.308594,-0.606201,0.519628,-5.869872,7.847041,0.001059,-0.001045,-0.005907,-0.248047,0.379883,-0.427734
1.840525,-7.369819,6.282585,-0.004197,0.002378,3.8e-05,-0.33667,0.367188,0.02002,-0.037,8.319464,5.17577,-0.026759,0.001232,0.009491,0.129883,0.334961,0.562744,-1.572576,-7.032236,6.71925,-0.011895,-0.004175,-0.002968,0.641113,0.110352,-0.263672,2.182674,-7.167135,6.36797,-0.010214,-0.003747,0.009194,0.079346,0.303223,-0.602539,0.578478,-5.867588,7.828872,0.001472,-0.010866,0.001005,-0.250244,0.37085,-0.422607
1.805587,-7.334474,6.276005,0.006363,0.001898,0.000475,-0.3396,0.372314,0.022705,-0.035907,8.307503,5.169447,-0.004874,0.009657,0.006247,0.131592,0.333496,0.558105,-1.539209,-7.037164,6.701283,-0.009438,0.001839,-0.003027,0.644043,0.115967,-0.264893,2.156556,-7.178367,6.32006,-0.013401,-0.001709,0.01252,0.080322,0.307861,-0.597656,0.534947,-5.831472,7.835305,0.00611,0.009348,-0.00919,-0.250244,0.378418,-0.421875
1.841792,-7.343152,6.257833,-0.009795,0.000244,-0.000113,-0.343018,0.368896,0.019531,-0.052414,8.324162,5.212139,-0.012012,0.001386,0.007783,0.124512,0.327881,0.559326,-1.562414,-7.045341,6.69674,-0.004538,0.005877,0.00189,0.638672,0.114014,-0.266113,2.172196,-7.170699,6.316406,0.002253,-0.000155,0.005598,0.072021,0.302979,-0.601562,0.559481,-5.875218,7.831528,-0.019337,-0.011433,0.00321,-0.256104,0.376221,-0.423584
1.854531,-7.374769,6.255354,0.005145,0.000737,-0.000945,-0.336914,0.37915,0.022461,-0.012134,8.31468,5.173698,-0.007757,0.006375,0.007594,0.131592,0.333252,0.559326,-1.530334,-7.05711,6.694697,0.00086,0.0038,0.001983,0.642334,0.123779,-0.26416,2.173692,-7.176707,6.323626,-0.005803,0.009923,0.012293,0.081787,0.315674,-0.600342,0.584374,-5.918263,7.828236,0.0135,0.002967,-0.005523,-0.248779,0.384277,-0.420654
1.817132,-7.315858,6.266419,0.013419,0.003022,-3.2e-05,-0.339844,0.380371,0.021729,-0.059534,8.324022,5.173546,-0.002039,0.009218,0.005813,0.124268,0.326416,0.570312,-1.581231,-7.035785,6.728669,0.009938,0.015289,0.003524,0.637939,0.122559,-0.263672,2.17469,-7.185147,6.395087,0.011571,0.00697,0.006103,0.077637,0.314941,-0.600098,0.531392,-5.82913,7.866003,0.010587,0.002633,-0.004158,-0.25293,0.386963,-0.421387
1.826925,-7.324267,6.281307,-0.005858,0.001877,-0.001027,-0.333008,0.379395,0.019043,-0.045304,8.331926,5.185802,-0.007003,0.000103,0.007295,0.134521,0.338379,0.563477,-1.58362,-7.015971,6.753287,-0.002006,0.00091,-0.001735,0.643066,0.125,-0.268066,2.200876,-7.181468,6.448998,-0.004121,0.004445,0.009045,0.081543,0.314453,-0.602051,0.570534,-5.863935,7.822285,0.000855,-0.005664,0.001346,-0.245117,0.384033,-0.425049
1.827537,-7.339328,6.230419,0.000687,0.001173,-0.001734,-0.340088,0.376953,0.017334,-0.039605,8.341055,5.157293,-0.010539,0.01055,0.007136,0.125732,0.323486,0.563232,-1.552506,-7.032322,6.742027,-0.007959,0.004907,0.000136,0.638184,0.120605,-0.268799,2.185612,-7.207793,6.423855,-0.012119,0.000958,0.011315,0.075439,0.30957,-0.60376,0.542407,-5.82892,7.865607,0.001815,0.002113,-0.009252,-0.253906,0.384521,-0.427246
1.823157,-7.330962,6.266109,0.002619,-0.000281,0.001659,-0.3396,0.379883,0.023682,-0.051761,8.308111,5.182166,-0.017611,0.001284,0.008729,0.139404,0.325684,0.560059,-1.573958,-7.028364,6.731426,-0.0094,-0.002112,-0.002992,0.639648,0.125488,-0.261475,2.18586,-7.179402,6.39084,-0.001694,-0.003931,0.007202,0.077393,0.314941,-0.599365,0.562212,-5.892607,7.842961,-0.017811,-0.007665,0.000997,-0.252686,0.385254,-0.419434
1.834549,-7.326143,6.260731,-0.005978,0.002963,1.1e-05,-0.342285,0.369385,0.014404,-0.03244,8.3353,5.175141,-0.004993,0.006938,0.007103,0.129883,0.327881,0.556396,-1.52748,-7.026581,6.69746,-0.008322,-0.001927,-0.003029,0.637451,0.113037,-0.272705,2.18944,-7.182103,6.34647,-0.019513,-0.003041,0.014346,0.071777,0.301514,-0.607178,0.566924,-5.873128,7.851847,0.016715,0.00485,-0.009139,-0.257568,0.375244,-0.426758
1.826548,-7.365212,6.241025,-0.001531,0.000471,-0.000651,-0.338135,0.380127,0.01416,-0.048361,8.321653,5.189863,-0.020408,0.007364,0.010146,0.129883,0.329346,0.564453,-1.556609,-7.027543,6.690844,-0.006209,0.008477,0.000216,0.63916,0.123779,-0.272217,2.172798,-7.186826,6.311313,-0.000743,0.0015,0.00714,0.077881,0.313232,-0.607666,0.563216,-5.832166,7.852531,-0.007442,-0.008259,-0.000441,-0.251709,0.38501,-0.429199
1.839189,-7.343286,6.273418,0.008452,0.00163,-0.00102,-0.337891,0.377197,0.023682,-0.023488,8.316646,5.166522,-0.001942,0.002543,0.005907,0.133301,0.338379,0.560791,-1.535592,-7.042343,6.71339,-0.003793,0.001361,0.002081,0.638916,0.12085,-0.264404,2.176653,-7.176216,6.316222,-0.003472,0.005596,0.009515,0.078613,0.313232,-0.601318,0.570476,-5.90398,7.822306,-0.003467,0.002275,-0.002478,-0.250488,0.384521,-0.420898
1.83418,-7.325451,6.26165,0.00013,0.000971,0.000413,-0.333496,0.369629,0.018799,-0.05213,8.342231,5.199339,-0.002639,0.00972,0.008149,0.126709,0.327881,0.558105,-1.558556,-7.036348,6.704563,0.009045,0.012434,0.001797,0.644775,0.114258,-0.270264,2.187238,-7.204219,6.381498,0.003433,0.005688,0.0088,0.083008,0.304688,-0.602295,0.53913,-5.868776,7.846745,0.011428,-0.000485,-0.007286,-0.246582,0.376709,-0.42627
1.829979,-7.35705,6.25805,0.003364,0.001323,-0.00097,-0.336182,0.370117,0.008545,-0.025547,8.324604,5.149135,-0.012805,0.002057,0.007128,0.132812,0.328857,0.560547,-1.578454,-7.011357,6.75265,0.003107,0.004337,0.000879,0.641602,0.112305,-0.276855,2.177385,-7.15797,6.419827,0.006928,0.007574,0.007082,0.080811,0.305664,-0.611328,0.582076,-5.852603,7.85135,0.004778,-0.004024,0.002852,-0.249512,0.377686,-0.432617
1.82061,-7.318345,6.276278,0.007395,0.001659,0.002378,-0.33252,0.37793,0.0271,-0.046934,8.333852,5.1696,-0.003614,0.007696,0.00733,0.130615,0.334717,0.559814,-1.560807,-7.004276,6.722931,-0.01021,0.004364,0.001244,0.645752,0.121094,-0.257568,2.174696,-7.197634,6.431026,-0.013578,-0.001343,0.014303,0.084961,0.312988,-0.593018,0.543566,-5.837153,7.847585,0.00466,0.00619,-0.006373,-0.243652,0.38623,-0.414062
1.828098,-7.332727,6.261423,-0.009988,0.000789,-0.000383,-0.341553,0.376465,0.026855,-0.052976,8.338201,5.175706,-0.017088,0.002759,0.007295,0.134766,0.342773,0.563232,-1.575657,-7.056155,6.725086,-0.00703,0.000729,-0.001734,0.635254,0.118652,-0.260498,2.190366,-7.200841,6.393036,-0.00409,-0.002608,0.008435,0.076416,0.311523,-0.595459,0.550075,-5.858334,7.83687,-0.009205,-0.009274,0.000222,-0.252686,0.381592,-0.414551
1.83557,-7.372962,6.256926,-0.000958,0.000781,-0.000595,-0.341797,0.377686,0.018799,-0.010886,8.312237,5.164485,-0.01066,0.007844,0.008,0.129639,0.330078,0.571533,-1.538323,-7.031684,6.704769,-0.008321,-0.001928,-0.003032,0.635498,0.12085,-0.267334,2.176725,-7.163626,6.373593,-0.015785,0.000135,0.010548,0.072754,0.312256,-0.602295,0.583252,-5.872267,7.861189,-0.001556,0.000162,-0.006787,-0.253906,0.384766,-0.423828
1.839454,-7.328102,6.255833,0.005478,0.003221,0.001189,-0.331543,0.38208,0.0271,-0.054517,8.321484,5.19471,-0.011969,0.006094,0.007842,0.122314,0.335938,0.563477,-1.555414,-7.038814,6.687533,-0.007593,0.005648,-4.9e-05,0.647217,0.126221,-0.259033,2.182842,-7.173003,6.323078,-0.004089,-0.002612,0.008435,0.086426,0.320068,-0.596191,0.55361,-5.878578,7.865395,-0.002539,0.001815,-0.000272,-0.242188,0.389404,-0.416992
1.832232,-7.350297,6.273757,-0.004458,0.000435,-0.000789,-0.33252,0.36377,0.017334,-0.026121,8.307261,5.190762,-0.009648,0.002294,0.006968,0.135986,0.338379,0.564453,-1.550152,-7.036443,6.727368,-0.0029,0.001134,0.000174,0.645752,0.10791,-0.27124,2.171001,-7.170214,6.343647,-0.005301,0.005092,0.009668,0.084229,0.297363,-0.604248,0.566178,-5.881053,7.814904,0.010596,-0.003102,-0.004485,-0.245117,0.370361,-0.427246
1.829767,-7.355241,6.245261,0.006166,0.004393,-0.000545,-0.344482,0.374512,0.023438,-0.042716,8.327167,5.180397,-0.001653,0.010802,0.008052,0.123047,0.333496,0.557129,-1.542059,-7.037827,6.693224,0.002849,0.011895,0.002874,0.63623,0.116699,-0.26416,2.178722,-7.188555,6.351651,0.000219,0.006571,0.00922,0.074463,0.311523,-0.597168,0.559013,-5.847236,7.865951,0.003522,-0.002319,-0.006181,-0.254639,0.381104,-0.418701
1.810136,-7.332752,6.260527,0.004192,-0.000429,-0.000788,-0.34082,0.381348,0.02832,-0.048816,8.322147,5.176029,-0.011089,0.001599,0.005754,0.129395,0.339844,0.563477,-1.5696,-7.018682,6.744389,0.001194,0.005489,0.002047,0.638916,0.124023,-0.260254,2.174514,-7.16987,6.406318,0.005695,0.006736,0.006928,0.076172,0.315918,-0.594238,0.569269,-5.880239,7.824932,-0.011979,0.000795,0.003315,-0.25293,0.388916,-0.416748
1.836937,-7.32807,6.271575,0.001594,0.003966,0.000455,-0.339111,0.381592,0.027588,-0.022739,8.33413,5.154914,-0.005795,0.009504,0.008337,0.12915,0.324707,0.562256,-1.550922,-7.02798,6.744548,8.3e-05,0.006173,-0.001594,0.638672,0.122803,-0.259521,2.175184,-7.190985,6.42926,-0.009476,0.000202,0.012278,0.074463,0.315186,-0.594727,0.536416,-5.854288,7.85006,0.024714,0.001571,-0.009977,-0.253174,0.38623,-0.417969
1.814548,-7.336877,6.268206,-0.002026,-0.001248,0.001352,-0.339111,0.378662,0.013672,-0.069502,8.320117,5.189081,-0.015447,0.004258,0.006804,0.125,0.328857,0.563721,-1.592159,-7.022376,6.748878,-0.008607,0.003571,-0.00051,0.63916,0.121826,-0.272949,2.195338,-7.17378,6.417041,-0.002619,-0.000672,0.007584,0.077881,0.310791,-0.60791,0.571656,-5.826959,7.855786,-0.006982,-0.007795,-0.001602,-0.251221,0.384277,-0.431885
1.851405,-7.341928,6.292523,-0.000698,0.002724,0.00023,-0.336914,0.376953,0.016357,-0.022767,8.334233,5.17634,-0.010384,0.003853,0.008244,0.138672,0.333496,0.563232,-1.543675,-7.025481,6.737945,-0.013308,-0.006059,-0.003001,0.643799,0.119141,-0.268555,2.176107,-7.171288,6.388542,-0.014948,0.000386,0.012435,0.081543,0.311035,-0.605957,0.572851,-5.878438,7.835664,-0.008313,0.005437,-0.001335,-0.24707,0.381592,-0.427002
1.820615,-7.340531,6.260985,-0.00465,0.000981,-0.001059,-0.341553,0.374268,0.023193,-0.035448,8.334041,5.177314,-0.015674,0.010119,0.009457,0.123779,0.329834,0.560303,-1.544555,-7.041686,6.688588,-0.006238,0.006336,-0.003173,0.638184,0.116943,-0.265137,2.167592,-7.196692,6.333998,-0.006568,-0.004447,0.009184,0.076904,0.307861,-0.601074,0.527199,-5.873229,7.851339,-0.003838,-0.00882,-0.005953,-0.253174,0.379395,-0.424561
1.842154,-7.357183,6.275427,0.003057,0.001007,0.000551,-0.339844,0.369873,0.020264,-0.039087,8.302232,5.190992,-0.010566,0.00023,0.007147,0.136719,0.330566,0.560059,-1.556808,-7.036518,6.698087,-0.003703,0.001526,0.001052,0.63501,0.114502,-0.265869,2.19115,-7.160885,6.33366,-0.00147,0.003676,0.010015,0.07373,0.30542,-0.60083,0.602392,-5.883112,7.821079,0.006839,-0.000317,8e-06,-0.255371,0.379395,-0.424805
1.832249,-7.322232,6.251015,0.005468,0.001163,-0.000262,-0.329834,0.382324,0.013916,-0.048747,8.326405,5.186289,-0.000195,0.009603,0.007407,0.134277,0.327637,0.56665,-1.535201,-7.029581,6.701033,0.002668,0.008479,0.001292,0.644043,0.126221,-0.270264,2.170663,-7.18573,6.351886,-0.002666,0.004517,0.009564,0.081787,0.314453,-0.608643,0.532412,-5.851348,7.861967,0.013028,0.006207,-0.008782,-0.243896,0.38623,-0.429688
1.832101,-7.334615,6.256874,-0.002484,-0.000697,-0.000495,-0.326172,0.374268,0.018555,-0.054697,8.321136,5.182337,-0.016697,0.002472,0.007647,0.131592,0.334229,0.559326,-1.573949,-7.015025,6.723824,0.000819,0.00774,0.001959,0.647705,0.115479,-0.268799,2.191606,-7.179079,6.384494,0.005704,0.006546,0.008001,0.087402,0.30835,-0.604248,0.578583,-5.857413,7.835968,-0.009038,-0.011501,0.001243,-0.241699,0.380371,-0.426025
1.834656,-7.356632,6.24105,0.005406,0.002681,-0.000119,-0.336914,0.372803,0.014404,-0.029927,8.316539,5.158422,0.000275,0.007325,0.006859,0.131836,0.334229,0.561523,-1.545978,-7.024039,6.7432,-0.003432,0.005106,0.001612,0.641357,0.11499,-0.271973,2.191319,-7.176601,6.411906,-0.008322,0.005075,0.011505,0.081543,0.30542,-0.608887,0.579665,-5.867141,7.845753,0.0065,0.006672,-0.0065,-0.248047,0.377441,-0.427246
1.837064,-7.313085,6.253802,0.001661,0.000501,0.001064,-0.335693,0.375977,0.020508,-0.061767,8.34106,5.162971,-0.01256,0.004721,0.00831,0.130371,0.330078,0.55957,-1.57027,-7.023053,6.724509,-0.003527,0.007865,-0.001568,0.641602,0.12207,-0.268066,2.18729,-7.194631,6.413148,-0.002846,-0.001443,0.006457,0.08252,0.312012,-0.601807,0.522535,-5.859061,7.854559,-6.6e-05,-0.005204,-0.000862,-0.246826,0.381104,-0.423584
1.823126,-7.345126,6.283636,-0.003567,0.003119,-0.000804,-0.331299,0.374023,0.012939,-0.021131,8.308251,5.158667,-0.015712,0.003556,0.00754,0.127441,0.328857,0.57251,-1.551519,-7.014325,6.74812,-0.006651,-0.00453,-0.001364,0.645996,0.117676,-0.269531,2.189911,-7.162823,6.407766,-0.009051,0.000404,0.012689,0.085205,0.311035,-0.60498,0.576678,-5.866319,7.817675,0.006372,-0.000536,-0.00343,-0.243408,0.380859,-0.427246
1.847157,-7.33739,6.216967,-0.001458,0.001011,0.000656,-0.333984,0.378174,0.019287,-0.057964,8.31177,5.184991,-0.008034,0.011376,0.008365,0.131348,0.333984,0.558594,-1.552627,-7.0302,6.699015,-0.009936,0.004856,-0.001839,0.645752,0.12207,-0.269775,2.16856,-7.187402,6.34731,-0.012546,-0.000774,0.010133,0.083984,0.313965,-0.60376,0.548332,-5.831706,7.860735,-0.007542,-0.000593,-0.005194,-0.245605,0.382568,-0.42627
1.830922,-7.334627,6.257206,-0.001204,-0.001052,0.000783,-0.335938,0.384766,0.022461,-0.02665,8.321017,5.176772,-0.011289,-0.000105,0.006544,0.130859,0.330566,0.560791,-1.563003,-7.053311,6.698189,-0.007768,-0.000773,-0.001355,0.644775,0.127441,-0.263916,2.172884,-7.177868,6.350939,-0.003623,-0.000924,0.009621,0.081543,0.319824,-0.598877,0.578796,-5.896392,7.846443,-0.007666,-0.004603,0.002671,-0.246094,0.391846,-0.422363
1.842412,-7.341953,6.257907,0.00336,0.003272,-0.001722,-0.337158,0.37085,0.016846,-0.029345,8.329146,5.159318,-0.0077,0.011105,0.007706,0.121582,0.324219,0.557861,-1.524568,-7.032515,6.702025,0.002265,0.008673,0.001737,0.640625,0.114502,-0.270508,2.178167,-7.176136,6.335444,-0.003852,0.00517,0.010185,0.077393,0.304443,-0.605957,0.562457,-5.873742,7.84911,0.015568,0.004399,-0.008515,-0.249512,0.378174,-0.426758
1.825453,-7.341825,6.256893,0.005469,0.001164,-0.000262,-0.34668,0.371338,0.019531,-0.054006,8.315047,5.183743,-0.008212,0.003017,0.008205,0.123535,0.333496,0.56543,-1.572661,-7.026786,6.720048,0.00433,0.008876,0.002692,0.630615,0.114502,-0.269775,2.167047,-7.170656,6.371072,0.007687,0.004989,0.006361,0.069824,0.308594,-0.602783,0.54479,-5.850299,7.842826,0.00209,-0.004577,0.001307,-0.259277,0.378662,-0.426514
1.820413,-7.33691,6.250322,-0.000708,0.000666,-0.001221,-0.339111,0.375244,0.01709,-0.029346,8.320606,5.169049,-0.003603,0.006764,0.006432,0.128906,0.334717,0.555176,-1.54672,-7.030956,6.716371,-0.003859,0.00317,-0.001347,0.639648,0.120361,-0.267822,2.189792,-7.186405,6.412603,-0.009551,0.004241,0.011349,0.080322,0.310303,-0.605713,0.553687,-5.851372,7.831971,0.000823,0.00172,-0.007473,-0.252686,0.383301,-0.425537
1.828899,-7.347229,6.278321,0.003057,0.001008,0.000551,-0.344971,0.378906,0.027588,-0.060977,8.334953,5.164513,-0.014348,0.00622,0.009655,0.135498,0.324219,0.555176,-1.577911,-7.033396,6.754771,-0.005162,0.006589,0.000722,0.635498,0.123047,-0.260742,2.194032,-7.200185,6.412427,-0.003761,0.001644,0.007912,0.071777,0.314453,-0.594238,0.556133,-5.860946,7.85141,-0.003756,-0.003865,-0.000488,-0.256592,0.386475,-0.41748
1.834108,-7.326158,6.274636,0.001146,0.000621,0.000113,-0.345947,0.374756,0.023193,-0.032569,8.320459,5.160922,-0.010515,0.004936,0.007216,0.125977,0.325195,0.565186,-1.550386,-7.017265,6.730163,-0.002215,-0.001558,-0.003075,0.632324,0.116455,-0.263672,2.174696,-7.173082,6.38918,-0.002657,-0.002534,0.008944,0.071533,0.305908,-0.596191,0.551448,-5.870927,7.82289,0.005759,-0.001076,-0.003413,-0.258545,0.378906,-0.420654
1.83158,-7.344224,6.251133,-0.004958,0.000664,0.000461,-0.33374,0.366455,0.013916,-0.045706,8.340358,5.180663,-0.009929,0.00729,0.007718,0.135986,0.331055,0.563232,-1.565928,-7.0119,6.70715,-0.01308,0.00446,-0.002754,0.646973,0.112305,-0.272705,2.168237,-7.171429,6.366435,-0.016032,-0.002668,0.011849,0.082764,0.302734,-0.606445,0.549277,-5.839678,7.842944,-8.1e-05,-0.00266,-0.005336,-0.246582,0.372314,-0.428711
1.83139,-7.357093,6.256436,0.001319,0.001914,-0.002573,-0.343506,0.363037,0.02832,-0.025665,8.304953,5.168726,-0.017094,0.002838,0.007334,0.122314,0.327637,0.564697,-1.563625,-7.05859,6.724459,-0.009716,0.001316,6.1e-05,0.634521,0.107666,-0.258301,2.18014,-7.183063,6.350411,-0.005546,0.002456,0.009908,0.072998,0.298096,-0.595703,0.576728,-5.873243,7.848672,-0.010444,-0.002331,0.000717,-0.256348,0.370117,-0.416748
1.832527,-7.314916,6.282904,0.006557,0.001354,0.000746,-0.336914,0.378174,0.016113,-0.045192,8.310942,5.172921,-0.002095,0.006458,0.007714,0.132812,0.336182,0.568848,-1.528491,-7.045583,6.710858,0.004586,0.004327,0.000414,0.644775,0.121826,-0.269775,2.16442,-7.184644,6.330511,0.00135,0.002538,0.009195,0.080811,0.314209,-0.606689,0.564762,-5.872511,7.830598,0.008593,0.000952,-0.005261,-0.248047,0.384766,-0.427979
1.81951,-7.348912,6.256851,-0.006624,0.002111,-0.001356,-0.334961,0.375244,0.025146,-0.042959,8.336712,5.186551,-0.008341,0.004082,0.007164,0.135742,0.336426,0.560059,-1.558399,-7.013268,6.724265,0.000843,0.009791,0.001441,0.644287,0.120361,-0.262939,2.184081,-7.156361,6.35344,-0.000258,0.002986,0.009404,0.081543,0.314697,-0.601318,0.551805,-5.848989,7.852943,0.00462,-0.004992,-0.002962,-0.248047,0.382324,-0.422852
1.82955,-7.357529,6.271429,0.011193,0.000265,-0.000396,-0.33667,0.378906,0.021484,-0.0349,8.310326,5.164859,-0.007762,0.007386,0.008611,0.127197,0.321777,0.57251,-1.554768,-7.033256,6.731561,-0.004139,0.00266,0.001743,0.641846,0.121582,-0.266113,2.172084,-7.190216,6.399848,-0.003974,0.007371,0.010617,0.076416,0.312988,-0.600586,0.565085,-5.87065,7.822338,0.001825,0.003022,-0.004598,-0.247314,0.384521,-0.423584
1.822117,-7.304374,6.270681,0.00273,0.00253,-0.000884,-0.341309,0.371826,0.016602,-0.053224,8.333389,5.17117,-0.004328,0.007375,0.00678,0.129639,0.327393,0.568359,-1.583039,-7.029227,6.734536,0.001338,0.009763,-2.6e-05,0.635498,0.112793,-0.269531,2.183276,-7.190313,6.419415,0.000108,0.001891,0.007967,0.07373,0.306641,-0.602539,0.552929,-5.848054,7.85356,0.000149,-0.000827,-0.003522,-0.255615,0.377686,-0.426025
1.824353,-7.352225,6.265359,-0.007385,0.000398,-0.00093,-0.339844,0.372559,0.022217,-0.03157,8.315003,5.161405,-0.016249,0.002143,0.009002,0.127686,0.334961,0.564941,-1.567012,-7.015491,6.735126,-0.007393,-0.003027,-0.001271,0.638428,0.115234,-0.265381,2.189782,-7.173668,6.387922,-0.00945,0.00035,0.011214,0.07666,0.307129,-0.599854,0.566534,-5.870306,7.822491,0.000399,-0.005882,-0.002092,-0.251953,0.377686,-0.421387
1.822997,-7.341103,6.273417,0.006673,0.002217,-0.001044,-0.333496,0.367432,0.017822,-0.051262,8.320681,5.166127,-0.00808,0.010506,0.006463,0.128662,0.32666,0.563965,-1.536149,-7.023599,6.709019,-0.006766,0.007295,-0.001446,0.644531,0.108154,-0.267822,2.157275,-7.185178,6.369194,-0.007525,-0.002861,0.009859,0.08374,0.301514,-0.604736,0.546604,-5.846377,7.864691,0.000893,0.004628,-0.006743,-0.245117,0.371582,-0.426758
1.816469,-7.32502,6.274994,-0.000881,-0.000626,0.001465,-0.334717,0.369629,0.019043,-0.052167,8.312547,5.175153,-0.01309,0.002358,0.008836,0.126953,0.333252,0.566162,-1.578538,-7.031082,6.718456,-0.009006,0.000752,0.00021,0.641846,0.114258,-0.268555,2.180338,-7.151403,6.354753,-0.004724,-0.003977,0.009033,0.083252,0.305664,-0.603027,0.568017,-5.87088,7.821953,-0.009119,-0.007526,0.000899,-0.249023,0.374268,-0.423096
1.823975,-7.352356,6.265315,-0.006436,0.003513,-0.00184,-0.336426,0.373291,0.013428,-0.015694,8.318938,5.179863,-0.008666,0.008158,0.005964,0.125977,0.329102,0.559814,-1.518875,-7.039221,6.697962,-0.001977,0.002963,-0.002259,0.644287,0.116211,-0.271973,2.178797,-7.176605,6.349229,-0.009481,0.005891,0.011065,0.081299,0.307129,-0.607422,0.551465,-5.877218,7.844759,0.014264,0.003864,-0.009028,-0.247559,0.377686,-0.429443
1.830492,-7.342489,6.253489,0.009488,-0.000557,0.001639,-0.339111,0.376221,0.026855,-0.055714,8.312687,5.166628,-0.008683,0.00532,0.008787,0.128174,0.332764,0.568848,-1.564947,-7.021946,6.709381,-0.00147,0.00813,0.003329,0.64209,0.121338,-0.257324,2.168897,-7.180416,6.363936,0.003839,0.004531,0.007383,0.079834,0.313232,-0.594727,0.578041,-5.849697,7.860574,-0.009514,-0.00599,-0.001869,-0.250244,0.381836,-0.416748
1.827465,-7.319177,6.270942,0.004391,0.003032,0.00018,-0.334229,0.379639,0.01709,-0.029601,8.334919,5.154751,-0.001814,0.005289,0.00512,0.128906,0.334229,0.563721,-1.552198,-7.032557,6.722005,0.001811,0.004681,-0.000688,0.644775,0.126221,-0.270996,2.192775,-7.180997,6.389902,-0.002685,0.002816,0.009864,0.082275,0.315186,-0.60498,0.557064,-5.887954,7.815159,0.010817,0.004491,-0.002363,-0.247559,0.387939,-0.427002
1.823274,-7.351189,6.266889,-0.006177,-0.000499,-0.00096,-0.339844,0.369873,0.014404,-0.046241,8.331779,5.177894,-0.013147,0.007161,0.006914,0.140625,0.326172,0.563232,-1.55255,-7.009364,6.755139,0.001739,0.009564,-0.000459,0.637939,0.114258,-0.269287,2.188085,-7.17507,6.395948,-0.003101,0.002783,0.008385,0.073975,0.304932,-0.609131,0.541837,-5.823648,7.857168,0.006995,-0.004329,-0.008318,-0.252441,0.375732,-0.428711
1.829513,-7.36695,6.265775,0.004391,0.003032,0.00018,-0.337646,0.36792,0.025391,-0.053593,8.309529,5.171729,-0.010724,0.004184,0.008957,0.132324,0.336426,0.563721,-1.574936,-7.0362,6.726458,-0.011903,-0.001119,0.000658,0.640137,0.112061,-0.26123,2.185836,-7.176402,6.395223,-0.006723,0.002924,0.011598,0.078369,0.304932,-0.5979,0.584738,-5.868868,7.841719,-0.009516,-0.002796,0.00293,-0.249756,0.376221,-0.418701
1.827094,-7.306241,6.265876,0.003061,-0.00094,0.001304,-0.344971,0.368408,0.020264,-0.041035,8.332962,5.158686,-0.005439,0.007369,0.005856,0.128662,0.335449,0.561035,-1.542234,-7.040443,6.709115,-0.002994,0.003887,-0.002999,0.634766,0.111572,-0.263184,2.171665,-7.200774,6.38368,-0.007653,-0.000657,0.010288,0.07373,0.30249,-0.599609,0.534307,-5.873003,7.839114,0.005572,0.005991,-0.008783,-0.256104,0.375977,-0.421875
1.829511,-7.341877,6.254496,-0.012151,0.000516,-0.000201,-0.338623,0.374268,0.019531,-0.05027,8.323283,5.179208,-0.022574,0.001761,0.009355,0.132568,0.332031,0.55957,-1.553457,-7.014361,6.6982,-0.008297,0.000189,0.00036,0.638672,0.120117,-0.266113,2.18095,-7.167767,6.349605,-0.005135,-0.00438,0.009691,0.079346,0.310303,-0.602539,0.558174,-5.846049,7.835426,-0.002875,-0.011822,0.000731,-0.251221,0.38208,-0.424561
1.832036,-7.364274,6.238261,0.010173,0.002564,-0.000849,-0.338623,0.371826,0.020264,-0.0271,8.311251,5.163288,-0.004523,0.010397,0.006648,0.125,0.325439,0.567139,-1.544167,-7.046764,6.697738,-0.008545,0.001666,-0.001006,0.638184,0.114258,-0.265625,2.175679,-7.187817,6.336567,-0.010576,0.002484,0.012615,0.076416,0.306641,-0.599121,0.578774,-5.858247,7.842369,-9.9e-05,0.003081,-0.005018,-0.25293,0.377686,-0.422607
1.826345,-7.318513,6.272044,0.005541,0.001706,0.001046,-0.332764,0.375732,0.020752,-0.054006,8.323592,5.170454,-0.005255,0.006263,0.007911,0.129395,0.335449,0.5625,-1.569348,-7.026382,6.703706,0.005928,0.011087,0.000678,0.647949,0.119873,-0.268799,2.165568,-7.167901,6.355766,0.007521,0.005681,0.006023,0.08667,0.314697,-0.600098,0.536761,-5.87275,7.839136,0.001687,0.000407,-0.00127,-0.244141,0.385742,-0.423828
1.818744,-7.344768,6.246979,-0.01025,-0.001157,-0.001212,-0.346191,0.375244,0.017578,-0.025936,8.319071,5.17621,-0.015777,0.003687,0.006584,0.125,0.334229,0.569824,-1.545781,-7.023821,6.730364,-0.002968,0.003012,0.000679,0.632324,0.120361,-0.269531,2.184465,-7.164928,6.36064,-0.008374,0.001883,0.011028,0.071289,0.308838,-0.605713,0.588259,-5.858247,7.832257,0.010017,-0.008209,-0.004742,-0.257812,0.379395,-0.425537
1.818425,-7.357173,6.252867,0.012788,0.004233,5.8e-05,-0.332031,0.372314,0.020996,-0.038937,8.319312,5.176589,-0.005117,0.009,0.007094,0.130371,0.331299,0.564453,-1.556109,-7.033171,6.724764,-0.000547,0.009959,0.000901,0.647217,0.114502,-0.263428,2.175312,-7.206106,6.39999,-0.001022,0.004203,0.008301,0.087402,0.305908,-0.600342,0.565856,-5.834081,7.855557,-0.002719,0.004278,-0.005893,-0.242676,0.376953,-0.423096
1.814541,-7.297405,6.267235,0.001401,-0.001442,0.00024,-0.341309,0.378906,0.018555,-0.036555,8.325427,5.170872,-0.005445,0.002633,0.00679,0.12793,0.324951,0.564697,-1.58988,-7.030551,6.74015,-0.003149,0.002604,-0.001192,0.63501,0.121094,-0.270508,2.181578,-7.178741,6.403106,-0.000476,0.002203,0.008281,0.075195,0.312012,-0.605469,0.541462,-5.911936,7.820511,-0.006217,-0.002596,-0.000214,-0.255859,0.384521,-0.427979
1.823441,-7.335794,6.249597,-0.007702,0.003978,-0.000917,-0.336426,0.375977,0.023438,-0.035723,8.333986,5.182602,-0.013748,0.006735,0.00832,0.133057,0.328857,0.562012,-1.542386,-7.02373,6.71606,-0.00339,0.001084,-0.002286,0.642822,0.120605,-0.265625,2.18592,-7.17911,6.373284,-0.013341,-0.001769,0.012519,0.080078,0.3125,-0.602539,0.551931,-5.832964,7.818692,0.020517,-0.001561,-0.009276,-0.248047,0.380615,-0.424561
1.827876,-7.365903,6.267484,0.003119,-0.000509,0.000409,-0.340088,0.376221,0.027344,-0.044821,8.304531,5.183892,-0.016909,0.006538,0.008494,0.130127,0.327881,0.563232,-1.568097,-7.016669,6.727084,-0.008679,0.005433,1e-06,0.63623,0.119141,-0.260742,2.180587,-7.175535,6.364578,-0.002005,-0.001045,0.007279,0.075439,0.307861,-0.593262,0.567293,-5.842867,7.856396,-0.018349,-0.005348,0.001783,-0.252686,0.381592,-0.417725
1.831944,-7.333422,6.272117,0.003997,0.002065,-0.001809,-0.334961,0.367188,0.018555,-0.018445,8.316497,5.163118,-0.000636,0.004303,0.006129,0.132568,0.333984,0.557373,-1.547732,-7.046648,6.701329,-0.00996,-0.000215,-0.001036,0.643799,0.109375,-0.268066,2.175041,-7.172055,6.355836,-0.014476,0.000557,0.012851,0.081543,0.299316,-0.604004,0.564671,-5.914334,7.827071,-0.001018,0.00329,-0.002621,-0.248535,0.373535,-0.426025
1.82169,-7.337108,6.263519,-0.005474,0.000783,-0.000492,-0.342773,0.375732,0.018066,-0.045409,8.328589,5.170716,-0.013333,0.009256,0.005842,0.128662,0.326416,0.561279,-1.559155,-7.028423,6.705588,0.0071,0.011442,-0.00038,0.634033,0.12085,-0.268066,2.190697,-7.18814,6.348097,0.003198,0.003725,0.004781,0.073242,0.312744,-0.60376,0.549296,-5.850691,7.868594,0.012227,-0.003274,-0.006384,-0.257324,0.381836,-0.425049
1.844794,-7.352161,6.264442,0.004897,0.000854,-0.000317,-0.329834,0.378418,0.010986,-0.032414,8.298787,5.162776,-0.015133,0.00031,0.008076,0.134277,0.33252,0.556152,-1.567162,-7.010614,6.742275,-0.005932,0.003023,0.001632,0.646973,0.118652,-0.277832,2.174688,-7.155554,6.36684,-0.001475,0.001764,0.011388,0.085693,0.312988,-0.613281,0.575043,-5.853566,7.836299,0.000317,-0.003047,-0.002507,-0.242188,0.38501,-0.433594
1.823095,-7.322146,6.24536,0.006173,0.002448,0.000207,-0.34082,0.37915,0.018799,-0.040328,8.329989,5.151276,0.005946,0.013026,0.007005,0.12915,0.330566,0.567627,-1.533972,-7.041884,6.715506,-0.003719,0.007506,0.000512,0.636963,0.124268,-0.268555,2.162787,-7.199933,6.378805,-0.00826,0.005207,0.010454,0.077148,0.313721,-0.604004,0.549658,-5.849397,7.859909,0.000891,0.00463,-0.006749,-0.25293,0.385254,-0.427734
1.844371,-7.33867,6.260045,-0.005975,0.001014,0.000758,-0.337646,0.377197,0.023682,-0.061974,8.339505,5.171247,-0.018032,0.001795,0.008477,0.130615,0.333008,0.564697,-1.585927,-7.025816,6.739453,0.001744,0.006562,-0.000175,0.64209,0.118896,-0.262939,2.19612,-7.171478,6.421254,0.006002,0.002054,0.007162,0.081055,0.310791,-0.598389,0.571666,-5.882977,7.827477,-0.004955,-0.009545,-0.000703,-0.248779,0.380859,-0.42041
1.823279,-7.371355,6.254022,0.003881,0.001204,-1.8e-05,-0.3479,0.371338,0.023193,-0.026734,8.309291,5.154181,-0.008995,0.008472,0.006673,0.128906,0.331299,0.562256,-1.563792,-7.019353,6.742161,-0.007432,0.000908,-0.001298,0.629395,0.11499,-0.263916,2.165463,-7.165566,6.401216,-0.015478,0.000489,0.013818,0.068604,0.304443,-0.598145,0.569005,-5.841724,7.837872,0.015639,0.007337,-0.00781,-0.260986,0.378906,-0.420898
1.832567,-7.318327,6.254341,0.000954,0.001168,-0.000158,-0.335938,0.381836,0.019531,-0.046854,8.334968,5.177775,-0.00947,0.006014,0.008161,0.126953,0.333984,0.5625,-1.560077,-7.023198,6.719481,-0.006701,0.005397,-0.001941,0.639648,0.124023,-0.268555,2.170223,-7.189801,6.366592,-0.002649,-0.002388,0.007876,0.080322,0.314453,-0.606934,0.542728,-5.856209,7.872265,-0.008897,-0.005456,-0.001884,-0.249512,0.387451,-0.426514
1.83215,-7.343957,6.265094,-0.005854,-7.3e-05,-0.000279,-0.339111,0.380615,0.018555,-0.031959,8.322214,5.172026,-0.011712,0.002197,0.008142,0.124756,0.330566,0.562012,-1.561358,-7.037049,6.723808,-0.008908,-0.002083,-0.000551,0.639648,0.124756,-0.267334,2.175633,-7.165075,6.354765,-0.011385,0.002041,0.011798,0.080322,0.318115,-0.602295,0.572883,-5.892117,7.828073,-0.004448,-0.002728,-0.000943,-0.249756,0.387207,-0.426025
1.833592,-7.342448,6.251493,0.00585,0.002022,-0.000475,-0.3396,0.375488,0.013916,-0.051439,8.318385,5.166657,-0.00972,0.009087,0.007019,0.125977,0.332031,0.561523,-1.531209,-7.03605,6.683599,-0.000388,0.008239,-0.000623,0.63916,0.121826,-0.269775,2.167782,-7.201378,6.344227,-0.000882,0.001975,0.007874,0.077881,0.311035,-0.607666,0.551167,-5.868389,7.860643,0.005811,0.004387,-0.007168,-0.251709,0.385742,-0.429688
1.820244,-7.335732,6.265551,0.003057,0.001009,0.000551,-0.335938,0.367432,0.022949,-0.044071,8.321229,5.174423,-0.009399,0.004063,0.007265,0.133545,0.335693,0.558594,-1.575021,-7.023381,6.718457,-0.00118,0.002636,0.000795,0.642822,0.114502,-0.26123,2.166489,-7.15324,6.366799,0.001195,0.003216,0.008858,0.081055,0.30249,-0.595703,0.557064,-5.869433,7.83076,0.001196,-0.007806,0.003512,-0.246094,0.375488,-0.418213
1.822843,-7.345162,6.244182,-0.000581,0.003586,-0.001564,-0.338867,0.368896,0.024414,-0.04162,8.337205,5.178373,1.3e-05,0.006603,0.007656,0.13208,0.330078,0.55542,-1.550541,-7.031746,6.705787,-0.0023,0.006384,0.000816,0.640869,0.109619,-0.260254,2.18673,-7.196697,6.375825,-0.011091,0.00446,0.012641,0.07959,0.302979,-0.596191,0.563312,-5.848382,7.850252,0.011504,0.002714,-0.011199,-0.25,0.371582,-0.420654
1.824672,-7.339597,6.273529,0.005926,0.000615,0.001587,-0.339111,0.37915,0.013916,-0.045668,8.328943,5.158039,-0.019338,0.004824,0.0074,0.136963,0.335449,0.562256,-1.584587,-7.028933,6.721295,0.000474,0.006031,0.001922,0.640137,0.122314,-0.27002,2.195444,-7.189906,6.401985,0.008721,0.005175,0.004345,0.075928,0.314697,-0.605469,0.561722,-5.868054,7.850701,-0.015045,-0.004254,0.003313,-0.253662,0.384277,-0.43042
1.824387,-7.339273,6.273991,-0.001401,0.001442,-0.000241,-0.342773,0.376465,0.017334,-0.024349,8.320214,5.158136,-0.002422,0.005801,0.007492,0.124023,0.327148,0.564453,-1.55311,-7.013375,6.729169,-0.006218,-0.002672,-0.002347,0.63501,0.121094,-0.267822,2.160608,-7.14453,6.413479,-0.012025,0.000516,0.013464,0.074707,0.312988,-0.604248,0.546882,-5.877188,7.82341,0.013962,0.004639,-0.00667,-0.255371,0.38208,-0.424805
1.81856,-7.338753,6.2242,-0.002605,0.000389,0.000542,-0.341553,0.376221,0.016113,-0.03739,8.340583,5.177136,-0.009862,0.006359,0.007844,0.127197,0.332275,0.563721,-1.565592,-7.031596,6.705078,-0.009296,0.006152,-0.001173,0.636719,0.122803,-0.267578,2.191571,-7.202908,6.366155,-0.008697,-0.002229,0.010477,0.074951,0.313721,-0.605225,0.537458,-5.824461,7.844773,0.000564,-0.006702,-0.005621,-0.252197,0.384033,-0.425537
1.842391,-7.337447,6.262061,0.003308,0.000893,-7.4e-05,-0.335449,0.369629,0.018799,-0.037844,8.312523,5.167165,-0.017034,0.000996,0.006485,0.128662,0.337646,0.5625,-1.551597,-7.043657,6.716521,-0.005849,-0.001926,-0.002533,0.644775,0.11377,-0.267578,2.177314,-7.179823,6.363478,-0.002716,0.00148,0.008023,0.07959,0.307617,-0.606445,0.590146,-5.881446,7.837094,-0.014604,-0.000344,0.00234,-0.249023,0.375488,-0.426758
1.82903,-7.331083,6.275701,0.001084,0.00214,0.000254,-0.337402,0.380127,0.021729,-0.049122,8.329559,5.170245,-0.001294,0.010561,0.007532,0.125244,0.333008,0.561768,-1.535912,-7.021381,6.702613,-0.000791,0.00843,-0.000179,0.642822,0.124268,-0.265625,2.154355,-7.184587,6.357812,-0.008532,0.00277,0.009616,0.079102,0.314697,-0.601074,0.524379,-5.863737,7.846262,0.010503,0.003462,-0.009343,-0.249756,0.386475,-0.422363
1.819869,-7.345923,6.259104,-0.001648,-0.000391,0.001139,-0.334229,0.376465,0.020508,-0.063477,8.313649,5.167021,-0.014151,0.001415,0.007986,0.135742,0.329346,0.559814,-1.57715,-7.023828,6.721826,-0.001215,0.003576,0.00105,0.644531,0.121582,-0.26416,2.184358,-7.16124,6.358803,0.001559,0.001934,0.008489,0.083984,0.310547,-0.598389,0.566638,-5.857646,7.850607,-0.000942,-0.010729,0.001214,-0.247803,0.383057,-0.422607
1.823611,-7.338904,6.274649,0.006222,0.000819,-0.002137,-0.335205,0.37207,0.020752,-0.019938,8.314245,5.167771,-0.00571,0.007625,0.007577,0.119141,0.331543,0.56543,-1.552128,-7.041253,6.723253,-0.008189,0.002467,0.002735,0.64209,0.11377,-0.264893,2.180839,-7.201344,6.369369,-0.012442,0.005654,0.013984,0.082764,0.305664,-0.599854,0.565936,-5.857193,7.841375,0.007104,0.007234,-0.006542,-0.250244,0.378174,-0.423828
1.826602,-7.335436,6.247957,-0.000313,0.001633,0.000767,-0.34668,0.382812,0.024414,-0.05322,8.322275,5.169676,-0.00947,0.006036,0.008184,0.126221,0.331299,0.562256,-1.593932,-7.035315,6.727645,0.003218,0.009548,-0.00091,0.634033,0.126953,-0.260254,2.185589,-7.189615,6.387927,0.006241,0.003156,0.00616,0.072266,0.315918,-0.599609,0.544852,-5.874356,7.844745,-0.009351,-0.00593,-0.000715,-0.258301,0.390137,-0.41626
1.818046,-7.346447,6.273965,0.001719,0.000933,0.000169,-0.341553,0.375977,0.019287,-0.035095,8.323554,5.14973,-0.005514,0.003659,0.006768,0.138184,0.336914,0.560303,-1.555847,-7.00522,6.717974,0.000129,-0.00077,-0.001282,0.63501,0.123047,-0.266846,2.172344,-7.163871,6.400275,-0.003949,9.7e-05,0.011067,0.074463,0.311035,-0.60083,0.553405,-5.865771,7.823968,0.013826,0.002026,-0.003341,-0.253418,0.384277,-0.424316
1.819498,-7.344882,6.260434,-0.000765,0.000235,-0.000326,-0.341553,0.370361,0.01709,-0.054876,8.349258,5.173312,-0.012372,0.008483,0.009549,0.131348,0.339111,0.563965,-1.547056,-7.037234,6.71777,-0.012425,0.007869,0.001316,0.637207,0.114014,-0.27002,2.184433,-7.175246,6.384539,-0.013199,-0.003817,0.011017,0.074951,0.303955,-0.60376,0.538615,-5.821012,7.885569,-0.001536,-0.002131,-0.00693,-0.255615,0.375488,-0.428467
1.841295,-7.348776,6.26944,0.000573,0.000311,5.6e-05,-0.341553,0.379639,0.01001,-0.045187,8.305823,5.178808,-0.015989,0.002032,0.00739,0.124268,0.32666,0.573242,-1.56302,-7.040715,6.708696,-0.008266,-0.000764,0.000102,0.635254,0.124512,-0.276123,2.18768,-7.190912,6.370177,-0.003421,0.003825,0.009837,0.073486,0.313721,-0.613037,0.582589,-5.879118,7.819949,-0.012589,-0.003235,0.003172,-0.254883,0.386963,-0.435059
1.826013,-7.335208,6.248396,0.000319,0.002374,-7.3e-05,-0.336182,0.375488,0.013916,-0.039195,8.325163,5.160338,-0.001619,0.009893,0.007266,0.133057,0.337646,0.564209,-1.537595,-7.017804,6.714671,0.003853,0.005762,-0.003391,0.639648,0.116699,-0.270264,2.144461,-7.17383,6.37802,-0.005734,0.001647,0.00879,0.079346,0.307129,-0.604248,0.529475,-5.861527,7.847571,0.015878,0.004844,-0.010871,-0.250732,0.378662,-0.429688
1.820771,-7.343466,6.246781,-0.002426,-0.000267,-0.001391,-0.334961,0.375488,0.017822,-0.057041,8.33821,5.157588,-0.01633,0.003267,0.009017,0.127686,0.328613,0.568359,-1.560962,-7.025005,6.710853,-0.006373,0.004146,0.002329,0.644287,0.119629,-0.269287,2.181235,-7.172718,6.34595,-0.001156,-0.001026,0.01024,0.081055,0.308594,-0.607666,0.572817,-5.845546,7.851676,-0.00463,-0.010548,0.00153,-0.246582,0.381104,-0.427734
1.829433,-7.340995,6.269357,0.006366,0.001903,0.000477,-0.344238,0.378174,0.020996,-0.025585,8.314074,5.173121,-0.006093,0.007016,0.006308,0.130371,0.328857,0.565918,-1.547203,-7.045304,6.737102,-0.005404,0.002048,-8.7e-05,0.635986,0.123291,-0.264404,2.183811,-7.178039,6.366043,-0.009226,0.004925,0.012502,0.073975,0.311768,-0.599854,0.576334,-5.866778,7.821923,0.003405,0.008565,-0.006165,-0.255859,0.38501,-0.423096
1.817801,-7.320335,6.263963,0.000381,0.000857,-0.000214,-0.337891,0.374268,0.026611,-0.064069,8.325031,5.162298,-0.007816,0.007513,0.007708,0.12915,0.334961,0.564941,-1.567373,-7.014702,6.716253,0.005828,0.010905,0.001739,0.641602,0.121338,-0.258545,2.186227,-7.182792,6.386837,0.00452,0.005994,0.005737,0.078613,0.312256,-0.596436,0.531659,-5.860272,7.848361,-0.002201,-0.005829,-0.003034,-0.250488,0.381592,-0.414551
1.822395,-7.350111,6.2822,-0.000957,0.000781,-0.000597,-0.33667,0.371094,0.024658,-0.036074,8.330105,5.177878,-0.012507,0.003855,0.008463,0.130615,0.334961,0.562256,-1.551269,-7.008997,6.732049,-0.005267,-0.001714,-0.001104,0.641602,0.115967,-0.262939,2.179042,-7.169683,6.399679,-0.007509,0.002638,0.00972,0.080322,0.30835,-0.597412,0.589112,-5.867127,7.830531,0.006476,-0.003344,-0.003036,-0.248779,0.37793,-0.420898
1.813686,-7.339318,6.25485,0.004643,0.002918,-0.000446,-0.337646,0.369385,0.018311,-0.049069,8.330415,5.178249,-0.008778,0.010251,0.005962,0.122559,0.329834,0.555908,-1.550046,-7.037933,6.720698,-0.010815,0.007088,-0.000439,0.638672,0.113525,-0.268066,2.177274,-7.195195,6.393684,-0.010106,-0.00271,0.012103,0.080566,0.303955,-0.603027,0.538822,-5.83974,7.867381,-0.004028,0.003726,-0.006399,-0.251221,0.375977,-0.425537
1.835589,-7.330273,6.258654,-0.00128,0.000354,-0.001278,-0.336426,0.377441,0.021729,-0.041293,8.303923,5.156815,-0.012049,0.001568,0.007887,0.128174,0.324219,0.559082,-1.560678,-7.029293,6.738609,-0.003081,0.000716,-0.001695,0.642334,0.12207,-0.262451,2.17689,-7.181397,6.37702,-9.8e-05,0.001077,0.006849,0.081055,0.311035,-0.601318,0.567401,-5.884842,7.823936,-0.004735,-0.005423,0.001246,-0.247559,0.382568,-0.424316
1.826638,-7.357837,6.247432,-0.001856,0.001992,-0.002089,-0.33252,0.375244,0.021484,-0.025519,8.337153,5.183078,-0.00484,0.010722,0.00741,0.130127,0.331543,0.564941,-1.534167,-7.025063,6.720488,0.001537,0.0041,-0.001514,0.647217,0.11792,-0.26416,2.181289,-7.181327,6.347631,-0.009932,0.00229,0.011247,0.084961,0.310303,-0.599121,0.546971,-5.841089,7.846729,0.014817,0.00269,-0.009753,-0.243652,0.382568,-0.420654
1.826913,-7.34505,6.242002,0.003178,-7.8e-05,-0.000485,-0.3396,0.370117,0.013184,-0.055367,8.31557,5.185613,-0.019551,0.003162,0.008201,0.121826,0.331299,0.565918,-1.577432,-7.023521,6.715552,-0.012552,0.005635,0.002869,0.638184,0.111328,-0.271484,2.17425,-7.192747,6.354915,-0.003941,0.000267,0.010001,0.078369,0.302734,-0.609863,0.574487,-5.864059,7.843144,-0.015636,-0.008255,0.00315,-0.253174,0.375488,-0.430908
1.829694,-7.322845,6.30848,0.006174,0.002449,0.000207,-0.341553,0.378174,0.025146,-0.019915,8.318907,5.144605,0.001074,0.005714,0.006681,0.139648,0.333984,0.563477,-1.545093,-7.035921,6.713093,0.001476,0.002988,-0.000739,0.634277,0.123291,-0.265381,2.164372,-7.173102,6.373868,-0.001746,0.004835,0.010416,0.071777,0.315186,-0.601807,0.558798,-5.892653,7.826074,0.012253,0.007684,-0.005214,-0.254883,0.384277,-0.420898
1.82026,-7.328563,6.244066,-0.004839,-0.000425,-0.000579,-0.335938,0.371582,0.021729,-0.068848,8.351359,5.180293,-0.01125,0.006616,0.008612,0.13208,0.334473,0.558838,-1.574802,-7.003683,6.72654,0.004631,0.01142,-0.000864,0.642334,0.115234,-0.263672,2.179731,-7.178409,6.401062,0.002927,0.000895,0.006085,0.079834,0.303711,-0.600586,0.53121,-5.837181,7.860061,0.004347,-0.007414,-0.005401,-0.25,0.374756,-0.424072
1.843087,-7.369043,6.255972,0.00126,0.003431,-0.002434,-0.342529,0.363525,0.016113,-0.006269,8.308012,5.157011,-0.01533,0.002461,0.00702,0.12793,0.336426,0.5625,-1.555553,-7.022373,6.740555,-0.012839,-0.002979,0.003071,0.637695,0.105713,-0.267578,2.198697,-7.176432,6.405096,-0.012887,0.003942,0.012797,0.073486,0.297607,-0.604492,0.586418,-5.863807,7.842638,-0.00421,-0.003196,0.00075,-0.25708,0.369141,-0.425049
1.822304,-7.310038,6.26817,0.010765,0.001041,0.002166,-0.334229,0.366943,0.023193,-0.042913,8.335504,5.149416,-0.000232,0.010633,0.007523,0.127686,0.332031,0.563232,-1.562399,-7.047545,6.718627,0.000171,0.009319,-0.002847,0.643311,0.11499,-0.262939,2.174232,-7.20643,6.38107,-0.001454,0.002272,0.008192,0.081787,0.304443,-0.598389,0.547187,-5.86883,7.848566,0.003026,0.006664,-0.009136,-0.248535,0.375977,-0.421875
1.824835,-7.332583,6.251821,-0.013814,9e-06,-0.00127,-0.336914,0.37207,0.017334,-0.050965,8.352848,5.181312,-0.014483,-0.00016,0.006767,0.140137,0.332275,0.564697,-1.578569,-7.009435,6.715282,-0.001359,0.002227,-0.001072,0.643311,0.116699,-0.268066,2.183561,-7.162738,6.381943,-0.0024,-0.001671,0.009009,0.08252,0.307617,-0.605957,0.557327,-5.860182,7.837325,-8.4e-05,-0.010648,0.002885,-0.249268,0.38208,-0.427734
1.831102,-7.36162,6.255502,0.003175,0.00187,-0.00124,-0.336182,0.378662,0.019043,-0.026064,8.314489,5.181828,-0.014205,0.009133,0.008992,0.13501,0.330078,0.55957,-1.542107,-7.04573,6.711767,-0.011444,-0.000226,-0.000569,0.644531,0.12085,-0.265137,2.184256,-7.195409,6.369171,-0.018633,0.001545,0.013173,0.082275,0.312744,-0.5979,0.571745,-5.841087,7.84528,0.006652,0.004729,-0.010125,-0.247803,0.383301,-0.421143
1.833538,-7.317487,6.26883,0.010824,0.001472,0.001271,-0.331787,0.369141,0.01709,-0.057497,8.319479,5.167602,-0.005639,0.005693,0.006706,0.126709,0.32373,0.56665,-1.573921,-7.039973,6.735226,-0.000118,0.008803,0.00024,0.64502,0.117676,-0.266602,2.180918,-7.174712,6.359126,0.008265,0.003072,0.005301,0.084229,0.307617,-0.604248,0.561734,-5.85969,7.856605,-0.013202,-0.00379,0.0032,-0.245361,0.380615,-0.425537
1.818123,-7.31659,6.253316,-0.010313,0.000357,-0.001074,-0.342041,0.382324,0.015625,-0.031223,8.361169,5.175608,-0.002623,0.002177,0.00638,0.127441,0.333008,0.569092,-1.551157,-7.012002,6.718116,-0.00129,0.000347,-0.001582,0.637695,0.125,-0.268799,2.178886,-7.151837,6.363515,-0.010153,0.001151,0.012255,0.076416,0.316895,-0.604736,0.5571,-5.879481,7.837976,0.012834,0.000741,-0.006233,-0.255615,0.386963,-0.425293
1.838711,-7.375282,6.241544,0.001456,0.000937,-0.001409,-0.33667,0.371826,0.024658,-0.049235,8.340926,5.196252,-0.019475,0.008848,0.009287,0.134521,0.32959,0.556396,-1.546301,-7.011189,6.704867,-0.004909,0.010116,0.001333,0.641113,0.118164,-0.260254,2.191799,-7.208646,6.352886,-0.005296,0.001646,0.010275,0.077637,0.307373,-0.598633,0.54919,-5.826621,7.868919,0.001101,-0.004468,-0.006126,-0.252197,0.380127,-0.419189
1.838373,-7.321488,6.276529,0.012414,0.001433,0.001028,-0.341553,0.380371,0.013672,-0.03437,8.289084,5.151582,-0.005963,0.004072,0.005467,0.121094,0.335205,0.561768,-1.576646,-7.041333,6.733166,-0.003649,0.002615,0.000283,0.637207,0.123535,-0.272217,2.179232,-7.158387,6.383044,0.001578,0.007628,0.007296,0.074951,0.31543,-0.608643,0.575591,-5.89115,7.826166,-0.010393,0.001685,0.001537,-0.255127,0.385742,-0.431641
1.821517,-7.309144,6.269442,-0.008021,0.001601,-0.000849,-0.340088,0.370361,0.019531,-0.047594,8.372296,5.176106,0.00456,0.007513,0.007768,0.13623,0.340088,0.573242,-1.549183,-7.024432,6.709441,0.003328,0.003731,-0.001395,0.638184,0.11499,-0.266113,2.167161,-7.178918,6.399484,-0.008257,-0.002243,0.011957,0.075439,0.305908,-0.601074,0.533975,-5.854998,7.852011,0.018048,0.0032,-0.008846,-0.251709,0.378418,-0.426514
1.827904,-7.39121,6.239109,-0.006428,-0.000386,-0.000337,-0.337402,0.374023,0.013916,-0.02456,8.327131,5.183225,-0.032263,0.003514,0.00887,0.129639,0.328369,0.560791,-1.569472,-7.015619,6.708312,-0.010134,0.004467,0.000232,0.642334,0.117188,-0.27124,2.197928,-7.179787,6.395399,-0.004417,-0.001244,0.007738,0.079834,0.307617,-0.609619,0.577411,-5.829927,7.845672,-0.0116,-0.013778,0.0002,-0.25,0.381104,-0.430176
1.837714,-7.321469,6.276744,0.016614,0.005013,0.000938,-0.335205,0.375732,0.021973,-0.043698,8.293833,5.149171,0.001617,0.008121,0.006227,0.132324,0.329102,0.568359,-1.544504,-7.06371,6.743726,-0.008644,0.001472,2e-05,0.646973,0.120361,-0.266602,2.16475,-7.190586,6.376901,-0.010191,0.004635,0.014548,0.084717,0.310791,-0.602295,0.583378,-5.880485,7.854882,-7.4e-05,0.010575,-0.004034,-0.245117,0.383301,-0.423096
1.817322,-7.303237,6.248857,-0.013238,-0.001629,-0.00046,-0.335205,0.375977,0.01416,-0.058884,8.38963,5.200046,-0.001972,0.004476,0.007918,0.128174,0.324463,0.564209,-1.564592,-7.025021,6.707851,0.002479,0.008047,-0.00052,0.643555,0.119629,-0.272461,2.161436,-7.193424,6.362395,0.000204,-0.001878,0.006763,0.081299,0.312012,-0.608887,0.534984,-5.855015,7.842323,0.005731,-0.006247,-0.004298,-0.248779,0.382568,-0.429443
1.837257,-7.400432,6.253172,-0.003182,0.002026,-0.00027,-0.336914,0.373291,0.016602,-0.016626,8.300991,5.18237,-0.027268,0.003093,0.009305,0.121582,0.333496,0.561523,-1.554441,-7.012743,6.720977,-0.010058,-0.000405,-1.7e-05,0.640381,0.121338,-0.270508,2.201788,-7.18828,6.371154,-0.010082,0.002808,0.011973,0.080566,0.310303,-0.604492,0.594361,-5.861343,7.834264,0.00097,-0.007086,-0.002791,-0.250977,0.381348,-0.427979
1.81525,-7.317104,6.268477,0.022594,0.002053,0.000938,-0.34375,0.371094,0.020508,-0.06318,8.290839,5.163808,0.000767,0.011703,0.007454,0.125732,0.331299,0.558594,-1.555462,-7.044877,6.701295,0.001357,0.011786,-0.000488,0.63501,0.114258,-0.263184,2.165897,-7.191685,6.359703,0.000518,0.006075,0.007483,0.073242,0.307129,-0.603516,0.539246,-5.873166,7.872355,-0.002308,0.010481,-0.006747,-0.256836,0.375488,-0.423096
1.830595,-7.292098,6.273685,-0.014509,0.000784,-0.000291,-0.341064,0.368164,0.024658,-0.054027,8.373649,5.179262,0.001047,1e-06,0.006628,0.126709,0.332275,0.572998,-1.583017,-7.017805,6.737729,0.000369,0.000747,-0.000184,0.637695,0.109375,-0.261475,2.178656,-7.143388,6.402063,-0.001387,-0.001811,0.009111,0.074463,0.304688,-0.598145,0.552802,-5.866419,7.821147,0.005924,-0.011013,0.001207,-0.255127,0.374756,-0.418945
1.844696,-7.38843,6.228684,-0.001212,0.002844,-0.000727,-0.332275,0.374023,0.016602,-0.020675,8.346408,5.178324,-0.024474,0.010279,0.009846,0.136719,0.334229,0.561523,-1.530564,-7.039421,6.735989,-0.008687,0.005399,1.5e-05,0.64502,0.117676,-0.27002,2.184361,-7.212977,6.372263,-0.014992,0.000639,0.014238,0.085693,0.310547,-0.605469,0.583867,-5.827699,7.856464,0.008601,0.001243,-0.009911,-0.246826,0.380615,-0.425049
1.8248,-7.300172,6.272452,0.017829,0.000222,0.002421,-0.340576,0.378418,0.021973,-0.065508,8.280369,5.147327,-0.011634,0.006039,0.007361,0.128418,0.33667,0.570312,-1.583161,-7.047063,6.725639,-0.003824,0.007308,0.001566,0.640137,0.125,-0.265381,2.170909,-7.188091,6.383807,0.006911,0.004445,0.005579,0.077637,0.318848,-0.60083,0.567228,-5.876507,7.84909,-0.022237,0.001336,0.005983,-0.251465,0.386475,-0.424072
1.831147,-7.303004,6.266154,-0.015215,0.001449,-0.001515,-0.348389,0.374023,0.013184,-0.031212,8.362316,5.183423,0.010963,0.003983,0.004597,0.130615,0.330322,0.562012,-1.551985,-7.022842,6.719236,-0.000956,-0.003066,-0.004663,0.633789,0.117676,-0.271484,2.165538,-7.160099,6.380555,-0.012937,-0.002907,0.011078,0.068115,0.310547,-0.608643,0.543804,-5.87466,7.823018,0.023233,-0.00093,-0.00778,-0.26001,0.379395,-0.429932
1.810232,-7.402236,6.230626,-0.00299,0.001481,0.0,-0.336182,0.373779,0.020264,-0.040727,8.333668,5.183214,-0.031068,0.008275,0.009956,0.130615,0.33374,0.560791,-1.554016,-7.027522,6.709473,-0.008186,0.010474,0.001703,0.64209,0.11499,-0.264893,2.207416,-7.211129,6.359332,-0.005939,0.000484,0.009803,0.079834,0.305908,-0.600586,0.581308,-5.796314,7.866942,-0.002547,-0.010025,-0.006133,-0.25,0.378906,-0.422363
1.833983,-7.321647,6.292543,0.020432,0.001781,0.001125,-0.339844,0.368652,0.012451,-0.05919,8.271042,5.120197,-0.006459,0.002573,0.007916,0.123047,0.326904,0.567383,-1.562036,-7.042531,6.726237,-0.00574,0.000352,-0.000158,0.640869,0.113281,-0.271729,2.166555,-7.176952,6.365533,-0.000411,0.007472,0.00924,0.07666,0.302246,-0.608643,0.572797,-5.896971,7.819785,-0.013447,0.008741,0.00277,-0.251709,0.376221,-0.430664
1.823763,-7.299583,6.273438,-0.014187,0.001211,0.000389,-0.337158,0.369385,0.018555,-0.042191,8.360658,5.187068,0.011108,0.008626,0.005726,0.122314,0.334229,0.560303,-1.541506,-7.039553,6.720682,0.004866,0.00783,-0.002895,0.639648,0.114502,-0.269531,2.157002,-7.180823,6.379968,-0.006067,-0.002661,0.0093,0.081543,0.304443,-0.605469,0.521462,-5.850628,7.836686,0.01665,-0.005439,-0.010958,-0.250244,0.375244,-0.426025
1.836051,-7.422766,6.253119,-0.003061,0.000939,-0.001307,-0.342529,0.377686,0.028076,-0.031041,8.324302,5.185111,-0.034927,0.00202,0.010442,0.127197,0.332275,0.567139,-1.56238,-7.021818,6.705251,-0.008409,0.00298,0.00112,0.637451,0.119873,-0.259766,2.198355,-7.184213,6.368611,-0.004492,0.005911,0.011259,0.076172,0.312744,-0.59668,0.604409,-5.848474,7.8452,-0.003147,-0.011075,0.00312,-0.251709,0.384033,-0.417725
1.828457,-7.303475,6.281302,0.027494,0.002909,0.000623,-0.338867,0.371338,0.016113,-0.048203,8.288292,5.134474,0.003221,0.010585,0.005725,0.133789,0.340576,0.564209,-1.55045,-7.04588,6.722828,-0.001095,0.005787,-0.000482,0.639893,0.116943,-0.271973,2.16081,-7.202449,6.3732,-0.001477,0.005923,0.009424,0.077637,0.306885,-0.606201,0.551024,-5.862111,7.833967,0.006256,0.016953,-0.007107,-0.252686,0.378906,-0.431396
1.815522,-7.284349,6.289389,-0.021771,-0.001859,-0.001508,-0.341309,0.372314,0.020752,-0.051807,8.385282,5.203604,0.000594,0.001342,0.006264,0.128906,0.325439,0.569824,-1.577291,-7.029174,6.72017,0.001495,0.008025,-0.001504,0.638428,0.11792,-0.265381,2.181385,-7.151353,6.40068,0.000732,-0.00389,0.006736,0.074707,0.306885,-0.602783,0.527749,-5.838266,7.857158,-0.00112,-0.01485,-0.000732,-0.253418,0.380859,-0.42041
1.849097,-7.441129,6.245885,-0.005988,0.000901,-0.001449,-0.328857,0.378418,0.015869,-0.006349,8.319877,5.182425,-0.031663,0.005007,0.008478,0.132812,0.334717,0.562744,-1.542594,-7.038261,6.726189,-0.018321,-0.004175,0.00033,0.649902,0.12207,-0.270264,2.212877,-7.208595,6.366646,-0.023722,0.003575,0.017388,0.087158,0.312988,-0.605713,0.603965,-5.857781,7.836194,-0.002369,-0.002461,-0.003991,-0.243896,0.383545,-0.430664
1.82991,-7.301577,6.268179,0.032788,0.002786,0.003052,-0.340088,0.376221,0.015869,-0.066165,8.282355,5.132811,-0.000232,0.012547,0.00951,0.125977,0.336426,0.563965,-1.555473,-7.056244,6.701999,0.003953,0.01103,-0.001241,0.636719,0.118896,-0.268555,2.14595,-7.211194,6.371452,0.012294,0.00293,0.003576,0.074463,0.312744,-0.60498,0.538698,-5.868723,7.875591,-0.001314,0.010632,-0.00393,-0.252686,0.382812,-0.427246
1.821711,-7.286851,6.283523,-0.025143,-0.001235,-0.001294,-0.338867,0.376221,0.016602,-0.055644,8.358021,5.184461,0.001052,-0.001909,0.004708,0.125977,0.327393,0.562744,-1.585025,-6.984142,6.719635,0.000941,-0.00115,-0.002164,0.638428,0.121338,-0.27002,2.177167,-7.116305,6.38737,-0.00406,-0.002528,0.007364,0.078857,0.311768,-0.60791,0.54987,-5.871225,7.81557,0.011474,-0.011587,-0.003924,-0.251465,0.384277,-0.428467
1.828264,-7.435309,6.223929,-0.003448,0.003978,-0.002605,-0.343262,0.374023,0.019043,-0.022161,8.320888,5.173906,-0.027186,0.00883,0.010429,0.125977,0.331299,0.557373,-1.530843,-7.033925,6.707373,-0.017189,0.005206,0.002425,0.637939,0.117676,-0.267578,2.201035,-7.200163,6.363441,-0.021941,0.002384,0.017527,0.075684,0.30957,-0.604492,0.586102,-5.803306,7.859258,0.001459,-1.5e-05,-0.007651,-0.256348,0.378418,-0.427002
1.836184,-7.291453,6.256749,0.030366,0.00057,0.002417,-0.339355,0.378662,0.023682,-0.068449,8.291313,5.136005,-0.004648,0.007737,0.007614,0.129639,0.341064,0.559814,-1.593297,-7.071994,6.711816,0.002512,0.007104,-0.000764,0.640625,0.12793,-0.263916,2.169812,-7.207142,6.37327,0.016516,0.00743,0.003135,0.077148,0.313232,-0.601807,0.554433,-5.900349,7.854515,-0.024157,0.000224,0.005515,-0.253174,0.385986,-0.42041
1.832923,-7.293839,6.284737,-0.02285,9e-06,-0.00107,-0.341309,0.372314,0.026123,-0.033776,8.363668,5.16213,0.007583,0.002058,0.005534,0.133545,0.337646,0.566162,-1.542892,-7.016134,6.71111,0.004585,-0.000769,-0.002707,0.638428,0.116455,-0.259521,2.17017,-7.143687,6.380906,-0.012544,0.000773,0.013785,0.074951,0.304932,-0.597412,0.529347,-5.888583,7.809263,0.031932,-0.000706,-0.007933,-0.254883,0.374268,-0.420898
1.828075,-7.421833,6.219459,-0.00109,0.001756,-0.001764,-0.345215,0.373291,0.023926,-0.043297,8.344364,5.172256,-0.032905,0.009923,0.010361,0.135498,0.334229,0.564941,-1.584244,-7.010108,6.715573,-0.00748,0.009906,0.001859,0.633057,0.116943,-0.263672,2.187729,-7.204789,6.390782,-0.005163,-0.000592,0.009841,0.072266,0.308838,-0.595947,0.57006,-5.789016,7.86324,0.004733,-0.005245,-0.00706,-0.258057,0.381348,-0.420166
1.835057,-7.288165,6.31405,0.030104,0.000575,0.000839,-0.348145,0.36792,0.014404,-0.043582,8.277444,5.123166,-0.001309,0.004874,0.007563,0.136719,0.325439,0.569336,-1.572276,-7.034736,6.732579,-0.008443,-0.001181,-0.001781,0.631104,0.112549,-0.273438,2.17136,-7.160103,6.3663,0.003428,0.002534,0.007291,0.069824,0.300537,-0.608398,0.568544,-5.87961,7.854069,-0.025116,0.004115,0.003501,-0.259766,0.372559,-0.429199
1.824092,-7.295671,6.262988,-0.031948,0.001528,-0.000729,-0.338867,0.371826,0.02417,-0.036459,8.401758,5.194671,0.00746,0.005024,0.006423,0.125732,0.334961,0.562988,-1.548604,-7.04757,6.710641,-0.002016,0.006877,-0.00224,0.639893,0.116943,-0.260986,2.18307,-7.184966,6.380287,-0.01712,-0.002079,0.012464,0.077148,0.307373,-0.60083,0.53285,-5.865975,7.868333,0.015626,-0.001246,-0.008912,-0.251465,0.377441,-0.420898
1.830319,-7.456712,6.209101,0.004385,0.000975,-0.001268,-0.337402,0.371338,0.017334,-0.032588,8.3082,5.190924,-0.043048,0.007168,0.009353,0.128174,0.32959,0.557129,-1.561169,-7.042262,6.720279,-0.005136,0.002607,0.000761,0.64502,0.114014,-0.268555,2.188398,-7.207494,6.359499,0.000725,0.00512,0.00891,0.081787,0.306396,-0.603027,0.583371,-5.850905,7.851967,0.000695,-0.009774,-0.000603,-0.246338,0.376953,-0.424561
1.819454,-7.274033,6.293754,0.032909,0.00365,0.001261,-0.338623,0.371338,0.019287,-0.055047,8.275355,5.127564,0.01139,0.009327,0.005036,0.128662,0.322998,0.560303,-1.544025,-7.015909,6.715509,0.000116,0.005209,-0.001795,0.639648,0.116455,-0.268799,2.142758,-7.158958,6.379153,-0.001772,0.003495,0.008578,0.076904,0.307861,-0.60376,0.521648,-5.853278,7.84214,0.007103,0.015891,-0.005507,-0.253174,0.377686,-0.427734
1.828533,-7.299629,6.270848,-0.036342,-0.001508,-0.000908,-0.335693,0.36792,0.020996,-0.042978,8.387219,5.201516,-0.002073,-0.000224,0.007817,0.128174,0.335938,0.570557,-1.572062,-7.01223,6.718015,-0.005892,0.007086,0.000616,0.643555,0.112305,-0.266846,2.179651,-7.17205,6.376219,-0.007194,-0.006083,0.010832,0.084229,0.302979,-0.604248,0.545444,-5.845343,7.858298,-0.006334,-0.015912,-0.002667,-0.248291,0.375244,-0.424561
1.850401,-7.44904,6.226772,0.006928,0.002104,-0.001668,-0.335693,0.373779,0.022949,-0.015753,8.316593,5.156401,-0.034225,0.007278,0.009225,0.130371,0.33374,0.563965,-1.529983,-7.055971,6.716256,-0.00935,-0.000973,0.000125,0.642578,0.115967,-0.26001,2.203601,-7.20824,6.362018,-0.010502,0.006441,0.011729,0.080078,0.30835,-0.596924,0.605727,-5.893683,7.820148,-0.002689,-0.000568,-0.001543,-0.248291,0.380859,-0.421143
1.819239,-7.26097,6.288775,0.030938,0.002833,0.001718,-0.340088,0.368896,0.020752,-0.071172,8.295957,5.138459,0.007106,0.012026,0.007169,0.138184,0.329102,0.562988,-1.564247,-7.044784,6.71692,0.005574,0.012364,0.000429,0.63916,0.114014,-0.265381,2.146474,-7.180744,6.384697,0.006992,0.006081,0.005307,0.075684,0.301514,-0.601807,0.523461,-5.882381,7.862106,0.00507,0.010135,-0.007394,-0.25415,0.37793,-0.425293
1.834738,-7.302066,6.265062,-0.03259,-0.001276,-0.001337,-0.342285,0.371094,0.01001,-0.040244,8.364124,5.187922,-0.003119,-0.002182,0.005945,0.127686,0.329102,0.562256,-1.569947,-6.993352,6.728031,-0.002333,-0.000783,-0.001805,0.635254,0.111816,-0.277344,2.168599,-7.13809,6.392081,-0.008134,-0.004293,0.010448,0.072021,0.304688,-0.611328,0.541779,-5.835183,7.810606,0.01557,-0.012138,-0.001409,-0.256348,0.375,-0.435791
1.838576,-7.453248,6.23297,0.006728,0.00059,-0.003386,-0.330322,0.374512,0.02124,-0.022269,8.311816,5.172893,-0.029852,0.011208,0.009178,0.121094,0.334229,0.559326,-1.533955,-7.029708,6.724349,-0.011732,0.007257,0.001486,0.648193,0.120117,-0.265869,2.185294,-7.21055,6.354062,-0.012472,0.002817,0.011368,0.086182,0.308594,-0.599365,0.574817,-5.806375,7.864988,-0.008629,0.000905,-0.00849,-0.241699,0.381104,-0.42627
1.830887,-7.267907,6.289922,0.026358,0.004353,0.001959,-0.338623,0.372559,0.016357,-0.060149,8.283602,5.124213,-0.002538,0.007854,0.007524,0.131348,0.336182,0.563965,-1.589535,-7.053757,6.710621,-0.0016,0.005799,0.000995,0.642578,0.114746,-0.27124,2.181924,-7.179293,6.378895,0.011786,0.004512,0.00575,0.082275,0.304688,-0.608154,0.54841,-5.915879,7.839107,-0.025799,0.002694,0.00754,-0.249268,0.377686,-0.428711
1.829265,-7.322029,6.270146,-0.025144,-0.00124,-0.001297,-0.341309,0.370605,0.016357,-0.027243,8.368136,5.177121,0.005251,0.000196,0.006409,0.125488,0.328613,0.558594,-1.539829,-7.019504,6.729849,0.004108,-0.000801,-0.005168,0.639404,0.116455,-0.267578,2.178618,-7.148353,6.403356,-0.015613,-0.000535,0.013765,0.078613,0.308838,-0.605957,0.537576,-5.874993,7.801739,0.04387,-0.000858,-0.011862,-0.252686,0.380371,-0.428711
1.825111,-7.420993,6.236274,0.003125,0.003501,0.001102,-0.334473,0.377441,0.016846,-0.033431,8.319263,5.187317,-0.037509,0.010138,0.010313,0.13623,0.339355,0.561279,-1.547081,-7.004107,6.712519,-0.010894,0.011023,0.003513,0.643311,0.120605,-0.269531,2.192619,-7.213953,6.37183,-0.004741,-0.000206,0.009186,0.07959,0.312012,-0.605957,0.573214,-5.764191,7.875877,-0.008211,-0.011816,-0.002278,-0.248535,0.382324,-0.427002
1.831077,-7.291234,6.288297,0.02419,7.1e-05,0.001457,-0.337402,0.380371,0.018066,-0.038765,8.2652,5.135214,0.004747,0.002551,0.006008,0.135254,0.333496,0.574707,-1.56717,-7.045137,6.72029,-0.009963,-0.000247,-0.001053,0.641357,0.124512,-0.266113,2.164734,-7.157238,6.388613,-0.001276,0.005355,0.008713,0.080078,0.316406,-0.603027,0.578383,-5.927333,7.836342,-0.029416,0.011212,0.004848,-0.251709,0.387939,-0.426025
1.822012,-7.306193,6.271589,-0.025901,0.001056,-0.000179,-0.34375,0.36792,0.015137,-0.04513,8.391185,5.205074,0.002466,0.00548,0.006016,0.136719,0.333496,0.557861,-1.546432,-7.042388,6.714584,0.00629,0.006719,-0.002581,0.634521,0.111084,-0.269287,2.176432,-7.191631,6.368997,-0.009902,-0.003112,0.010311,0.07373,0.304932,-0.604248,0.512784,-5.881116,7.825309,0.027061,-0.005929,-0.012466,-0.257324,0.375,-0.42749
1.842363,-7.443736,6.236508,0.006167,0.000391,-0.001239,-0.335205,0.375732,0.01416,-0.035582,8.308608,5.171336,-0.039719,0.005347,0.010297,0.130859,0.332764,0.570557,-1.562402,-7.012764,6.725996,-0.005516,0.004841,0.000692,0.642578,0.118896,-0.272461,2.18461,-7.17356,6.351304,-0.000855,0.005557,0.009126,0.082764,0.310791,-0.608398,0.615404,-5.819468,7.850723,0.005193,-0.012762,9e-06,-0.248047,0.382324,-0.431885
1.830866,-7.26489,6.27853,0.029347,0.004822,0.001205,-0.341553,0.378662,0.011719,-0.046287,8.277236,5.125786,0.013448,0.010416,0.004904,0.122559,0.33667,0.558594,-1.552611,-7.032181,6.720018,-0.006191,0.004458,0.000286,0.637695,0.123779,-0.271484,2.158424,-7.184461,6.381969,-0.004772,0.00366,0.009348,0.075439,0.314697,-0.608887,0.534037,-5.849189,7.863543,-0.006713,0.019269,-0.005894,-0.252686,0.384277,-0.431885
1.828083,-7.308466,6.266039,-0.036222,-0.0026,-0.001947,-0.336426,0.36792,0.015137,-0.050626,8.400304,5.179413,-0.008737,-0.001199,0.007885,0.127441,0.33252,0.565186,-1.580602,-7.028679,6.722322,-0.001809,0.006333,-0.000617,0.644043,0.111572,-0.270996,2.194407,-7.175549,6.369872,-0.004784,-0.005355,0.007165,0.082764,0.304443,-0.607178,0.535964,-5.871787,7.823345,-0.005997,-0.01806,-0.000497,-0.249023,0.374268,-0.428467
1.846963,-7.460664,6.249474,0.008649,0.003039,-0.001499,-0.338379,0.373535,0.019043,-0.010748,8.304148,5.168706,-0.028618,0.007331,0.008295,0.134277,0.330566,0.560059,-1.531089,-7.035335,6.736288,-0.006858,0.001089,0.000131,0.641357,0.116699,-0.267334,2.214756,-7.19643,6.382431,-0.011485,0.006551,0.011634,0.078125,0.307129,-0.603271,0.612462,-5.868834,7.851771,0.009628,-0.000876,-0.00724,-0.249512,0.378662,-0.42627
1.81748,-7.2585,6.292134,0.029353,0.000927,0.002719,-0.3396,0.371582,0.020508,-0.08181,8.288375,5.165046,0.003624,0.01024,0.006115,0.133545,0.337891,0.564697,-1.567101,-7.059356,6.709221,0.002206,0.009563,0.002081,0.641602,0.114258,-0.26416,2.161586,-7.184131,6.378257,0.005927,0.004522,0.005493,0.07959,0.307617,-0.601562,0.533908,-5.859236,7.854004,-0.003485,0.010885,-0.001417,-0.251221,0.381348,-0.419678
1.821132,-7.304817,6.273447,-0.031889,5e-06,-0.000873,-0.334229,0.371582,0.019775,-0.031533,8.36535,5.18718,-0.003188,-0.000216,0.006881,0.125732,0.331543,0.563721,-1.565215,-7.002774,6.71673,0.000332,-0.000417,-0.003341,0.642578,0.117188,-0.265869,2.178646,-7.151471,6.39393,-0.009237,-0.001978,0.010788,0.080811,0.307617,-0.603027,0.539112,-5.850226,7.814549,0.016731,-0.011646,-0.002066,-0.248291,0.377197,-0.422363
1.843014,-7.454254,6.229437,0.002282,0.001133,-0.001978,-0.335449,0.373291,0.020996,-0.032057,8.327767,5.167095,-0.02624,0.010081,0.009411,0.130859,0.327637,0.560791,-1.539826,-7.020882,6.717623,-0.016335,0.008889,0.000527,0.644775,0.11792,-0.264648,2.203818,-7.196552,6.358895,-0.014766,5.4e-05,0.013522,0.080078,0.310791,-0.600586,0.585032,-5.822256,7.886635,-0.011672,-0.002971,-0.008447,-0.249268,0.379883,-0.424072
1.828399,-7.278684,6.29833,0.028907,0.003536,0.002318,-0.33667,0.37915,0.013672,-0.073353,8.286031,5.1315,-0.00553,0.004681,0.007831,0.130371,0.331787,0.557373,-1.577994,-7.079916,6.715043,-0.002979,0.002982,0.000697,0.642334,0.121826,-0.27002,2.172035,-7.181276,6.359414,0.009366,0.004342,0.006211,0.080566,0.310303,-0.606445,0.551891,-5.942167,7.822691,-0.020829,0.005354,0.007861,-0.248291,0.383301,-0.429443
1.810311,-7.295253,6.260209,-0.022975,0.001093,-4e-05,-0.337158,0.374512,0.019775,-0.029874,8.368704,5.157685,0.006297,0.006013,0.005467,0.13208,0.328613,0.560059,-1.538128,-7.005334,6.719672,0.013455,0.003167,-0.005536,0.63916,0.117676,-0.264893,2.162617,-7.16093,6.379216,-0.007607,0.003298,0.009393,0.079346,0.311035,-0.601807,0.515002,-5.836816,7.827992,0.04773,-0.000665,-0.015682,-0.250732,0.381592,-0.425293
1.835761,-7.425025,6.226261,-0.001149,0.001326,-0.000869,-0.337402,0.383057,0.0271,-0.038756,8.342265,5.203261,-0.029621,0.007257,0.009373,0.135742,0.340332,0.569092,-1.570452,-6.990273,6.729249,-0.015823,0.007985,0.002728,0.638916,0.126221,-0.259277,2.193941,-7.184345,6.38434,-0.006564,-0.000899,0.010401,0.078613,0.318604,-0.59668,0.593943,-5.761204,7.886255,-0.014822,-0.012015,-0.000563,-0.251465,0.386963,-0.418213
1.833926,-7.29375,6.298288,0.026796,0.001633,0.000162,-0.346924,0.371582,0.015625,-0.040359,8.302048,5.137957,-0.005307,0.006425,0.007089,0.132812,0.329346,0.565674,-1.562878,-7.076309,6.728659,-0.01495,-0.002287,0.00234,0.631592,0.116211,-0.27002,2.19942,-7.183171,6.368304,-0.007005,0.002567,0.011222,0.069824,0.308594,-0.608398,0.571595,-5.933365,7.80137,-0.028068,0.013754,0.001411,-0.258545,0.378662,-0.428467
1.821226,-7.314793,6.267158,-0.021385,0.001053,-0.000282,-0.341064,0.375732,0.025146,-0.038266,8.347014,5.171543,0.00102,0.006719,0.006737,0.129395,0.336182,0.563721,-1.547353,-7.044788,6.701024,0.013842,0.008947,-0.006473,0.637695,0.119629,-0.260986,2.168688,-7.190097,6.377774,-0.000754,0.003736,0.006548,0.076904,0.309814,-0.595215,0.524773,-5.895952,7.857322,0.031556,-0.007748,-0.011807,-0.253662,0.381592,-0.416992
1.842472,-7.423576,6.263088,-0.000573,-0.000311,-5.6e-05,-0.337891,0.379883,0.022217,-0.036228,8.328678,5.199752,-0.023732,0.00218,0.008581,0.134277,0.331299,0.561035,-1.568762,-6.984847,6.744246,-0.0073,0.002213,0.00083,0.641846,0.12207,-0.266602,2.186856,-7.142453,6.377816,-0.004579,0.002713,0.010768,0.081055,0.314453,-0.602051,0.603435,-5.794081,7.826339,0.00422,-0.00657,-0.001884,-0.247559,0.385254,-0.422119
1.819729,-7.290718,6.27002,0.026158,0.004789,-0.000512,-0.331787,0.369629,0.026123,-0.033013,8.305022,5.16622,-0.004705,0.009734,0.008618,0.124023,0.333008,0.559814,-1.540347,-7.058493,6.724545,-0.016356,0.003849,0.001287,0.647461,0.11377,-0.264404,2.17578,-7.195652,6.368235,-0.012898,-0.003145,0.012145,0.087158,0.305176,-0.598877,0.528271,-5.855143,7.838182,-0.01614,0.013584,-0.00251,-0.244873,0.374268,-0.418457
1.823852,-7.311533,6.240408,-0.026163,-0.000892,-0.001004,-0.345459,0.369629,0.016113,-0.055889,8.350575,5.180147,-0.006968,0.004029,0.006603,0.132324,0.329834,0.550049,-1.567454,-7.034042,6.706359,0.004707,0.006544,-0.001069,0.633301,0.114258,-0.268066,2.189073,-7.181683,6.371427,0.00244,0.002619,0.0072,0.069092,0.306641,-0.602295,0.534323,-5.906453,7.846874,-0.003542,-0.01588,-0.000583,-0.259033,0.380127,-0.427002
1.837167,-7.418535,6.256751,0.006681,0.000273,-0.000285,-0.337158,0.375244,0.022461,-0.027736,8.326387,5.166197,-0.013024,0.006378,0.008189,0.130127,0.327637,0.566162,-1.543625,-7.022807,6.719204,0.001179,0.000366,-0.00106,0.639648,0.11499,-0.261719,2.181762,-7.168884,6.384145,-0.008031,0.006556,0.011288,0.079346,0.309326,-0.602051,0.598643,-5.853549,7.827566,0.020902,0.003901,-0.006202,-0.251221,0.380859,-0.420166
1.811458,-7.275827,6.285533,0.021199,0.003503,0.0007,-0.333496,0.372803,0.023438,-0.056313,8.331458,5.181074,-0.00797,0.009712,0.006792,0.129639,0.335693,0.564697,-1.565765,-7.017595,6.709358,-0.005664,0.008577,0.001735,0.645264,0.118408,-0.261719,2.171128,-7.174162,6.384776,0.000972,-0.002997,0.0068,0.081543,0.30835,-0.597168,0.52524,-5.82328,7.849029,-0.005361,0.005197,-0.002154,-0.247559,0.382812,-0.423096
1.843507,-7.328841,6.269583,-0.022221,0.000744,-0.001918,-0.335938,0.369385,0.016846,-0.037866,8.313597,5.141676,-0.009247,0.001186,0.007503,0.128906,0.335938,0.56958,-1.560254,-7.026243,6.709841,-0.010234,-0.000828,-0.001904,0.642334,0.113037,-0.268799,2.210433,-7.171144,6.379742,-0.012669,0.001455,0.013448,0.07666,0.303955,-0.603271,0.557235,-5.867673,7.825049,-0.001355,-0.010941,-0.002232,-0.251465,0.375977,-0.427246
1.826724,-7.408726,6.243707,0.004959,0.001287,-0.001211,-0.341797,0.366943,0.015869,-0.044051,8.3374,5.167317,-0.007251,0.010046,0.007416,0.130859,0.334961,0.567627,-1.544864,-7.034195,6.730537,-0.000163,0.007613,-0.002876,0.635986,0.110107,-0.266846,2.17792,-7.203636,6.370187,-0.003087,0.004847,0.008867,0.074707,0.30249,-0.606201,0.566703,-5.847431,7.862757,0.000363,0.002413,-0.006276,-0.255615,0.372559,-0.427734
1.807412,-7.294746,6.27653,0.016422,0.001558,-1.9e-05,-0.333984,0.368408,0.0271,-0.049755,8.312904,5.143918,-0.016685,0.001871,0.007886,0.136475,0.332764,0.563965,-1.584944,-7.015647,6.729242,-0.002269,0.002424,0.000846,0.645752,0.113037,-0.261963,2.188824,-7.158176,6.385847,0.005621,0.001897,0.005712,0.080566,0.303467,-0.595947,0.55692,-5.897038,7.835384,-0.005316,0.000356,0.002213,-0.246582,0.375488,-0.41748
1.826284,-7.328981,6.268291,-0.015461,0.00362,0.000547,-0.337646,0.373291,0.019775,-0.03344,8.316833,5.141026,-0.000475,0.008024,0.006453,0.127686,0.335205,0.560303,-1.540121,-7.033628,6.716957,-0.004474,0.003861,-0.002496,0.644043,0.116943,-0.265381,2.171718,-7.17511,6.380574,-0.019104,0.001612,0.014566,0.081299,0.30835,-0.602295,0.536121,-5.82337,7.838707,0.029249,0.001086,-0.009396,-0.249268,0.375977,-0.424805
1.831179,-7.387463,6.240446,-6e-05,-0.00043,0.000896,-0.336426,0.373779,0.025146,-0.053438,8.34246,5.164829,-0.016967,0.00789,0.0087,0.128418,0.334229,0.560791,-1.57587,-7.026923,6.708052,-0.00671,0.007444,0.001512,0.643555,0.118896,-0.262939,2.181863,-7.20172,6.380614,0.0033,-0.000655,0.006791,0.081055,0.309814,-0.598877,0.572057,-5.825288,7.873383,-0.023935,-0.008673,0.001565,-0.249268,0.380859,-0.418945
