# sampling frequency: 40
# units are seconds/meters/radians/a.u.
seg1_acc_x,seg1_acc_y,seg1_acc_z,seg1_gyr_x,seg1_gyr_y,seg1_gyr_z,seg1_mag_x,seg1_mag_y,seg1_mag_z,seg2_acc_x,seg2_acc_y,seg2_acc_z,seg2_gyr_x,seg2_gyr_y,seg2_gyr_z,seg2_mag_x,seg2_mag_y,seg2_mag_z,seg3_acc_x,seg3_acc_y,seg3_acc_z,seg3_gyr_x,seg3_gyr_y,seg3_gyr_z,seg3_mag_x,seg3_mag_y,seg3_mag_z,seg4_acc_x,seg4_acc_y,seg4_acc_z,seg4_gyr_x,seg4_gyr_y,seg4_gyr_z,seg4_mag_x,seg4_mag_y,seg4_mag_z,seg5_acc_x,seg5_acc_y,seg5_acc_z,seg5_gyr_x,seg5_gyr_y,seg5_gyr_z,seg5_mag_x,seg5_mag_y,seg5_mag_z
0.445766,-0.974404,9.822304,0.00116,0.004722,-0.001251,-0.056396,0.434082,-0.586182,-0.283015,3.146629,9.289198,-0.023056,0.011278,0.005398,-0.638672,0.064209,-0.483887,-0.758889,3.729488,9.104511,0.033969,0.001071,0.000585,-0.384521,0.569092,0.738037,-0.342926,3.598452,9.227737,-0.017675,0.016184,0.009836,0.658203,0.027588,-0.012451,-0.467262,3.061275,9.319571,-0.02705,0.019282,-0.000776,0.380859,-0.147461,-0.54248
0.411311,-0.976817,9.765854,-0.009427,0.00506,-0.001567,-0.052979,0.432617,-0.592041,-0.266299,3.11047,9.272549,-0.020281,0.000527,0.002954,-0.634766,0.063721,-0.490479,-0.699934,3.786787,9.090983,-0.006982,0.001559,0.002684,-0.379883,0.577148,0.739258,-0.179591,3.460845,9.19096,-0.053847,-0.046911,0.00508,0.658691,0.029785,-0.022705,-0.543197,2.907733,9.385857,-0.01567,0.002278,0.001185,0.386475,-0.141357,-0.543945
0.426485,-0.993571,9.734655,-0.027167,-0.002665,-0.003943,-0.056885,0.435059,-0.589355,-0.218977,3.105058,9.304037,-0.000651,0.006927,0.00534,-0.638184,0.064941,-0.489502,-0.717746,3.713585,9.09801,-0.038206,0.005926,0.002246,-0.377686,0.575928,0.730469,-0.094216,3.360928,9.18521,-0.012325,0.029436,0.009277,0.655029,0.015381,-0.011719,-0.483421,3.00718,9.282721,0.030229,-0.029842,-0.010097,0.388916,-0.141113,-0.55249
0.454351,-1.06073,9.803945,-0.011344,0.000955,-0.002927,-0.054688,0.42627,-0.591553,-0.276796,3.149246,9.272344,-0.003961,0.00826,0.005232,-0.636963,0.057373,-0.490234,-0.72906,3.623221,9.102596,-0.020602,-0.004065,0.007271,-0.381348,0.561523,0.737305,-0.339019,3.476037,9.190674,0.056123,0.026329,0.016757,0.654053,0.017334,-0.020996,-0.369491,2.990278,9.309306,-0.03192,0.008673,0.004662,0.383301,-0.156006,-0.542969
0.438696,-1.049798,9.792224,0.012279,0.005482,0.001882,-0.057861,0.431641,-0.581787,-0.253238,3.138282,9.29015,-0.019941,0.002848,0.003517,-0.638916,0.063721,-0.480469,-0.706525,3.665159,9.067379,0.04345,0.009893,-0.004433,-0.383057,0.565918,0.727295,-0.208766,3.620468,9.24178,0.006852,-0.051105,0.005689,0.659912,0.027344,-0.018311,-0.556607,2.892131,9.351569,0.009956,0.026203,-0.006921,0.381836,-0.155518,-0.552734
0.42514,-0.987305,9.741085,0.016553,0.002748,0.002789,-0.053223,0.433105,-0.585205,-0.259702,3.118,9.279091,-0.004721,0.009187,0.004331,-0.633545,0.066162,-0.487549,-0.724445,3.841104,9.139546,0.01907,0.011121,-0.004584,-0.37793,0.572998,0.731201,-0.097252,3.4668,9.20581,-0.07863,0.025043,0.007362,0.656006,0.029541,-0.023438,-0.480349,3.058674,9.323341,0.03991,-0.044388,-0.007362,0.390137,-0.143555,-0.547607
0.418335,-0.99111,9.793042,0.004996,-0.005615,-0.001198,-0.052734,0.433838,-0.59082,-0.274731,3.149752,9.276701,-0.012147,0.004118,0.005151,-0.634521,0.066406,-0.48999,-0.752229,3.716873,9.106536,-0.066582,-0.004342,0.011382,-0.381104,0.577637,0.726807,-0.295945,3.367553,9.185181,0.003176,0.035268,0.012492,0.652344,0.023438,-0.010742,-0.370063,3.023203,9.323696,-0.043379,0.01889,0.003095,0.384033,-0.139404,-0.554199
0.458457,-0.987866,9.833918,0.004854,0.002383,-0.000955,-0.055908,0.4375,-0.579346,-0.244737,3.124101,9.289368,-0.010154,0.005923,0.004227,-0.637939,0.06958,-0.479004,-0.688972,3.592281,9.070538,-0.006824,-0.00505,0.003991,-0.381836,0.568115,0.740967,-0.227235,3.493615,9.234758,0.045044,-0.048255,0.010569,0.648438,0.030029,-0.015381,-0.576019,2.884221,9.327438,-0.008429,0.013758,-0.002285,0.384033,-0.148926,-0.543945
0.439668,-0.985438,9.802258,-0.004772,0.0039,0.000995,-0.056396,0.434814,-0.584717,-0.252246,3.127054,9.285169,-0.011277,0.006286,0.003867,-0.634033,0.065674,-0.484375,-0.701681,3.709507,9.091989,0.039568,0.020814,-0.010052,-0.388184,0.57959,0.736816,-0.095627,3.551767,9.216167,-0.009082,0.013165,0.008355,0.650391,0.028564,-0.005615,-0.416051,2.963321,9.284623,0.034334,-0.041712,-0.007183,0.379639,-0.142334,-0.550537
0.427027,-0.984127,9.754796,-0.009454,0.004805,-0.002408,-0.057373,0.431396,-0.581543,-0.254518,3.129669,9.272437,-0.000689,0.004924,0.003261,-0.636719,0.062012,-0.480713,-0.772657,3.773179,9.095999,-0.003271,0.003594,0.004203,-0.387451,0.572998,0.743164,-0.300865,3.487188,9.209021,-0.036732,0.0392,0.013811,0.65332,0.023438,-0.019287,-0.425468,3.033812,9.314665,0.005014,0.036821,-0.003681,0.380615,-0.141357,-0.537598
0.413138,-1.009565,9.76645,-0.009207,-0.000415,-0.002473,-0.057373,0.433594,-0.589355,-0.260513,3.138748,9.291269,-0.014995,0.006504,0.006426,-0.638672,0.064697,-0.489502,-0.693074,3.711134,9.07289,-0.032007,-0.00702,0.003767,-0.384766,0.571045,0.728516,-0.245295,3.432531,9.213882,-0.008508,-0.040656,0.005888,0.659424,0.02124,-0.015381,-0.589093,2.984394,9.363063,-0.019961,-0.009129,-0.002021,0.381104,-0.147461,-0.551758
0.45268,-1.02386,9.794105,-0.004705,-0.001103,-0.001066,-0.056885,0.431641,-0.595947,-0.244396,3.127065,9.281061,-0.014525,0.002052,0.003507,-0.638672,0.063721,-0.493652,-0.721611,3.669599,9.085743,-0.010077,0.009371,0.001995,-0.380127,0.570801,0.734863,-0.09018,3.454558,9.225063,0.011071,0.004386,0.009828,0.648682,0.028564,-0.017822,-0.380932,2.942672,9.290102,-0.002261,-0.029032,-0.000294,0.38623,-0.14917,-0.54541
0.445558,-1.038513,9.796876,0.009585,0.003742,0.000952,-0.057373,0.432129,-0.590088,-0.256961,3.131612,9.284983,-0.005577,0.009318,0.004594,-0.636963,0.063232,-0.489258,-0.730709,3.694682,9.098463,0.008668,0.003829,-0.001528,-0.385498,0.57666,0.732422,-0.290585,3.507295,9.211987,0.009452,0.036088,0.013409,0.651855,0.023193,-0.001709,-0.468297,2.955066,9.299011,0.006029,0.033353,-0.006993,0.378418,-0.142822,-0.549561
0.430903,-0.98977,9.775262,0.01404,0.006307,0.001381,-0.052979,0.430176,-0.593506,-0.277151,3.156093,9.280472,-0.005128,0.002563,0.002692,-0.634766,0.062012,-0.492676,-0.720999,3.721379,9.085314,0.010767,0.00491,0.004308,-0.383301,0.569824,0.749512,-0.24721,3.530505,9.203431,-0.013788,-0.031945,0.007141,0.661133,0.026123,-0.015625,-0.534735,2.978032,9.341002,0.012802,-0.016882,-0.00093,0.382568,-0.150635,-0.533936
0.434641,-0.959045,9.772262,0.00163,-0.002214,-0.001517,-0.059082,0.432373,-0.586182,-0.232911,3.140241,9.265329,-0.011033,0.007809,0.005596,-0.637939,0.064453,-0.487549,-0.728044,3.760349,9.094802,-0.007871,0.005727,-0.001209,-0.375977,0.572754,0.737793,-0.122136,3.452516,9.200669,-0.03139,0.004151,0.007314,0.653809,0.028076,-0.007812,-0.408798,3.022776,9.312712,0.004752,-0.009884,-0.005156,0.388184,-0.143799,-0.545166
0.436644,-0.986148,9.802321,-0.005257,-0.000452,-0.000839,-0.061035,0.431885,-0.580322,-0.266672,3.130416,9.282128,-0.019906,0.007148,0.004551,-0.643799,0.062012,-0.478516,-0.74605,3.687804,9.101403,-0.031542,0.003082,0.006088,-0.38208,0.573486,0.745361,-0.263234,3.424296,9.185636,0.007852,0.030443,0.011403,0.654053,0.028809,-0.018311,-0.49252,2.968343,9.322975,-0.032227,0.013537,0.002715,0.382324,-0.145264,-0.536621
0.453791,-1.011859,9.814496,-0.005884,0.003195,-0.00243,-0.048096,0.430176,-0.583252,-0.228801,3.119249,9.262244,-0.002688,0.003115,0.00418,-0.629395,0.063232,-0.484863,-0.70355,3.65778,9.069222,0.004587,-0.003029,0.001715,-0.383057,0.576904,0.731445,-0.253439,3.526751,9.225745,0.019923,-0.026759,0.008695,0.65332,0.01709,-0.009766,-0.488544,2.907289,9.302522,0.011989,-0.013753,-0.003531,0.384766,-0.142578,-0.55127
0.425533,-1.004918,9.791378,-0.003289,0.005924,-0.00098,-0.056396,0.435059,-0.588867,-0.259648,3.166231,9.293998,-0.001068,0.014221,0.005116,-0.639893,0.068115,-0.488525,-0.708437,3.748895,9.078304,0.020431,0.017956,-0.005589,-0.381348,0.564697,0.744385,-0.143124,3.516888,9.190289,-0.02172,0.002671,0.006892,0.654297,0.023926,-0.018066,-0.437427,3.026441,9.339966,0.028997,-0.002668,-0.007876,0.385498,-0.152832,-0.539551
0.428224,-1.013526,9.755761,-0.003825,-0.000694,-0.001316,-0.060791,0.434082,-0.585693,-0.270462,3.124556,9.283993,-0.023867,3.3e-05,0.004147,-0.641602,0.062988,-0.487305,-0.765223,3.748234,9.107097,-0.017783,0.00214,0.004886,-0.383057,0.570068,0.734619,-0.243621,3.47006,9.213759,-0.010425,0.024,0.012972,0.656006,0.017578,-0.017578,-0.486772,3.013535,9.313377,-0.025687,0.006962,0.002917,0.383545,-0.14502,-0.547363
0.431176,-1.012814,9.769176,0.000907,0.000666,0.00059,-0.057861,0.435059,-0.590088,-0.242715,3.115592,9.280668,-0.004244,0.008478,0.004607,-0.638672,0.064453,-0.490723,-0.687314,3.7062,9.074031,-0.01245,-0.008467,0.003996,-0.378174,0.568604,0.736572,-0.260089,3.468018,9.231852,-0.008991,-0.017512,0.006147,0.645996,0.020752,-0.018066,-0.493091,2.935862,9.298617,-0.002924,-0.008348,-0.004627,0.385742,-0.153076,-0.546631
0.442677,-1.015119,9.816595,0.005204,-6.1e-05,-0.000837,-0.056152,0.428955,-0.586426,-0.263095,3.149502,9.286283,-0.006512,0.006901,0.0049,-0.636963,0.0625,-0.484863,-0.718755,3.676688,9.095505,-0.007862,0.017489,-0.00163,-0.389648,0.570312,0.733643,-0.143452,3.472327,9.202898,0.010216,0.000144,0.010782,0.651367,0.034424,-0.005371,-0.432338,2.965217,9.319645,0.007226,-0.008531,-0.002817,0.376709,-0.151611,-0.54834
0.442803,-0.992482,9.793736,0.012783,0.008087,0.000677,-0.062012,0.42749,-0.587402,-0.241037,3.133817,9.280582,-0.010639,0.004868,0.002817,-0.642578,0.058838,-0.488281,-0.733152,3.704958,9.084823,0.011973,-0.00433,0.004463,-0.385498,0.578369,0.74292,-0.245708,3.504175,9.216261,-0.001232,0.022933,0.011717,0.657227,0.026367,-0.011475,-0.480255,2.985211,9.317327,0.005362,0.012361,-0.004783,0.383057,-0.135986,-0.536621
0.402742,-0.963547,9.779024,0.001182,0.001217,-0.001112,-0.055176,0.430176,-0.588379,-0.2811,3.13045,9.291996,-0.011481,0.008748,0.006274,-0.63623,0.060791,-0.485596,-0.690297,3.741537,9.107058,-0.002715,0.006285,-0.002652,-0.380127,0.57251,0.737793,-0.24569,3.501395,9.217318,-0.023429,-0.015546,0.008137,0.657959,0.025391,-0.015381,-0.507164,2.981135,9.32447,-0.002004,-0.009316,-0.002764,0.384521,-0.143555,-0.542236
0.4413,-1.006581,9.780905,-0.010941,-0.000982,-0.001137,-0.055908,0.435547,-0.582764,-0.243045,3.129207,9.282085,-0.006666,0.001805,0.004993,-0.636475,0.066162,-0.481934,-0.747364,3.698585,9.087636,-0.018659,0.007202,0.004694,-0.378906,0.570557,0.734863,-0.158797,3.452493,9.195006,-0.008217,0.000143,0.010001,0.651367,0.019531,-0.019287,-0.452139,2.978485,9.281266,-0.005654,-0.004113,0.000587,0.386963,-0.147461,-0.546387
0.430896,-1.023117,9.812509,-0.003294,0.002161,-0.001682,-0.061768,0.430664,-0.588135,-0.250086,3.151225,9.298061,-0.012708,0.008628,0.003977,-0.644287,0.065918,-0.48877,-0.691145,3.690706,9.095517,-0.003758,-0.004679,0.000397,-0.385986,0.567139,0.727539,-0.235019,3.468416,9.227684,0.010309,0.017582,0.01137,0.656494,0.011963,-0.016113,-0.47737,2.951279,9.333072,0.002893,0.007015,-0.00617,0.381836,-0.151367,-0.552002
0.43346,-1.031456,9.776927,-0.001606,0.004224,-0.000821,-0.060059,0.431641,-0.58667,-0.274568,3.133751,9.275021,-0.013495,0.003196,0.003986,-0.641846,0.060791,-0.485352,-0.722991,3.696385,9.103235,0.004451,0.013503,0.001469,-0.378906,0.561035,0.73584,-0.223327,3.517436,9.215607,-0.002621,-0.013355,0.010058,0.655762,0.020752,-0.015137,-0.472687,2.975191,9.337703,0.006033,-0.008321,-0.000446,0.390381,-0.157471,-0.547607
0.420964,-1.019495,9.778625,0.002339,0.000424,0.000114,-0.056152,0.439209,-0.58667,-0.243174,3.138347,9.259998,-0.001224,0.009119,0.005216,-0.636963,0.068359,-0.484131,-0.735946,3.73813,9.089472,0.000656,0.000731,-0.000661,-0.380859,0.570801,0.736816,-0.173236,3.474111,9.235545,-0.023197,0.002358,0.007988,0.646973,0.023193,-0.008057,-0.481555,2.984592,9.307704,0.002505,-0.000566,-0.005647,0.384033,-0.147217,-0.546143
0.437211,-0.994788,9.780276,0.001307,0.000487,-0.000794,-0.056885,0.437988,-0.585693,-0.282094,3.140915,9.294464,-0.01598,0.006148,0.00472,-0.641602,0.069336,-0.487305,-0.70862,3.703914,9.088449,-0.017543,0.003546,0.004564,-0.390625,0.570801,0.742188,-0.231766,3.45753,9.197755,-0.001902,0.009975,0.011143,0.652832,0.02002,-0.013672,-0.479644,2.965737,9.331059,-0.010175,0.000805,-0.000513,0.376221,-0.147217,-0.540283
0.442786,-1.006926,9.794278,0.001558,-0.000972,-0.000157,-0.048584,0.435059,-0.582275,-0.232484,3.122399,9.27163,-0.010773,0.002079,0.001887,-0.62915,0.065186,-0.482422,-0.732388,3.681911,9.084392,-0.003602,0.002312,-0.000197,-0.384766,0.567139,0.739502,-0.224259,3.486651,9.231383,0.00697,-0.008242,0.01046,0.655273,0.022949,-0.02124,-0.45735,2.966342,9.305275,0.006089,-0.007886,-0.00416,0.38208,-0.150879,-0.543213
0.43888,-1.005953,9.823434,0.002771,0.004266,0.00027,-0.054443,0.432617,-0.586182,-0.273936,3.142767,9.289802,-0.003466,0.013902,0.004597,-0.63501,0.065186,-0.487793,-0.710435,3.724798,9.095908,0.006146,0.007084,0.00098,-0.380859,0.571533,0.730469,-0.186847,3.496153,9.216156,-0.008664,0.003131,0.009141,0.656738,0.015625,-0.008545,-0.459504,2.98091,9.30323,0.00417,-8.1e-05,-0.004951,0.38501,-0.147949,-0.55127
0.423927,-0.988758,9.77567,0.002141,0.002396,0.001155,-0.056152,0.428223,-0.586426,-0.252223,3.127055,9.284096,-0.013847,0.000879,0.0034,-0.639648,0.057861,-0.484619,-0.740783,3.720864,9.093833,-0.005787,0.005913,0.000934,-0.37915,0.5625,0.743652,-0.214496,3.49237,9.207066,-0.008456,0.00572,0.011705,0.64624,0.025635,-0.011719,-0.484022,2.95844,9.333614,-0.004819,0.001807,-0.001142,0.38623,-0.158691,-0.539307
0.426184,-0.995548,9.782621,-0.006665,0.0018,-0.002704,-0.058105,0.426514,-0.585693,-0.237329,3.139097,9.280717,-0.007935,0.00924,0.005025,-0.641602,0.058594,-0.485596,-0.713912,3.710168,9.099297,-0.005943,-0.001077,0.001526,-0.387939,0.574219,0.745361,-0.226344,3.463768,9.218439,-0.012081,-0.003314,0.00636,0.651123,0.013916,-0.01416,-0.459946,2.976407,9.324599,0.005993,-0.008361,-0.004548,0.378906,-0.143799,-0.535889
0.427783,-1.023654,9.812589,-0.005131,-0.001182,-0.000524,-0.052979,0.433594,-0.575195,-0.267074,3.132921,9.275762,-0.01438,0.005079,0.005349,-0.633789,0.066162,-0.474854,-0.723979,3.697039,9.109117,-0.012019,0.011652,0.000586,-0.386963,0.564941,0.73999,-0.198592,3.471798,9.200253,0.003141,0.00156,0.01105,0.667236,0.017578,-0.015381,-0.440938,2.986321,9.318341,-0.006797,0.000521,-0.001708,0.379883,-0.155029,-0.541748
0.443792,-1.007089,9.807692,0.001963,0.002613,-0.00084,-0.061035,0.432129,-0.590576,-0.233099,3.110015,9.267017,-0.005797,0.003972,0.00371,-0.641357,0.062744,-0.494141,-0.735638,3.691487,9.082521,0.004491,-0.001967,0.002764,-0.371338,0.565918,0.734131,-0.212017,3.513114,9.230643,0.003937,0.004585,0.010405,0.664795,0.019043,-0.016846,-0.498192,2.939023,9.32048,0.003505,0.001253,-0.003227,0.39502,-0.154297,-0.547119
0.412855,-0.991893,9.777772,0.005438,0.005754,0.000361,-0.05835,0.435303,-0.585449,-0.248241,3.161161,9.284877,-0.005959,0.012794,0.005229,-0.64209,0.065918,-0.487061,-0.700801,3.729996,9.110989,0.002158,0.010033,-0.000946,-0.37085,0.567627,0.739258,-0.218744,3.482722,9.197512,-0.021259,0.001687,0.007876,0.656006,0.025635,-0.018066,-0.459762,3.007407,9.339645,0.008506,-0.009943,-0.003673,0.395264,-0.148193,-0.545166
0.424213,-1.003082,9.776208,9.9e-05,-0.000986,-0.000521,-0.0625,0.434082,-0.584473,-0.271835,3.130393,9.26474,-0.019829,0.001822,0.005209,-0.643799,0.067627,-0.482178,-0.74192,3.696782,9.075922,-0.01599,0.006414,0.002921,-0.381592,0.572266,0.734131,-0.204725,3.469244,9.222073,0.001343,-0.003166,0.010034,0.654053,0.027588,-0.015625,-0.466722,2.962981,9.339189,-0.01051,0.006305,-0.001165,0.383789,-0.14624,-0.549072
0.448402,-1.004561,9.792342,0.002416,0.002947,-0.000546,-0.050049,0.431641,-0.585205,-0.226097,3.128376,9.283389,-0.003235,0.007622,0.003034,-0.632324,0.062256,-0.484375,-0.68573,3.712954,9.090183,0.003594,-0.00683,0.001516,-0.381592,0.573486,0.734131,-0.216678,3.472306,9.227161,-0.010416,0.006834,0.0085,0.648193,0.021729,-0.017334,-0.487503,2.9704,9.322583,0.006929,-0.005957,-0.004935,0.384766,-0.146729,-0.546143
0.432125,-1.014544,9.803652,-0.005434,-0.000235,-0.002839,-0.055664,0.427246,-0.588623,-0.281798,3.129479,9.319086,-0.016703,0.007,0.007857,-0.636963,0.059814,-0.489014,-0.727045,3.706074,9.107494,-0.015557,0.019291,-0.001376,-0.388916,0.570312,0.733398,-0.219448,3.492065,9.202413,0.004314,0.000394,0.011566,0.655029,0.023438,-0.018066,-0.426344,2.96906,9.328461,-0.0078,-0.006978,-0.002048,0.379395,-0.14917,-0.548584
0.447164,-1.019744,9.779387,0.003703,0.005189,0.001698,-0.048096,0.432617,-0.581299,-0.239935,3.112514,9.267547,0.001614,0.002988,0.000747,-0.628662,0.062744,-0.48291,-0.74224,3.684174,9.067211,0.012492,-0.007907,0.004549,-0.383545,0.56958,0.733154,-0.20541,3.511327,9.220298,-0.003347,0.000464,0.01144,0.654053,0.0271,-0.013428,-0.494592,2.961362,9.315804,0.013199,0.012412,-0.003249,0.384766,-0.149414,-0.55127
0.410301,-0.983714,9.784444,-0.000226,0.00347,-0.002975,-0.055664,0.432617,-0.581543,-0.283235,3.169075,9.289912,-0.016336,0.011622,0.00742,-0.638428,0.063721,-0.485352,-0.698414,3.746744,9.112931,-0.006494,0.012518,-0.004293,-0.380859,0.574463,0.737793,-0.217235,3.46834,9.204354,-0.015523,0.004279,0.008241,0.651611,0.030029,-0.01416,-0.486133,3.019064,9.35427,-0.001972,-0.013937,-0.0031,0.383301,-0.142822,-0.543701
0.443132,-1.013525,9.772457,-0.003673,-0.001169,-0.00016,-0.057861,0.433594,-0.588623,-0.242057,3.107252,9.269258,-0.014841,-0.001773,0.002714,-0.639648,0.065918,-0.489746,-0.760929,3.696708,9.089562,-0.013601,0.002464,0.007087,-0.38501,0.577881,0.738037,-0.204731,3.476749,9.227673,-0.003211,-0.001044,0.010577,0.657471,0.019287,-0.014893,-0.44277,2.953584,9.28425,-0.00822,0.002711,0.001351,0.37915,-0.137939,-0.545898
0.427585,-0.993714,9.809693,0.005182,0.00345,-0.000975,-0.059326,0.437012,-0.584473,-0.233637,3.135028,9.2708,0.000895,0.013699,0.005238,-0.638428,0.067627,-0.483643,-0.691977,3.717916,9.101502,0.001427,-0.004156,-0.003123,-0.380615,0.564941,0.734375,-0.216222,3.495786,9.199723,-0.004134,0.004325,0.009012,0.658691,0.025391,-0.019287,-0.497538,2.969922,9.335592,0.004844,0.001957,-0.008923,0.385254,-0.1521,-0.546631
0.436019,-0.998571,9.801164,0.000958,0.002934,-0.00091,-0.05957,0.428711,-0.587891,-0.268731,3.140432,9.283833,-0.016328,0.002081,0.002991,-0.639893,0.058838,-0.487549,-0.720426,3.703951,9.089814,-0.005233,0.017666,0.004462,-0.377441,0.57251,0.734375,-0.211859,3.483548,9.220284,0.000413,-0.000775,0.011803,0.653076,0.023438,-0.011719,-0.462748,2.969636,9.327064,0.002867,-0.009396,0.001358,0.387939,-0.14624,-0.547607
0.42974,-0.993192,9.78077,0.000656,0.002127,-4.7e-05,-0.061279,0.438965,-0.577148,-0.225485,3.127862,9.255923,-0.006535,0.006888,0.004886,-0.641113,0.071533,-0.477051,-0.736276,3.718239,9.082429,0.003833,-0.006308,-0.002501,-0.383057,0.572021,0.738525,-0.214536,3.486821,9.228802,-0.012932,0.00421,0.008089,0.656982,0.030029,-0.014893,-0.470308,2.995589,9.314068,0.004068,0.005125,-0.007418,0.381348,-0.148438,-0.543945
0.437882,-0.997833,9.814633,-0.005028,0.001596,-0.000347,-0.057617,0.427002,-0.58374,-0.286415,3.130816,9.299559,-0.009319,0.007763,0.006005,-0.63623,0.059082,-0.481689,-0.709752,3.730776,9.094559,-0.01286,0.011207,0.004816,-0.383301,0.576416,0.735352,-0.221036,3.456349,9.195684,-0.005659,-0.00052,0.009996,0.658203,0.022949,-0.015381,-0.478675,2.980784,9.329023,-0.010813,-0.004173,0.001998,0.382812,-0.140625,-0.547852
0.443709,-1.00523,9.792487,-0.000803,0.002113,-0.000411,-0.062744,0.436768,-0.586426,-0.215525,3.135585,9.274434,-0.01072,0.00025,0.004803,-0.643555,0.064453,-0.486328,-0.740977,3.698348,9.070089,-0.005476,-0.000945,0.000732,-0.377686,0.567871,0.738281,-0.210905,3.501618,9.220572,0.003208,-0.00116,0.010487,0.655762,0.028076,-0.010254,-0.457066,2.957236,9.338347,0.00587,-0.002528,-0.00572,0.386963,-0.149902,-0.546143
0.433352,-1.014241,9.788222,0.000733,0.00465,-0.000708,-0.061279,0.437256,-0.586182,-0.262037,3.138384,9.280504,-0.005993,0.014533,0.006345,-0.641846,0.067383,-0.483643,-0.687358,3.715691,9.11298,0.006757,0.005166,0.00225,-0.381348,0.57666,0.740234,-0.201747,3.486646,9.19699,-0.012156,0.010547,0.007862,0.65625,0.019531,-0.012939,-0.472889,2.989382,9.326121,0.006352,-0.000151,-0.003778,0.386963,-0.141846,-0.542236
0.418044,-0.995642,9.782963,0.003193,0.000579,-0.000973,-0.052979,0.435547,-0.587158,-0.268499,3.127729,9.279359,-0.017586,-0.000658,0.004783,-0.63501,0.066895,-0.487549,-0.734288,3.712353,9.10667,-0.010601,0.010215,-0.000308,-0.382324,0.565918,0.739014,-0.221229,3.489915,9.222833,-0.002014,-0.005518,0.010675,0.654053,0.029785,-0.009766,-0.478552,2.961457,9.342688,-0.01048,0.001681,-0.001504,0.386963,-0.149658,-0.54541
0.44855,-1.003967,9.777001,-0.001985,0.000895,0.0007,-0.062012,0.433594,-0.584229,-0.225063,3.134312,9.271661,-0.001187,0.009662,0.003097,-0.644287,0.062744,-0.483887,-0.721443,3.703463,9.078437,0.002595,-0.007908,0.003539,-0.381592,0.578369,0.741943,-0.183074,3.476282,9.209264,-0.010242,0.00203,0.007223,0.648438,0.018555,-0.005615,-0.482534,2.982216,9.288907,0.011024,-0.004156,-0.006003,0.381104,-0.138184,-0.53833
0.425934,-1.006847,9.810438,0.002516,0.001962,-0.001066,-0.059326,0.431641,-0.585938,-0.295022,3.14195,9.273717,-0.011915,0.006179,0.004691,-0.641113,0.065186,-0.48584,-0.707868,3.711031,9.09288,-0.011004,0.01541,-0.001281,-0.391357,0.564697,0.742676,-0.223451,3.477391,9.204593,-0.001182,0.009237,0.010831,0.653076,0.021484,-0.013184,-0.438754,2.983843,9.339187,-0.005843,-0.005069,-0.000185,0.376709,-0.151367,-0.539795
0.44781,-0.996261,9.783552,0.000103,0.00278,0.000178,-0.054932,0.429688,-0.586426,-0.237896,3.123275,9.279228,-0.013848,0.003186,0.002349,-0.639404,0.060303,-0.486084,-0.75475,3.706781,9.086929,-0.000968,-0.00023,0.003651,-0.385498,0.567627,0.739014,-0.223341,3.491489,9.23201,-0.003289,-0.004201,0.010742,0.6521,0.024414,-0.011719,-0.496014,2.95611,9.327616,0.002932,0.008743,-0.003196,0.382324,-0.151367,-0.544434
0.419241,-0.99436,9.796514,-0.00284,0.002495,-0.00139,-0.057373,0.437988,-0.593994,-0.271737,3.11469,9.295363,-0.006271,0.010706,0.005612,-0.640869,0.069092,-0.49292,-0.704307,3.716824,9.097067,-0.000707,0.002976,-0.000209,-0.383545,0.568604,0.741455,-0.193239,3.485945,9.210556,-0.008034,0.001211,0.009116,0.653564,0.022461,-0.008301,-0.482973,2.993607,9.31767,0.002432,-0.013022,-0.00317,0.381836,-0.149414,-0.541992
0.440195,-1.012577,9.786165,-0.003219,-0.000836,0.000134,-0.055908,0.437012,-0.579834,-0.247739,3.138379,9.272531,-0.007232,0.002256,0.003717,-0.637451,0.067627,-0.478027,-0.738268,3.718082,9.088593,-0.007064,0.009812,0.002566,-0.384033,0.567383,0.740967,-0.20741,3.50187,9.219216,-0.004538,0.004938,0.011342,0.645996,0.024902,-0.008545,-0.447663,2.958033,9.315452,-0.000316,0.004878,-0.00195,0.380371,-0.148926,-0.540527
0.442992,-1.004349,9.806089,0.002015,0.003127,0.000838,-0.056885,0.433838,-0.596924,-0.248705,3.1358,9.273377,-0.015265,0.009262,0.005675,-0.638184,0.066895,-0.493652,-0.7117,3.720574,9.120267,-0.003033,-0.004969,0.000749,-0.39209,0.572266,0.742676,-0.212152,3.473128,9.209747,-0.010939,-0.00114,0.00728,0.655762,0.019287,-0.017578,-0.511567,2.987976,9.31549,0.003353,-0.000946,-0.006593,0.375732,-0.146484,-0.540039
0.433842,-0.999858,9.772252,0.001032,0.001692,-0.002269,-0.061768,0.436523,-0.5896,-0.258074,3.108336,9.296633,-0.01349,0.00343,0.004896,-0.641113,0.066406,-0.489258,-0.701108,3.697671,9.095238,-0.010512,0.011873,0.000874,-0.381348,0.56665,0.731689,-0.197006,3.485004,9.196372,0.000529,0.002975,0.011488,0.650391,0.030762,-0.013672,-0.442004,2.965926,9.312767,-0.005198,-0.011457,0.001466,0.385986,-0.153076,-0.549072
0.424057,-1.000805,9.774511,0.005006,0.001914,0.000207,-0.058838,0.432373,-0.588135,-0.255949,3.132333,9.283103,5e-06,0.007783,0.003313,-0.63916,0.061523,-0.490723,-0.742557,3.711274,9.073275,0.004183,0.002165,0.000745,-0.386719,0.577881,0.736572,-0.227697,3.502219,9.221878,-0.003782,0.003449,0.010585,0.656738,0.017334,-0.016602,-0.471275,2.975247,9.318249,0.00858,0.012863,-0.003789,0.380127,-0.141113,-0.545898
0.445568,-0.995896,9.783691,-0.001333,-0.000744,-4.6e-05,-0.054443,0.435303,-0.585938,-0.262296,3.141046,9.302076,-0.017254,0.005708,0.005451,-0.634766,0.063477,-0.483154,-0.703272,3.729882,9.082691,-0.003817,0.00175,0.001745,-0.380859,0.568359,0.734619,-0.20186,3.477802,9.185879,-0.011159,-0.004742,0.008176,0.657471,0.020752,-0.023193,-0.498261,2.986735,9.332906,-0.000729,-0.012418,-0.002489,0.385986,-0.150635,-0.547119
0.448492,-1.009709,9.784169,-0.000833,-0.001909,-0.001949,-0.051514,0.437256,-0.591309,-0.240933,3.109306,9.26339,-0.013155,0.001688,0.005361,-0.632568,0.069336,-0.489746,-0.727084,3.708898,9.07811,-0.008618,0.00422,0.001972,-0.381348,0.568359,0.730469,-0.194923,3.473868,9.226242,-0.005585,0.009862,0.010515,0.666748,0.022217,-0.010742,-0.422739,2.976829,9.306192,-0.00281,-0.00153,-0.000913,0.383789,-0.14917,-0.554199
0.432456,-0.997608,9.814897,-0.000924,0.006609,-3.2e-05,-0.055176,0.432617,-0.585205,-0.281138,3.143749,9.315197,-0.004681,0.015756,0.004394,-0.638184,0.062256,-0.488037,-0.717794,3.711884,9.105579,-0.006214,0.008421,-0.000189,-0.369629,0.571289,0.740967,-0.240997,3.455,9.183158,-0.008961,0.001656,0.010754,0.657959,0.03125,-0.014893,-0.508698,2.985013,9.346296,-0.003036,0.009502,-0.004554,0.396729,-0.148682,-0.542236
0.448069,-1.004514,9.748095,-0.002567,-0.00072,-0.00379,-0.057373,0.437744,-0.587891,-0.271702,3.101784,9.258754,-0.012853,-0.006415,0.00672,-0.638672,0.070312,-0.487061,-0.724815,3.676953,9.079064,-0.005239,-0.003171,0.005424,-0.37793,0.575684,0.735107,-0.157776,3.535572,9.2042,0.023687,-0.01265,0.009488,0.654053,0.022461,-0.017334,-0.471478,2.92789,9.286208,0.001968,-0.016416,0.001409,0.385254,-0.143555,-0.546143
0.419353,-0.993166,9.810104,0.004958,0.003413,0.002406,-0.055176,0.427002,-0.580322,-0.20406,3.195049,9.27551,0.006818,0.018628,0.000631,-0.635254,0.05957,-0.480713,-0.68685,3.776204,9.088625,0.022764,0.009626,-0.004752,-0.383301,0.566406,0.734863,-0.220177,3.493033,9.23998,-0.045093,0.023381,0.010746,0.654541,0.019775,-0.020752,-0.442565,3.029266,9.342361,0.024132,0.007169,-0.010944,0.38208,-0.152344,-0.547607
0.431099,-1.005411,9.80843,-0.0081,-0.001725,-0.002934,-0.051514,0.4375,-0.586426,-0.330079,3.094406,9.271986,-0.049489,-0.001009,0.01335,-0.630615,0.069092,-0.484863,-0.791924,3.696589,9.104473,-0.050029,0.012614,0.005233,-0.382324,0.564941,0.733398,-0.230893,3.428475,9.165281,0.015489,-0.016647,0.008399,0.656982,0.019043,-0.016113,-0.482354,2.985502,9.360205,-0.04402,-0.002192,0.005351,0.383789,-0.151123,-0.551025
0.467599,-1.027688,9.773936,0.009636,0.004263,0.002638,-0.057617,0.430176,-0.588135,-0.144554,3.104095,9.260534,0.032482,0.002101,-0.00431,-0.637207,0.059814,-0.492188,-0.669531,3.678482,9.067794,0.032843,-0.026948,0.007913,-0.377686,0.566162,0.734619,-0.164451,3.537873,9.258265,-0.003734,0.004985,0.014037,0.660889,0.023438,-0.009521,-0.481809,2.919212,9.239692,0.035804,-0.009437,-0.005407,0.387207,-0.152344,-0.546143
0.396829,-0.974477,9.820556,0.001787,0.002834,-0.002837,-0.054932,0.427002,-0.576904,-0.320191,3.226952,9.32801,-0.02401,0.023144,0.01296,-0.634766,0.059326,-0.476318,-0.704493,3.767365,9.121372,-0.019081,0.047786,-0.015207,-0.375977,0.570068,0.742188,-0.249166,3.448858,9.15775,-0.012175,0.015234,0.008572,0.660889,0.023438,-0.013672,-0.433332,3.046307,9.40882,-0.009146,0.002376,-0.007196,0.390137,-0.146973,-0.538818
0.464661,-0.999578,9.744029,-0.001532,0.001228,0.000994,-0.046875,0.438965,-0.586426,-0.208556,3.061303,9.240928,-0.029437,-0.018762,-0.002829,-0.629639,0.071045,-0.484131,-0.822369,3.630934,9.063472,-0.003598,-0.027694,0.021104,-0.375244,0.573975,0.737061,-0.195332,3.508836,9.26272,0.012159,-0.019411,0.012354,0.661377,0.029541,-0.012939,-0.49627,2.928478,9.272042,-0.009069,0.004378,0.008988,0.390625,-0.145996,-0.54541
0.436033,-0.99585,9.799519,0.001382,-0.000754,-0.002152,-0.063477,0.432129,-0.591064,-0.240806,3.144419,9.277402,0.026867,0.030665,0.010122,-0.642334,0.062988,-0.489014,-0.565998,3.7851,9.092555,0.014887,0.005468,-0.017972,-0.372314,0.575195,0.740723,-0.176437,3.470188,9.220146,-0.030968,0.015626,0.006357,0.648193,0.033936,-0.019043,-0.477423,3.012943,9.333992,0.024344,-0.015491,-0.01635,0.392578,-0.140381,-0.544434
0.429453,-0.9968,9.815111,-0.004147,0.002007,-0.000598,-0.057861,0.436768,-0.580322,-0.310024,3.166846,9.312769,-0.037946,-0.009069,0.000919,-0.637451,0.067383,-0.483643,-0.838587,3.683283,9.106027,-0.039017,0.038784,0.013491,-0.387939,0.581055,0.732178,-0.23876,3.45927,9.19008,0.008015,0.001819,0.012501,0.656494,0.020996,-0.016846,-0.444957,2.970777,9.343936,-0.026222,0.007706,0.011566,0.376465,-0.137939,-0.55127
0.447491,-1.008433,9.797827,0.000932,0.000923,0.001429,-0.061035,0.43335,-0.582275,-0.173604,3.087946,9.250124,-0.002131,0.010964,0.006604,-0.642578,0.06958,-0.48291,-0.680195,3.676825,9.04597,0.021999,-0.050686,-0.001692,-0.379639,0.571533,0.730469,-0.207946,3.508585,9.244814,0.005626,-0.006555,0.007198,0.652344,0.025879,-0.01416,-0.503861,2.949088,9.28071,0.01298,-0.000159,-0.013083,0.384766,-0.150391,-0.549072
0.419738,-0.999976,9.774783,0.002568,0.004231,-0.002566,-0.063232,0.432861,-0.587891,-0.336871,3.161382,9.287093,-4.5e-05,0.015315,0.005671,-0.644043,0.06543,-0.488525,-0.648247,3.761545,9.117175,-0.007066,0.057813,-0.002085,-0.382812,0.574463,0.736572,-0.210318,3.482553,9.198924,-0.02078,0.009917,0.009679,0.653564,0.022949,-0.016602,-0.446256,3.016738,9.366583,0.006645,-0.011761,0.00267,0.383057,-0.14209,-0.544189
0.431452,-1.012461,9.77309,-0.007747,-0.002161,0.001059,-0.055908,0.43335,-0.583008,-0.201583,3.125595,9.251635,-0.024606,-0.010139,0.002517,-0.638672,0.063477,-0.484619,-0.87809,3.665958,9.084464,-0.015014,-0.017857,0.003132,-0.385254,0.569336,0.734619,-0.194939,3.48675,9.214066,0.007395,-0.004399,0.008238,0.651123,0.025146,-0.013184,-0.474728,2.952305,9.303637,-0.012498,0.010682,-0.003807,0.382812,-0.145508,-0.547119
0.449123,-1.021953,9.798396,0.009684,0.002766,0.00044,-0.053223,0.432373,-0.588867,-0.241559,3.141545,9.282986,0.008184,0.023484,0.005969,-0.635498,0.062012,-0.487061,-0.575595,3.749388,9.084001,0.01407,-0.015946,0.004934,-0.38208,0.56958,0.735107,-0.205246,3.491101,9.242993,-0.016884,0.009116,0.009311,0.651367,0.023438,-0.015381,-0.483576,2.973073,9.312186,0.013781,-0.01002,-0.005987,0.380371,-0.14624,-0.545166
0.419487,-0.977436,9.794279,-0.001584,0.000716,-0.000684,-0.059326,0.428467,-0.589111,-0.293317,3.145203,9.297242,-0.029973,-0.008861,0.004383,-0.637695,0.058594,-0.489258,-0.802597,3.697072,9.117171,-0.031823,0.052413,-0.00701,-0.38623,0.571533,0.736816,-0.230077,3.4601,9.203066,0.001142,-0.006193,0.010772,0.660645,0.019531,-0.01709,-0.447639,2.97968,9.363626,-0.014478,0.000346,-4.1e-05,0.378662,-0.146484,-0.546387
0.453065,-0.993975,9.752769,-0.001053,0.003574,-0.00105,-0.058594,0.440186,-0.588867,-0.179991,3.090646,9.25073,0.000955,0.012162,0.005115,-0.636963,0.072266,-0.492188,-0.725673,3.689883,9.070864,0.018653,-0.05251,0.013133,-0.375,0.568115,0.739502,-0.185817,3.497822,9.221859,-0.000218,0.003525,0.00865,0.650391,0.022949,-0.021729,-0.49465,2.963959,9.265774,0.009393,0.001087,-0.00468,0.387451,-0.150879,-0.542725
0.414257,-1.006756,9.797476,-0.000553,0.000653,0.000225,-0.060791,0.43042,-0.588379,-0.320582,3.19176,9.309128,-0.002054,0.009783,0.003362,-0.64209,0.0625,-0.488037,-0.623763,3.757125,9.104608,-0.009049,0.041219,-0.01081,-0.385742,0.571045,0.730957,-0.231601,3.472488,9.206848,-0.008974,0.010244,0.01173,0.656494,0.022949,-0.017822,-0.458173,2.999309,9.362701,0.001662,-0.008168,-0.002787,0.380127,-0.146484,-0.54834
0.444616,-1.015507,9.791507,-0.001834,0.002176,-0.001322,-0.053223,0.42749,-0.589355,-0.224684,3.126953,9.253442,-0.026379,-0.00233,0.00536,-0.634766,0.060059,-0.490234,-0.863766,3.673696,9.087398,-0.009782,0.003384,0.005488,-0.381592,0.571045,0.731445,-0.204893,3.485672,9.220797,-0.005002,-0.012378,0.008702,0.654541,0.025879,-0.017822,-0.482854,2.97363,9.312045,-0.000993,0.010204,-0.001185,0.384766,-0.147461,-0.54834
0.4238,-0.992013,9.765746,0.003547,0.001901,-0.000156,-0.056152,0.429688,-0.587158,-0.257315,3.113624,9.282723,0.001446,0.015509,0.005513,-0.63623,0.058838,-0.48584,-0.616346,3.742917,9.089642,0.007195,-0.029964,0.002631,-0.380859,0.570312,0.731201,-0.191936,3.479716,9.216788,-0.011021,0.01348,0.009244,0.653076,0.02124,-0.013672,-0.484806,2.986949,9.310405,0.00037,-0.018776,-0.003162,0.384277,-0.149414,-0.549561
0.419552,-1.005778,9.781944,-0.0001,0.000987,0.00052,-0.062988,0.428711,-0.58667,-0.259628,3.144754,9.300585,-0.009268,0.000442,0.004581,-0.643311,0.05835,-0.488037,-0.746935,3.697233,9.077345,-0.024597,0.051352,-0.002742,-0.383789,0.568359,0.738037,-0.245417,3.485814,9.216552,0.004251,0.006372,0.012562,0.659912,0.022705,-0.014404,-0.421411,2.952102,9.331833,-0.007195,0.011257,-0.000728,0.380371,-0.151611,-0.544434
0.431312,-1.010091,9.786817,0.001913,0.002104,-0.002519,-0.060303,0.431152,-0.585449,-0.238351,3.122943,9.271894,-0.016581,0.008584,0.005453,-0.643066,0.062744,-0.484619,-0.770475,3.679962,9.088928,0.014561,-0.033951,0.005226,-0.376221,0.569824,0.736328,-0.197081,3.503906,9.200288,-0.007233,-0.015456,0.006534,0.662109,0.016602,-0.018799,-0.546078,2.983256,9.326125,0.012573,-0.000139,-0.006654,0.388184,-0.148193,-0.543945
0.428043,-1.003456,9.779889,0.001285,0.002244,0.002244,-0.050537,0.433838,-0.594482,-0.268995,3.139808,9.274046,-0.005004,0.005563,0.004543,-0.631104,0.064209,-0.494873,-0.607808,3.755394,9.097846,-0.005969,0.017061,0.000427,-0.375977,0.565674,0.733887,-0.18353,3.475758,9.197495,-0.01213,0.017209,0.00872,0.654053,0.025146,-0.006104,-0.405845,2.992275,9.330887,-0.003841,-0.020428,-0.001183,0.389893,-0.15332,-0.548828
0.439649,-1.008192,9.784727,-0.00289,0.001983,-0.00307,-0.051025,0.433838,-0.581543,-0.240261,3.127956,9.283519,-0.01054,0.003824,0.004516,-0.632812,0.066895,-0.480225,-0.828608,3.674056,9.101613,-0.016067,0.01918,0.001508,-0.382568,0.575684,0.741211,-0.248643,3.463342,9.203363,-0.002564,0.002882,0.010954,0.653564,0.026611,-0.019043,-0.463772,2.959546,9.34089,-0.002426,0.025434,-0.003415,0.383545,-0.141846,-0.539551
0.442094,-1.007553,9.798163,-0.000803,0.002114,-0.000413,-0.063965,0.426514,-0.58252,-0.269609,3.13134,9.288541,-0.011128,0.007776,0.00551,-0.646973,0.057129,-0.483154,-0.671293,3.704368,9.074476,0.007351,-0.029331,0.004826,-0.383545,0.572754,0.730713,-0.180102,3.483391,9.217615,-0.002322,-0.012618,0.007964,0.655762,0.028809,-0.014404,-0.524228,2.980175,9.321435,0.003142,-0.022964,-0.004269,0.383301,-0.143799,-0.550537
0.435813,-1.009534,9.771281,0.002089,0.001887,-0.000522,-0.060059,0.435059,-0.583984,-0.2381,3.135596,9.273992,-0.006501,0.005361,0.004706,-0.64209,0.063232,-0.484131,-0.695931,3.720728,9.102315,-0.006968,0.035922,-0.002169,-0.381104,0.576904,0.737305,-0.193686,3.485756,9.198724,-0.003129,0.015953,0.011952,0.656982,0.020752,-0.011719,-0.38036,2.980072,9.306604,0.003588,5e-05,-0.001717,0.386719,-0.145508,-0.545166
0.426154,-1.003402,9.779977,0.002089,0.001887,-0.000522,-0.051025,0.432861,-0.585205,-0.255204,3.1192,9.278494,-0.010123,0.008679,0.005063,-0.632324,0.061523,-0.483398,-0.794951,3.706891,9.085602,-0.000689,-0.007932,0.001802,-0.379639,0.566406,0.73999,-0.246366,3.483848,9.227109,-0.00995,0.001939,0.009223,0.659668,0.022217,-0.005859,-0.545605,2.980192,9.347095,0.000589,0.016952,-0.005379,0.385742,-0.150146,-0.54248
0.435179,-1.008638,9.771402,0.001006,-0.000319,7e-05,-0.057373,0.422852,-0.58252,-0.245686,3.132359,9.283608,-0.013165,0.003993,0.004305,-0.638184,0.054932,-0.485596,-0.64979,3.722183,9.080278,-0.008324,-0.006275,0.006758,-0.378174,0.570068,0.746338,-0.18031,3.456601,9.196286,-0.005467,-0.008033,0.00813,0.64917,0.022705,-0.021484,-0.449718,2.981991,9.323314,-0.005809,-0.02908,0.00146,0.388916,-0.145264,-0.536133
0.428471,-1.001661,9.793531,0.001261,0.003744,-0.001774,-0.062012,0.433594,-0.587402,-0.258608,3.128068,9.277131,-0.003775,0.010046,0.003873,-0.643066,0.064697,-0.484619,-0.764056,3.688675,9.09844,-0.006889,0.024947,-0.004303,-0.386963,0.570801,0.731689,-0.202097,3.495894,9.224192,-0.000477,0.009844,0.010812,0.657471,0.032227,-0.012939,-0.44324,2.974541,9.3131,0.004354,0.020263,-0.006152,0.378174,-0.147217,-0.55127
0.43473,-1.001141,9.777915,-0.002265,-0.001669,-0.001475,-0.046631,0.434326,-0.586426,-0.263688,3.1414,9.319616,-0.015865,0.001617,0.004131,-0.627197,0.064453,-0.484619,-0.716285,3.717616,9.099309,0.000927,-0.016958,0.005274,-0.380127,0.578857,0.739258,-0.221069,3.470618,9.195328,-0.011451,-0.005606,0.009622,0.654541,0.025391,-0.016602,-0.529778,2.983942,9.352832,0.001663,-0.008167,-0.002786,0.384521,-0.138184,-0.543945
0.461562,-1.016883,9.836895,-0.013606,-0.002478,-0.001244,-0.053223,0.434326,-0.591064,-0.207318,3.107645,9.291876,-0.014576,0.004259,0.006396,-0.634033,0.063477,-0.491699,-0.6514,3.71842,9.081705,-0.013464,0.007676,-0.000898,-0.381104,0.570557,0.735107,-0.180481,3.466392,9.201089,-0.001706,0.006503,0.010174,0.658447,0.015625,-0.012939,-0.394191,2.961103,9.293362,-0.003451,-0.018527,0.00037,0.383301,-0.147949,-0.546387
0.444939,-1.043039,9.792728,0.010546,0.010459,0.00075,-0.055176,0.427246,-0.575928,-0.286856,3.144208,9.259231,0.010929,0.014251,0.003705,-0.635498,0.060303,-0.478516,-0.772028,3.688062,9.076375,0.002309,0.019726,0.000762,-0.377686,0.562988,0.736328,-0.251374,3.496446,9.216348,0.01015,0.014617,0.012778,0.655518,0.015869,-0.017578,-0.489739,2.962997,9.296049,0.002616,0.029014,-0.006173,0.388672,-0.154785,-0.541504
0.413029,-0.96399,9.722674,0.01474,0.005199,0.00233,-0.054199,0.430664,-0.577148,-0.269703,3.168116,9.30227,-0.016112,-0.003938,0.002262,-0.635254,0.060303,-0.478516,-0.742745,3.74291,9.107985,0.012353,-0.013094,0.001577,-0.380615,0.562988,0.732666,-0.189321,3.533498,9.218125,-0.011021,-0.025741,0.008503,0.652832,0.022705,-0.012939,-0.546214,2.976388,9.36824,0.008402,-0.013768,-0.001808,0.384521,-0.15332,-0.545654
0.436979,-0.978198,9.768467,-0.009238,-0.009972,-0.00154,-0.059082,0.423828,-0.587402,-0.188813,3.115116,9.281737,-0.024646,0.005741,0.005998,-0.640869,0.054932,-0.488525,-0.660516,3.78013,9.098226,-0.014055,0.005918,0.000778,-0.383057,0.566895,0.740234,-0.124353,3.455302,9.227437,-0.043677,0.018582,0.006524,0.654297,0.030273,-0.017578,-0.392171,3.034718,9.289613,0.004613,-0.023424,-0.004343,0.382812,-0.151611,-0.54248
