# sampling frequency: 40
# units are seconds/meters/radians/a.u.
seg1_acc_x,seg1_acc_y,seg1_acc_z,seg1_gyr_x,seg1_gyr_y,seg1_gyr_z,seg1_mag_x,seg1_mag_y,seg1_mag_z,seg2_acc_x,seg2_acc_y,seg2_acc_z,seg2_gyr_x,seg2_gyr_y,seg2_gyr_z,seg2_mag_x,seg2_mag_y,seg2_mag_z,seg3_acc_x,seg3_acc_y,seg3_acc_z,seg3_gyr_x,seg3_gyr_y,seg3_gyr_z,seg3_mag_x,seg3_mag_y,seg3_mag_z,seg4_acc_x,seg4_acc_y,seg4_acc_z,seg4_gyr_x,seg4_gyr_y,seg4_gyr_z,seg4_mag_x,seg4_mag_y,seg4_mag_z,seg5_acc_x,seg5_acc_y,seg5_acc_z,seg5_gyr_x,seg5_gyr_y,seg5_gyr_z,seg5_mag_x,seg5_mag_y,seg5_mag_z
0.7724682493737075,0.22760866727035484,9.676379118763895,0.03298268332665404,0.0016860453507669142,0.010720926016385655,-0.34729888695488004,0.10377579180512189,-0.577974438839748,0.06854298178092376,2.378756778792323,9.518900733837029,-0.008502781731056277,-0.003397764306852346,-0.00959849324368652,-0.8701793563737061,0.15193063773350532,-0.2745275929245232,-0.29471213063389085,-0.46599706365069804,9.710495027292849,-0.005038113080729267,0.0026179575778001504,0.002888996141676797,0.011055768000921782,0.19576380523241363,1.2222803315916668,0.27646196343827656,-0.4448579662720537,9.894122345275157,-0.003352781164306712,0.0037414185670352966,0.007934660583195332,0.535359360755739,0.18663489025942773,-0.42253642013329196,-0.3874565503722073,-0.6165820219998823,9.78167879156662,-0.0070962330649519045,0.0032205220342416178,-0.003514720488865016,-0.12954798651349775,-0.16243441643264353,-0.12981698695272956
0.7733420573791702,0.23588117094309569,9.752811312462324,-0.02969734632965749,-0.004162512481239849,0.011706518005790676,-0.3480435836195021,0.09843948586821606,-0.5819253332733471,0.0397032414434985,2.3282820278097343,9.521290751308829,-0.012958374135972476,-0.00427241539582264,-0.012960676581016023,-0.8684568663972736,0.15087201227018399,-0.2798787789061068,-0.3203219149979699,-0.49212945549103526,9.720577910140946,-0.005852528135507468,0.003762085863077549,0.0028243077703971153,0.01863892961182465,0.19328445288575863,1.2113127014956038,0.24663449389157827,-0.47719033187542736,9.893766473204654,-0.0043655021742236835,0.0038026777641961018,0.006286532715936252,0.540779266210786,0.1850733045160544,-0.43152391309987864,-0.4371127267765697,-0.6042293476447638,9.81675692970386,-0.007810545535621817,0.0049037654066881875,-0.0013906923714993007,-0.12145988753907995,-0.16489793790047097,-0.13709904867710235
0.7824720562775634,0.14270750517883418,9.76664806866329,-0.05179909165814291,0.0014587470655803717,0.011936240756200034,-0.3511941708830661,0.1030930974183274,-0.5816573175362372,0.06716694751538949,2.343226104286118,9.52458628814898,-0.008189322190293467,-0.004672626534911314,-0.013010109197420659,-0.8716465789688357,0.1547336211408655,-0.2816579651360143,-0.3190933682893747,-0.47639864894121847,9.711193778200428,-0.005162714888655494,0.00392044350468028,0.004122673489989849,0.013983607707150111,0.19086310244258903,1.214478613843604,0.24408200682730613,-0.449465638739985,9.89814817553734,-0.004928711401122987,0.0025158225238928883,0.006330315786176351,0.5400262609555151,0.1846080879174648,-0.4288396775286347,-0.413318009184607,-0.6074193543177653,9.775770723266268,-0.007255133813123225,0.004471134563198548,-0.002664131954586221,-0.12709636596886684,-0.16732082081099534,-0.1349361461567755
0.8019695928890264,0.03851920526949075,9.710304803900897,-0.03578462956403814,0.00480390228602188,0.013346767391054715,-0.35510090220954216,0.1091513899853865,-0.5733239756186962,0.08272020860198262,2.3340145308300437,9.52457822368256,-0.008277276584367875,-0.004295077498871581,-0.013552653895992558,-0.872154483938548,0.15609520258055445,-0.2731353987077114,-0.302129739856937,-0.49300183106118073,9.707459897391196,-0.004224342711216981,0.0030631524251241316,0.0033373947741680357,0.017197509851931102,0.20232744069516648,1.2166732644841984,0.2628167717125235,-0.4833490444904508,9.862154998413823,-0.002455142892300052,0.00450096158575975,0.0065214904110873,0.5386389644822621,0.19461970950027654,-0.43013582866869443,-0.41328488943242553,-0.628187124614107,9.795550022899986,-0.006175726048843142,0.003877262129856457,-0.002064818671462764,-0.12606785110721974,-0.15438412167427523,-0.13540336412021103
0.7611125754102358,0.03454722041054756,9.695776715657148,0.01164402031645189,0.0025712069988529235,0.009408505430678423,-0.3580860094562597,0.10446783955681076,-0.5655591573266443,0.05379772614696887,2.3233921432577236,9.519430642706721,-0.01063546585199752,-0.0036338871302606887,-0.010371168759379068,-0.8777838725999101,0.15644724159958026,-0.2650924476430578,-0.3175753714163863,-0.5002928862275495,9.713513449512943,-0.007026508645737749,0.003640210576401677,0.0035148714358886664,0.017180516620817095,0.20135539958848267,1.2227770326086453,0.2468070780529283,-0.4618512039944319,9.905322014756555,-0.003067281324546926,0.00509142437062998,0.006701585495555568,0.5417380052569081,0.19196821133387296,-0.4215526240951892,-0.41238938782637463,-0.5949036264389134,9.800035858172867,-0.0065208202965837195,0.0033132469196226148,-0.002621401821406453,-0.12392833845561362,-0.1583086720429855,-0.1275839276304713
0.7722836986492828,0.1272222961564495,9.705392161100255,0.03967312068355299,-0.0004716548135659418,0.007225322066529638,-0.3609229247799737,0.11239820761912082,-0.5786927506598631,0.0502543879102965,2.339026301757485,9.514037209927418,-0.01051345234861154,-0.004913047891401187,-0.007121085460115811,-0.8790249856917722,0.16454488925512892,-0.2769507841090127,-0.3139081060388696,-0.46770088750051275,9.69485588414048,-0.005507977040794309,0.0022499426197093294,0.0030862798197989587,0.015746669930413067,0.20379496217772203,1.212762928153348,0.23697483672819586,-0.4604843103605202,9.8879726649899,-0.002880497572557032,0.0031820347026600177,0.007159416169322776,0.540557912262903,0.1939022038108308,-0.4257243029688048,-0.4132731249293102,-0.5965870712036916,9.799895985170341,-0.006976418569485229,0.004255816441634348,-0.00330184499309953,-0.12732351257312505,-0.1573145130152635,-0.13101968337548275
0.7885999262489829,0.2037513518730672,9.730330048461408,0.02442632383701292,-0.004659880311491437,0.011418440011312795,-0.3472440893636842,0.1104076587353319,-0.5830494690114795,0.0667514977753187,2.3431522911138374,9.523820730098228,-0.010348320301583891,-0.0036000895296366764,-0.008017927557319723,-0.8687399334162829,0.15916650020364195,-0.28026220554116177,-0.29338993192866075,-0.505911080237398,9.693614220662225,-0.005163069336835953,0.002329121034876425,0.003734962680927417,0.018145236501817423,0.19304413649898058,1.2135088354048584,0.2464244512817989,-0.4890271729485046,9.879287477192749,-0.0031731740212446323,0.0038726175134429007,0.006015892720575517,0.54122790817344,0.18289716639337558,-0.42784446473628257,-0.4326755320577741,-0.635024980751652,9.794257324939032,-0.007419311352623892,0.0031828571613574186,-0.001906533069008253,-0.12342034879380881,-0.1636729752702103,-0.13491147554159996
0.8014867158489837,0.2045219843434784,9.781371961762154,-0.010911528209026529,0.0006949219723808186,0.010731747741906751,-0.34409261653697937,0.10865523146510929,-0.5796326139245435,0.06571280664518253,2.3527320610709186,9.497633878257933,-0.008972021858948595,-0.004756398786113133,-0.011042719698969545,-0.8680022343066593,0.15748579384299152,-0.27876762996497645,-0.30828499527201986,-0.4769100273073259,9.704606533109772,-0.005398327115257935,0.002940277146351455,0.0040279592425090755,0.02209988430353834,0.20376827422948426,1.2103346730426705,0.2563279930412666,-0.4513658518562076,9.889597775209847,-0.004349521634629288,0.003176231969307523,0.0062397642605342574,0.5457575056499884,0.1955145516037075,-0.4349781725488121,-0.39338048943289255,-0.5902209868811453,9.798521878768021,-0.007529819228363227,0.004688441901720758,-0.0020303942775629744,-0.12187989954879204,-0.1514657499859641,-0.1400157747083013
0.7686469226030732,0.15922887124377066,9.708563628610632,-0.03527028812701834,0.005119560299681158,0.01317626547148462,-0.3492188175209733,0.10699245198752158,-0.5821069863461107,0.07551238297112468,2.341958089694691,9.529509996004863,-0.00977412676525882,-0.004591898951634822,-0.014666311635671258,-0.8670092504516268,0.15477216716570855,-0.2806738165560484,-0.31807349138899105,-0.4884625843449616,9.703883749836434,-0.004679907690098229,0.0022906417765527105,0.0017450327399997103,0.014258339427050869,0.19794090831562303,1.213008461638652,0.23850009662369343,-0.46422171133321055,9.896586689033313,-0.0027158710148508683,0.003939672532658595,0.0052874233768545826,0.5366399235115518,0.19148348640761123,-0.4264661326444365,-0.3982546341471046,-0.6041437172071199,9.787050394183405,-0.008201012209785087,0.004085769901825325,-0.0009758078931296867,-0.12633930366501905,-0.15975555873586347,-0.13419111233025147
0.7639475238607162,0.08454793079637675,9.677016858722844,-0.030775833394750835,0.002504250834463089,0.011093455575997516,-0.36193726258336734,0.10435436408168897,-0.5797368071554238,0.06593447773232898,2.3454772663636914,9.522478255764423,-0.009312058148442163,-0.005316203750253292,-0.0112279323441952,-0.881161847680718,0.1525404910028744,-0.2787065262431166,-0.30742043207117664,-0.5093850672070209,9.711560765992337,-0.006213094885470657,0.0024940837651903423,0.0035765592566532906,0.023999014666901262,0.19522346545780772,1.219867734718671,0.2387430907397451,-0.4810759190873858,9.872025299540072,-0.004195699686822489,0.0025177277126187643,0.006789138406536513,0.5505174598447459,0.18896733834431595,-0.4231842433646998,-0.4279124591488829,-0.6013759666142495,9.783234819414178,-0.007023802059528515,0.004001841530408559,-0.002328388497235863,-0.11854588371151815,-0.15954596402732066,-0.1304855186549378
0.780349545702855,0.06532677602191574,9.685974440853432,-0.00013570738547979847,-0.0048046753916980295,0.011863284489800353,-0.3538813406002746,0.10213602703404054,-0.5824074596497321,0.07115566334963873,2.3388660419446254,9.538709888659186,-0.010344644558966432,-0.004260363484592322,-0.010894271381225938,-0.8733533825237296,0.1535424258819548,-0.27944352040196685,-0.3077192295482427,-0.4745137270435388,9.716419843195922,-0.0049151633074554744,0.0029017970767592012,0.0020370293042455516,0.0059095872699087715,0.18894504096153797,1.2188567330898008,0.2629345365160253,-0.46264913122733753,9.883819287263234,-0.0034926499139896505,0.003770497578733027,0.007339524343380603,0.5294493103508554,0.17836832976302455,-0.4234968053534201,-0.41707499124726566,-0.609431907389496,9.78588467199633,-0.006055911553376466,0.004912556537249186,-0.001851943175697278,-0.1361679897597732,-0.17314834546364052,-0.13206428104520193
0.765232768018288,0.1076621356091895,9.759281160150175,0.02901771858988257,0.0008221375749939708,0.010548487647343886,-0.35241153310939344,0.11180398944972446,-0.5708504770994002,0.06680634747806502,2.3407341452728323,9.523639290847406,-0.01013946279218414,-0.0038460388498989693,-0.009086615291239154,-0.8714622047835835,0.16323895562149948,-0.2695913882588568,-0.3120674053917375,-0.4905479597451033,9.708900434541905,-0.005868191075322976,0.002572262188260634,0.004225242920631238,0.01988168322510836,0.20036182297544083,1.213994652664127,0.2405811350401963,-0.47766011587233254,9.9037192344101,-0.002912473331687393,0.004430913293846395,0.007250979345897008,0.543477119542036,0.19118903574081123,-0.42690729615783135,-0.42418126768319286,-0.61558742179344,9.800906267372289,-0.007577206568984917,0.004433466998612732,-0.0010569389685046399,-0.11924902032538055,-0.15636546469584492,-0.1336587688664289
0.7880061155198094,0.1597675166614725,9.731856227643943,0.0214175586867458,0.005242565686753413,0.010624090263164894,-0.3541982753117234,0.09933769755522577,-0.5677820687654965,0.06454286955741706,2.3446982179018514,9.544961188673224,-0.00916357208802341,-0.003351898263406348,-0.009240301381414557,-0.8726032932568418,0.14640195173766204,-0.26857816453635497,-0.28212420923911447,-0.4822500013379581,9.713242423422457,-0.0050401199918809585,0.0026139621484693584,0.0028849950353183177,0.010845984049044263,0.20210914001289776,1.2178807187431184,0.24273718954842427,-0.4569613701764476,9.89375655161004,-0.003312035476718307,0.0039036961131384156,0.005421749962625292,0.535181963114509,0.1971405368093623,-0.4216297836875576,-0.40236259192954804,-0.6112042360514163,9.78644333775522,-0.007643587277160204,0.0036551324932898688,-0.0022502339862625963,-0.13146897825406556,-0.15412595088495673,-0.1298179746631411
0.7590294489201383,0.18815769039710106,9.690593545629412,-0.008993612456995266,0.0003581265554331001,0.011588719745669631,-0.35414015356443423,0.10186846673091063,-0.5792364559704891,0.06328913493195243,2.354277428597544,9.518801995147113,-0.010436594344015974,-0.003884783033897818,-0.011433789279062015,-0.8728735602600406,0.15502081284992103,-0.2787343860224477,-0.319311964839329,-0.4777854614986806,9.694188385571064,-0.0048055112208543645,0.0035921307921327876,0.0029777087296198514,0.018662283715576055,0.20158875404576862,1.2154560259856355,0.24163692640050177,-0.45787485948496104,9.893741343436078,-0.0037853263626772514,0.00446108038951591,0.006196000894633343,0.5391060914623574,0.19463725502823667,-0.42695873809099355,-0.4148097314109727,-0.6161396482086781,9.79343755912489,-0.006854590863892262,0.005293104283981262,-0.003089956007380033,-0.1238704233546427,-0.15488131010482553,-0.1356367413614558
0.7717870462512648,0.16166059927695065,9.748916635589625,-0.03140462654918574,-0.0021719636472467465,0.012150382389917481,-0.3487350651630574,0.11036182757172433,-0.5762194556388626,0.0740212327583376,2.3489495158574085,9.503215728240688,-0.009884717953229172,-0.003566930396847068,-0.012318326531195592,-0.8711797726106592,0.1577391120802138,-0.27731191117437726,-0.29957728935112293,-0.48845271053186756,9.702506709647414,-0.0067936066000913045,0.0014357373612541473,0.0028311613505229345,0.017654230177752746,0.19157966483915612,1.2117999578354288,0.22324412052505857,-0.4610637570913773,9.902195899609175,-0.00314322598896272,0.0026197529272572943,0.005924342493681149,0.5407779458043457,0.18581271000694757,-0.43055175273421675,-0.4177757379372403,-0.5950419976974474,9.786647561982615,-0.007532068314959463,0.0021495462266319736,-0.002128367195376766,-0.1243788644282333,-0.16415293519291646,-0.13857941818716568
0.7878837010900362,0.09705577760219376,9.727474342676453,-0.019967145047227006,0.0020721028914115866,0.009882726307573322,-0.3533688307780242,0.11063791326446439,-0.577211638039339,0.06864020034456589,2.345421610471758,9.53557850906607,-0.008379402597683175,-0.006001450824262073,-0.012098040424378839,-0.8753293653008993,0.15748347542646565,-0.2768264110133398,-0.2923366498714047,-0.47723276188543834,9.68638121178545,-0.005290031199667191,0.0020382914806211334,0.004579926500128032,0.019587360827610225,0.18864525560692036,1.2157125264735937,0.26279374117898746,-0.47765022247144895,9.890941535374532,-0.0031582069596965486,0.0032451852659514877,0.0059701241519231115,0.5446388630911154,0.18165099117590328,-0.4280578537635177,-0.4141937429175218,-0.6272163132463642,9.766645640383992,-0.007070183868339908,0.0037468639355989182,-0.0013559276219527105,-0.12195570441247562,-0.16587390077835032,-0.13637092843355902
0.7871427068486372,0.08354715654670987,9.70874487886369,0.00171681924963551,0.0034628848211006643,0.009584276987852112,-0.3558806333756079,0.10205644042797489,-0.5709405404745291,0.06593511299860581,2.324586627781709,9.513735867633404,-0.010485480181730233,-0.0044108215087253965,-0.00926875401425175,-0.8765467315556505,0.1534908139994441,-0.2669941644678668,-0.2997287077031531,-0.4824899228152878,9.69771253222791,-0.004210695774601654,0.004244978268417421,0.0019294617369659383,0.022820697078857626,0.20523675210060568,1.218148060252131,0.24480697324927864,-0.4871401856532222,9.876331287455645,-0.00366245974136163,0.005053441131014975,0.006835931785665462,0.5464453245967456,0.19752132731716032,-0.42619749960578673,-0.42376546623884537,-0.6163918444044733,9.798222596300468,-0.00706918389118072,0.0037468600784902437,-0.0013559220718341836,-0.11924994554972469,-0.15343904887208282,-0.13145832809912913
0.7544070576030927,0.12769831164987824,9.709680428717334,0.02025975821154479,0.0023929782240487214,0.011073212019507804,-0.3605069970179967,0.1035534742616165,-0.5719241293872945,0.060196066050428126,2.3497182528993186,9.505326332386165,-0.00716408244126078,-0.003917573388792196,-0.009723596120687355,-0.8789855441668534,0.1541547893940878,-0.27042779574142334,-0.3083193669021671,-0.4963807801623443,9.713658278955178,-0.006089141228302219,0.0027789193641809063,0.002724593780579138,0.014498116448109586,0.19794154305914893,1.2149619845019102,0.23762366670344623,-0.4614225490857253,9.893674357612072,-0.003770345391943422,0.0038356480508217176,0.00615021923639138,0.5381169335046773,0.18949470793028167,-0.4303494909395617,-0.414714034703736,-0.6015608686040977,9.79425509406683,-0.006007763962643938,0.002629625351231701,-0.002924353549302199,-0.12558169736306019,-0.15829041451959933,-0.13760325155906086
0.7739950885438106,0.16524708018064582,9.699782561690126,0.013364533218461235,-0.0007965652497203936,0.01114098903399443,-0.35753471661357145,0.10579805005669837,-0.5799521134242495,0.0620492043925564,2.335734982336733,9.532545418771612,-0.01023838910626652,-0.0034773903327018946,-0.009620027753739302,-0.8785001942692134,0.1569711985837069,-0.2773111347388497,-0.31577896414416234,-0.491025717259125,9.703661787256097,-0.005275724002543252,0.0016347941597002588,0.00278827999031642,0.02378520404647374,0.19741327696034147,1.2098554694604011,0.24696613132993317,-0.4903058879238268,9.884957708469983,-0.004961660452254074,0.003765688209280972,0.006418865933092866,0.5435079738291906,0.18796208083586746,-0.4349431741468518,-0.4203683156800329,-0.6114862871279669,9.796033147993773,-0.007590159044519925,0.003912091229952677,-0.0032296535243613567,-0.12115724006065022,-0.15951995591283868,-0.14392721001413172
0.7906428939247181,0.1677177353652638,9.759271975512739,-0.00906298015759407,-0.0011592904936845888,0.010915533574420844,-0.3541155508634504,0.10747365997684095,-0.5779724036049277,0.06569513511816731,2.341093057241408,9.522036219018066,-0.008906009457366403,-0.005150815998207886,-0.010485926716218544,-0.8741077162225647,0.1567850457078995,-0.2751034541196168,-0.2949264822745911,-0.49300595422541704,9.707366467193221,-0.004930475264582399,0.0033012942650154533,0.0038236768745694505,0.0184063542925593,0.1998826983340334,1.2178988634830736,0.24439579954417537,-0.4623637174823305,9.889391862564,-0.002563056361253334,0.0032791686879720533,0.005835804040992334,0.5439333994327205,0.18802146284621096,-0.42541835840938436,-0.4034340167513467,-0.6152716605007906,9.783508598891222,-0.007295470879337626,0.004219140793825924,-0.0016976341215381627,-0.12072682042904503,-0.15758251027578246,-0.13220437245899258
0.7823077763751327,0.14227242156624506,9.736716859660586,-0.01974776076930249,0.0037084884680824107,0.011224462788057934,-0.3483151958846905,0.0971777543311024,-0.5765650834372245,0.08054761906363542,2.3574883721999416,9.505037761762772,-0.009506940602775533,-0.004570977316070966,-0.012299885883668297,-0.8677242591540251,0.14993953964019177,-0.2774206057182587,-0.3000736602568476,-0.4813491521029755,9.709443892546206,-0.005745239140984446,0.0028561008759511453,0.003372276085864175,0.014461902452645692,0.19257632928846954,1.2220462777441077,0.2481771258936108,-0.4738445416447419,9.89657267815771,-0.0032041567807293866,0.005120489238933064,0.0061074690566941545,0.5370663035320073,0.18564229911411598,-0.42325069611412436,-0.41853244396177447,-0.6031803770250496,9.80706120300798,-0.007295470879337626,0.004219140793825924,-0.0016976341215381627,-0.1251772043631169,-0.16660304205789053,-0.12833254301965352
0.7732946507607403,0.10518157081318694,9.695390121099773,-0.013714883616128699,0.0034985640623017445,0.011517664081662363,-0.36022389271632455,0.10773643006028485,-0.5762854128842437,0.07176640244219967,2.335199631052484,9.515028943810409,-0.009812722800914702,-0.00395638666093006,-0.0117656073290597,-0.8816891790393456,0.1585025550166156,-0.272459356857366,-0.3154998996448733,-0.4885523005732424,9.715474415198397,-0.004805518580156914,0.0035891291933052966,0.002975711143496684,0.022301440478672628,0.1981600938410262,1.2198616837406164,0.2605348752121025,-0.48430867264760014,9.899519950309434,-0.003509638133171224,0.004393937240727043,0.007384305905008434,0.5483254038336142,0.19168027817964678,-0.42126343991459453,-0.41960729657813767,-0.6049100718810585,9.806909214330132,-0.006622264687789473,0.00482380622867554,-0.002753207016017439,-0.11684599985147216,-0.15979826116665236,-0.1290113466785931
0.7808508231674093,0.0932419440368999,9.70640387218665,-0.00010248465911791174,0.001010583034704672,0.010949932594523704,-0.3465783005879474,0.09867384193005843,-0.581673698868474,0.06781054346417034,2.351147060993968,9.509646585404711,-0.008836844711660038,-0.0034592632761269535,-0.011920343540705753,-0.8659999491186988,0.14793368227515383,-0.2810466814390892,-0.2931163372238973,-0.498985116955993,9.683617166468007,-0.006795607456367586,0.0014327411127516203,0.002826159443979148,0.01204005112859253,0.19844716996505085,1.2237452856647428,0.2353518239949318,-0.44433543753365573,9.883671387727338,-0.0020128556296044797,0.005188449171676589,0.005838835449582225,0.5341350126499059,0.19033412720097098,-0.41817365406506585,-0.4080549919625358,-0.6072282004948294,9.786372351015634,-0.0074102444599449,0.0031858340770966505,-0.0019164793964626021,-0.12955203435074517,-0.15926385567570076,-0.12688426720792811
0.7849741419071525,0.12424916261836476,9.739452319539163,0.011233239504269297,-0.0005425820043432038,0.011802583785268656,-0.3485708447465708,0.10005536216165488,-0.5697072886872365,0.05170901841234968,2.339346084537551,9.52476977546768,-0.010496442591347658,-0.004421721724224717,-0.009259588269467602,-0.868474031163242,0.14988424418374707,-0.26594429231426475,-0.2992315239382402,-0.4958028971437957,9.690322387382754,-0.0034125969891638194,0.003500352685998643,0.0037827955090345713,0.017414882859042923,0.19426777235030268,1.2144832669621497,0.2358589864136478,-0.47406662748537975,9.879193468865235,-0.004351522313862073,0.0031742327021091737,0.006237764207215689,0.5400041904622178,0.1856140020138658,-0.42445226203383746,-0.41523202722441466,-0.6040275724301252,9.791456297006809,-0.007754323770645668,0.0026228173324504885,-0.002475055777269849,-0.12561937928531827,-0.16244493407626115,-0.13370123972847273
0.7808012647193104,0.16016379214781573,9.72975478630965,0.009449239624641484,0.0012827661839723407,0.009393741237300626,-0.3589949317773712,0.10943699907454559,-0.5760222265657104,0.05320246768651809,2.353705321129197,9.511337869282384,-0.00939370386584751,-0.0037820720790114407,-0.011031730937161385,-0.8770550926292603,0.16043247850464026,-0.27516941100336273,-0.3018080069868485,-0.47776334518893654,9.704493222268821,-0.005730928050049834,0.002453603547127075,0.0015806287732030731,0.019610601776902402,0.19597117884168774,1.2181486398979997,0.2476140449813281,-0.465443321570404,9.885101114264815,-0.0038782314279031276,0.0026168484257316797,0.005463513275207638,0.5417309386623677,0.18607568902829982,-0.4266410561662269,-0.4146404960421793,-0.6190008508674723,9.787984076867168,-0.0056039775043086595,0.005990485724587467,-0.0032511991502699837,-0.12390049146041561,-0.15952183401935477,-0.13344428116621898
0.7764313489084678,0.17330815758871843,9.727223386704265,-0.006280758445751562,0.001892403250284795,0.011407448850835666,-0.35848479408589157,0.11092805457247783,-0.5796716718712079,0.08210162168973635,2.3461169391266035,9.507837157000434,-0.01006878252036367,-0.00489874228478919,-0.011407197928713137,-0.875583003842107,0.15967080297521125,-0.27735153450825567,-0.30503784291794966,-0.48524759378225846,9.692329281712755,-0.005057439288478373,0.0030104655220287006,0.0046696406911058835,0.019391019383364218,0.20549880647376007,1.2239994514893109,0.24205685600882157,-0.4687305087541118,9.897983829861424,-0.004288599668504558,0.0062673360249827425,0.0070628281894193155,0.5459263916544095,0.2005050580261227,-0.4184072355757456,-0.4102954959378328,-0.6219459585493725,9.795864906508472,-0.007131529216306903,0.0029705159555324517,-0.002554192434975911,-0.11973739248865348,-0.1497780410889307,-0.12901572979129614
0.7882002763546002,0.1359778774899663,9.721996266606507,-0.01833187693612616,0.0001619908853088734,0.011596290525500074,-0.3499765939322109,0.10936070254383633,-0.5723250527329088,0.060681191006352955,2.335812176982145,9.531034653944817,-0.008507789852564993,-0.0029063591341727917,-0.011726032168120746,-0.8665667559694289,0.16127689695624084,-0.2715037202650935,-0.30581375335027927,-0.48655765563719194,9.692238667490635,-0.005965187571133782,0.0030637549631714707,0.0018726283045049869,0.023264960423420206,0.1927821680071842,1.2159611185198096,0.2446646010918644,-0.45787394283763694,9.886555915743656,-0.003617530738345888,0.0031751442061351744,0.006698599900529131,0.547821498453171,0.18358778985684715,-0.42731767876955495,-0.42467682495174053,-0.6040258900116025,9.796246913570402,-0.007570152886432214,0.0044344504793977805,-0.001065898785913,-0.11732708904368233,-0.16442993222426597,-0.13365749157551607
0.7760008445459653,0.11394670041538488,9.72277552539209,-0.01069110548542269,0.0023214828872078564,0.01205041047865034,-0.3494644498551869,0.10795630765389524,-0.5803913406919068,0.06674290567822497,2.3460498588242875,9.533201519592678,-0.009735732270293493,-0.004343869557489799,-0.011215913356863954,-0.868494209403822,0.15775604319896347,-0.2770637265670784,-0.31991357899697703,-0.48544061946200195,9.693640294372525,-0.006325748694540358,0.0017977536607464112,0.0026258781823980015,0.01598812255449479,0.20110506287638452,1.209103622429719,0.24032007386946536,-0.4804300123380053,9.896448459648456,-0.00451933184737918,0.00445816897669269,0.0057351782909094585,0.5405972515387399,0.1918961998170879,-0.4337671721955463,-0.4132201326203926,-0.606517639133488,9.775699316651579,-0.008140526444013705,0.004344712111155418,-0.0019641860618314745,-0.12555206492246493,-0.1565765919535617,-0.14175115646763872
0.7915763691235567,0.10212073925952327,9.71880527264536,0.0021786329585610277,0.0008425306218016759,0.010961628783314917,-0.3527009530839234,0.10350082292314626,-0.5704286445375298,0.06287065418111284,2.3085364753712305,9.525306234211707,-0.009135788497309902,-0.004926695820115227,-0.009400905638739236,-0.8726379776710617,0.15442092052845596,-0.27091084315195635,-0.317621930185006,-0.4973638585051102,9.674680869211317,-0.004932484336798827,0.0032972996469532007,0.0038206757655467895,0.006185323302436482,0.1972456164609537,1.219583596913956,0.23912427794099106,-0.47820697823793357,9.874846018015914,-0.004258638112414813,0.005015464802697575,0.006970271461025731,0.5322298352535662,0.19349573774053044,-0.4221131767372462,-0.42011836171174755,-0.612961923538424,9.790692730669456,-0.007407222309862899,0.0031858271673988643,-0.0019204626816818574,-0.13589357984485465,-0.15997066250068978,-0.12838434015891706
0.77164724530323,0.13789356296283695,9.739075532930954,0.009018989494987103,0.0003502711629398559,0.011011799289931005,-0.3600321966104806,0.10376620609492021,-0.5682584461303666,0.0656550960823733,2.350582646679361,9.53136755515898,-0.010380552224430394,-0.004288112729331713,-0.010868862347845632,-0.8814251696105764,0.15179551427493462,-0.26477651255912893,-0.30773533029242445,-0.490440409598729,9.691982664112562,-0.004102750841699492,0.0017536717396139311,0.0020957165744951186,0.021096598504496005,0.19864749431377696,1.2132666670161172,0.24489131678073042,-0.4525801034773536,9.89666695381222,-0.004076016426695726,0.005150656013803143,0.005053497176884551,0.5452127389990389,0.1896752854920149,-0.432501160321783,-0.40517224195192747,-0.6091780838174027,9.804713386684448,-0.006558131362137716,0.003062246232434442,-0.001658886086772317,-0.12095226301949982,-0.16050528595490457,-0.13758011752065066
0.7873981382248438,0.16539067957274972,9.733800947799145,0.005484107201008668,0.0012487630277944635,0.01063885755653578,-0.3526980963943656,0.10495620113962259,-0.5691971856115681,0.05329531664530347,2.3494447383816026,9.511673420652153,-0.007824871147548164,-0.0038717240920207066,-0.009366404116817441,-0.873130952755556,0.15469116510224987,-0.26920694132485395,-0.3072208281277498,-0.4828941098838274,9.687303641443732,-0.004227364331057742,0.003053157690203648,0.0033293963313566393,0.016659659974435647,0.1893902443329535,1.2164385970709908,0.2441610009720937,-0.46302933118976897,9.895164956796995,-0.002180516822990443,0.004425832303577779,0.0077108411217754365,0.5382441415959245,0.18198972289961657,-0.42053376871493586,-0.41664208798803476,-0.592614294249012,9.755430185479149,-0.006734017822387453,0.0037914914287236583,-0.002975034405462092,-0.12736142131132364,-0.1661042947462081,-0.13029812599736174
0.770879863431126,0.16432806477043796,9.719046796768971,-0.008193119816979658,0.0030090425576672,0.011971662146534326,-0.353940789308865,0.10080989743639289,-0.5689895659573043,0.06425072123168574,2.3554676685443496,9.529455158323241,-0.009406671005323422,-0.0037919820105384756,-0.011022585088324797,-0.8714045128508221,0.15126959769251588,-0.2698788867958472,-0.29729713674597286,-0.47620681106711577,9.704600708070629,-0.006671649905388475,0.001718576703838989,0.001974193165055507,0.016942203593410796,0.19793124602634637,1.213990272097292,0.25693898509002583,-0.4668765479580077,9.854953512219362,-0.005071533258260819,0.0025468892257898062,0.005730146829001,0.5410461755980259,0.19045685255885192,-0.4293605463140806,-0.41713765069671255,-0.6194904726148377,9.798291801454868,-0.007632505470282214,0.003659104017508107,-0.002262167994461976,-0.12557804330161,-0.15804484778980654,-0.13809095293188423
0.7826440613015117,0.12703298179592942,9.71379793285466,-0.01597416695533445,-0.00140559075268442,0.011616326860030633,-0.3538391218980918,0.11019266792375397,-0.5823441812538636,0.06731887998551583,2.3577682963420394,9.542746577043522,-0.011148582302007454,-0.005029190519918473,-0.011782848949627093,-0.8748352289832916,0.15788787491336317,-0.28196009461818133,-0.30710146104565283,-0.4877413441035857,9.703830875843911,-0.003413610393425749,0.0034963557984081773,0.003781796558890128,0.0181635071763628,0.19719331109135588,1.2125285061823832,0.2474286933726225,-0.4853251041168033,9.900813607782995,-0.0025001615342673104,0.006368272193251182,0.006660894202375077,0.5447266916259058,0.18893865149849604,-0.43372055128068954,-0.4088010486425867,-0.6106003554706089,9.81754877913448,-0.005935336807798951,0.0034099448555164054,-0.001738022744478379,-0.12143399339156893,-0.16098969240306135,-0.13904838154377808
0.7786365450146142,0.10020775215032494,9.712528924316143,-0.009221929662819206,0.0016630257187245495,0.010870011580162918,-0.3555940059439997,0.10817800565176416,-0.5733335488168345,0.06337288779368458,2.3199810479438794,9.534882760723328,-0.010051492610140073,-0.0037362084357058824,-0.010674534220904426,-0.8750853683919871,0.15748464227790324,-0.27682602773919374,-0.30249911863514706,-0.49328682863129825,9.696955302363152,-0.006326405061238297,0.003384076817057379,0.003009590852158027,0.018382481962417006,0.19402314054580708,1.218391566880961,0.24945197349481996,-0.4679070031442283,9.912483610441791,-0.003160228117330037,0.003241192680454089,0.00596913714489854,0.544390250471262,0.18632847163489508,-0.42247507216999286,-0.4252504935037113,-0.6023436922005768,9.770147267118446,-0.00818791593114109,0.004087738389689978,-0.000991733110277516,-0.12075189560178902,-0.16514959576258162,-0.13294534241194964
0.7781588471247741,0.11546551241459801,9.718439781398159,0.0059197254009034014,0.0029359933889406453,0.010455787918564333,-0.36265847810585317,0.10897215830218271,-0.5765293610206773,0.05738275638586593,2.3448605041319683,9.52665605989602,-0.009749699397101012,-0.004353784271194858,-0.011206769078823047,-0.8838857484410271,0.1584879623829191,-0.27270677334557686,-0.31119405774441644,-0.4965043267336508,9.691563107926056,-0.005638948403799455,0.001951120584255375,0.003921241431610981,0.018180502997273848,0.19938712491312133,1.2086207527283506,0.239992673023686,-0.4665839294030988,9.895099997915265,-0.0038802317217579985,0.0026158557034301113,0.0054625066337987286,0.5418329172804149,0.19261107261707336,-0.4352288294928262,-0.3985485480914309,-0.6050134968161732,9.786969746647758,-0.0059857373357061205,0.0031529803745628704,-0.0007635864754925825,-0.12287401087804936,-0.15731979542611665,-0.1410051349307032
0.7737300197896841,0.1293931436857636,9.715918284895999,0.0036502122237807083,0.0009478007052226435,0.011219277140018484,-0.3553573340144942,0.10550422620216973,-0.5750626245389214,0.06501694959473721,2.332140370714599,9.522030026401332,-0.009291434293732184,-0.003003067209122905,-0.009754427000226523,-0.8753205741257363,0.15507046587541576,-0.27507673886639883,-0.3142337202960724,-0.5147183110326768,9.700685339754225,-0.003992769402527907,0.0040283271688452025,0.0034231124315424596,0.02060459396472722,0.19816218929649249,1.2142420000736138,0.2580785501928665,-0.4941617088986606,9.882151998644511,-0.003327044265823625,0.00452512863423817,0.005467557800046372,0.5434806074155684,0.19192261044214715,-0.4266680975117271,-0.4320537479835149,-0.6294748686331307,9.804822417036918,-0.007236003458751464,0.004479082190518692,-0.002682016717978308,-0.12317152668972213,-0.15855008714245356,-0.1322190798071271
0.7936595729460564,0.1489011716388315,9.745000950804913,0.0002617816862428134,0.0011804382211357256,0.010089669120185746,-0.3609742162764932,0.10698155237544078,-0.5728761591189778,0.05895049559959396,2.3570865035351796,9.513805083226892,-0.009967508180384683,-0.004120742045407007,-0.01012987880821776,-0.8772966049328362,0.1587798109935538,-0.27172364506455887,-0.2999744632959928,-0.47367739304756784,9.69958485679423,-0.005169090070291028,0.0023171347468840483,0.00372295936185198,0.01644270327372498,0.19647133599178268,1.2166763841801385,0.24563646817021423,-0.44787547664916605,9.893854721280183,-0.002579065104597132,0.003900608120369413,0.0058816052636637885,0.5422374013481867,0.18826599996570723,-0.42714018595430453,-0.41225724248029333,-0.6020310264262348,9.783886025758003,-0.007403186926813796,0.003187817549763936,-0.0019254380270656288,-0.12318208525061299,-0.1626989160164457,-0.1331999893295201
0.7729572803665906,0.16557795266148917,9.714753629507376,-0.003643939646352256,0.00405645070688922,0.00978175508364016,-0.3531715195718906,0.10136386326387584,-0.5777715254159761,0.05132137712187376,2.3512886628382716,9.509825020977857,-0.010911485087672743,-0.0040987229772876535,-0.012129088841992606,-0.8755478700859336,0.1518804187771895,-0.27600082222712774,-0.30735860648152685,-0.47896760107850483,9.710896221097661,-0.0044626294687822735,0.003661312202851187,0.0036203953068151317,0.02032426491177252,0.19059677374605444,1.2174215403188788,0.2418277720638855,-0.4797145548084621,9.902240899607397,-0.002701925156697794,0.0033082407883721784,0.005240674415927231,0.5446411245904181,0.18336956832294668,-0.426604102245795,-0.41542921961475365,-0.5964660660801359,9.810258316735558,-0.007183584166066896,0.004738041271833469,-0.0036584394809038023,-0.12123634049417792,-0.16563557092126546,-0.13392561548175239
0.7720276620186199,0.120677015713365,9.684298067373216,-0.011865266010960478,0.0016524008011376498,0.011694516923821422,-0.3578518514874711,0.09985645319988037,-0.5692574964015222,0.06651527370533314,2.3387456330320378,9.533557515745391,-0.009756683785844647,-0.0043587332547101315,-0.01120169701060157,-0.8782408290155458,0.15124099291213078,-0.26964565930502127,-0.3062404902485583,-0.49926064744893295,9.69653206226057,-0.005496667244009489,0.0018404472871810318,0.0012826316664347212,0.014030391471479485,0.19989267372179598,1.2091003752106393,0.2537513292195614,-0.46439732622154967,9.865028668725984,-0.005531836512747932,0.002478848395570148,0.006457602916563397,0.5378934540153851,0.19119566818560027,-0.4318272331794981,-0.4237055652796559,-0.6222282044820767,9.787337951982913,-0.008191152181521591,0.0015478500760488089,-0.0010927127166962948,-0.12949184254113782,-0.1587636251938627,-0.13738151896308273
0.7923508277112563,0.13246873667944048,9.726355344399764,-0.008113909427736838,-0.0021032187242694617,0.00988584952325118,-0.35829654066453215,0.10356866807797781,-0.5753334086157199,0.07582227712159806,2.3562752588025635,9.524826079336933,-0.011983932023270699,-0.0035738941351682184,-0.009631294563673008,-0.8787346952863005,0.15408644079964215,-0.27457782469418535,-0.3033200074194735,-0.4857749648535638,9.703940452840309,-0.0048238512810162585,0.003981635679274172,0.004759357849139808,0.009593800603333744,0.19968042432927954,1.2283780110009548,0.26155141676744004,-0.46766625765931,9.88236520365949,-0.002441237990948387,0.0038655432048752335,0.006476767542747941,0.5307110399909928,0.19110197975174073,-0.4164921346059782,-0.40350745872625376,-0.6044707581596163,9.776319662607408,-0.007279145609036945,0.0067619952563998656,-0.0016105785776744615,-0.13004084217919576,-0.15560313341727813,-0.12419667284613645
0.7844267846696293,0.11148006640717542,9.748415479305892,0.002914060033271913,0.0027345976774886794,0.012128400086769929,-0.3546350125168515,0.10620656145505188,-0.5716361374389017,0.07218185622454967,2.329341400099533,9.550403744477785,-0.008850945002971844,-0.0055581833624821445,-0.00992293405517715,-0.8738664473699996,0.15727922458047092,-0.2748672982755519,-0.30543828866096934,-0.4954091709535472,9.708451703044517,-0.004463635085422856,0.0036593152994543296,0.00361939475097171,0.015484927242428798,0.19964553849638875,1.2134977307649912,0.2338025723559288,-0.46233963200265216,9.896483421675217,-0.004826827402861633,0.00372862434738788,0.007011021587404387,0.5415442093571815,0.19314900552880804,-0.42790995444829,-0.4233280645194119,-0.6101634369517099,9.811669501124186,-0.005827477776420518,0.003928854934923351,-0.003693850384849581,-0.12462000389695455,-0.15707717233078267,-0.13417844060536938
0.7838643029212488,0.14233928926333977,9.715450714480456,0.0040134535139340665,0.0011195905746685982,0.010368025117475532,-0.35216169555950433,0.11108694810957843,-0.5730531915418977,0.07664672541890993,2.3518537132210247,9.525912640276522,-0.007773702205991359,-0.002185055730691745,-0.010788767143021311,-0.872663774850258,0.1604902886209456,-0.27296581844704243,-0.29602148844584375,-0.47791589837156284,9.70446785100399,-0.007016203608955915,0.0032267151112087573,0.0017062243430367144,0.015925612643294607,0.18939349311585865,1.2169250094074446,0.25451302974123136,-0.4621770605201886,9.89672741225835,-0.0025930665994931866,0.004524040229466951,0.0059284065829493734,0.5409561799815215,0.18169721858892687,-0.4249082143967653,-0.4160796524243289,-0.6301961360194743,9.802928276486856,-0.007627464555422812,0.0036610917081715635,-0.00226813777362093,-0.12855914003007435,-0.16780231194194456,-0.13567784443550857
0.787904077822485,0.14510220161019635,9.723859640637281,-0.0031825109244459394,-0.0007121483611311571,0.011942307897869677,-0.3465621886371232,0.10885279730149536,-0.5720715320322158,0.054945057150495344,2.3306551748681996,9.515579359622661,-0.01015841591520376,-0.0033695308858916204,-0.011203926307449425,-0.8665633184412245,0.16031230370520144,-0.27075545490878666,-0.29809975037911235,-0.48807328489789914,9.708953612064425,-0.006435705308513225,0.004281060735489195,0.002450625463229211,0.020129361098015764,0.19791394143921967,1.207894157548491,0.24943607694254702,-0.4714568777074958,9.886535778029724,-0.0033410322369118476,0.005149554107236148,0.005513352617832742,0.5454731463703804,0.1906408995030219,-0.4339708771593738,-0.4239645126504856,-0.6173419524964036,9.798110381597054,-0.007057094848419727,0.0037498300845316894,-0.0013698516845077886,-0.1218992256705254,-0.15683642202613435,-0.14026614510981117
0.7880508542130213,0.13393430743716886,9.749786738111375,-0.007968113543785274,0.0009297195646454139,0.011214234217478303,-0.3550932053559436,0.10989200250403912,-0.5742941811926131,0.05620651765586812,2.35593949975275,9.535722865810161,-0.009092589666242523,-0.0032479807694645564,-0.010818147904448714,-0.8768196251149277,0.1621464723377755,-0.2749536954738607,-0.30958020681660403,-0.4973797074424993,9.691451305433352,-0.00493449687450713,0.00329130342216026,0.003815676267551471,0.018893817831197864,0.1986582234372481,1.215946905100925,0.24299097200656833,-0.45198739946879424,9.880846878885167,-0.003895226601677572,0.003239288133327085,0.00550830138163025,0.5420227547601777,0.189467712401834,-0.43032365372752196,-0.42155951422230165,-0.5975156620716577,9.799466868071024,-0.006778377458276033,0.003536510781324905,-0.002006562365516722,-0.12511686826513044,-0.1590285585670801,-0.13393947082396132
0.7874450256281509,0.14155574676480615,9.723949050438115,-0.0063532206862415876,0.0032981069542745178,0.011374172428360581,-0.35999707523497443,0.10117885676519753,-0.5807300545244338,0.06893433221991535,2.3420244270266033,9.522921093844948,-0.008756545663208565,-0.0026911274923234504,-0.010628891845728987,-0.8814038098146162,0.15157881230679934,-0.2777146802816514,-0.2921502459803516,-0.4779313445648732,9.69279419843984,-0.005152430177564628,0.0035039513082711035,0.002318028795029637,0.01767199775460091,0.20184190254738754,1.2220456980982388,0.25613299252535043,-0.4722502837004548,9.882288816573913,-0.0037723735041697835,0.003830655510925709,0.006149238774161585,0.5427299053996498,0.19587955090415127,-0.41986281260487346,-0.40929198414517604,-0.6093444057703866,9.788859053766625,-0.007120443558850509,0.002975487471632927,-0.002566125256369958,-0.12537023502435482,-0.1551267711045723,-0.12954126017839904
0.7708704678263465,0.13506637749363393,9.722157667135466,-0.0023126623517876863,0.0019045482382567297,0.010142172245371157,-0.35755585242975607,0.10285770498857313,-0.578510173703725,0.05697513927843839,2.354686060380939,9.513047914772894,-0.009465867051164855,-0.004983260152408628,-0.011727832716366989,-0.8770244589583974,0.15431404265584178,-0.27604402082628215,-0.3062048920788023,-0.487549490244992,9.715468688747748,-0.0057492503739042956,0.0028471075913871387,0.0033612746839892533,0.01764802523721483,0.19744951224827556,1.2252232181656306,0.2507689731936412,-0.475378871054507,9.895161755468243,-0.003024408252129035,0.003204135088259732,0.006563299327368559,0.5409778705902296,0.19224622483723783,-0.4171652598772947,-0.42162538715919606,-0.6141402129627614,9.79581806903226,-0.005708685476717469,0.004964148537796521,-0.0034769805036277855,-0.1259025413201654,-0.16074439147716185,-0.12564470100947747
0.7705607220524028,0.13956673143391196,9.709230198010857,0.0015145178545254987,0.00043411441775461024,0.010436785632589235,-0.3568220271003727,0.10720366228617217,-0.5728580143328827,0.0473279018841886,2.3582501564066907,9.506090318336033,-0.008916634779976751,-0.004012110969848019,-0.009734907434903226,-0.8765657295483318,0.159259962068006,-0.2724635843310043,-0.3181501468941349,-0.4690440782822843,9.707687840690673,-0.004229376868766045,0.003047161465410708,0.003324396833361322,0.023773919570540463,0.19912899779392304,1.2181550752752464,0.2396407457775957,-0.44848426664414653,9.903868779884599,-0.003895220032462612,0.0032392815428289147,0.005507301424925813,0.5456739249717645,0.19092825466515728,-0.42713515605885927,-0.40668723382481803,-0.5948570313858873,9.776821212049278,-0.008640711266477214,0.002493402258090502,-0.0017781189467307563,-0.11901755547448127,-0.1585652410654847,-0.13292803502543588
0.7906051576122359,0.13162788853429475,9.71361737096196,-0.0012032243047908116,-0.0010929874044168738,0.010599092687874123,-0.3556035510543812,0.10453528967812732,-0.5758032156417886,0.062149545934844945,2.3318367631113843,9.520005090927173,-0.012460134217766067,-0.004941510484606621,-0.011072381650113856,-0.8745897436666465,0.15531792942184136,-0.27507967710687303,-0.31033080747134245,-0.4961413475751636,9.703193709978251,-0.006202449243005123,0.003668911604779404,0.0021566253787480573,0.01914139767792621,0.1976775085788727,1.2125302266574574,0.2531907590029877,-0.4781402042427046,9.903815237918527,-0.0017232617279909612,0.004487900731796764,0.006984404415437274,0.5442185218800979,0.19068312768151616,-0.42885217574501844,-0.41292218098305283,-0.6108636762752822,9.801697325498102,-0.005928286533391662,0.0034129259892518088,-0.0017449802204886546,-0.12389797682653649,-0.15781370097057973,-0.13271026470570949
0.7828231942632723,0.13138015454765722,9.728578261587428,-0.0034079203513629488,0.0005915627041546532,0.011245602760449058,-0.35262525059456273,0.10993268406707515,-0.5811203749567988,0.05880038186136549,2.3612946231725975,9.524619894782475,-0.008369780647988576,-0.0036902493570250433,-0.010617519841635904,-0.8706970540242931,0.1605933183442336,-0.281998576446061,-0.2955820321116065,-0.4829453043493916,9.692441848856955,-0.004572939654827259,0.004556300840423225,0.0030624293567145296,0.02375299900106913,0.1913134940084583,1.213766358844539,0.2516087253741442,-0.46594902355145934,9.883741630147364,-0.0046571798248065425,0.00449023402899104,0.005140035646209644,0.5456328014979042,0.18408612747954795,-0.42806737354198376,-0.412619372931259,-0.6162079732414345,9.788289563260454,-0.007623433022952111,0.0036620820986543986,-0.0022731143058100345,-0.12170086175201716,-0.1658725658728804,-0.13832254274905217
0.7943284362991069,0.13262897278145913,9.722078247993922,-0.0038577472942094063,0.003204900964611191,0.009862243133337074,-0.3543680173991833,0.11132339387802397,-0.5706179623251012,0.05570409896469476,2.3407630492503246,9.502611503053455,-0.009194536613780564,-0.002875330458813718,-0.011350632238358652,-0.8746086089403214,0.15783314392741438,-0.2707272134261051,-0.30070582070306306,-0.4822065716969355,9.71582823901316,-0.005984515511628826,0.0034552621040346778,0.0036522736594477453,0.009349625714694115,0.1928361320382459,1.2156870020710606,0.2412631450158642,-0.45834144068062904,9.889438776706282,-0.0024422588089654837,0.0038625502529770093,0.006476780562382652,0.5358681926825128,0.1824318299018143,-0.4300737035763207,-0.4167546346914338,-0.5914406961943917,9.79490156377844,-0.007054068847759322,0.00375082316671614,-0.0013738337829217108,-0.1297921015067029,-0.16633631330678228,-0.13250893358178417
0.7778213668209716,0.14697278217705612,9.713207049018202,-0.003633335101272732,0.0018972423475547779,0.010552913176772769,-0.35585041557433433,0.10235780763868134,-0.578263342239482,0.05602677072584801,2.349295806985368,9.536687965521992,-0.00935062247986282,-0.004196328300975211,-0.01045864126115427,-0.8748138655299027,0.1518634883886024,-0.27721949965518994,-0.3201763585181692,-0.49318816831916606,9.693004010136436,-0.004826867702619207,0.0039746433544497195,0.004754356989787395,0.009851389643628729,0.19380685434036254,1.2115372878433344,0.254386179927923,-0.47860320023373465,9.890879582213287,-0.005088507953634559,0.0031713222516842605,0.005773921889129615,0.5312840755931124,0.1885553430334529,-0.4318532516755071,-0.42254377745438504,-0.6014285142494906,9.796610794765872,-0.007053063315949026,0.0037508204750145244,-0.001374828216696893,-0.13192799544419934,-0.15997320839913554,-0.13910548836606726
0.7815833890268691,0.11698386362297185,9.709879875010303,-0.003997465630443475,-0.0012094899931091153,0.010744146336028382,-0.34760443112297645,0.09713182404279225,-0.5711914283624991,0.07493382642131494,2.347529196698146,9.525631194247266,-0.011186475676548813,-0.0050599488739989035,-0.01175739279476955,-0.8674845846860026,0.14859140880589045,-0.2705606620302257,-0.2959452008908003,-0.4805203731404271,9.704272128273335,-0.005279397666952478,0.0032111209585536644,0.0031619942225934138,0.015477117933151454,0.19940411539111155,1.216671918204152,0.26662679716925086,-0.47646229396893086,9.873757142494702,-0.004506358510471007,0.0038297374164015384,0.005687403124143706,0.5368609882225767,0.19027533505477234,-0.42425962257145405,-0.41640909935265763,-0.6178896093309354,9.801109759347622,-0.00729029253522707,0.0037087141544272792,-0.0038862354627020755,-0.12707400316993694,-0.1597533052163658,-0.1337061828929894
0.7818494996595334,0.12255509170850233,9.741663789994933,0.000198289218348998,0.001194564224941829,0.01228061324602219,-0.356818422336377,0.1047952788056358,-0.577027025848381,0.053766572689429276,2.326023790158008,9.515335940146791,-0.009050833996682248,-0.004812913852491899,-0.01099089601502045,-0.8738462128332201,0.15358915993538844,-0.27651470183225363,-0.30832628653308725,-0.49823067826566275,9.691349705331431,-0.005172098275953828,0.002311140791619321,0.003715957704978444,0.018648534590924245,0.19425826610494368,1.2086259250704956,0.24368894590965318,-0.4819838693595466,9.895018769285668,-0.00363554673013743,0.0037945909618323555,0.006743401026586454,0.5415366656469951,0.1860274984947648,-0.4342103425043155,-0.422694972537807,-0.6181787024667141,9.792932374896644,-0.00610015042396722,0.004145158063567155,-0.00306310274607574,-0.12434161261650177,-0.16292511581933916,-0.14443787471498856
0.7810321661025529,0.1271667815449919,9.72877818924415,4.0207993432765605e-05,0.005399178667990406,0.010039837998114384,-0.3570915885301368,0.10159784382533883,-0.5738790300133518,0.06034760561974407,2.3500994981866747,9.527378320455039,-0.008774517691381762,-0.0027010110947170763,-0.010616754275664653,-0.8779963316302345,0.1517014656810595,-0.2713622101658032,-0.30949951556870126,-0.47184814824026583,9.701006792319186,-0.005281732197928707,0.0016238046187305299,0.0027722758790482225,0.017927182213576035,0.20281417225407108,1.2186274516897184,0.2465211450705782,-0.4708745530822751,9.883636665887595,-0.002319419620643439,0.004451917721778414,0.007117731044503546,0.539597462972057,0.19512186006152674,-0.4269587039530282,-0.4156220192884551,-0.5901151648541307,9.792473360736079,-0.007783356409320048,0.004909696178259174,-0.0014205349142783477,-0.12362871119108845,-0.15195512094842728,-0.1331899491244714
0.7765310685950494,0.14437031585539428,9.71334857121716,-0.003185494890867845,-0.0007180382829851401,0.011930249508053997,-0.3534185925462871,0.10788127581529793,-0.5682000810850568,0.06556784410394835,2.346482128712235,9.519819445985025,-0.010577113876373423,-0.0023921735405963572,-0.01119198323792077,-0.8733784304674076,0.15542188722715056,-0.26921958878773783,-0.296620598798183,-0.475590570406728,9.699456656471577,-0.004231384208236536,0.0030441676507137983,0.003322394918824989,0.014232577294717942,0.19281712708343146,1.2156975698918056,0.2547410809068453,-0.48017759907304786,9.877913728342836,-0.0036215525752121606,0.0031691523534394276,0.006695612840185991,0.5402843092252301,0.18778829722980428,-0.42763888952894186,-0.4226957630764622,-0.6290419027801863,9.76606627774197,-0.007161574645515397,0.00525839515411087,-0.0014966759836164765,-0.12634432737812623,-0.1631718236680065,-0.13566014523516423
0.7809421578541096,0.12029195449531953,9.741764481615425,-0.007162415750485624,-0.002274474936391697,0.01030128314244985,-0.35728504380469,0.11087953901528128,-0.5742951050759875,0.07588181585184067,2.338437656584402,9.527859327636406,-0.009055819864598441,-0.004816886916671815,-0.010987837276367908,-0.8734017661260357,0.16169942571618692,-0.2734753578093958,-0.30901064531468214,-0.4935598601964216,9.686512424212653,-0.008447103940760647,0.002519185122414104,0.0040777123896853455,0.020856300667249365,0.1998698302269531,1.2137531573703635,0.23962997652766682,-0.4652073533837583,9.898001668591746,-0.0036355471155153423,0.0037935844169355755,0.006742407614676796,0.5422658933489796,0.19143341631018293,-0.4281379168331687,-0.4238370670732121,-0.5983341672012983,9.807276388950314,-0.007166814700792674,0.0027175145628048126,-0.0015976678770776422,-0.12169446453667465,-0.1592846027465049,-0.134896774379598
0.8009584273368398,0.13157440551460337,9.73911183633341,-0.003925666949140344,0.0024582317926005446,0.010625155361606487,-0.35173544719808764,0.09984913475426094,-0.5724065105344162,0.06026689974652503,2.329504402705863,9.519225932234507,-0.0098483221073872,-0.0028294811801450838,-0.01099542895572307,-0.8726135977849002,0.14929469814910296,-0.2708249435677236,-0.3035244649497231,-0.47417937572859525,9.706059609503521,-0.0037421940598931346,0.0030146674026751957,0.0013354707294988277,0.014483666012337717,0.19965845240114025,1.2247265864137287,0.24839465076973982,-0.4810316532122844,9.86918128784535,-0.0046561802559459756,0.004489220572796653,0.005139048849049613,0.5370905413067635,0.19446790397072306,-0.41769346142002445,-0.4114962871142298,-0.6101021894679228,9.796666052248012,-0.00649261534837616,0.003326171446446465,-0.0026492305386422227,-0.12661552063583412,-0.15756617087737418,-0.12686597711033004
0.7723829655058673,0.13298240423489918,9.717950156561942,-0.0001740318844583862,0.0023933529916750273,0.010907479789595397,-0.35220449896736056,0.10109751502944898,-0.575572706694837,0.07413251839382068,2.3430551075580923,9.526072860197875,-0.00902655824387924,-0.0036463973748726325,-0.010261287904272918,-0.8750605857399667,0.15235433370997026,-0.27698409360506104,-0.3147768671305047,-0.4832186887576842,9.688551578999661,-0.005751259017801923,0.002842111358691003,0.003356274383144446,0.022043813840331467,0.19425347972290344,1.219131294360011,0.2548630684703292,-0.4651204938567495,9.889566800407303,-0.0036495416558185246,0.004418016480431724,0.006789202389167601,0.5461000123708821,0.1885280459560107,-0.42028024164065897,-0.4226726532496516,-0.6184557141726212,9.790340134289725,-0.00547635374596357,0.004494851647897858,-0.0031412314961589,-0.11954644635076817,-0.1600357449079395,-0.12658458439582534
0.7760960681102934,0.1402686651027702,9.713443727308714,-0.0011298419276098755,0.0004145421712531876,0.011255216613058476,-0.3600125310631104,0.10187257469274066,-0.5758414934320077,0.06160294600840216,2.341851501580918,9.50644555509783,-0.010097367256241151,-0.003772903657133434,-0.010642990955862838,-0.8777330227218405,0.14849741231356653,-0.2732613872078446,-0.3197082897375114,-0.4826447084115107,9.711935518523044,-0.005986522422780517,0.003451266674703885,0.0036482725530892664,0.012535744605452578,0.19770831500595507,1.2188639432954331,0.24563831664396882,-0.4734284847365385,9.870656136080436,-0.003910221481597146,0.003862720563224058,0.005554096129461771,0.5363970670193817,0.19025457336370524,-0.4279246920209202,-0.4127649503256598,-0.6071454901709642,9.773250073880169,-0.006944196606254598,0.00427172668107727,-0.0033306479333389018,-0.13024907010076958,-0.1582784964344513,-0.1325020811358606
0.78812769621017,0.1528835100675674,9.725752549379912,-0.0031091074212739487,0.0007934439691678432,0.012590416423247106,-0.360998425979946,0.09871916397424504,-0.5778231659714134,0.05719574966929948,2.354612049604752,9.524982208235867,-0.00936658172162276,-0.004208235529018469,-0.010448466757590274,-0.8799377658167059,0.15087846309941916,-0.2762353223182385,-0.30157015593316666,-0.4911641211787113,9.703566605439631,-0.006801272028367008,0.003008070836027568,0.003193870166677559,0.01866173653622496,0.19669886034740655,1.2069149690651302,0.24383933613324377,-0.4681147221426342,9.893729296813586,-0.0032032259870417193,0.0051114893285461385,0.006108534531301231,0.5410958914168423,0.19040697566870113,-0.43692821865326054,-0.41602642883687413,-0.60167921137749,9.799643753049109,-0.007563969010511362,0.00392402114829752,-0.003255494560852095,-0.12409145334490906,-0.16097335716717004,-0.1441902065851872
0.7837557487996842,0.14397803471357443,9.73033469500826,-0.00524631607711799,0.002453941434556573,0.0110339199314994,-0.35435415470949577,0.11014360899857266,-0.5757543467016887,0.061876173969954706,2.334282340487191,9.531256277534272,-0.009031548866990705,-0.0036493705907242155,-0.010258245919976575,-0.8751059576646953,0.1614104975379385,-0.2756706431456048,-0.31010371940654186,-0.49429425957935336,9.698158688831665,-0.004704576206167566,0.0010888378110595158,0.003126958097187923,0.016906832588167598,0.19183265158287294,1.2193661575784032,0.25127316951613743,-0.4712449058495229,9.911095512613134,-0.00317625076985958,0.003860632204054229,0.006014951457159552,0.5434105182097488,0.18486385154118076,-0.4234478977848071,-0.4104838692231854,-0.6085512072288939,9.794249444479238,-0.007221902909936885,0.004485044457989498,-0.0026959316699988593,-0.12368979785240555,-0.16465257829272958,-0.1310080510036983
0.7911954677885186,0.1373240831511468,9.728382890721953,-0.0037812150666432674,0.0017894194517752283,0.009864457848528647,-0.35198292383833446,0.09791089479883616,-0.5741317372405993,0.06010387778911366,2.3443656983989554,9.505188798226317,-0.008761624915802391,-0.002183774986414125,-0.012759698415068542,-0.8726080054421259,0.14900577033593584,-0.2735054753143143,-0.3121345476901693,-0.4930338028975004,9.681392232842532,-0.005044808364979256,0.004184289641733072,0.0032547119311423945,0.022771367929389073,0.192296457657642,1.21766945042731,0.24169622316136335,-0.4663540435330983,9.872138679716715,-0.0031902383555698893,0.004486064221948987,0.0060617396868555785,0.5465759267149477,0.18214578127223788,-0.4251182624181442,-0.4168248965025252,-0.6088890808334828,9.786065696714918,-0.0067158929998259904,0.003799441747745418,-0.0029919247350789963,-0.1188033797395838,-0.16832968382513094,-0.13415924473469468
0.7947310146458902,0.1280056755973969,9.718001466441946,-0.003702237559428928,0.0011486333678169115,0.01130880605722334,-0.35535536683882685,0.10405841230557154,-0.57751503647549,0.0650475231107478,2.3379147296679683,9.521274268544767,-0.008518950083348723,-0.004499988633898184,-0.011865382327266152,-0.8777567067105222,0.15500972482255282,-0.2780101582966612,-0.3159054666576519,-0.48382393849928673,9.700210662105016,-0.00586088861764733,0.002154773563265134,0.0024105925625425894,0.01789790947801925,0.19109012518341403,1.2110688796425675,0.2449085278573177,-0.4684497275612778,9.880809969066883,-0.004096864233426681,0.0037235505892163037,0.007469870177079126,0.5383434756312334,0.18582314156769084,-0.4315448570382892,-0.4186569230877647,-0.6071015960424169,9.799196815087422,-0.00807320406170054,0.0020697378757145494,-0.003062481069978155,-0.12415021820072523,-0.16708470562035344,-0.13784955308767655
0.8026452186312205,0.13755192843895353,9.721910661495103,-0.00215171239299147,0.0006130547017930551,0.01301880231474679,-0.3604755588262405,0.10627378139498042,-0.5762978648319995,0.06100765597613643,2.353793335868529,9.516105954345516,-0.01074714949916186,-0.0037270687431017243,-0.010289781106848634,-0.8824084700769582,0.157441445228903,-0.2773254631469604,-0.3175934285679067,-0.4933828277198451,9.704711781127951,-0.002585889007715921,0.0019457300516420857,0.0020498386780209944,0.01424505674532951,0.20063579968380987,1.2239922759162167,0.24820264682527893,-0.4705749967649153,9.88947899075546,-0.003363900045142554,0.0037214757318422506,0.007931718846731717,0.5392707433196531,0.18856885266973078,-0.42130241776933836,-0.4053333196552506,-0.6227716424327947,9.775280175864976,-0.007951196026148721,0.005643916304125474,-0.002741632817461787,-0.1288129942019595,-0.15804540848882576,-0.12712274595180106
0.7787950325803614,0.12751798010886617,9.747945839548048,-0.001136298973373757,-0.000360155673863284,0.009816067365992037,-0.3555763128122996,0.10772918819075403,-0.578464192035748,0.05553583888212783,2.3388404380053553,9.514995176157397,-0.010538342449386376,-0.003961086870122078,-0.011362669326650652,-0.8736283678394331,0.15989548549426846,-0.2790613128163064,-0.30359614834689413,-0.4885242004683759,9.698598072217173,-0.006458381612565226,0.0030822562635726843,0.003841552716304481,0.020096101453019877,0.19181455438638356,1.2122930456325083,0.2509257904790404,-0.46298284970886516,9.899676285137808,-0.003462906243959774,0.004555179955144088,0.0048724414744353685,0.5434509932120846,0.18580701750450487,-0.4285810700729554,-0.4210988458549225,-0.6012350628683567,9.789015923981191,-0.006488583815905459,0.0033271618369292997,-0.0026542070708313274,-0.12363846338992585,-0.16293420248131193,-0.1390628929849973
0.7784673155326991,0.15242551485733546,9.72799288229128,-0.0018595581495246642,0.0043585598193075625,0.011380232721260758,-0.35802186370282774,0.11015143515954738,-0.5743037197712078,0.05837567921544075,2.341209847622718,9.528278064922512,-0.008795469206932915,-0.00271587479193741,-0.01060253792940227,-0.8773087839555936,0.16238910147534136,-0.27495856683942177,-0.30865566929248656,-0.4769216909335265,9.700736731211693,-0.004703249024577857,0.00267315644412045,0.0035146766904033647,0.016940612620619105,0.19548729445265683,1.2103302416091313,0.23224263551942875,-0.46616936886110394,9.908032914030343,-0.004246685978901649,0.004383033745611419,0.006921515901985031,0.542270231467899,0.19019960074655418,-0.43008284108250894,-0.41298028472586684,-0.5924932065815987,9.808356519082052,-0.007444176733649124,0.004959310894062014,-0.003038619129511773,-0.12290751328739444,-0.16074203540025178,-0.13734725041256984
0.7775641055756943,0.13536218434674957,9.722174429777072,-0.006274621421989291,0.0018857165974811745,0.011363419024426455,-0.3528801095106316,0.10749590942028261,-0.5816294891420749,0.05339296429462069,2.340386950537239,9.536927845636761,-0.009073768116795274,-0.004831769760707095,-0.01097561593452258,-0.8723935649748262,0.15836703128674634,-0.28318526196985655,-0.2970790700115685,-0.4892514440468424,9.703752759768209,-0.005065480347263099,0.0029904830250497756,0.0046526394797341076,0.013746271132711495,0.193795811307137,1.2166727275749851,0.2617940746850178,-0.4617282969902323,9.882575672724967,-0.004383519707526875,0.004418098340306163,0.006327360194354943,0.5363467901920366,0.18465109257688325,-0.4261790169903521,-0.4208119767743378,-0.6276896738007304,9.795159786003351,-0.006882056418630393,0.00250617909315281,-0.0022403427871270022,-0.12929785417140485,-0.16682448429300517,-0.13397178068922946
0.792995606536206,0.1231539495535454,9.718205613663956,-0.004145470517048381,0.0016067215084862494,0.01070461999262236,-0.3641592743835074,0.10359189684637833,-0.5743793521369362,0.051277787115558256,2.3335486247291515,9.524738147336818,-0.00941279160720719,-0.0053936031326749095,-0.011162793217044257,-0.8836254502447437,0.15530335207449422,-0.27338510809515515,-0.3194292208396843,-0.48963059024252975,9.699803756713921,-0.005516667554763965,0.0038152792306018718,0.0034479920943576094,0.021825682473230267,0.1979120431220084,1.2137568405680974,0.2436666256186639,-0.47452813315443965,9.889402242472372,-0.0031772576786909318,0.0038596391609532254,0.006014951387204705,0.543720825894215,0.19044955197485572,-0.42763385308870183,-0.41961753621705256,-0.6043185603909703,9.809885894747458,-0.007443171201838828,0.004959308202360399,-0.0030396135632869557,-0.12412556052579425,-0.15927290764713578,-0.13686329631345415
0.7687414567795485,0.12722054333447283,9.705432154398645,-0.0022306819157166475,0.0012508879185799,0.0115684307754356,-0.3568021253949801,0.10845138169382773,-0.5762662932536698,0.06845328136561371,2.354915660207666,9.520627089671665,-0.009475513057904436,-0.003840534201882906,-0.010975879023278736,-0.8753368754131075,0.15825624303527827,-0.27439802084267445,-0.29513482387983586,-0.4771259958141732,9.711130144069985,-0.005409369896511253,0.0029142982603021844,0.004000956382256311,0.013276762149460938,0.198680869993218,1.2169117504780553,0.2426398946338016,-0.47536513049898543,9.889387013225935,-0.003314084838101198,0.0038946971651497983,0.0054197957228701785,0.5398005655042329,0.19049103341828114,-0.42546178546438884,-0.4248117411369106,-0.608264117192536,9.78842109885334,-0.006433147485357006,0.003589110487971823,-0.00363160960687895,-0.1278117760660643,-0.15853247837463585,-0.13200083073690796
0.7848076537719068,0.1379502558941094,9.73911997220554,-0.0008300512683183291,0.0006114262214786169,0.012598994954664103,-0.3600028441227828,0.10044206684122182,-0.5802478301701532,0.05944930169922251,2.318968931289269,9.520480194353516,-0.007334893369832469,-0.003587543166213834,-0.010213474349296623,-0.8799372173103764,0.15156947344328306,-0.2786882408663795,-0.31316803528075626,-0.49033384331293506,9.704950871781183,-0.004339692253048845,0.0039391476928867155,0.0027634332998017343,0.01230621517922657,0.2008824477870488,1.217884869584989,0.25419992535275826,-0.46678777642010333,9.89540068488161,-0.004370532076055046,0.003792673233709011,0.006280565349909291,0.533704022553227,0.19249356319996372,-0.42453899268157475,-0.4150514412224089,-0.6128106369804296,9.804346271863302,-0.0074955870863779835,0.0046983514680952665,-0.002065193141759546,-0.13122239372384575,-0.15802916130948372,-0.13299520497448467
0.7766639439460825,0.14759202892983134,9.728211904457288,-0.0017155173710705332,0.0015335342990738365,0.011398673550160098,-0.34756032366488054,0.10664192401845773,-0.569651700469335,0.06600158779559778,2.3429553398244156,9.532633038320927,-0.011097138503706723,-0.004298819228915035,-0.010468809257344412,-0.8679992789252813,0.15420322346659374,-0.27065550428857593,-0.3058187199688315,-0.48966223639409184,9.710205223272325,-0.004705579233424613,0.0010858384817602374,0.003122958352186537,0.011071797746283538,0.19282452932677008,1.2095877169596154,0.25740556983526935,-0.4654463345621681,9.882516344844436,-0.002755937797020012,0.00580196199266529,0.005428892879273261,0.5356414690607503,0.18561219576427837,-0.4293641224462106,-0.4098706700215282,-0.6099424744140056,9.789105146338702,-0.006826614533430831,0.002768128909602393,-0.0032187453070683346,-0.13000093419981684,-0.1638889868297861,-0.13714531611790867
0.7880987626158352,0.13319085704700828,9.715811796296821,-0.0033379621892959213,0.00132543340994876,0.010455597290380994,-0.35461958088903023,0.106237157878839,-0.5755419871190243,0.07195101320703942,2.3422605887643364,9.50142107413669,-0.010762105649074668,-0.003739954290620782,-0.01027858841973071,-0.8755621527888151,0.15504476514582372,-0.2765419146995477,-0.3064532813368899,-0.4908778404796181,9.710123837908656,-0.005516673181320577,0.003813278435139724,0.0034469937027207702,0.016927014248472694,0.19891536854411423,1.222778464297843,0.24348243155839835,-0.4793196038585564,9.898029984183836,-0.004084883896164115,0.0030961258946213674,0.007422081850768968,0.5412090333177151,0.18807864032035795,-0.41957737929558325,-0.41675711114306246,-0.616239755824166,9.804058796512518,-0.00636879709369433,0.004362450417286734,-0.002436331655597296,-0.1251782193737462,-0.1612366377383708,-0.12442023159938125
0.7800243792132963,0.13750934528891537,9.717850802420724,-0.003709677491408088,0.00037496424851631786,0.009866660869923258,-0.35973098069000947,0.10411982704822575,-0.5824150309300505,0.06161431169424535,2.3424936549699793,9.518263493320976,-0.008809441088935707,-0.0027247896573141367,-0.010593410405717563,-0.8782358698681768,0.1537466927444614,-0.28043114046058937,-0.3005925872411389,-0.48782381803683134,9.6986879951485,-0.003998135073712183,0.002428015306542633,0.0030243980563985223,0.022305647642154768,0.19449119049286223,1.2113196465408842,0.2500306901970075,-0.46324570794663933,9.918458950604455,-0.002470296186344042,0.005105421244075816,0.006571409336837375,0.5481042482751137,0.1884630566295844,-0.4280799847664061,-0.4298460847489378,-0.6115988058659989,9.801099452762548,-0.00794515513413013,0.005645900137680255,-0.002747597046502214,-0.11972805649100021,-0.16002171508674204,-0.1378167577349918
0.7835399514950836,0.12819208227311635,9.707464307996428,-0.0037717380827612433,0.00255523504970251,0.01128654879384395,-0.35136977923840057,0.11796659110645924,-0.5790994060415527,0.058956030570793336,2.335676695305757,9.506070540257625,-0.009671441597686363,-0.003086280421574607,-0.012045985205949204,-0.8729437628667199,0.1689755808194495,-0.27652688528391123,-0.32406587746340165,-0.485693965456404,9.678055484997598,-0.00609715504988297,0.002760929549978738,0.002698590987486024,0.012548419679689955,0.20137088072429168,1.219594001307757,0.2536454722632242,-0.4583620792210275,9.88401101989615,-0.0037484062604296923,0.0025757995312376664,0.006052662164836834,0.5363888543733814,0.19395019585553244,-0.4228218810357527,-0.4237232884655421,-0.6125775120591637,9.772553862405024,-0.0084553940130569,0.003790620730323722,-0.0025545902925521334,-0.13145084221141887,-0.15680595403865208,-0.13494807984531235
0.7711611306821324,0.12500011622688156,9.714045652391041,-0.0021652075404339096,0.0012228616617129,0.009363385053663067,-0.354612456310049,0.10431767182264476,-0.5799521643853539,0.056143134410572976,2.3255860165391398,9.517603515425412,-0.009602308772095856,-0.003997041592215201,-0.009357238147842166,-0.8770208804449179,0.15404554578557458,-0.2775047253223723,-0.3075760386689457,-0.48604029806110227,9.705306474177071,-0.005517674904150485,0.003812281523839671,0.0034459923440278593,0.016195697119945944,0.19622768738310892,1.2171640493475298,0.2532525568547635,-0.4689489926827471,9.882458144551556,-0.00363856822738731,0.0037895987427357834,0.006741413992902597,0.5400386234703802,0.18754599471315922,-0.4276389065979245,-0.4204566007893035,-0.612303202226595,9.793714668220062,-0.006987552856838578,0.004014744523619487,-0.00236417268467309,-0.1253768338302107,-0.16000717106622464,-0.13174401996332002
0.7712715723779385,0.15625491976373573,9.725888369161465,0.00012128064300173021,0.0018144973669526406,0.010816108695411442,-0.3497385355819619,0.10330832484041345,-0.5789637771101508,0.059925234021956514,2.344770431450554,9.517097411645244,-0.010222261135642261,-0.003417076064692112,-0.011158229001183208,-0.8696883958037194,0.15259944790209,-0.2784445374833746,-0.31397826190381334,-0.4828659595325006,9.71201308118485,-0.004595631534121956,0.0033534964001194966,0.004453359821187758,0.010343943523813353,0.19918205224474061,1.2191020117090077,0.24739944435037797,-0.4590097940657239,9.875282879269882,-0.0030544389687695924,0.00444701331145558,0.006656914915619595,0.5336692130308439,0.18957817613651629,-0.42232291155322343,-0.4165632208050551,-0.6056998264613046,9.791764958805652,-0.006366782179495332,0.00436344502576574,-0.002438319336342327,-0.1319616812766931,-0.15851647137363747,-0.13202386372879424
0.7790000497539147,0.1502857722659927,9.723900068480178,-0.003267439106272583,-8.805573298077972e-05,0.01046280406366715,-0.35638483743827143,0.09550364455528944,-0.5756330423140715,0.05449522458237287,2.3298739219531948,9.515937751228943,-0.010467301383130538,-0.004360529652991893,-0.010808784293346401,-0.8765074891092409,0.1479816144828863,-0.27520400141613555,-0.3174257592716157,-0.4792343658459328,9.678558595593305,-0.0060981546116481425,0.002759931827410146,0.002696589631457295,0.018651711356913535,0.19670262382215936,1.2115539567059885,0.24211999387095826,-0.4753166139220938,9.908165091145108,-0.004507352666250351,0.003827724647407414,0.005684409728870328,0.5417774487042837,0.186029028301256,-0.4337207496336415,-0.42406640731375034,-0.6025319465302038,9.796852055026275,-0.008453373544206794,0.003791616504209787,-0.002557577957190873,-0.12584110212933716,-0.1609753019751537,-0.13687480971633098
0.7703856909949809,0.12771824819380756,9.701192385806165,-0.003921628651050813,0.0024513598518108967,0.010606116754033355,-0.35264229561039756,0.11014034287589596,-0.5764806371100499,0.05752095668807687,2.332268133682177,9.529215530765496,-0.00841967115968165,-0.003723947415505185,-0.01058503326444359,-0.8726613566044248,0.16046575474279118,-0.27443061100604516,-0.3031286639748643,-0.49653196906280883,9.714933622452774,-0.003999134635477355,0.0024270175839740415,0.0030223967003697935,0.014949729420924035,0.19037467051599674,1.2186311090076303,0.2444925310932543,-0.45485148145800747,9.898340376067498,-0.0038003907885255494,0.005074513275426785,0.006241861090412656,0.5373019888727204,0.18491086234642612,-0.42275630590887714,-0.4285424846237709,-0.6164260067564339,9.78520981222926,-0.00800178502760454,0.0028450636085108638,-0.0018781617170869457,-0.12857509300094816,-0.1656104517406956,-0.1312803078113403
0.7862772342627533,0.13796860673563893,9.73491175994526,-0.002744830512917696,0.0009623305329133662,0.011726145249005686,-0.35436472326221463,0.10867294040338854,-0.5750338807491047,0.06678447328724972,2.3537034549743576,9.49680726257175,-0.008946646673511046,-0.0035245902914892487,-0.01184842059417598,-0.8743584224671624,0.15754947393644286,-0.27316339487765384,-0.3175416438525245,-0.48415369621117404,9.695071380050253,-0.006695653233122652,0.003685413732255549,0.004126551393582348,0.017928434597857864,0.19865766866171367,1.2105738049804162,0.23517247272055358,-0.4664670240528007,9.90096381639615,-0.0031522761861487035,0.0026077827236615763,0.005919361714949678,0.5403498688632292,0.19140990842718203,-0.4337655923346028,-0.4192066296467617,-0.6113871405469858,9.791298640045149,-0.006591061512177056,0.004837718010648545,-0.002780017912198586,-0.12483678132556555,-0.15950952901747192,-0.1407745856534382
0.7857243112649241,0.12611773595478082,9.716098021377558,-0.0023076448692623823,0.0018877341378360937,0.010115059316791733,-0.35606215392626384,0.11015452814378907,-0.576005018694116,0.05560189480035656,2.3370410040071183,9.527441182058958,-0.010104013300985912,-0.002630163360073643,-0.009891032550387542,-0.8760777022404215,0.1604330645039887,-0.27541184178608263,-0.31813880087901275,-0.4965915003817992,9.716207236264252,-0.005305083033304877,0.0020083257606401906,0.004549918202439439,0.015697999382422403,0.19794471369598174,1.224730600979744,0.25143830340742807,-0.45533329906129616,9.894139997899188,-0.0019720234224649565,0.003297187075303453,0.0057025621444839565,0.5402449633801782,0.18979430781404535,-0.419595020345496,-0.4203197839524544,-0.6132096764238426,9.791136330250966,-0.008055882222386084,0.004614586134130171,-0.0029734176345978425,-0.12541386203348578,-0.15977013977773277,-0.12490783929861855
0.7737431980423124,0.14363494304007055,9.715633884675674,-0.003409872484351486,0.0005768245763282275,0.011213478365280168,-0.35050239021878177,0.10469870760089647,-0.5689455182358174,0.0716255811026791,2.3414742369970156,9.53719177078693,-0.009496459818260318,-0.0038563977474315703,-0.01096164592266015,-0.8694623442473313,0.15371239452681906,-0.270404664069921,-0.2894619664581404,-0.48622780512781894,9.704094768750135,-0.007148163300083754,0.002925889682209633,0.0025321854203187726,0.01715347574103917,0.19427525759358447,1.2225387174330913,0.2600238959170078,-0.4744023619871724,9.886884759006607,-0.004857824842287957,0.004972483074287263,0.0071006241892932675,0.5399831447549209,0.18514272639103024,-0.42176317792107243,-0.39971296587228183,-0.6048908321406565,9.79018847350927,-0.006363761733486038,0.0043644369425431305,-0.0024413014508625403,-0.12468888779790553,-0.16440964831758437,-0.1268632507301053
0.7815675674509769,0.13244146329262108,9.726581537506313,-0.002667854168900004,0.00031759433482828737,0.013165454415703541,-0.35164640312620715,0.11210531573697177,-0.5786583944002842,0.06192301732440013,2.344860901010873,9.530345070122692,-0.010077525048001457,-0.005360704006185782,-0.010801390256118279,-0.8765509615941083,0.15841260972307625,-0.27928533556591967,-0.3115714718906675,-0.4867089039271208,9.700127368408051,-0.004470993825262065,0.002058007172842841,0.0032156768635850075,0.020356476440784844,0.19791932940511608,1.2157066648023054,0.2326072351026209,-0.4753280898337958,9.877815361411239,-0.003936217993697337,0.005109564368325752,0.005646712040827757,0.5434794852128775,0.18897443384898058,-0.42957880095181955,-0.41824385124022434,-0.6146356177543127,9.81214753794344,-0.00810930193466283,0.0043526332650914755,-0.001999003949994293,-0.12220780006846337,-0.15953183929535533,-0.13050584318898298
0.7852617117129659,0.13918856618933423,9.722104811171949,-0.0027404181227645747,0.0031165462177030327,0.010944006952910092,-0.35291290468281383,0.10743088614484561,-0.5733288086006776,0.06518873687929923,2.3472582601592373,9.543623193141498,-0.008669698925765868,-0.004671357321310373,-0.010231529959552193,-0.8724078157737574,0.15781503508797448,-0.2724325188263015,-0.3177635319156366,-0.4834873749988983,9.706844391335792,-0.005155444885892383,0.0034929525249111208,0.0023050311683886415,0.01789707556120331,0.19426805127846827,1.217169315941633,0.2518656200962551,-0.4462002351779157,9.882775121544844,-0.0018491977579507446,0.0038855611802044174,0.006344519128104066,0.5387948426850288,0.18659357195662507,-0.4251986946704834,-0.42457274408906903,-0.614951527334133,9.80395488303522,-0.005804317151217772,0.003941789424034101,-0.003713706981528312,-0.12587845634006742,-0.16293454552247627,-0.13150621405403573
0.7687624520628654,0.13328821415801467,9.72026433734571,-0.0025304615970625608,0.0010381925779534467,0.010200527696000534,-0.35512560357984535,0.10716979190652251,-0.5696774550996057,0.05490855261023143,2.3371043742920294,9.526823888924067,-0.00959742414856809,-0.0034797600079638927,-0.011495195561601255,-0.8736330699614135,0.15669060294091391,-0.2663108440127976,-0.31733745349730164,-0.4762826990868764,9.702208454840957,-0.0062271238139498695,0.0024661084584579446,0.003539551536121577,0.017195918879139415,0.19988348912147696,1.2130132339960378,0.2479314335770112,-0.47472135474534005,9.869454668697719,-0.004371532801049349,0.003790667055213057,0.006278571911340349,0.5437444086282316,0.19337620219967575,-0.42814100820917017,-0.426525149989942,-0.5971273667264785,9.78415549160945,-0.006642475715484319,0.00457575859279956,-0.0018065931112516915,-0.12167077718295229,-0.158059629296966,-0.1383132702389835
0.7887814920763068,0.14475426260843066,9.71766214310374,-0.005762808572552776,9.31457529976483e-06,0.01195376558222551,-0.35607301809644737,0.10771646741456106,-0.5765131789546661,0.06848125772332962,2.3369288251885916,9.523835809871372,-0.010082507811402129,-0.00536566017201952,-0.010797314904707488,-0.8755909167201741,0.1604476567726039,-0.2746791788874901,-0.31906861697150807,-0.4861734562901102,9.70666774962514,-0.004942851282300836,0.0016899975650769836,0.0034099562212865507,0.011571274142168186,0.2016204692418266,1.2205676897437652,0.23771743498554862,-0.48028730966432764,9.895164366276909,-0.0036765721243657307,0.005661880514631534,0.0068838312335771715,0.535920068828195,0.19221247201027297,-0.4276967191818085,-0.41624622363044644,-0.6114716372160718,9.80991728547202,-0.007943328251046794,0.0031080041763307783,-0.002858546367654782,-0.13269281480237324,-0.15582966145506447,-0.13031576618208207
0.784499974017023,0.13609458918076867,9.72221057011033,-0.0008341141793772001,0.0019859704920388256,0.010375660400211303,-0.3575450137491404,0.10601908794688845,-0.5770203098462281,0.06133532870653814,2.344999649604558,9.529719687906614,-0.00883339111264591,-0.0027406340560478535,-0.010577182300681921,-0.8775246767243939,0.15768831190672752,-0.2785427081234661,-0.3172085460034952,-0.48125297855661137,9.718726809657669,-0.0049405284327566305,0.0032743139286097052,0.0037996769733802103,0.01472694822077637,0.1925678495942362,1.2127698326903393,0.23576107581368583,-0.4583787249882213,9.876673325465733,-0.00258114846818856,0.0038886224901813053,0.005881670571701887,0.5385542546467543,0.1870842360141611,-0.4252035090740392,-0.4111524584546865,-0.6085821578981789,9.794691701752317,-0.006477177367867381,0.0053646037170542804,-0.004734802773522252,-0.12782390971970392,-0.16414544227813732,-0.13371546713930918
0.776012679530799,0.13619822933292308,9.737214428181604,-0.0012668900943757792,0.0032157668609629217,0.011206615813201825,-0.35213382687261624,0.11476599439901781,-0.5752213462265209,0.05138041002721301,2.3484610634891583,9.52286931835399,-0.010054247828694284,-0.004195158665723851,-0.01006976724500613,-0.8726772567766169,0.1636474624607482,-0.2739948585740188,-0.31939951980872583,-0.48003190207325824,9.701956039520116,-0.0056476531885846695,0.0035144596447599257,0.004285955303876063,0.022054048039216435,0.1937609283068159,1.2135167011099453,0.25245838840578816,-0.47351401619992217,9.90990920177641,-0.0031532900495729274,0.002605789726161962,0.005919368189789611,0.548098115818843,0.18502751700754924,-0.4307424984092644,-0.412338454480925,-0.6103594160676231,9.7945320401574,-0.00782066880217302,0.004649702556573227,-0.00046402976425446486,-0.11803256634709414,-0.16247014131338028,-0.13707718138015926
0.7874164466751801,0.1314259435987466,9.698929626043052,-0.0037845692573692125,-0.0003745817289291578,0.01061852259330498,-0.34972391543877035,0.10937663380381869,-0.5745220142195782,0.07237862015770566,2.338038585569295,9.514528340454147,-0.009301637265393691,-0.0040963479415181666,-0.01202645674024811,-0.869729816149467,0.15929265303697107,-0.2724528463717301,-0.2944184481019892,-0.49515105733606646,9.703495295029116,-0.005050150673299486,0.0025899777320113272,0.0028559927389015206,0.01766753273902956,0.19377486511885483,1.209601199828309,0.2514174852633153,-0.46112432638193424,9.889875842276266,-0.0022436774474306176,0.003368295805998168,0.004513257457223816,0.541018822893845,0.18605983676825308,-0.42981976735758615,-0.42754988758654827,-0.6209900166715598,9.766799710311663,-0.005356610743666863,0.002487829428269542,-0.005209938682620822,-0.12706348094377543,-0.16194730401219376,-0.1371267364398093
0.7917216873503896,0.1439245316354863,9.726229589354682,-0.005323615070464837,0.0009347233049348119,0.01034068754603539,-0.34997712046769525,0.1052529595553861,-0.577728439473056,0.07253657984608208,2.3357742795170635,9.515082599273365,-0.009912173536856745,-0.00287506015563793,-0.01095176487497335,-0.8714288613859464,0.1584861789594344,-0.27634869683686064,-0.3129796646239707,-0.4697377005546662,9.68591051913275,-0.00505014851223475,0.0025899769207427883,0.0028549927415657027,0.0074070196546733545,0.20188597115867818,1.2271504926646741,0.2536945272889693,-0.443787311911324,9.901650050863651,-0.0033929377621375037,0.004963347089341883,0.008025347594527155,0.5331522660603936,0.193543686537581,-0.4138070734800336,-0.42103836073280854,-0.5988490717129434,9.789686051399144,-0.0069201786110211945,0.004787078716761435,-0.0011738791893097335,-0.13323782148456143,-0.1555957273936412,-0.12006435576344812
0.7872795728284868,0.130523830453743,9.743721742664436,-0.0005333315261080724,0.0021858021386060734,0.011725465981960987,-0.3497834924453115,0.1012865660178842,-0.570190453900331,0.05985510012313511,2.3416238510311276,9.552863054976523,-0.010300272344092575,-0.005142582936165964,-0.009718257373736109,-0.8697013886244638,0.15226688081727646,-0.26916067496173485,-0.31053572249631317,-0.49243263334924164,9.688106218184615,-0.00505014851223475,0.0025899769207427883,0.0028549927415657027,0.017652023381123427,0.19426939684144626,1.217656786575106,0.23625771528603373,-0.4758563910404694,9.90533501544732,-0.0045203542069079256,0.0044511498452073466,0.005731217662905538,0.5454161653678963,0.18848482962676252,-0.42760976649738697,-0.41140159790907005,-0.6035281218238429,9.805615383818889,-0.007824550911224363,0.004142295456507592,-0.002639677705450902,-0.1229182591220124,-0.160012887266493,-0.1349044210026285
0.7746731875424212,0.1262894366710891,9.705557300466067,-0.0031860463383621782,0.0014184630533665228,0.011114951565168563,-0.354914183756442,0.09913098574094412,-0.5721806856304459,0.06579670936782514,2.3413281397822385,9.521592386988123,-0.00961139603057088,-0.0034886748733406205,-0.011486068037916547,-0.8752933548983098,0.14805695222146115,-0.27105267110610326,-0.3099620752439658,-0.4961445744405908,9.704699513462053,-0.005284419714750723,0.0031971283604967714,0.0031469946814160856,0.0178853479869734,0.18962771091667024,1.2142430473636194,0.25719130636102083,-0.4723255621259448,9.884135344933807,-0.0023105152612399957,0.003814520807588366,0.007070988278596739,0.5378167651913434,0.18365214770121924,-0.4281158607209606,-0.414744430146471,-0.6207007774297661,9.78066440055023,-0.0064744815630181736,0.0033321252779249287,-0.0026691231935509208,-0.12636156021437184,-0.1665906501648655,-0.1349312135417046
0.7666477467339757,0.13059765925486946,9.707597419579928,-0.004225789199543306,8.74800254243825e-05,0.010016375686153893,-0.3514206724973864,0.10989374066294257,-0.5769657611337008,0.05059126041398014,2.345966661018713,9.522912794823148,-0.009517411333811471,-0.0038712614446519034,-0.010947429576397766,-0.8714276530883698,0.15847392039369443,-0.277080593187161,-0.3194377613338063,-0.47147491867703206,9.709139034003094,-0.0046845965109860695,0.0038569636225494336,0.0021077528658710208,0.017438236962794326,0.20257207351031267,1.2186265914521814,0.24245069100982075,-0.4667093330296356,9.90269330039247,-0.0028528024931542212,0.003959731220876021,0.004692365884441745,0.5400588022237471,0.194163443185146,-0.42377521904087323,-0.40589310951754665,-0.6057493660145007,9.77697993168546,-0.006358726373277747,0.004366423467799529,-0.0024462712461277855,-0.12559878206034825,-0.15463398801560369,-0.13198399472794903
0.7866516024119463,0.13740190428202126,9.717941146791404,-0.0023795603213306793,0.0011351568152436786,0.010868909130264844,-0.350706622789456,0.1071963491113824,-0.5760070323753044,0.05856149229799308,2.3332876662817967,9.51813960624775,-0.010738256888789549,-0.005327802497659071,-0.010440980870411625,-0.8706865837755116,0.15653698051069484,-0.27631482418596975,-0.31726471836009384,-0.4830777483675886,9.690111092406422,-0.005050150244980687,0.0025889761173774448,0.002853993547079375,0.013746482313349776,0.1933070225545338,1.2156961219684421,0.24621790912644684,-0.4783913481612182,9.909831347403188,-0.0037634150495350106,0.00319723205233742,0.006098470002257914,0.5329353581587151,0.1846682830658854,-0.42717758394810484,-0.41946221569687747,-0.60728605102245,9.797136093812224,-0.008162576074098628,0.003583263694587744,-0.0032052159255816187,-0.13075596928244626,-0.16389099986553182,-0.1329994456457779
0.7902715862023951,0.13930547057643655,9.726414685527942,-0.003101676133285805,0.002928879683896053,0.011778141787288272,-0.35020190212318336,0.10819176806669864,-0.5786833440448291,0.08507824731387792,2.3319569523893544,9.535293090848961,-0.009730194753780995,-0.0036432112962901026,-0.009871447538435128,-0.8714132246450177,0.15600467055750408,-0.27874845381278185,-0.28868435674415927,-0.483622693736509,9.69926032289031,-0.006097842138747503,0.0043382511548813885,0.003080310888219819,0.01984673543860634,0.1957291980794614,1.2218113562676527,0.254655939535242,-0.471337292132125,9.862529240924102,-0.0036165939375313047,0.0025357565400415615,0.006644817609283813,0.5441663495429645,0.18852223356059633,-0.4232230333906795,-0.4342151972459807,-0.6278421034342898,9.779182900818956,-0.007032915058825033,0.0037547712701394035,-0.0013987120805540403,-0.1212501907743345,-0.16149086401941593,-0.12854977555970293
0.7939607703716403,0.14124271866729934,9.73488276128338,-0.0020892269751633264,0.0005692329670139919,0.01078962012656212,-0.35585372472086535,0.10573358325326161,-0.5728657045108497,0.04169049543821491,2.3443872883555095,9.517313758938558,-0.010934204449352567,-0.004569549324037449,-0.011511154070506891,-0.8738717299022599,0.1570996742506586,-0.27095774653987725,-0.3206846566984087,-0.4666598748014702,9.704344420314156,-0.004452647729695504,0.0016644942046288467,0.0014240309821048323,0.01667593935553296,0.19696313569346277,1.22253550484655,0.24890234274352757,-0.47781038432023454,9.896936594897964,-0.00200904088901273,0.005168468572001159,0.0058459925014073735,0.5390557170326884,0.19296694668979059,-0.421088806705419,-0.42669330869988975,-0.609427317305264,9.788788297714577,-0.006582005728800283,0.00484069259557366,-0.0027879642718655166,-0.12807141562368946,-0.15731481603796604,-0.12833779487386052
0.7773712389117657,0.12450373121110861,9.714150302724798,-0.002304636783392951,0.0018788283910894637,0.010101000899587542,-0.3441214923673893,0.10642390253642078,-0.5752550379516543,0.05991330166697238,2.3397265001064325,9.52986366870104,-0.009045316935749956,-0.001990288717156166,-0.011637248014637992,-0.8645863411171314,0.15729088259067567,-0.2768054494632238,-0.3034987484970398,-0.4832209642969971,9.70055798557746,-0.0037442079020285775,0.00300666875988303,0.0013274728451950356,0.011294320068625628,0.19356507724164415,1.22130662828285,0.2521487515391371,-0.4763390864419227,9.884072667718248,-0.004113894180165489,0.004340990524818659,0.007514691007475633,0.534122572811373,0.18297184086627571,-0.4239854662761044,-0.42386217744790056,-0.599244652398139,9.800177074041436,-0.006587212456170903,0.0022998189967099567,-0.0028949560686889362,-0.1300466220102846,-0.16414237336832005,-0.1290897354506902
0.7852831698193086,0.12882484722821771,9.731036058724486,-0.006354879636977503,0.0003705532679925779,0.010665206518164978,-0.35680543849226065,0.1118271494752222,-0.570867655563522,0.06328416250846293,2.3452597335579606,9.519500102193405,-0.010888288676210445,-0.006658837116733768,-0.009552812358479367,-0.8763537219990094,0.16469674354821262,-0.2686467419271955,-0.3079453566937094,-0.4989519554037693,9.692859117716276,-0.005414392800947092,0.002902308891513056,0.003989955224723274,0.021589413894330674,0.20451167502821646,1.2220519980024793,0.2461150910914629,-0.47000971368451966,9.898453940231486,-0.003911229546562235,0.003858707885432714,0.005551115823777951,0.543690630217913,0.19539669210839639,-0.41790023414607597,-0.4184895352494961,-0.5960662966577056,9.784995376751768,-0.005796264753145598,0.003946765519018243,-0.0037196565499156855,-0.12196158623511937,-0.15367809571249819,-0.1268355944488525
0.7773598268847072,0.13295855817149282,9.733072214066828,-0.002454482404035182,0.0003865402945546665,0.011629778361128268,-0.35972891918626576,0.11088858778661832,-0.5738166709226655,0.061179598686311384,2.3385119776448233,9.50728090049054,-0.007476793833433874,-0.0032326794924056775,-0.010721723334973019,-0.8773092316468672,0.16216050013589473,-0.2739776003633505,-0.30252358567451887,-0.47933910215130227,9.712550975686325,-0.003893532272113292,0.003102363741082569,0.003959079522316832,0.01913824252423831,0.20012424331290796,1.2183882504868961,0.24067048605568425,-0.4697208737003476,9.889738892528353,-0.0032032951475925307,0.00510249632945682,0.006109593391158681,0.5437101636844905,0.19193540341001092,-0.42446957863317003,-0.4189157273657593,-0.6073422278432249,9.794669024160033,-0.0066957421537633096,0.0038083890060603026,-0.0030128027132283503,-0.12194898504025638,-0.15709066280804265,-0.13147757624850398
0.7690709342457263,0.13776305890179358,9.73512818039729,-0.0008976449826723961,0.003387532938616769,0.010354387286308617,-0.35361032657275504,0.11330212839418068,-0.5742616093066454,0.05871853673416188,2.3423709901551932,9.528656239143123,-0.008649557849888597,-0.002985502122338293,-0.011633927758024977,-0.8736576619475487,0.16274869556931745,-0.2690987322709422,-0.2922661260247414,-0.48916410009433886,9.698875076997298,-0.005394037633164106,0.002512790541361315,0.00220131045226576,0.017660464499983184,0.1942662280265326,1.2137507969814019,0.26123807863234394,-0.46984747119195086,9.89011285599669,-0.004981651231796474,0.004382102790890344,0.006456673767104216,0.5395387047261426,0.18411865896031374,-0.4295726865457021,-0.42507450384474554,-0.6076217980935051,9.786481356619333,-0.007034778403098979,0.003249358770435011,-0.0035763465156901752,-0.12535578167673087,-0.16439316867411605,-0.13858512468334916
0.7926066657423647,0.14627275592774747,9.70919882434195,-0.003410848509350744,0.0005679712456434654,0.011195404463903127,-0.3507120084492932,0.10452868612751495,-0.5782260353494283,0.0800147499911888,2.3458477066103116,9.530203388005367,-0.009435390487836865,-0.004263786658661215,-0.01040164341205082,-0.8719146323790179,0.15753252716626254,-0.27486831857449984,-0.3088739736512506,-0.49379512774198725,9.688089914636844,-0.004837241131315425,0.0023673437063791197,0.0043466374375346105,0.019826342168930658,0.18791349634447316,1.217178640487006,0.2558060148214587,-0.4697797969740162,9.881387347819244,-0.003923237702196291,0.004482132762433211,0.005598930329267226,0.5397499191172601,0.18390515822170378,-0.4246866804143512,-0.39842070958086934,-0.6103456191058346,9.803473508467517,-0.006694736621953012,0.003808386314358687,-0.003013797147003533,-0.12638087201931894,-0.16879090836200797,-0.13298085359541337
0.7846828515703556,0.145678704824801,9.724165442004418,-0.004442131540358077,4.754165015135022e-06,0.01152593105896747,-0.3558307975288338,0.11375197469664823,-0.56791961403407,0.059406170372135525,2.3379088624688307,9.529747254491557,-0.010207403144639013,-0.005008866224598883,-0.011314569421188154,-0.8758582623091787,0.16277499831476985,-0.2669044945413479,-0.29796710216262984,-0.47872212727180746,9.700982291188772,-0.005863576134469344,0.0037280973050313757,0.0027853113649104525,0.01842123443068006,0.2008545312467145,1.2127710935612341,0.23282162924340621,-0.47167174927436817,9.880972809410158,-0.0036526044952477268,0.004408031079840272,0.006788248036162078,0.5405633831092193,0.19143879539157704,-0.4291251791838104,-0.4264014464824551,-0.6208890737021739,9.79598367718643,-0.0080427893518875,0.004618552274945179,-0.0029873405103475873,-0.12607068619390294,-0.15828852839345758,-0.13760596556702046
0.7882967998938273,0.126755608815293,9.73961208613608,-0.0023140820782883917,0.0011101069251055907,0.008666886854561854,-0.35437015732268123,0.10745390612218164,-0.575287460898622,0.06510555018670969,2.3344899044801233,9.522134840616797,-0.008798595859008931,-0.004314565755927322,-0.010747790900813532,-0.871908635619705,0.15723949641784093,-0.2777938156295927,-0.3097321343183368,-0.4714474159187804,9.714488000429878,-0.006230131591293871,0.002459112888559335,0.003530550687425895,0.016691119627066306,0.19353446775343477,1.20935528410802,0.24468954139806645,-0.4727776657182394,9.885506257094697,-0.0037884177912337683,0.0044450820815364585,0.0061930858969876205,0.5386002001100285,0.1855629870133347,-0.4337385509891026,-0.4290967185289995,-0.6093975653669685,9.79932315196205,-0.0061294044216639145,0.0038931393471050026,-0.0021115436201295224,-0.1260694569800467,-0.16219108320819753,-0.14053955405332583
0.7841629603836743,0.1442308649625391,9.724229049293752,0.000350050579517712,0.002637196501739718,0.01070645264328905,-0.3521682611106938,0.10455170083402132,-0.5801846837378454,0.06591498653072358,2.3457793711971457,9.532693610812716,-0.011156943885732892,-0.004353411203999784,-0.010426987821010274,-0.8721360694606621,0.1533523698371886,-0.2765079125251663,-0.3060860725847608,-0.485863631632488,9.712115568906988,-0.006230129430229135,0.0024591120772907956,0.0035295506900900773,0.0166994851890995,0.20111032997933417,1.2191141821273437,0.26079567426487893,-0.4619794778079431,9.878738603296629,-0.0036295954781888798,0.0031591817378414937,0.006691625543319025,0.5383398800160492,0.19320151530841914,-0.42329215051171976,-0.4172308855751098,-0.6111610289414916,9.778897678392713,-0.006244150229015643,0.002859838457411024,-0.002335388814522507,-0.12584941756171003,-0.15609803113145507,-0.13198709317680132
0.7834508514920908,0.12769717006765646,9.718332497500588,-0.004367206713167166,0.000749417863103891,0.010759030643646687,-0.35359682291072403,0.11332890222329085,-0.5776794777671316,0.06919943806106672,2.351399146692579,9.522326451870859,-0.008258786085779204,-0.003983722236721021,-0.01162956523391972,-0.8721752556108723,0.16304330372388032,-0.28106491338641293,-0.31911494158913467,-0.47599536365078626,9.708949398427025,-0.005157453101471214,0.003486954677581102,0.002298031675721688,0.018160345539067188,0.19841727311821267,1.216190516144257,0.2557718518394961,-0.4748563184255705,9.890015953780962,-0.003912229886178628,0.0038577082518335398,0.005550115797118667,0.54006578811014,0.1914518165941295,-0.427664470566332,-0.42998519920113515,-0.6063133969158858,9.775964434851291,-0.006352685481259157,0.004368407301354311,-0.002452235475168212,-0.12340718751682637,-0.16025500301672566,-0.1349074190409709
0.7794753019401414,0.13963781744829004,9.715877229920189,-0.003035141028890705,0.001512466590299469,0.011778309630332029,-0.3553465142941905,0.10939092346724406,-0.5725900414152801,0.06910971854415347,2.345896549156355,9.546538882413094,-0.009944100076931393,-0.0028978412700470992,-0.010929432905397463,-0.8748608301884943,0.1590773257630233,-0.26928326121016755,-0.3075508406554028,-0.4884680908334122,9.711938515892472,-0.005311099872949276,0.0019973394647446185,0.004537914080514513,0.01741751892928883,0.19304500907633476,1.211066255544702,0.24044859913301364,-0.45990257376787275,9.91010760929278,-0.00366460569628891,0.005032455911239379,0.006836055996856573,0.5395480395748339,0.1833712130616531,-0.43176479409077717,-0.4156186232144133,-0.602689522259359,9.790149687929452,-0.007926023075685665,0.005652848938525222,-0.0027664829805933433,-0.12561689543151736,-0.1670796275318991,-0.1373696863210698
0.7751473289679389,0.13608828830864278,9.707480003899729,-0.0015730806675750744,0.0008439214323628823,0.010613804210993347,-0.35979162034876516,0.09965144313201911,-0.5729289071163333,0.0743106379348265,2.328697249737574,9.528966010251866,-0.010326178091872765,-0.005168401889190021,-0.009699865149925742,-0.8794693429546856,0.15294798563664042,-0.269432243420396,-0.3072025489783641,-0.4811940907926361,9.70732835512364,-0.005626995496587127,0.004701261449154358,0.00288203339121587,0.011336979566958241,0.20112806544709677,1.2151965685800823,0.26177787253829304,-0.46611886454583534,9.887391710830103,-0.0039122368407715005,0.00385670829743493,0.005550122341913446,0.5366718968166622,0.195384484043921,-0.42722366492049196,-0.41499705479401083,-0.6176557005055974,9.786495639982233,-0.005903104620132085,0.0034198621361082628,-0.001772832708912004,-0.12926118020171362,-0.15413214891272775,-0.13175874959715142
0.7868679163619146,0.13277014921500999,9.713919565227606,-0.002163186125549284,0.0012090397405101372,0.009339283842570495,-0.35412543080117376,0.10431318836043535,-0.5797062659260839,0.07050764161440841,2.3581880900553513,9.534006572952425,-0.009209325360368916,-0.003329238353279259,-0.01073996873337722,-0.8721402148100441,0.1547885275714591,-0.2782412156661009,-0.30248827131864087,-0.4978460943519857,9.72163309033987,-0.004475005486500711,0.002050015502912717,0.0032066746535322314,0.014963888368369285,0.1955038090636085,1.2213129856423042,0.23391913981311327,-0.46047034254195385,9.901375079670217,-0.00232455771293746,0.004433966280087805,0.007119815690470315,0.5392842316073224,0.19027616665540162,-0.42155759225949857,-0.42292509535760753,-0.6046625025927332,9.781806669325563,-0.007814478486735074,0.00414526968054521,-0.0026506184666804334,-0.1251502682754768,-0.16171937436746994,-0.1297917254403003
0.7906759898721315,0.14453132486804054,9.696526068069206,-0.002002852696423855,0.0020737098219838312,0.01144377139105092,-0.35952643032725307,0.10041654344191764,-0.5773160350798514,0.07034707716219908,2.342386316730607,9.524539594561722,-0.009113342142782066,-0.0037108490052551813,-0.010203343601427379,-0.8777460025211204,0.15211387532418574,-0.2760083613281511,-0.3165811185738712,-0.4851540314854067,9.701813285309761,-0.004475005486500711,0.002050015502912717,0.0032066746535322314,0.01499545210205441,0.19818186498707224,1.2115448552069794,0.25463148455153556,-0.46031271726857315,9.901782122309191,-0.0033151199506819516,0.003888697759557575,0.005418828420184791,0.5364315944451328,0.19243316956270975,-0.4308679506671411,-0.41862028709124904,-0.6078984726354179,9.78969993694251,-0.006631397759184732,0.004578730125135563,-0.001818528306256405,-0.12923365365931966,-0.15754158455950434,-0.13908768811919897
0.7823360665813004,0.13929849684348153,9.724448203971896,-0.004291274006010371,0.0014940919567346203,0.009990134214822173,-0.3531652201978483,0.10620840400948756,-0.5728513629916253,0.058046840967215546,2.351567722701681,9.538655531581341,-0.009483597046725011,-0.005449197320022719,-0.011117972729900264,-0.870696871624677,0.157571072460943,-0.2729136771737706,-0.3171678941491675,-0.48642582357002495,9.701730048792905,-0.006232134608634888,0.0024561174513253467,0.0035265487782179263,0.011806606027211003,0.19844415820470543,1.2188617706075386,0.25402947011480603,-0.4707842834138267,9.900212112410001,-0.003180306608934389,0.003851653669158992,0.006013983944609623,0.5346668208063715,0.19323808764162362,-0.4216074477169677,-0.4196960763714443,-0.6096131625906773,9.78954696053273,-0.007193709513464535,0.0044949690091666385,-0.0027237639476506287,-0.12999650414894756,-0.15535003007265952,-0.13200925742718364
0.778132132507121,0.13537234383763252,9.716045517623197,-0.0034877533737472472,-0.00018257981194311397,0.011949250437420147,-0.34998453671339164,0.10620506131072226,-0.5745478883813763,0.07371877746916031,2.328860561696035,9.52837521469213,-0.009562145055950586,-0.004429275937273981,-0.008781851889006407,-0.8694665992309512,0.15654281476788287,-0.2763129078152391,-0.29099985803243406,-0.49301815600787485,9.698756939843975,-0.004472696479453264,0.0036313327014235643,0.0035973978115101776,0.018156120657094328,0.1971960840072225,1.2159464970762084,0.2577960249936074,-0.47887916792250385,9.885800581084839,-0.0024703858252955583,0.005094434926687448,0.006573481242988821,0.5387836158966623,0.18660483511799766,-0.4234897686626004,-0.4253981077850633,-0.6197491716677339,9.791133500714361,-0.007703922765641452,0.0026376966104879876,-0.002536759470673469,-0.12344245720420403,-0.16343281369835766,-0.1307612516154009
0.7736433938527093,0.12221112783195219,9.73350836153661,-0.00030354597410710944,0.0030144644023929476,0.011619860808473959,-0.35242133067661285,0.1057442526839544,-0.5765142008159362,0.06494490827869137,2.3629866740936687,9.517909751059179,-0.009020343167768443,-0.004096439903729481,-0.009664656447635683,-0.8702077358687791,0.1591881143795727,-0.27855574874773137,-0.3188374585849766,-0.4889804893411639,9.701547512789737,-0.006337434447784398,0.003357091448762992,0.002974588816068209,0.019647772345778528,0.20280316339116583,1.2132601646280918,0.2387928612327368,-0.4722674044447601,9.895625595781619,-0.004621164624764724,0.0026129201742102594,0.004990638203078654,0.5427827325777781,0.19557985435118241,-0.4281618497336848,-0.4112833233286861,-0.6062516723459701,9.795565704884861,-0.005334434148964429,0.005543072747439419,-0.002938218308253582,-0.1233706341134985,-0.1514655056451035,-0.13538498034902693
0.7891938147670077,0.14121461500245536,9.69669523847229,-0.0019259292015526418,0.0028173708561703096,0.01067587097942875,-0.36316320198643137,0.10942445926997346,-0.5716446241148747,0.06420203448835982,2.3299930235007222,9.522140657827498,-0.010828064703470875,-0.003271217715395441,-0.01236884305163305,-0.8846337353998158,0.16120276069381773,-0.27080020190956305,-0.31147677790686423,-0.4887209184052933,9.706816223152256,-0.005633620421833713,0.0015346316228018705,0.0020965859689014987,0.016932703124097972,0.196713038836494,1.2161892457177967,0.2503860770048614,-0.46372068420102003,9.901730691287522,-0.002471385779534037,0.005094441837985054,0.006573474628239194,0.5375590024027402,0.1853884986109115,-0.4242228288866157,-0.4178242970212835,-0.6063307611120278,9.787371147903556,-0.006799093884018893,0.004816524136984955,-0.005312238943622381,-0.1290404276789033,-0.16218860553751388,-0.13298793224290106
0.7852111028723168,0.14365480325407182,9.72009651880608,-0.0038654396851497165,-0.0011290018603108717,0.01135832205212919,-0.35100151603432983,0.0991237847948724,-0.5738743492460192,0.0676458042653677,2.349411085773051,9.521767101525272,-0.007404763744072746,-0.0036291514414614934,-0.010169886710745786,-0.8723747607525458,0.15167108225936773,-0.2747709045954653,-0.30421787469842726,-0.48840294931461137,9.712086666195106,-0.0058869434017258075,0.004110621707821584,0.00456695528334392,0.015941865661228752,0.19085352012130383,1.212040847044994,0.2586107237829634,-0.4695085125339077,9.874477685497984,-0.0029216885122127527,0.00439997690916794,0.007251122701788528,0.5380807127283783,0.18289335345482616,-0.4317712842243776,-0.42333385984749744,-0.6261401848632736,9.798727641072999,-0.007472416236739001,0.004705292998354951,-0.0020910567626325305,-0.12608303405076943,-0.16536534180173887,-0.14029932490338856
0.7930175773657299,0.13208854196274755,9.7310261801789,-0.004656512342630763,0.0013124227392615191,0.010827300418682241,-0.35559872718915597,0.10454485399800548,-0.5770241686523954,0.06270085335712001,2.3484140787843555,9.530460866565777,-0.01063508877057502,-0.0040364339338259244,-0.011295557708225283,-0.8765406104899555,0.15575253409298745,-0.2777765574189244,-0.31743623085344863,-0.47839993884318993,9.708924976920738,-0.004602673459460309,0.003335513240343045,0.004440359157666857,0.014233104594513586,0.19281692913390794,1.215453570541866,0.24839235124408326,-0.4617358673708899,9.880165579469086,-0.0033041190892571606,0.0032632732945592938,0.005370020432831012,0.5373079368346828,0.18367643865564248,-0.4249452261388948,-0.42038982316381707,-0.6002418481874213,9.777272830716594,-0.007586156512280432,0.003671989416959357,-0.0023158963908006974,-0.12782629823256858,-0.16195073615285,-0.13175989118357834
0.7765836295510147,0.13588854337174283,9.70330495305031,-0.0017750476795686109,0.0029142959275314747,0.0113492522212713,-0.3541257144610659,0.11445963601074668,-0.5659542587998848,0.062350849099268836,2.3291085781045466,9.544671603968228,-0.008583520021650292,-0.003384935322749208,-0.011078050861895032,-0.8751254163701147,0.16300201417162097,-0.2681282598907247,-0.3006168983675884,-0.48403754685143824,9.683923831593466,-0.00515845612872826,0.0034839553482818235,0.002294031930720303,0.01521137667252629,0.1972130335902574,1.2227761377385702,0.2520406169714323,-0.47356714580562276,9.887290828221408,-0.004251728633785018,0.004374048941017448,0.006918541861276603,0.5380359904545987,0.18760937595803207,-0.42008315290806003,-0.4208900065710186,-0.6118474368547925,9.786895682125762,-0.007527853009720444,0.004440346702479834,-0.0011156577547883253,-0.12834402748049722,-0.16439410178900693,-0.12810355561447545
0.7843521548265482,0.1455499966393605,9.707286477733273,-0.0022286600858819174,0.0012222233296616436,0.01152421252641705,-0.36051756557071557,0.10208280566643238,-0.5712036634347106,0.07076666564955283,2.3338032751513285,9.526107246547866,-0.009464315218392968,-0.0042856205649060165,-0.010383322918052287,-0.8819102014314333,0.15246065688609725,-0.26869500696892107,-0.30697971255389267,-0.4810133603861634,9.690633645588937,-0.00599555570349861,0.0034282807920829857,0.0036222716100370164,0.019847269222009696,0.19695177283711635,1.223763370785278,0.24634254621570245,-0.47704479826117757,9.900106870709676,-0.0051174718677533,0.004417147293291141,0.005860524760814879,0.5412246890724765,0.19125893449825787,-0.41862119477397736,-0.4169585921858273,-0.6053952907040452,9.785015008847038,-0.0073044237883455616,0.0034626585099554958,-0.002952585674232718,-0.12393918668923028,-0.15831094808297194,-0.12563095908605762
0.7883155731894795,0.142497196231821,9.728664045755668,-0.0037895148794920624,-0.0003843434330517692,0.010591425546335973,-0.3580922859192404,0.0988979923376258,-0.5714630389786551,0.06646124363859848,2.3497167289031498,9.521183945115265,-0.009564298582150221,-0.003904978649946993,-0.01091693800362251,-0.8743299452615492,0.1507553893964466,-0.27060820773927363,-0.30544844172390634,-0.47628959232138834,9.70270715468594,-0.0050508511763419795,0.004163298557258221,0.003236715853697456,0.016666317086674952,0.1923210035414738,1.2186332396716277,0.249373330589022,-0.4662123708718765,9.888801900035766,-0.0033151338598676966,0.0038866978507603547,0.00541884150977435,0.5390237403430983,0.184886179695892,-0.42469791674553165,-0.41385110336861886,-0.6051124166032359,9.806216941011206,-0.0069070934416794166,0.004789044873811969,-0.0011878044386701447,-0.1278375765767118,-0.16487971237592094,-0.13176336733639943
0.7998604865339161,0.12286707285530964,9.729141908803403,-0.003411819294347249,0.0005601178703874873,0.011177338416366948,-0.3601815321841956,0.11071984712484262,-0.5830981380514748,0.08449769336310856,2.3315059676752514,9.52364503569379,-0.010307052919592668,-0.0034795351807364616,-0.011101314923860755,-0.8787487392933665,0.15841027565511975,-0.27880085570383023,-0.3086095270728049,-0.49472426781015283,9.711627302613017,-0.005634617822534148,0.0015336330889647396,0.002093584615536952,0.015709063175580334,0.19305146266639303,1.2108185575657122,0.24876248077672974,-0.4766669217241624,9.887224719645388,-0.0030465075159889633,0.0038116100363640164,0.006608152531964728,0.5397733169715907,0.18216083858880824,-0.4300462628196052,-0.42024298632378804,-0.605446066723391,9.798009915308507,-0.007470258715411474,0.004203866203151866,-0.004269664233966935,-0.12584885467955037,-0.1675635494608516,-0.14005658201572022
0.7760817861568883,0.14318228392965188,9.722303834777446,-0.0025909540807349677,0.002432888354571395,0.010160212064997154,-0.35680057541715826,0.11038707730382523,-0.5740530392910608,0.05654058377060887,2.347212594130697,9.538696985023432,-0.009905299921928738,-0.004471804081237999,-0.0111030347975525,-0.8778026271415804,0.16337487830665715,-0.274243789289064,-0.3070375638957479,-0.4787235598675462,9.702537694639878,-0.004127518686722144,0.005281836178264046,0.0046368075306983106,0.023518506212436337,0.1937554243806886,1.2137638710225291,0.24692832600174439,-0.45836297395863923,9.890335173222985,-0.004375540728729877,0.0037866751113145294,0.00627557176140765,0.545912826228706,0.1860148257406721,-0.4314963935430447,-0.4195409026228233,-0.6203085299090224,9.794335435136757,-0.005445150127918162,0.004511761074703454,-0.00316603886413663,-0.11900359339009646,-0.16197752263629966,-0.13781501287904602
0.7713484990230604,0.1395956562187173,9.713934717943998,-0.0025785165859583976,0.0031956412746084835,0.011588290946466443,-0.3492512981153789,0.10716950653936944,-0.5735603988577235,0.059428628787171076,2.3392667010572823,9.518318934055584,-0.009570281332882501,-0.003909939597958753,-0.010912864223007399,-0.8704474233582659,0.15658721511844126,-0.27338485579381816,-0.3171956078947508,-0.49002885905110366,9.701586911549693,-0.004689915028123456,0.0022676500507746323,0.001707029664711064,0.022084366300959755,0.20304003405616572,1.216195245919238,0.2454611919317761,-0.4629440800209143,9.911863659162945,-0.003934246288969779,0.005104544183239322,0.005645758037596468,0.5459267814926932,0.19312990044850137,-0.4261719632305498,-0.41616565197353994,-0.6038145886921872,9.782704218296287,-0.006906941429321373,0.004287624627419175,-0.0033654230263478933,-0.12121157486559712,-0.15709234760889548,-0.13245049782589602
0.7788122676485779,0.13293771933200751,9.711964976763706,-0.005401442187589863,0.00018334205965118348,0.01107352256435536,-0.35950543110101185,0.10843111229062732,-0.5718819633834354,0.05960378243581507,2.336957684087397,9.51888597182518,-0.009976026617006039,-0.0029206223844562684,-0.01090710093582158,-0.8780310657250644,0.15948874679215513,-0.2729579045097895,-0.3125825534638416,-0.49539538959302093,9.69470421601959,-0.003893249216952109,0.00467368393514472,0.0043438063963616,0.025230239348110226,0.19594793454508191,1.2164517986352577,0.2487599863322288,-0.4617011185935635,9.899005581219734,-0.004117922586246721,0.004335005262621083,0.007512703903836929,0.5458844316446034,0.1872727757085995,-0.4258896278420558,-0.44036716783736357,-0.6027031476536271,9.78671314716955,-0.008820631371039297,0.0029745753977908403,-0.0021795640433570434,-0.11830452448491888,-0.1651578762192675,-0.1339087732866609
0.7748525360150584,0.13518477401958534,9.735366835057901,-0.002012296536086071,0.0013000434111567316,0.010002618346211356,-0.35606272491162805,0.10749542169118517,-0.5794439825711718,0.07068806201752384,2.3461421403795146,9.513117642537361,-0.008733526382415075,-0.004720985930140068,-0.010190798436583824,-0.8770445477547065,0.15869920383336816,-0.27660557036762123,-0.311053955076221,-0.4905836048686515,9.706784647954567,-0.006316062858037147,0.0029695659456654127,0.001181944612775028,0.01641409389050786,0.19305910678616217,1.2237591094572833,0.24309959220744567,-0.4517891604043676,9.891845762143266,-0.0033051259980885123,0.003262280251458289,0.0053700203628761645,0.5399662660104096,0.1871272040164266,-0.4171381672548917,-0.4179794187433672,-0.6078432495262777,9.782377443161774,-0.00802884296193666,0.0051239359704513664,-0.0008246392321947656,-0.12371775280125336,-0.16417084165551263,-0.1256365583495846
0.7783152650645145,0.13127776241893163,9.71202701286744,-0.0009790240281507595,0.0018612500392681862,0.009672083862520406,-0.35579808472715535,0.11671626312144967,-0.5722904331800878,0.04758400614816306,2.343750374596386,9.533617461995691,-0.010554048891150934,-0.004432963323326584,-0.01074970609724922,-0.8758633725051266,0.1653819032532953,-0.27158782311485086,-0.29452118816261735,-0.48006995713569167,9.712937863335789,-0.005527012441829068,0.002211974683307255,0.0030342693466919595,0.013043105867441129,0.19916664698547576,1.213004841027394,0.2604672752281278,-0.4699685069096443,9.880427170761918,-0.004521355317280144,0.004448137121814613,0.005728230812426938,0.5344874958274817,0.1929282130680407,-0.43186102744799787,-0.4256541643726921,-0.6045367271046564,9.78748074826734,-0.005218854176964736,0.004037483871824479,-0.0028273291397244438,-0.1294882821165512,-0.1560790699601944,-0.1361573508697389
0.7819391870120705,0.1331762373542121,9.720509527626527,-0.004278800871497648,0.0022539468419009306,0.01140519003506543,-0.3497095301643481,0.11230458407963181,-0.5742540118945029,0.07655960483229372,2.3404112017694265,9.506075311558082,-0.009441229592184394,-0.0025877695861344033,-0.01178691691481447,-0.8712305295333838,0.16615333332062693,-0.27061595704877456,-0.3006735752165348,-0.4769285775789454,9.719662037041104,-0.004582313969547849,0.002945993267654226,0.002649714390537707,0.014238393149482487,0.19648226776811115,1.219601619448015,0.25058460598473575,-0.47199796627356944,9.884537802503619,-0.003181327812329398,0.0038476541723639884,0.006013003552334676,0.5397540656016452,0.1863589181516366,-0.4227497408146416,-0.41460608971356755,-0.6124015062356973,9.79015499387056,-0.0064573550135431914,0.0033390806275801856,-0.0026870202439853944,-0.12686946008989153,-0.16366633543339842,-0.12931553628354847
0.7856672150361074,0.13471316967175828,9.728989621558982,-0.003851026138085964,0.0010231847048821313,0.010573207259080567,-0.3563442510844142,0.10452385498436981,-0.5738531564854327,0.06890462520799169,2.3450829296572295,9.535704635183402,-0.007860723421458438,-0.0038232715036944035,-0.010881489250115218,-0.8753142723111047,0.1543099568323431,-0.2767732326867639,-0.30395392858927006,-0.4840837018329977,9.707404720056582,-0.0049475621421548365,0.0032573291383929804,0.003784675512338185,0.008399081405915295,0.19747512112308152,1.2122631752956785,0.24037002269813365,-0.46426038011218435,9.890220952218012,-0.003449947201615259,0.003923741941158937,0.004823685985349517,0.5314953283397998,0.18686565285080453,-0.4286665900424374,-0.41653058926003167,-0.6106837091424512,9.803322517959854,-0.007751294769608786,0.0023737322691033645,-0.0015723146979065147,-0.13267115466986926,-0.16216793704491161,-0.13862316634012237
0.7856084271831484,0.14330560696594344,9.703174701990372,-0.0038510221873363937,0.0010231925380679448,0.010572207297564917,-0.35831321164314806,0.10184444603829222,-0.573393905989701,0.07144408857083769,2.3238585321609637,9.505189944282963,-0.009276489669176043,-0.004527536944197403,-0.011444111788889415,-0.8792170287511678,0.1521681957554309,-0.2723491810755177,-0.31387953087646764,-0.4955399172287795,9.706441561688592,-0.005185138019672752,0.002283165649164327,0.0036839521353324023,0.01254966515163176,0.19476983089840558,1.20714732606314,0.24798821639183577,-0.4678987345751473,9.907607729108717,-0.005548752261897167,0.0024738474866693345,0.0064395239691137805,0.536909581838702,0.18727728157145493,-0.43473799835072635,-0.4280571708258477,-0.6095290219371116,9.787065575662348,-0.006508445837330082,0.005114588036945712,-0.0037792524386275846,-0.12850236606074722,-0.1629113848583272,-0.14250793916246116
0.7770377793816613,0.12229537422665744,9.725101108273753,-0.002090215892694415,0.0005504584138995227,0.010761468071619918,-0.3609743498144467,0.10021661423172515,-0.5819625003459993,0.06987803234385853,2.354309428244752,9.54683430473655,-0.010528779753735316,-0.0032663750768312594,-0.01001609698209781,-0.8789593792302639,0.15179866078207818,-0.27991163812517067,-0.2999283895771559,-0.490917030219827,9.70042994458925,-0.005654684308599341,0.0034964724286407796,0.004267954653676073,0.01741816629588372,0.1964677352855825,1.2169224957957032,0.24720287397759794,-0.46898653182022854,9.90757573776625,-0.0029766424064705693,0.0033683575735786618,0.004049421963751909,0.541496855824727,0.18680451116953942,-0.42738042921926644,-0.41756446617278264,-0.6079739729003016,9.779954556708875,-0.007917125846096298,0.0031159399541819716,-0.0028893920708353985,-0.12463953160920128,-0.1607402812062298,-0.13320580242234603
0.7970130004494045,0.13404206768414592,9.722574942184483,-0.0019998550075699087,0.0020598356308365344,0.0114256738585798,-0.3553416067692083,0.10650221476000075,-0.5777398480059099,0.06743110499017703,2.347417539387162,9.534645956017366,-0.009585245342506103,-0.003920842195495658,-0.010902704903003924,-0.8763074154809853,0.15818615833672103,-0.2783050024284605,-0.3087270639273773,-0.49411419347454766,9.694951509246797,-0.007154163727318604,0.002911892863532639,0.0025071837415766834,0.01818325697325427,0.20158728660919326,1.2113049809091792,0.2500953135506961,-0.46142909679945243,9.917844376148368,-0.0033760123110019146,0.00370153321744864,0.00792777053881404,0.5459757410983334,0.19529301077812958,-0.43131312016832857,-0.425743595682161,-0.6112479305278575,9.808118762625638,-0.0075780990019901386,0.0036739690325179675,-0.002324849471285198,-0.1228864160370501,-0.1556147926607024,-0.13758516173169125
0.7806350967881355,0.1331961805557073,9.707763041171171,-0.003333890498016518,0.0013018050556299976,0.010405426360528018,-0.3556265416566045,0.09869084907734611,-0.5778021639893327,0.05697135992204526,2.3335721484388365,9.541536530274838,-0.010869779442834083,-0.003833217254796774,-0.010203193634429852,-0.8772450289040163,0.14849974601644175,-0.27326062065955237,-0.309470689006506,-0.4956133903866171,9.694851118208692,-0.0054204148388293065,0.002888320185521453,0.003974953519339362,0.02350868573015548,0.19204762639565975,1.2152302391892797,0.23676790271155135,-0.46810612152239106,9.89012663038552,-0.0027180308789638936,0.003916687404085779,0.005287560677635252,0.54637948266237,0.18480337994966392,-0.42953225890703617,-0.4276825831744622,-0.5933729874907184,9.78845950717372,-0.005663403086028928,0.0049900132152772775,-0.003509699359847812,-0.12001130237819771,-0.16563942737298953,-0.13465082699722614
0.7763084413662452,0.1295126860128727,9.699359770747513,-0.002745790153988525,0.000932728800170167,0.011675907648469682,-0.34929865526056364,0.098861223502493,-0.572648631189975,0.06547153781818466,2.3381722163094993,9.523030905148426,-0.008746491871211239,-0.004730912608341612,-0.010182652446149286,-0.8672461697145469,0.15191194325979823,-0.27647571395238135,-0.31452500732881616,-0.48390882810405156,9.697079705893819,-0.004947565607646712,0.0032553275316622938,0.0037826771233655278,0.017893388785176788,0.19549221044358,1.2210743252561103,0.25293756159303893,-0.4573028686947894,9.883436363873694,-0.004241741635784451,0.0037466314785195537,0.006869740348762756,0.5404703697802355,0.18317357149438754,-0.4237000833828167,-0.41570565202752685,-0.6049105489975132,9.777800417213571,-0.0076866359583063594,0.005183536702936431,-0.00244069496123186,-0.12614790924924252,-0.16391514853687777,-0.12760279070293942
