# sampling frequency: 40
# units are seconds/meters/radians/a.u.
seg1_acc_x,seg1_acc_y,seg1_acc_z,seg1_gyr_x,seg1_gyr_y,seg1_gyr_z,seg1_mag_x,seg1_mag_y,seg1_mag_z,seg2_acc_x,seg2_acc_y,seg2_acc_z,seg2_gyr_x,seg2_gyr_y,seg2_gyr_z,seg2_mag_x,seg2_mag_y,seg2_mag_z,seg3_acc_x,seg3_acc_y,seg3_acc_z,seg3_gyr_x,seg3_gyr_y,seg3_gyr_z,seg3_mag_x,seg3_mag_y,seg3_mag_z,seg4_acc_x,seg4_acc_y,seg4_acc_z,seg4_gyr_x,seg4_gyr_y,seg4_gyr_z,seg4_mag_x,seg4_mag_y,seg4_mag_z,seg5_acc_x,seg5_acc_y,seg5_acc_z,seg5_gyr_x,seg5_gyr_y,seg5_gyr_z,seg5_mag_x,seg5_mag_y,seg5_mag_z
8.622048,4.085719,-1.090099,0.7365,-0.064233,0.470018,-0.427246,0.191162,-0.042236,2.393142,5.541952,7.565148,1.623547,-0.288226,-0.701562,-0.35083,-0.199707,-0.487061,0.882921,8.532893,-5.443207,-0.247792,-0.21052,0.638502,-0.259277,-0.517578,0.231689,-6.060694,8.268324,5.174284,-0.11632,-0.186978,-0.194221,0.262939,-0.494629,-0.382324,-4.455557,6.506249,6.445195,0.269034,-0.239518,2.302909,0.235596,-0.519043,-0.403564
9.080996,3.429418,-1.355417,-0.03742,0.020434,0.239138,-0.424072,0.198486,-0.041504,1.671572,5.617566,7.633275,0.604723,-0.171155,-0.560273,-0.345703,-0.209717,-0.484131,1.23212,8.14144,-6.502664,-0.601107,-0.343364,0.60106,-0.264648,-0.514648,0.228027,-4.903618,6.465855,5.161403,-1.137268,-0.69441,-0.657485,0.260742,-0.477051,-0.394531,-2.616036,6.445637,6.358407,-0.698161,0.304643,2.056755,0.213623,-0.517334,-0.411865
7.692727,3.678079,-0.962137,0.047975,-0.017837,0.256936,-0.427002,0.197754,-0.039307,1.904685,3.931869,7.152102,1.383687,-0.404964,-0.490704,-0.352539,-0.234131,-0.469971,0.752636,8.653666,-5.186503,-0.845748,-0.34861,0.513552,-0.269531,-0.520752,0.228516,-4.161866,3.966863,4.392115,-0.730285,-0.508374,-0.8543,0.264404,-0.469727,-0.398438,-3.913785,5.691127,6.37098,-0.525044,0.256409,2.551037,0.181641,-0.525879,-0.413574
8.404635,3.62037,-1.074328,-0.524507,-0.284573,0.278392,-0.423828,0.210205,-0.032227,2.131262,8.141908,7.709642,1.407905,-0.288659,-0.267847,-0.349854,-0.250244,-0.45752,1.408769,8.048778,-4.498482,-1.063177,-0.863624,0.366834,-0.262939,-0.526367,0.217529,-5.221847,4.775992,4.570375,0.721091,-0.555839,-0.708087,0.271484,-0.474121,-0.398926,-1.684402,6.794617,6.00434,0.221467,-0.573181,2.168257,0.153564,-0.53418,-0.415771
9.064887,2.497149,-1.590426,-0.504732,-0.320718,0.056706,-0.435303,0.216553,-0.029541,3.149629,4.982157,6.94321,-0.627661,-0.668208,-0.094897,-0.362549,-0.241455,-0.457764,2.259548,6.15301,-4.679391,-0.839751,-0.840293,0.452309,-0.268066,-0.526367,0.218994,-4.292894,7.101016,5.369288,0.842028,-1.078913,-0.475641,0.263184,-0.486816,-0.389893,0.531156,7.749997,5.627875,0.091134,-0.301602,2.013155,0.119873,-0.540527,-0.409912
8.661288,2.054542,-1.683607,-0.24234,-0.278767,-0.081736,-0.435791,0.212891,-0.025879,3.34314,1.287803,5.57059,1.811524,-0.081923,-0.137155,-0.364014,-0.267334,-0.437988,2.140734,6.450696,-3.100245,0.718658,-0.906266,0.276482,-0.264893,-0.510498,0.234375,-2.69164,6.226534,4.518251,0.249249,-0.465624,-0.357788,0.258057,-0.480469,-0.395996,0.018938,7.118205,5.692393,0.33374,-0.606132,1.802864,0.086426,-0.540283,-0.410156
9.826137,3.438105,-1.720199,0.197576,-0.650755,-0.124166,-0.430908,0.208008,-0.012207,1.561039,8.190203,6.769567,3.364275,-0.377128,-0.345493,-0.355469,-0.308838,-0.404297,1.847389,8.408776,-3.419862,0.968367,-0.78261,0.080433,-0.255615,-0.509033,0.255371,-4.835037,5.148815,4.696307,0.890461,0.051724,0.104209,0.264893,-0.499023,-0.380859,1.701787,8.635865,5.623469,1.396191,-1.051598,1.617654,0.054199,-0.561523,-0.390869
10.316433,3.584928,-2.100895,-0.308779,-0.153551,-0.399392,-0.437988,0.196289,-0.007812,2.484192,10.441207,6.772161,0.62841,-0.374951,-0.436667,-0.365479,-0.331299,-0.395996,1.323361,6.72618,-3.964693,-0.026655,-0.746403,0.406247,-0.26123,-0.508301,0.263428,-5.275548,6.672393,3.679175,1.995292,-1.089477,0.335612,0.244629,-0.528809,-0.361816,1.620179,11.139665,6.017992,0.830712,-0.72824,1.87413,0.012695,-0.572754,-0.377686
9.070084,3.194148,-1.898465,-0.514158,-0.13998,-0.511565,-0.443848,0.194092,-0.011719,1.170582,5.171041,5.999746,-0.236045,-0.558891,-0.685193,-0.369629,-0.32959,-0.397461,1.641977,5.938031,-5.264776,0.986735,-0.653498,0.076767,-0.26001,-0.499756,0.272217,-2.259099,10.143374,3.331656,1.664067,-1.21974,0.258198,0.228271,-0.550537,-0.360596,2.447415,9.850989,5.098909,-0.80971,-1.104745,2.172088,-0.029541,-0.562256,-0.398193
8.249908,3.59616,-1.239313,-0.527547,-0.110323,-0.535482,-0.443359,0.189209,-0.007812,2.751395,3.623503,5.483792,1.742401,-0.529016,-0.704867,-0.364014,-0.348389,-0.372803,1.020286,7.485186,-7.555784,1.306687,-0.183936,0.02879,-0.254639,-0.483643,0.289062,-3.672795,10.498611,3.125729,0.376937,-0.273014,0.418277,0.220947,-0.548096,-0.354736,3.785694,7.045413,3.681739,-0.665775,-0.890575,1.982627,-0.065918,-0.543457,-0.406982
8.412087,4.190383,-1.342573,-0.731589,-0.430672,-0.439785,-0.443359,0.179932,0.006104,1.959601,8.259219,6.510577,2.912217,-0.224406,-0.507279,-0.362061,-0.383789,-0.337646,0.740389,8.456195,-9.007298,0.516196,-0.459796,0.137497,-0.254639,-0.469482,0.306641,-5.204678,9.794569,2.552168,0.656129,-1.213769,0.178521,0.205322,-0.552002,-0.348145,3.310635,7.380764,4.64694,-0.008118,-0.895335,1.479366,-0.098877,-0.537354,-0.402832
8.358751,3.390231,-1.155292,-0.854448,-0.461124,-0.18476,-0.445801,0.176514,0.010986,2.861128,11.603526,7.317889,0.990337,-0.130748,0.007637,-0.359131,-0.393555,-0.328613,1.776348,8.795053,-9.718434,-0.187237,-0.212643,-0.105934,-0.251465,-0.474121,0.307617,-2.45511,12.486825,2.479727,1.008934,-2.031869,0.107482,0.183838,-0.568848,-0.343506,6.101822,9.056825,5.351757,-0.561805,-1.215639,1.362452,-0.131104,-0.528809,-0.404541
8.328919,4.174206,-1.171157,-0.908638,-0.882476,0.03053,-0.451416,0.194824,0.031738,2.913113,8.399262,5.597352,-0.475831,0.126532,0.401599,-0.364746,-0.370605,-0.328613,1.572514,7.896874,-9.678865,-1.35952,0.158658,-0.345301,-0.254883,-0.495361,0.288086,-2.215791,14.268675,3.122252,-0.469428,-1.513159,-0.046324,0.163818,-0.573975,-0.35791,7.517158,9.38434,4.069562,-1.838334,-0.249194,1.005323,-0.160156,-0.508545,-0.42627
9.485409,2.801687,-2.106583,-1.039844,-1.014388,0.109786,-0.452148,0.182861,0.041504,3.339806,6.584899,5.756857,0.377205,0.52427,0.652171,-0.364014,-0.382324,-0.338867,1.041129,6.686081,-8.301729,-1.295136,0.263619,-0.269397,-0.244873,-0.498779,0.2771,-4.253739,12.002206,2.673376,-1.947206,-1.543748,-0.229418,0.160645,-0.548096,-0.383789,6.315375,8.055752,3.153398,-2.384752,-0.178786,0.733409,-0.161865,-0.472412,-0.452148
10.096348,3.395578,-2.294453,-0.542015,-1.089678,0.2957,-0.460205,0.182617,0.06543,1.993308,8.74478,6.002893,0.977072,0.888857,0.634938,-0.37085,-0.389648,-0.329834,0.690919,7.625548,-7.083104,-0.881199,0.457488,-0.337191,-0.253906,-0.507568,0.26001,-4.341334,10.188662,2.493564,-1.034975,-2.024806,-0.05032,0.131104,-0.539551,-0.402588,8.253368,7.395601,3.69981,-1.910723,-0.651166,-0.042918,-0.181396,-0.448975,-0.474609
9.498969,3.720384,-2.170351,-0.705659,-0.998503,0.449809,-0.459717,0.192871,0.088135,2.160355,10.105251,5.936761,-0.082246,0.94709,0.722876,-0.36499,-0.381836,-0.337402,0.41724,8.339459,-6.831729,-1.149534,0.544022,-0.156496,-0.240479,-0.519043,0.233398,-3.37079,12.333513,3.156024,-0.360827,-2.041956,0.275436,0.116455,-0.538574,-0.423584,9.367823,8.682387,4.243807,-1.845425,-0.086805,-0.889423,-0.162354,-0.437012,-0.50293
9.390961,4.154678,-2.323809,-0.876851,-1.046522,0.339291,-0.463379,0.199463,0.102539,2.15181,7.053621,4.522601,-0.431501,0.871635,0.791744,-0.364258,-0.369141,-0.352295,1.517116,8.95088,-5.652492,-1.297435,0.683713,-0.274426,-0.246826,-0.528076,0.215088,-3.355026,13.738971,4.295715,-1.696299,-1.825687,0.566343,0.080566,-0.518311,-0.447998,8.332554,9.927144,4.312066,-2.378793,-0.132145,-1.628494,-0.154053,-0.413086,-0.526123
9.252572,5.13854,-2.290215,-1.332192,-0.729482,0.050953,-0.461914,0.19043,0.11499,2.787779,6.358637,3.962408,0.967865,0.758241,0.659638,-0.365234,-0.37793,-0.349365,1.819484,8.492787,-5.032596,-1.281076,1.075142,-0.099393,-0.259766,-0.530029,0.19043,-2.199068,10.304764,3.515019,-2.851552,-1.809316,0.775307,0.044678,-0.476318,-0.480713,8.043071,8.637963,3.048466,-3.064354,-0.275639,-2.005468,-0.145996,-0.373291,-0.553955
9.00682,5.245783,-2.046634,-2.447232,-0.69739,-0.34095,-0.471191,0.184326,0.130859,2.934542,10.713058,4.89997,1.4065,0.601405,0.52227,-0.370605,-0.37793,-0.337402,2.133925,7.961071,-4.862871,-0.743896,1.139005,-0.277691,-0.251221,-0.533447,0.171631,-0.293303,7.370075,2.837289,-1.410612,-1.361294,1.210647,0.019531,-0.458496,-0.49292,7.191007,6.584045,2.814574,-2.240059,-0.46573,-2.618459,-0.128418,-0.355225,-0.571045
9.898342,2.287026,-3.091393,-2.343708,-0.449657,-0.642972,-0.468262,0.159668,0.133057,4.048719,10.604868,4.811503,-1.036534,0.43703,0.774639,-0.370361,-0.373535,-0.356201,2.892206,6.573999,-4.449958,-0.408276,1.250301,-0.329716,-0.256348,-0.537354,0.157959,0.672829,7.274593,3.305646,-0.222638,-0.846174,1.684329,-0.013428,-0.447021,-0.500244,4.746101,6.704163,3.24833,-0.876579,-0.670261,-2.995879,-0.116699,-0.351807,-0.581299
9.938149,2.492537,-3.213093,-1.365552,-0.377777,-0.901314,-0.468994,0.147217,0.140625,4.201712,6.70598,3.814516,-1.076776,0.406398,0.545683,-0.373047,-0.354004,-0.369385,3.318309,5.40135,-4.253212,0.732193,1.319608,-0.67871,-0.251953,-0.539307,0.153076,1.154979,7.12856,3.83351,0.220794,-0.49031,1.851493,-0.0354,-0.450439,-0.499512,3.251129,7.433899,4.195925,-0.057763,-1.483607,-2.800903,-0.11499,-0.366455,-0.580566
9.962127,3.672079,-2.397876,-0.723192,-0.124086,-1.27981,-0.466553,0.123535,0.146973,5.424238,5.256646,4.150328,-0.359743,0.435062,0.576171,-0.372314,-0.341309,-0.372559,3.991335,6.087865,-5.200129,1.763598,1.509836,-0.87203,-0.248535,-0.537598,0.173828,1.365864,6.590017,4.334837,0.70008,-0.341296,2.069434,-0.059082,-0.449707,-0.484863,3.645673,7.784611,2.900061,0.346716,-1.472116,-2.585405,-0.117432,-0.378174,-0.566406
9.501213,7.102363,-1.11032,-1.208738,-0.183454,-1.462628,-0.459473,0.093262,0.140869,4.627044,2.679088,4.416244,0.777675,0.865622,0.512263,-0.368896,-0.34375,-0.376221,2.621732,6.098744,-6.37968,1.28669,2.119946,-0.790136,-0.251465,-0.53125,0.175537,1.111748,7.441104,3.755769,1.718225,0.087391,1.997906,-0.081543,-0.465088,-0.465576,1.98616,8.01864,2.701487,1.076458,-1.107625,-2.132072,-0.119873,-0.405029,-0.550049
8.317955,6.862414,-0.667686,-2.672316,-0.343588,-1.677593,-0.449951,0.059814,0.145752,4.835777,4.518495,3.851703,3.194779,1.274141,0.689552,-0.359131,-0.36499,-0.351318,1.158322,5.158297,-6.284903,1.382817,1.788145,-0.639773,-0.250732,-0.525879,0.179688,-0.2606,9.255464,4.999363,1.350777,0.220937,2.103504,-0.101807,-0.473389,-0.454834,1.202616,9.745961,4.253783,1.539391,-1.177191,-1.874801,-0.125732,-0.429688,-0.534424
8.184761,6.587888,-0.771101,-3.230591,-0.667782,-1.946294,-0.446777,0.014893,0.143799,3.996038,8.465136,2.804362,2.936455,1.848326,0.818502,-0.357178,-0.383545,-0.334961,1.70957,6.490574,-6.826909,2.036584,1.443725,-0.763916,-0.241455,-0.514648,0.192871,-0.300236,7.512808,4.262914,-0.075457,-0.344692,1.809734,-0.116699,-0.461426,-0.456543,1.291027,9.471721,4.101267,0.10138,-0.848835,-0.889754,-0.119141,-0.431396,-0.532471
9.590073,5.971735,-2.496199,-3.582786,-0.357159,-2.42701,-0.438721,-0.039062,0.123779,3.580536,11.521676,2.955931,1.697372,1.800362,0.940488,-0.354492,-0.39209,-0.338623,1.511211,9.779292,-6.23944,0.764013,1.5702,-1.015672,-0.225098,-0.518311,0.174805,0.7679,5.93827,4.260514,-0.113683,-0.255835,1.440145,-0.122314,-0.454346,-0.467529,0.941842,6.508219,4.585761,-1.130101,-0.57228,-0.26007,-0.118896,-0.41748,-0.55127
8.769492,7.055133,-1.796812,-3.329841,0.381095,-2.803255,-0.41626,-0.087646,0.107178,2.600201,10.785302,2.809068,-1.32752,1.705924,1.067519,-0.349121,-0.366699,-0.35376,1.411789,9.258664,-4.804041,-0.998802,1.365624,-0.740131,-0.221924,-0.520752,0.155762,0.387253,6.265724,7.039742,-0.233829,-0.085679,1.308134,-0.136475,-0.436523,-0.464111,1.237924,3.5053,4.59925,-0.9737,-0.435463,-0.039007,-0.124268,-0.395508,-0.554932
8.800801,8.054894,-0.888892,-3.523587,0.965036,-2.928072,-0.392334,-0.13208,0.055664,1.163934,4.459032,1.555332,-0.626581,1.192781,1.19503,-0.347656,-0.34668,-0.371826,0.015603,6.098194,-4.542425,-0.71084,1.697978,-0.732867,-0.224365,-0.522217,0.134766,-0.509016,4.943244,7.681883,-0.472932,0.229781,0.964951,-0.145996,-0.426514,-0.467285,-0.239849,2.822168,5.115323,0.48991,-0.011775,-0.031794,-0.130371,-0.402588,-0.549805
8.533898,9.418548,0.358623,-3.551901,1.553907,-2.728917,-0.376953,-0.165527,0.00415,2.384865,5.145488,0.732454,2.784577,1.322096,0.902104,-0.35376,-0.358887,-0.347168,-1.114351,4.683072,-5.161515,1.544765,1.319959,-0.328767,-0.220215,-0.517334,0.143555,-0.712987,3.630502,7.298298,1.581569,0.111705,1.236153,-0.148682,-0.436279,-0.448486,-0.114317,5.582632,6.361474,2.648172,-0.329533,-0.249965,-0.127686,-0.439453,-0.52124
8.64989,8.650098,1.186499,-3.589417,2.283423,-2.523775,-0.337402,-0.195801,-0.057861,1.533451,13.732695,1.923484,4.702109,1.343576,0.606741,-0.346191,-0.386963,-0.308594,-0.288313,8.776409,-6.223958,4.529937,0.433904,-0.126079,-0.211914,-0.489746,0.19165,0.391319,6.949052,9.389836,3.539555,-0.004018,0.980946,-0.151611,-0.469727,-0.416016,1.901707,9.345067,8.011309,3.014071,-0.076395,0.566424,-0.130371,-0.472168,-0.489014
7.202393,8.173966,1.705465,-2.660512,2.795756,-2.199631,-0.300781,-0.209229,-0.127441,1.976051,19.979755,3.87161,-0.531859,1.041084,0.416626,-0.338623,-0.373047,-0.327393,1.261869,14.672457,-4.976572,2.364208,0.739918,-0.270683,-0.210205,-0.483398,0.205811,1.116861,10.734574,11.906081,1.586864,0.500744,0.682608,-0.146973,-0.487549,-0.408447,1.667006,9.716121,10.119045,0.714718,0.709692,0.980945,-0.128906,-0.480713,-0.491455
8.037832,8.997444,2.142634,-1.498719,3.475594,-2.009646,-0.260254,-0.227539,-0.192627,2.157909,6.537348,-1.512564,-4.616545,0.561174,0.669783,-0.346191,-0.325928,-0.380615,0.895615,12.683347,-4.753734,-1.205712,0.307776,1.275142,-0.219971,-0.483643,0.189453,1.188267,7.898743,12.489107,-1.659842,0.435709,0.336389,-0.144043,-0.470215,-0.425049,2.255555,6.320952,11.471036,-1.118966,0.596025,1.901994,-0.136719,-0.455566,-0.503418
7.786223,10.768394,1.83732,-1.227518,4.76392,-1.741346,-0.200928,-0.23584,-0.262939,0.910488,2.443249,-1.040627,1.921976,-0.008727,-0.323129,-0.340576,-0.339844,-0.363525,1.720048,10.282365,-3.561371,-1.379045,-0.251624,1.147188,-0.233643,-0.472412,0.172852,1.0663,2.706911,12.959097,-2.283974,0.735327,-0.090339,-0.136963,-0.429688,-0.446533,1.524684,3.256556,11.934545,-1.67131,1.350711,2.440394,-0.145508,-0.403564,-0.528564
8.00359,11.966588,2.82328,-1.375121,5.337887,-1.602312,-0.127197,-0.240479,-0.320557,-0.627104,14.077242,3.956116,2.697202,-0.92282,-0.288476,-0.346924,-0.364502,-0.324463,0.37548,11.750558,-1.502654,0.202567,0.110049,1.443624,-0.256104,-0.470703,0.16748,-1.676292,-0.140732,13.010579,-1.506709,1.120695,-0.428994,-0.123779,-0.420654,-0.47168,-2.641578,0.920768,11.174635,-1.470544,1.928891,3.293489,-0.154785,-0.372559,-0.557373
9.439645,9.929758,1.319045,-1.920478,5.984266,-1.556531,-0.046143,-0.229004,-0.374756,1.096047,12.845904,2.480759,-0.800207,-2.327858,-0.049633,-0.364014,-0.355225,-0.301514,-0.103815,11.460173,-1.081272,-0.205504,-1.001761,1.574933,-0.272949,-0.458984,0.175781,-2.682482,-2.985599,11.575939,-0.216816,0.667327,-0.707947,-0.114502,-0.421875,-0.473877,-4.731398,-1.194264,9.7615,0.500279,1.053679,4.046191,-0.175293,-0.355713,-0.554443
6.317774,11.185858,4.363724,-1.235115,6.266387,-1.023812,0.044189,-0.205322,-0.425293,3.377307,11.285944,3.773688,-0.29047,-2.200678,-0.548802,-0.376465,-0.343506,-0.290771,1.109632,7.507174,-2.498256,0.784884,-1.594716,2.342251,-0.28833,-0.436035,0.197021,-1.45418,-2.256755,8.529939,3.185105,0.849703,-0.485695,-0.09375,-0.461182,-0.439697,-3.356742,1.414141,7.632846,3.581726,0.852978,4.161868,-0.191406,-0.377197,-0.529785
2.442389,9.542134,6.577049,-2.126302,5.719114,-0.502352,0.129883,-0.177002,-0.463135,3.937803,13.261036,8.241049,-0.31348,-2.502568,-1.098085,-0.379883,-0.352539,-0.274658,2.007337,7.432561,-3.543598,3.129326,-1.835524,1.768503,-0.290527,-0.404053,0.239258,-2.813303,4.293375,7.423094,4.585916,1.593643,-0.690681,-0.062988,-0.520752,-0.393799,-3.328405,6.135637,9.528284,3.688609,0.866312,4.415087,-0.209229,-0.397705,-0.500732
2.953014,8.665425,6.564558,-1.847644,4.727148,0.456387,0.190186,-0.146973,-0.485107,5.362643,11.134607,8.762961,-1.21181,-2.233288,-1.472461,-0.387207,-0.361328,-0.269287,4.595385,12.747035,-8.834531,4.252299,-2.483908,1.80061,-0.29126,-0.358154,0.299316,-2.273375,10.795503,7.609099,3.761827,0.363153,-0.79413,-0.052246,-0.559814,-0.347412,0.469111,6.858583,14.544175,1.680248,-0.026437,4.183582,-0.250732,-0.388672,-0.483887
-0.797237,7.07682,7.438481,-2.88093,5.133705,0.204018,0.262939,-0.100098,-0.5,7.149074,8.375339,5.266686,0.244768,-2.994314,-1.097237,-0.391846,-0.373779,-0.235596,6.283956,15.364475,-12.062052,-0.183877,-1.465034,1.206396,-0.290283,-0.345215,0.311523,-0.083914,15.62059,7.469967,1.308071,-0.219181,-1.537071,-0.032471,-0.572754,-0.326172,2.801624,2.873421,9.254877,-1.317609,1.293169,3.641697,-0.260498,-0.333252,-0.500244
-6.529283,2.769003,4.472641,-2.604203,3.217542,0.225041,0.316162,-0.051758,-0.507324,7.797607,13.609094,10.367592,-0.278037,-1.201959,-1.079355,-0.381104,-0.373535,-0.230713,2.462243,8.605262,-8.698121,-5.220751,-1.156677,2.435485,-0.303223,-0.36377,0.274902,1.194323,10.780936,5.501596,-3.386388,0.317804,-2.383897,-0.001221,-0.544189,-0.373779,-1.253786,-3.232223,7.524328,-0.926088,1.268358,2.895625,-0.263672,-0.29248,-0.517822
-7.514329,4.057725,4.603079,-0.708033,3.103049,0.121208,0.364014,-0.046143,-0.504639,0.730936,11.491995,7.582602,-2.521553,-1.593819,-0.649541,-0.385254,-0.376221,-0.250977,1.773446,2.794431,-6.818316,-2.456286,-2.316896,0.609217,-0.302002,-0.38501,0.28125,-1.431154,0.194705,1.298233,-2.257869,0.824316,-2.356383,0.025146,-0.529785,-0.394287,0.713294,-2.539169,7.809155,1.708857,-0.83154,1.566731,-0.293701,-0.309326,-0.494141
-9.763583,6.494506,4.63808,-0.701245,1.907697,0.284738,0.389893,-0.031494,-0.496826,2.641892,9.36728,11.692221,-2.618987,-1.792342,-0.898247,-0.38623,-0.371338,-0.262207,2.53191,5.947672,-7.514233,1.279569,-1.666413,-0.493835,-0.279785,-0.386475,0.306396,-2.40828,3.58513,-1.713525,3.439449,-0.743533,-2.402762,0.050781,-0.57251,-0.348389,5.857386,1.989749,5.605939,1.471803,-0.611668,0.394033,-0.302734,-0.334717,-0.474854
-13.434209,6.553597,3.583759,-1.340648,2.28327,-0.209981,0.42041,0.001709,-0.494873,-0.141428,7.043464,9.642643,-3.244188,-1.161786,-0.498855,-0.394287,-0.343994,-0.288574,-1.108162,10.571322,-12.773468,0.389878,-1.101704,-1.80731,-0.253906,-0.390869,0.323486,-1.575208,16.289535,-1.381709,3.931032,-1.428814,-2.255529,0.067871,-0.593018,-0.291748,7.493308,4.804686,4.401345,0.40318,-1.207438,-0.22662,-0.315186,-0.336426,-0.450928
-11.636848,4.119557,2.011742,-1.585288,1.249911,-0.791225,0.447754,0.020264,-0.501465,6.044713,4.03693,6.503481,-1.060078,-1.614242,0.056739,-0.405029,-0.350098,-0.290771,2.413252,10.773566,-11.807304,-4.867807,-2.241283,-1.503532,-0.235107,-0.441406,0.288086,-3.752781,22.834095,2.080464,0.951268,-1.19606,-2.286375,0.078613,-0.599609,-0.283691,17.993001,7.453667,3.844436,0.586246,-2.528895,-1.295178,-0.344727,-0.355469,-0.419434
-20.330917,4.023848,2.491647,-1.298245,0.427578,-0.141851,0.45752,0.034424,-0.501221,8.677575,14.241127,9.012538,-0.671268,1.270206,-1.156049,-0.380859,-0.36377,-0.314697,4.019785,3.02268,-7.394229,-8.259286,-0.817237,0.318129,-0.226074,-0.50293,0.206787,-3.79026,24.546498,0.711735,-2.170882,-3.018228,-1.331303,0.075439,-0.580811,-0.315674,27.56216,12.997326,1.56418,0.679913,-1.272426,-2.327317,-0.33374,-0.388428,-0.395752
-7.289866,1.646178,1.491047,-1.326282,-2.12574,-0.307495,0.434082,0.054932,-0.519531,1.466769,8.831569,8.817446,-6.24716,1.896198,-0.210141,-0.358887,-0.315186,-0.395752,3.093251,0.843299,-7.722731,-4.644809,1.003401,-1.629021,-0.216064,-0.540283,0.140381,1.249654,17.695174,-4.618727,-6.650223,-3.045196,0.278475,0.036621,-0.522949,-0.407959,24.276793,16.38725,-1.30542,-2.604977,2.694254,-2.185701,-0.28833,-0.385986,-0.452148
-9.58279,0.331957,1.308418,0.118004,-1.372011,-0.621634,0.414795,0.049561,-0.51709,3.311245,-6.19293,3.460868,-3.656208,1.444459,0.067727,-0.347412,-0.285645,-0.432861,0.200243,0.960251,-7.160249,0.425973,2.964371,-1.620878,-0.201904,-0.549805,0.136963,-0.236921,6.831801,-2.80497,-4.408484,-0.259675,0.338086,0.029785,-0.473389,-0.451904,13.505486,11.407691,-2.504461,-6.282381,2.02218,-1.863743,-0.247314,-0.321045,-0.518555
-5.743457,3.704669,2.983258,0.157619,-2.371746,-1.225489,0.387695,0.049316,-0.5354,6.398442,-0.547484,4.230823,3.40407,2.681372,0.985791,-0.327881,-0.318115,-0.432129,-2.126309,3.439034,-6.672844,4.555051,1.458257,-1.006571,-0.194336,-0.533936,0.189941,-2.217295,6.490102,0.799229,1.52712,-0.884304,1.390439,0.00293,-0.484619,-0.436279,12.032215,1.448832,-2.477734,-4.545028,0.139362,-1.773692,-0.237305,-0.266602,-0.55127
-0.520772,2.398572,4.606989,-0.082852,-3.170944,-1.77408,0.352539,0.059814,-0.554932,3.710793,13.32369,5.693335,1.184112,3.402486,0.721539,-0.287354,-0.324707,-0.455322,1.832721,11.733018,-6.084315,3.610006,-0.352216,-1.071559,-0.188232,-0.529541,0.242432,2.433697,13.297655,1.955509,2.374696,-0.974802,1.677471,-0.033203,-0.521484,-0.408203,6.906184,0.443786,0.143673,1.079634,0.590395,-2.656118,-0.221436,-0.306885,-0.544678
2.668204,4.628972,6.099391,0.046755,-3.435923,-1.95501,0.304932,0.065674,-0.562744,3.662552,9.01349,4.916776,-4.301643,2.737531,1.895234,-0.267334,-0.261963,-0.503662,4.091754,9.867803,-5.945691,-2.548633,2.159227,-0.956299,-0.177246,-0.551514,0.192871,0.76305,13.940318,2.896367,-1.220606,1.598555,1.199843,-0.018066,-0.502686,-0.427979,4.190738,9.07512,2.745607,2.467842,-0.991656,-3.060796,-0.202393,-0.362793,-0.525879
7.725045,5.267198,7.165761,0.474802,-3.556624,-1.704088,0.252197,0.060547,-0.571777,2.590688,5.742653,0.562691,-2.613892,3.686247,0.813578,-0.224121,-0.222656,-0.54834,-1.375473,2.620983,-7.28482,-3.190688,2.668317,-0.770321,-0.17749,-0.573242,0.133057,-4.855803,8.561278,2.717534,-2.534104,0.554856,1.802688,-0.031494,-0.470459,-0.458984,7.295728,12.648572,3.967987,-0.251603,-0.909109,-2.344012,-0.194824,-0.376709,-0.530518
10.990194,8.632982,4.730599,1.301475,-2.964401,-1.215783,0.203857,0.041016,-0.567627,-1.924257,3.921778,-1.955321,-1.126047,1.8404,1.280651,-0.211426,-0.197266,-0.562988,-0.689478,3.902991,-4.372356,0.913294,1.453659,-1.289721,-0.163574,-0.554688,0.138916,-1.808923,6.906757,5.002328,-1.204185,-1.21943,1.547226,-0.062988,-0.431885,-0.476562,3.537599,10.614568,5.448795,-3.002031,1.16537,-2.932279,-0.156006,-0.33374,-0.567871
6.252355,13.190424,4.337035,0.251677,-0.610491,-0.756094,0.205566,0.030762,-0.570068,-0.740467,10.403417,-0.057983,2.960429,1.103537,-0.125712,-0.187256,-0.246094,-0.551514,-0.525957,11.5832,-5.071771,2.757331,1.406524,-0.811464,-0.151855,-0.550781,0.161621,0.738861,5.469388,7.915991,-2.292685,0.350448,2.06958,-0.074707,-0.400879,-0.506592,-2.766128,4.306913,6.414692,-4.188274,0.893671,-2.302141,-0.125488,-0.281494,-0.610107
4.310404,8.912817,4.630217,-2.361059,-0.865418,-0.462145,0.192627,0.074707,-0.581787,1.584425,16.94932,1.415701,-0.971229,-0.457897,0.855656,-0.19873,-0.224609,-0.563477,1.368167,11.425748,-7.44935,-2.012821,1.132116,-0.990337,-0.148926,-0.575195,0.121826,-0.411294,-1.906124,10.609258,-2.737965,0.24391,0.886061,-0.079102,-0.366943,-0.532959,-3.192742,-6.215764,8.543396,-3.437415,-0.198734,-1.39612,-0.120605,-0.240479,-0.630371
0.65718,5.24631,4.360704,-0.591301,0.287501,-0.327058,0.200195,0.088135,-0.570312,1.830604,11.351557,1.597901,-3.031954,0.508093,0.503464,-0.190918,-0.174072,-0.572021,-2.128575,4.325849,-5.916346,-1.769646,0.813814,0.974237,-0.16333,-0.576904,0.102783,0.39976,-5.666025,12.114954,0.569276,0.284561,-0.030165,-0.073242,-0.371582,-0.515625,-2.390242,-8.378074,12.265656,1.976954,-0.048902,-0.453908,-0.11792,-0.273193,-0.610352
0.685401,9.279465,5.649657,-0.080971,-0.825028,0.21923,0.185547,0.090332,-0.575928,-2.935463,6.204285,3.098596,-2.821067,-0.775417,0.499655,-0.20459,-0.126953,-0.582764,-2.329978,8.195255,-1.879771,2.807078,-0.697037,-0.230894,-0.150879,-0.565918,0.135986,-2.92406,0.375066,15.950966,2.181404,0.498231,-0.350737,-0.058594,-0.399658,-0.50708,-4.543352,2.479568,16.110881,3.176243,0.386268,0.113735,-0.106201,-0.321289,-0.5979
1.9423,7.702009,5.153833,0.062129,0.40979,0.706599,0.183105,0.086914,-0.573242,0.890061,5.031368,2.816724,1.132085,-1.045645,-0.945968,-0.223633,-0.151123,-0.569824,-0.984688,15.558058,4.089588,0.692987,-1.620905,1.647153,-0.178467,-0.552002,0.146729,-3.604634,1.751815,16.680821,-1.850827,-0.476963,-1.564862,-0.063965,-0.373047,-0.527832,-4.549952,4.42863,16.216889,-1.910444,0.13387,1.914824,-0.128174,-0.276123,-0.617432
3.355284,10.01457,8.344506,0.178613,-0.128629,2.345805,0.178711,0.095215,-0.570068,-2.146439,11.092309,7.678563,1.316325,-1.354156,-2.452501,-0.229248,-0.172363,-0.556641,-1.256446,11.213778,3.001164,-3.003383,-1.103021,1.921053,-0.19751,-0.557617,0.114258,-2.565388,-5.890526,13.166388,-2.601834,0.044376,-1.234012,-0.052734,-0.344727,-0.543701,-5.998764,-5.123179,11.411473,-3.428445,1.055614,1.753715,-0.119873,-0.215576,-0.63501
1.658987,8.177431,11.537646,-2.698223,0.827999,2.260887,0.186035,0.144531,-0.569336,2.811823,5.894487,7.774066,-1.976511,-2.183235,-2.949113,-0.243164,-0.158691,-0.549072,-2.834748,6.123388,0.131291,0.160635,-1.839872,2.464661,-0.229004,-0.532471,0.126709,-5.621004,-7.224299,9.868344,1.923883,0.801229,-1.484509,-0.036621,-0.365234,-0.528564,-9.318885,-8.609535,8.251735,1.05032,0.396378,1.138817,-0.12207,-0.214111,-0.630371
2.129916,-3.223167,6.185076,-4.068729,0.450538,1.377344,0.200439,0.210693,-0.571533,2.715506,-5.860893,7.403185,-2.530923,-2.255317,-2.272853,-0.259033,-0.139404,-0.545898,1.365355,9.584137,-1.08041,3.714767,-3.789684,2.440125,-0.237793,-0.508545,0.198242,-3.886676,-0.730389,8.814412,3.943966,-0.463958,-1.636769,-0.020508,-0.429932,-0.494873,-4.775296,-2.00311,5.225771,4.62162,-1.960928,0.517049,-0.149902,-0.29834,-0.5896
-2.789808,-10.013701,10.034049,-1.142663,1.979749,0.627326,0.22168,0.231689,-0.562012,4.111389,-8.010203,8.446369,2.602008,-3.145795,-1.724914,-0.303711,-0.187988,-0.508301,4.463756,11.854897,-3.367229,2.917163,-2.731028,2.269524,-0.252197,-0.479248,0.261475,0.003765,3.478766,4.843776,4.405779,0.793943,-1.520921,0.003418,-0.495361,-0.437988,3.118109,5.921053,3.443058,5.831722,-1.921539,0.204094,-0.182373,-0.391357,-0.519531
-7.217179,-7.463407,11.737718,2.58526,0.492165,0.642339,0.226074,0.189697,-0.563721,7.134341,2.92753,14.722027,5.834536,-2.242284,-1.638789,-0.323486,-0.268555,-0.454834,2.80049,8.681737,-1.983548,0.910927,-2.012972,2.446397,-0.270752,-0.457031,0.286377,-2.227592,6.722095,0.83655,4.377048,1.744347,-1.138652,0.031006,-0.544434,-0.384521,4.183495,10.327621,5.259144,4.554755,-1.298531,0.231366,-0.206055,-0.449463,-0.464355
-9.001736,2.851923,15.29925,2.032265,0.980151,0.585989,0.244141,0.165527,-0.561768,0.568259,9.109524,17.380247,1.83473,-1.812732,-1.406672,-0.327881,-0.292725,-0.425293,2.718152,6.427757,-4.265085,1.219029,-2.416754,1.047527,-0.259521,-0.436523,0.320801,-2.181465,11.593538,0.337291,3.754276,-0.412634,-0.90531,0.042725,-0.583008,-0.335449,7.386037,11.072443,5.146547,1.729893,-1.74835,0.800662,-0.232178,-0.465576,-0.428223
-16.644485,0.788668,14.111756,-1.406738,0.595289,0.637496,0.252197,0.184082,-0.560303,3.455621,4.254879,16.983229,-1.899866,-1.885885,-1.298296,-0.339355,-0.286133,-0.428711,2.709785,8.54832,-12.982592,2.762264,-0.586936,-0.022262,-0.256592,-0.413086,0.354736,0.518043,17.252997,-2.751029,2.941933,-0.403012,-1.123303,0.04834,-0.615723,-0.294189,10.577643,8.764686,1.556648,0.052441,-1.178833,0.619401,-0.258057,-0.467285,-0.416016
-13.773009,-4.800301,9.351225,-0.786605,-0.07206,0.128449,0.242188,0.19165,-0.556396,-3.111488,-1.408808,15.1367,-0.495983,-0.855595,-0.183592,-0.355469,-0.286621,-0.418213,-2.046227,14.986677,-13.825594,1.356657,0.004011,-1.871628,-0.236816,-0.410889,0.365234,-2.591993,20.887694,-5.113468,0.774163,-0.04393,-0.826842,0.061279,-0.62085,-0.285645,15.188882,9.157291,0.448115,0.925298,-1.872294,-0.615194,-0.273438,-0.483887,-0.391113
-14.649467,-4.0442,8.785619,0.912977,0.974084,0.573522,0.267822,0.17749,-0.554932,4.533932,5.064652,14.150294,1.996417,-2.638403,0.07869,-0.375488,-0.308838,-0.380859,2.716054,12.219789,-8.626221,-6.115226,-0.761102,-1.370437,-0.220215,-0.476562,0.3125,-3.095549,22.05073,-2.725108,-0.346266,-1.640977,-0.145292,0.049316,-0.62207,-0.282471,18.224346,14.367156,-2.011729,0.958297,-1.123352,-1.811836,-0.261963,-0.509766,-0.359131
-22.492818,-1.023989,9.35434,2.846959,-1.026154,1.252655,0.254395,0.130615,-0.570801,11.288265,10.018049,15.644673,-1.566975,1.934376,0.085624,-0.348389,-0.289551,-0.429199,1.876845,0.907486,-10.845456,-9.203301,1.302621,-0.285008,-0.226318,-0.543213,0.184326,0.632813,20.959364,-3.377009,-3.161412,-1.511466,0.965624,0.021484,-0.592773,-0.341553,19.132355,18.415314,-4.863929,-0.517588,-1.530602,-3.210043,-0.240967,-0.533203,-0.367188
-6.51622,4.609163,8.500785,2.329399,-3.170898,0.918083,0.195801,0.085205,-0.562744,2.361174,-2.442859,10.495478,-1.86043,2.725368,1.660271,-0.336914,-0.264893,-0.458984,2.047423,-0.961423,-11.348419,-3.991253,1.767039,-1.457291,-0.213135,-0.568848,0.115479,2.181819,10.846442,-4.188387,-3.6555,0.019884,2.420103,-0.006592,-0.553223,-0.400146,11.54879,15.640702,-4.195334,-3.8959,1.347411,-3.767811,-0.178955,-0.513428,-0.440186
-6.459048,4.615865,9.146092,0.934527,-1.601557,-0.59167,0.166504,0.069824,-0.566162,8.431481,2.193336,7.591787,3.479674,2.226908,1.874784,-0.333008,-0.286133,-0.455078,1.828373,0.308801,-9.100396,5.604446,2.375195,-1.251849,-0.210205,-0.560059,0.19165,-2.166114,7.899283,-2.015647,2.014927,1.325001,1.507605,-0.019043,-0.581787,-0.36792,-1.715553,7.72046,-2.474305,-3.212184,0.089832,-4.150514,-0.135254,-0.510254,-0.469482
-2.046639,6.641091,9.654431,-0.21228,-3.457521,-2.242021,0.12207,0.060547,-0.564209,7.689828,13.12788,13.547419,-2.733368,3.378175,3.525952,-0.314697,-0.236084,-0.507324,0.6588,5.052197,-11.430004,11.813657,2.468918,-3.224871,-0.17749,-0.494385,0.32959,-0.982348,16.44639,0.744003,3.368035,-0.644641,2.755438,-0.057373,-0.60498,-0.324951,2.862773,7.18763,-3.986607,2.237495,-2.52079,-4.403764,-0.108398,-0.55127,-0.426758
6.273107,1.713979,8.197574,-1.0064,-4.885899,-3.201425,0.055908,0.066162,-0.552979,11.49817,-2.092875,5.050776,-6.327858,3.466449,4.650197,-0.2854,-0.117676,-0.566162,1.241546,16.621744,-6.492258,2.566497,3.05342,-3.696497,-0.169922,-0.484863,0.335449,1.901026,15.730317,-0.591098,-1.037143,0.989242,2.184814,-0.085449,-0.588135,-0.354492,-1.498411,14.758015,-3.414868,3.084131,0.528386,-5.447348,-0.036133,-0.601318,-0.39917
24.463465,5.42226,5.122247,2.468588,-5.519675,-4.049783,-0.016113,-0.002197,-0.535645,4.168676,-1.123017,-1.081483,1.141474,5.493023,4.10469,-0.22168,-0.117676,-0.608154,-0.256302,9.979158,-4.102723,-5.129134,2.567692,-0.321927,-0.16748,-0.539062,0.27417,-3.891199,9.592655,-0.415195,-3.274478,2.591951,2.355376,-0.078125,-0.557129,-0.394775,-9.300147,18.028948,-0.862346,0.178072,-0.258826,-4.660769,0.037598,-0.618164,-0.388428
13.91171,17.517213,-2.123385,4.63233,0.106183,-2.977665,0.003174,-0.092041,-0.495117,-2.594635,10.306149,-2.675563,2.569616,1.176365,1.886972,-0.213623,-0.155029,-0.592529,3.441835,5.258829,-3.150191,-1.990362,2.03055,-3.295334,-0.143066,-0.555664,0.233887,-5.242033,3.053804,2.971319,-3.629346,0.035786,2.848823,-0.111816,-0.492188,-0.445068,-4.240866,14.527468,0.905431,-3.782272,-2.342876,-2.371658,0.035156,-0.562012,-0.451172
3.311881,27.319714,4.40972,-1.075838,-0.78655,-3.369126,0.022217,-0.093262,-0.510254,4.755935,15.751785,-0.291336,1.522472,0.071577,1.574578,-0.211914,-0.174072,-0.592773,1.5383,3.953053,-11.853958,-0.983347,4.930624,-3.140866,-0.130127,-0.567871,0.197998,-0.345327,-0.485415,1.66729,-1.207021,0.899594,2.401627,-0.130127,-0.462891,-0.466309,-0.334328,3.379722,0.041697,-6.537115,0.530225,-1.627758,0.052246,-0.467529,-0.53833
2.61109,13.565306,2.740191,-5.387382,0.822681,-2.970615,0.050781,-0.015381,-0.538574,4.72005,18.634562,5.407238,0.202957,0.244241,1.270265,-0.21582,-0.165039,-0.589111,-4.645345,3.746335,-12.160784,-2.354518,3.161734,-2.280588,-0.108154,-0.595215,0.158936,-2.771631,4.197981,6.099332,0.537939,1.175846,2.164401,-0.129883,-0.462891,-0.459717,-2.002783,-4.55268,5.836046,-2.674338,-0.322456,0.055036,0.047363,-0.432129,-0.554932
-1.800131,5.648046,3.731632,-1.848859,-2.054912,-3.344749,0.035156,-0.003174,-0.547607,7.030556,14.826618,4.468105,-2.699887,2.350512,1.8226,-0.189697,-0.12207,-0.620361,-1.294858,2.926031,-5.72448,-4.270041,0.243899,-1.323008,-0.091064,-0.605957,0.0896,1.080548,6.040571,12.060476,-2.771145,-0.101795,0.542359,-0.136719,-0.415039,-0.493652,5.158763,0.684524,9.37002,1.292892,-1.477405,0.382369,0.02124,-0.439209,-0.545898
-1.550805,6.828276,1.355852,0.205806,-0.313029,-2.748355,0.046631,-0.012695,-0.539795,-0.767327,2.63227,-2.451779,-0.078125,2.816824,2.182071,-0.14917,-0.104736,-0.624756,-1.323173,1.480932,-6.421621,-2.721304,0.989372,0.357519,-0.096924,-0.621094,0.045898,1.890846,-0.124488,12.344379,-3.971452,1.329557,1.029887,-0.123291,-0.36499,-0.524902,4.403262,7.184102,14.700584,-1.03494,0.589445,1.617253,0.013184,-0.429932,-0.557373
-10.065794,9.972384,2.92952,1.718348,-1.926041,-1.728021,0.015869,-0.046631,-0.508789,1.324392,12.976155,-5.46576,5.171917,2.508049,-0.377529,-0.11792,-0.186035,-0.600342,-2.192603,6.306174,0.376331,1.273365,-0.3417,1.506483,-0.115967,-0.599609,0.069824,-1.389745,0.150824,14.367485,-1.988674,0.488797,-0.461804,-0.113525,-0.325928,-0.539062,3.217984,4.42909,18.624598,-4.849147,-0.283105,3.028875,-0.019531,-0.338623,-0.600098
-5.616921,9.299645,-4.308032,0.222192,1.781183,-0.818829,0.05249,-0.054932,-0.526367,-9.51251,20.751062,-3.672913,-0.305214,-0.011385,-0.498966,-0.114258,-0.184326,-0.605713,1.373566,14.940575,0.887121,2.535589,-2.08327,1.011684,-0.123047,-0.586914,0.10791,1.565192,-2.438439,14.579252,-3.978614,-0.875169,-0.393945,-0.123779,-0.269043,-0.559326,5.239002,-6.93,10.568803,-5.537113,-0.112516,3.522882,-0.044189,-0.238281,-0.636963
-0.224591,5.411955,4.143775,-0.684327,1.852943,-0.403039,0.078613,-0.042725,-0.532959,-0.410482,6.894839,-2.014981,-4.979374,-4.791949,-1.558687,-0.182861,-0.108887,-0.607178,-0.548666,16.768539,-2.290978,-0.815603,0.579552,0.545054,-0.134033,-0.598877,0.097168,0.200815,-9.267591,11.655397,-1.772833,0.868452,-0.968268,-0.109131,-0.257812,-0.563721,-0.483383,-9.666317,12.679332,1.039186,1.578323,4.687208,-0.045654,-0.253418,-0.633301
2.767599,3.195961,6.514753,-1.74321,5.224668,0.318815,0.161621,-0.008057,-0.556885,5.316691,-0.830199,4.938481,0.342981,-2.590901,-1.336427,-0.215576,-0.113525,-0.594727,-6.196766,9.893822,-2.027197,-6.823454,-2.263857,1.622123,-0.156006,-0.599609,-0.00415,-6.518605,-6.356109,14.121543,-1.164047,0.550647,-2.322152,-0.089111,-0.246582,-0.574219,-8.188912,0.4855,17.647344,-0.037899,0.630042,6.383624,-0.068359,-0.232666,-0.643799
-2.105464,3.579177,10.081214,-2.720587,1.327353,2.515898,0.168457,0.035156,-0.557129,5.62569,6.699054,12.909986,1.547475,-2.910313,-2.718445,-0.250244,-0.149658,-0.55957,0.253437,4.047443,6.427291,-5.216645,-5.579446,1.852674,-0.182861,-0.580566,-0.052002,-2.016429,-7.456037,9.936763,1.368495,-3.200263,-2.716303,-0.120361,-0.268555,-0.553955,-7.748458,-2.541593,10.977558,-0.845738,-0.487909,8.588414,-0.110107,-0.175049,-0.640625
0.607717,-2.863933,11.84703,-4.028688,2.623522,3.691872,0.212402,0.111084,-0.572754,5.867895,3.204793,12.38679,1.233832,-1.470852,-3.341529,-0.241455,-0.177246,-0.551025,4.754044,2.930732,3.520247,-1.73826,-4.326035,1.753368,-0.221924,-0.571045,-0.053711,3.832061,6.373857,7.756384,8.091386,-0.425859,-1.32529,-0.122314,-0.392578,-0.502686,-1.115504,4.19233,7.928817,6.013041,-2.055518,5.89369,-0.179199,-0.24292,-0.60791
5.023037,-11.286419,10.941537,0.690639,-1.595259,5.058417,0.157959,0.10083,-0.55957,1.38971,2.714964,14.731591,0.539407,-1.647154,-5.113821,-0.252686,-0.214844,-0.52832,4.275247,2.762981,-1.363785,6.515785,-1.090604,2.191158,-0.237061,-0.555176,0.048096,-5.349509,19.775813,11.429017,3.869835,0.826492,-0.119469,-0.097168,-0.450928,-0.471436,5.437974,15.637235,9.904067,3.795638,0.77254,5.7166,-0.187744,-0.270264,-0.592041
12.431326,-3.768241,9.32588,3.341001,3.637298,2.351322,0.221191,0.048584,-0.554688,3.233773,-1.803418,10.886551,-0.799987,-3.634362,-0.811912,-0.286621,-0.208496,-0.508545,0.106475,12.853898,-21.758745,15.566668,-0.929367,-1.11901,-0.220947,-0.491455,0.253662,-2.597569,13.698022,7.887009,-4.549804,-3.124424,-1.811178,-0.133545,-0.405518,-0.506836,-3.840171,11.166318,8.874702,-5.810044,3.39468,6.175776,-0.16626,-0.13623,-0.639893
-15.483898,2.271145,14.044573,1.489895,3.795229,0.817851,0.270996,0.021973,-0.555176,9.65237,-6.437815,11.014107,-0.933703,-2.03953,-0.330809,-0.312744,-0.203125,-0.509277,4.654478,27.718796,-1.938467,3.39058,-0.886772,1.524288,-0.236084,-0.456299,0.294189,7.917084,2.131868,1.239379,-2.076633,-1.089249,-1.894119,-0.139648,-0.385254,-0.51709,-4.304574,-8.857213,5.838814,-7.271083,-1.488082,5.313046,-0.206787,0.017578,-0.624023
-15.323044,-0.099274,14.142354,0.217925,0.130652,-0.768674,0.271484,0.029053,-0.543457,-1.476889,-6.948991,21.531627,2.845826,-0.498524,1.430398,-0.33252,-0.216064,-0.470947,-0.700724,15.764305,-7.527871,-9.789387,-1.516585,2.737335,-0.251465,-0.505371,0.191406,-2.794361,6.078183,1.364485,3.053641,2.003842,-0.887734,-0.093994,-0.431885,-0.485107,14.137042,-11.006736,4.807998,3.758322,-3.845372,3.520847,-0.254883,-0.013428,-0.598633
-7.297056,2.584486,12.460614,-0.452445,0.841042,0.41617,0.285645,0.033203,-0.543701,3.372774,12.048377,12.073402,6.784752,-2.067347,-0.543612,-0.346436,-0.293701,-0.400879,1.980929,2.914427,-13.41838,-8.080512,-0.957168,0.000253,-0.256348,-0.53418,0.094727,-8.56289,15.956486,7.634028,2.073057,-3.656902,-0.415633,-0.144287,-0.458008,-0.467041,11.077301,8.121704,8.469396,4.398759,3.28703,0.355401,-0.208252,-0.073242,-0.630859
-12.213047,-1.170105,10.80428,-0.276801,0.532206,-0.287963,0.289062,0.028564,-0.548584,4.282127,16.18105,16.764782,-2.146213,0.39892,2.476787,-0.370361,-0.260742,-0.429199,1.132425,3.838363,-1.126714,2.383735,0.017424,-0.699007,-0.238281,-0.546875,0.136719,6.498984,13.908791,1.993572,-3.497321,-4.053495,-1.133563,-0.175781,-0.432861,-0.477295,2.789505,7.915864,8.943162,-5.765929,-0.996756,1.909612,-0.218506,0.018799,-0.608398
-18.844509,-0.41215,8.750387,0.277792,0.656012,0.100828,0.303467,0.021973,-0.543701,-0.123771,3.716209,18.223871,-0.794289,-0.826447,1.001561,-0.376221,-0.247314,-0.422852,0.464309,8.286526,1.390473,2.171635,0.1045,-2.196079,-0.217529,-0.542725,0.162598,5.109558,0.252164,-1.306689,-2.505676,1.961609,-0.192712,-0.155762,-0.39502,-0.501465,12.953757,-13.041935,-2.430114,-7.68969,-2.918999,-0.235325,-0.279785,0.145508,-0.560791
-15.672905,5.454528,12.298708,2.326706,-4.053935,3.803428,0.220947,-0.014893,-0.544922,11.389892,7.898708,8.688043,5.384523,2.197114,-1.498842,-0.346191,-0.312256,-0.407959,1.225997,4.001452,-1.304221,0.363484,-0.200476,-0.139456,-0.218018,-0.541504,0.161621,-5.586094,0.308182,-3.323933,6.022355,0.583259,0.397126,-0.154541,-0.468262,-0.453613,13.290014,-16.070189,-1.687877,3.404728,-2.479121,-3.488449,-0.330566,0.068359,-0.564697
3.230977,4.985679,10.190805,0.63075,-2.92293,1.619719,0.168457,-0.035889,-0.537842,-2.286588,26.460857,13.135914,1.640881,3.695219,-2.064106,-0.28833,-0.355469,-0.429199,1.028494,1.471284,-12.256591,5.241378,0.476283,-3.217546,-0.175049,-0.523193,0.236816,2.134237,15.453826,-3.755007,9.481681,-2.312837,1.883409,-0.194824,-0.560547,-0.330811,4.830991,2.824845,-0.629128,8.234974,-1.634182,-5.869739,-0.358398,-0.114746,-0.546631
0.926315,6.416595,10.111137,0.667343,-2.866426,2.058704,0.112793,-0.044922,-0.528564,5.683013,14.570973,2.928866,-15.610961,0.57407,0.617056,-0.283936,-0.163574,-0.544678,-0.945473,8.524527,-13.721744,7.712542,2.238881,-3.503469,-0.142578,-0.487793,0.318604,3.57313,21.546227,4.040241,4.314401,1.310851,-0.325353,-0.172119,-0.604004,-0.290283,-0.496637,11.564143,5.184512,2.690912,-4.662905,-4.180104,-0.405762,-0.20874,-0.487549
4.341223,8.873559,9.148622,-1.480725,-1.912608,-0.295355,0.090332,-0.036377,-0.536377,4.918494,-19.785112,-0.88333,-9.272536,2.960998,3.120262,-0.242432,-0.020264,-0.59082,-1.808741,11.98305,-10.655151,3.468206,0.166819,-2.059295,-0.119629,-0.45874,0.355957,-0.495784,13.92613,5.085423,-0.873326,1.277211,0.103974,-0.161621,-0.588135,-0.308838,8.71677,4.079483,2.272343,-0.809856,-5.083172,-4.063312,-0.446533,-0.24707,-0.430664
4.831282,3.84823,4.703557,-1.630663,-3.079924,0.175951,0.041748,0.002197,-0.539062,1.785251,-8.159357,1.806436,8.003126,1.968988,1.430629,-0.217773,-0.117188,-0.589355,1.126932,7.904814,-9.229669,-0.711257,0.001805,-1.416443,-0.107178,-0.475098,0.354736,-1.991331,6.073903,2.152048,1.244278,-0.299447,-0.103405,-0.163086,-0.602295,-0.279053,5.825987,2.09512,2.564098,2.548628,-0.800804,-5.361514,-0.42334,-0.352783,-0.396729
7.177383,5.695054,2.080902,0.344853,-1.810381,0.497813,0.012207,-0.000977,-0.538574,2.105102,20.701456,4.761938,7.89269,2.865203,0.480086,-0.178223,-0.229736,-0.571777,-0.025844,5.010428,-6.479135,0.27643,0.956193,-2.224624,-0.090332,-0.477051,0.351562,0.78885,11.845913,2.750753,4.16574,-1.191252,0.268154,-0.176514,-0.626465,-0.221436,0.089256,10.99865,2.20304,3.47144,-2.467135,-5.749627,-0.392578,-0.457275,-0.335205
1.303362,12.55802,0.108183,3.548681,-1.130976,-0.756132,0.004883,-0.063965,-0.509521,-3.778684,20.209065,0.289525,-6.452241,1.156876,1.147988,-0.165039,-0.14209,-0.612793,-1.4381,5.539249,-5.720303,0.322583,1.519179,-2.235099,-0.074951,-0.48291,0.349365,3.250822,15.300173,6.417867,0.611791,-0.652123,0.810003,-0.188477,-0.625732,-0.215576,5.639912,11.936029,-0.541127,-0.80643,-2.714498,-5.371575,-0.349854,-0.514648,-0.318359
6.77809,25.345509,3.515201,2.584834,-1.085046,-1.581607,-0.005859,-0.112793,-0.486084,5.334676,-1.686947,-3.887555,-6.876345,-0.696534,1.382291,-0.181152,-0.028809,-0.630127,-0.739564,2.281622,-7.788202,-1.082197,0.150954,0.251941,-0.078857,-0.493652,0.344238,6.394834,8.698438,4.749746,-1.916706,0.235603,-0.415629,-0.18042,-0.617188,-0.240723,6.11462,4.767393,-1.123599,-0.833028,-0.507534,-5.291201,-0.285156,-0.560547,-0.316895
4.124669,28.937229,2.916994,-3.998593,0.361459,-2.369935,0.014893,-0.060303,-0.520996,5.297653,0.770926,1.431158,4.949726,2.218698,0.171015,-0.144287,-0.103516,-0.625488,1.378269,1.432843,-8.679366,1.965342,-0.236875,0.344025,-0.08252,-0.476562,0.374756,6.920637,3.036589,8.159608,0.466359,0.712937,0.439601,-0.181152,-0.618896,-0.227051,4.837424,8.244322,0.337436,4.609274,-0.258007,-4.13884,-0.227539,-0.630859,-0.234863
1.468873,9.363362,-5.070815,-9.601124,0.574955,-1.530955,0.035645,0.078613,-0.563965,-7.791077,17.905259,-4.494605,8.210818,0.912723,-0.582476,-0.130371,-0.23584,-0.584229,-1.899908,7.061253,-9.814775,5.321533,1.347574,1.046297,-0.104492,-0.41626,0.423828,1.979249,4.633289,8.382637,1.551496,2.422187,-1.094979,-0.150879,-0.631104,-0.222412,4.309597,19.890425,-0.244723,5.834907,1.084458,-0.374433,-0.212402,-0.669189,-0.164062
-0.161348,3.22168,-3.730261,-3.152837,2.199728,0.888663,0.057129,0.138428,-0.567139,-4.655553,27.820604,-4.338221,3.559947,-2.915216,-1.334654,-0.174072,-0.285645,-0.544678,-7.699932,15.383532,-6.385759,1.751675,-0.089649,0.583527,-0.11499,-0.395996,0.435791,-5.655144,10.292422,9.241177,-0.470224,1.988841,-0.670253,-0.131348,-0.635254,-0.241943,-0.694847,24.212503,2.784516,-0.312269,3.896818,2.755351,-0.240234,-0.647949,-0.212646
7.979903,6.425759,7.981212,-1.419403,1.153201,2.256183,0.081543,0.169678,-0.576172,2.746555,22.859245,3.98498,-5.817479,-3.893053,-2.612764,-0.206299,-0.217529,-0.574219,-4.055999,15.037667,-2.363552,-7.479974,-2.996906,3.570725,-0.125732,-0.455811,0.36377,-3.588521,11.144706,10.772176,-5.022818,-0.50141,-1.456411,-0.122314,-0.596924,-0.310303,-4.105169,17.783578,5.123342,-8.129799,4.637781,4.125511,-0.269531,-0.539551,-0.366211
4.749057,7.977772,12.71246,0.66199,3.085449,2.542443,0.135742,0.175781,-0.579102,12.498328,2.08671,3.996409,-11.140603,-3.015859,-3.757799,-0.231445,-0.063965,-0.598145,0.259238,4.789621,-4.675908,-11.10606,-3.44367,4.286841,-0.147949,-0.539062,0.235107,3.25306,5.355009,5.758858,-5.084089,0.29586,-1.139553,-0.095947,-0.563477,-0.378662,-3.652948,4.875365,4.481381,-9.227878,3.607444,5.697421,-0.281494,-0.391602,-0.499023
0.979697,3.708456,10.167197,-7.304685,-0.462092,1.237499,0.123535,0.307617,-0.557617,13.616048,-18.610307,6.042014,-5.829022,0.923154,-4.360838,-0.21875,0.010986,-0.600098,2.999147,0.392803,-8.306601,-6.067917,-2.288283,3.190974,-0.185303,-0.562256,0.177002,0.602435,3.352665,8.098506,-0.613973,1.750783,-0.640517,-0.078125,-0.563477,-0.376953,-1.356979,-5.568695,3.234684,-1.88649,2.776204,6.023744,-0.300293,-0.307617,-0.527832
7.356846,-19.695241,-1.927989,-5.303202,1.149097,0.987696,0.150391,0.387451,-0.538086,-3.531309,-16.369077,2.520381,5.311797,1.433235,-2.341539,-0.190186,-0.084473,-0.596191,3.217322,0.493761,-9.233287,3.391274,-2.328346,3.738225,-0.212646,-0.524414,0.243896,-1.205257,7.486874,6.437077,1.025587,1.417174,-1.699207,-0.031494,-0.579834,-0.365967,-0.997666,3.150322,5.37052,5.734953,2.065259,5.249787,-0.300293,-0.337402,-0.501465
3.342554,-12.295881,6.583687,1.982017,4.90226,0.211811,0.231689,0.361328,-0.546143,-1.286074,0.085019,11.845433,5.721136,-5.534964,-2.024632,-0.263428,-0.17627,-0.544678,3.808957,10.584411,-20.182868,16.260703,-2.102701,0.307643,-0.197754,-0.377197,0.429443,-1.722451,15.310816,2.238915,3.25674,2.049341,-1.659117,0.001953,-0.615723,-0.326172,1.557311,12.35706,8.669573,4.193508,2.381655,5.645384,-0.316162,-0.340332,-0.493408
-17.867295,-7.105914,9.825371,0.831742,3.90403,-1.080992,0.281494,0.349121,-0.545654,11.155998,-6.706517,16.612335,0.446706,-3.511191,0.55916,-0.310303,-0.179932,-0.515869,5.934934,30.015563,-2.252693,5.539378,1.359091,0.296813,-0.206299,-0.314941,0.474609,-4.131867,20.598537,5.072888,-1.70214,0.968732,-2.764132,0.056885,-0.607422,-0.34668,8.983546,10.377955,15.435889,-0.85221,1.519576,4.695922,-0.317871,-0.284424,-0.505371
-11.756732,-3.075353,10.523192,0.471172,1.741428,-0.638327,0.305176,0.345947,-0.533203,0.87079,1.475987,14.205374,7.467123,-0.401679,-1.158105,-0.312988,-0.276123,-0.452881,-2.749829,19.335658,-5.203957,-14.73197,0.268744,3.203143,-0.241211,-0.457764,0.329102,0.276255,11.368751,2.280957,-8.010644,-1.286974,-1.125176,0.055908,-0.526855,-0.459229,9.933564,0.057078,7.287111,-5.249733,4.437082,4.203659,-0.27002,-0.170166,-0.574707
-13.883307,-5.676406,7.178995,-2.007101,0.505165,-1.050992,0.308105,0.376221,-0.531738,-3.775014,14.265291,19.942111,-0.037229,-1.398664,-1.185914,-0.319092,-0.294434,-0.453613,0.321957,5.104606,-7.904952,-13.870542,0.004374,2.690579,-0.283447,-0.539551,0.167969,0.891635,-3.565029,-2.184865,-5.026644,1.666758,-1.28397,0.084473,-0.459229,-0.504883,-1.015703,-11.262512,7.442107,-2.546346,2.571965,2.782623,-0.245605,-0.10376,-0.5979
-8.931483,-11.365948,1.285845,-1.08681,1.532038,0.091784,0.338135,0.390381,-0.519043,-4.310189,-0.942895,13.761556,-5.212078,-2.914395,0.37225,-0.346436,-0.232666,-0.459961,-1.682575,-0.566972,-9.46246,-3.728461,2.438727,0.092951,-0.296875,-0.55835,0.114258,-10.668675,1.232348,1.489247,2.896011,2.076605,-0.184,0.109131,-0.500244,-0.463623,6.746322,-7.95389,4.104462,3.758969,-2.181994,-0.967566,-0.283691,-0.17041,-0.564697
-16.928455,-10.631195,3.18808,0.208209,2.771724,-1.717912,0.362793,0.395508,-0.516602,5.656123,-11.376461,5.557247,-1.328642,-2.672586,2.720878,-0.399902,-0.192627,-0.446289,-3.945568,-0.393757,-12.461614,4.599036,1.354051,-2.776872,-0.265625,-0.550781,0.174316,-5.680224,12.696656,1.986951,3.423922,-3.568942,-0.114962,0.067627,-0.532471,-0.433105,9.664933,4.367126,5.891977,3.522365,1.230531,-2.17421,-0.255615,-0.231201,-0.556885
-11.975811,-10.750751,1.368114,2.797495,1.815343,-2.125698,0.381592,0.364502,-0.516602,10.999123,1.289067,7.266208,7.293981,0.168525,3.733756,-0.422607,-0.234375,-0.396484,-0.622816,5.893818,-3.196476,5.181859,-1.814647,0.776918,-0.257812,-0.520996,0.255127,8.110002,14.135954,0.675223,-0.830331,-0.99141,-1.281531,0.074951,-0.5271,-0.444824,1.908255,4.237021,7.850476,-2.319737,-0.736177,-1.923849,-0.257568,-0.221436,-0.563232
-18.357519,2.116393,5.89261,4.858842,-1.681581,-0.925574,0.366943,0.286377,-0.558105,4.441356,22.839645,9.122969,5.101552,3.773779,0.923173,-0.37915,-0.283936,-0.411865,5.173048,9.680815,-1.683214,-1.760191,-1.444924,-0.241838,-0.243652,-0.542236,0.23584,-4.064909,11.571756,6.853719,-1.989698,3.421352,0.017195,0.121338,-0.51001,-0.464355,20.308447,-2.668036,4.552467,-1.176655,-4.498136,-2.310542,-0.30957,-0.231445,-0.534668
3.487617,5.248172,5.400537,5.081954,-3.329531,1.2708,0.29834,0.196289,-0.585693,-0.200973,17.583573,3.302776,-3.141659,1.717762,0.054003,-0.376953,-0.255615,-0.462891,3.428108,4.536696,-9.514355,-2.929864,2.58093,-0.09228,-0.257568,-0.558594,0.180664,-10.037343,12.974712,0.70201,-0.910848,-2.853998,0.690613,0.072021,-0.501465,-0.479492,24.192074,4.494511,4.254077,2.004529,2.598322,-3.851292,-0.248535,-0.29541,-0.54834
-4.888417,14.326541,8.594547,5.09303,-2.362683,1.512573,0.263916,0.103516,-0.56665,1.886055,1.942905,3.631984,0.440624,1.797102,0.371297,-0.355469,-0.262207,-0.454102,-5.991811,4.859532,-13.256979,0.653718,3.175419,-0.992206,-0.257324,-0.554688,0.167969,-0.285129,13.948405,0.413646,-2.118525,-3.219272,1.395815,0.018555,-0.467041,-0.508545,0.63775,13.577982,3.097538,-1.847384,6.621876,-5.143825,-0.115234,-0.297852,-0.609619
8.638812,22.713653,12.004014,1.08512,-2.705899,0.19191,0.22876,0.08252,-0.580322,2.631782,14.240637,0.924202,5.642324,1.846983,0.614212,-0.333496,-0.318848,-0.436035,-1.641372,13.29993,-9.165834,2.990442,-1.034281,-1.12785,-0.236572,-0.53833,0.21582,-0.917163,9.280472,3.888643,-4.093388,0.37807,0.069263,0.02002,-0.400879,-0.544922,-3.591372,6.317724,-0.265457,-6.202364,-2.101726,-3.76055,-0.131836,-0.208252,-0.632568
5.880788,13.261439,8.052245,-5.919811,-0.928135,0.51398,0.200195,0.183105,-0.587646,2.013999,22.742798,4.134868,-1.001047,0.83598,0.635441,-0.342041,-0.304443,-0.459717,6.221868,15.2667,-0.988498,-1.247129,-0.858854,0.5514,-0.256104,-0.549561,0.19873,1.029804,0.626877,3.347187,-2.856893,-0.183889,0.187461,0.000732,-0.367676,-0.564209,13.929523,-5.477077,-3.283442,-1.497832,-2.30721,-2.227144,-0.172607,-0.207275,-0.623779
3.441867,-1.683256,6.02772,-1.281397,-0.023449,1.047639,0.208252,0.199219,-0.58252,1.797489,9.206655,0.85886,-6.775838,-0.687026,0.017159,-0.343994,-0.228271,-0.492676,3.565011,5.938819,-2.864135,-5.587057,1.520722,-1.297595,-0.234375,-0.5896,0.115723,4.112794,-1.15469,1.042778,2.863106,1.228043,1.584683,0.019775,-0.409668,-0.530762,6.360332,3.521315,-1.537824,6.913814,1.954243,-5.209318,-0.090576,-0.347656,-0.581543
-2.657475,8.118207,11.128424,2.991272,-0.615273,1.025206,0.203857,0.152832,-0.581055,5.225341,-1.159275,1.778591,-1.760227,0.07626,-0.507927,-0.329834,-0.208984,-0.505371,0.27866,0.447466,-6.112409,-3.022719,1.402304,-0.544149,-0.234863,-0.590088,0.063232,-0.793158,5.78588,3.122014,5.821959,3.562815,1.609878,0.055176,-0.475586,-0.4729,-3.329807,17.034828,4.043597,8.562951,-1.366298,-1.695203,-0.095703,-0.468018,-0.495117
-0.522356,11.767603,9.250684,0.512447,-0.074727,-0.041205,0.197021,0.14917,-0.585693,0.22806,6.4976,3.455694,3.276719,0.950634,-0.259295,-0.325928,-0.24292,-0.498047,-2.079589,-0.901091,-8.234648,1.999142,0.65822,-0.022256,-0.239014,-0.583984,0.083252,-6.030486,9.51195,4.054001,4.63813,2.264428,1.751795,0.061279,-0.532471,-0.420898,2.396422,19.242052,6.302096,4.822986,-4.009516,1.276004,-0.157715,-0.524414,-0.428711
-5.113362,6.181667,8.60837,-1.300504,-0.596131,0.761588,0.188477,0.166992,-0.581787,-1.362159,16.301666,6.992978,2.055551,0.358231,-0.606077,-0.314209,-0.273682,-0.481934,-2.543295,0.317317,-9.187816,8.360299,0.211414,-1.221611,-0.215088,-0.557617,0.199463,-5.244639,11.240422,3.587211,3.81188,0.638002,1.069338,0.0625,-0.574463,-0.372559,5.526768,14.925002,7.354167,0.434016,-0.16322,0.245405,-0.156738,-0.528809,-0.423096
-0.282774,6.547524,9.28748,0.898117,-0.619953,0.942981,0.167725,0.150146,-0.581299,0.941841,13.793344,6.854638,-2.220676,-0.04067,-0.779809,-0.314453,-0.256348,-0.501221,-1.308741,5.579696,-9.323144,13.054015,-0.510082,-0.741767,-0.197998,-0.460205,0.362549,-1.963061,10.403997,2.91418,1.062399,-0.25308,1.097208,0.048584,-0.580566,-0.355713,-0.395387,8.787416,8.677151,-2.062176,-0.007457,1.457313,-0.169678,-0.493896,-0.444824
-1.787468,7.849498,11.415558,-0.186984,-1.131203,1.055508,0.149658,0.163574,-0.576172,5.0641,4.065169,6.227487,-2.211511,0.340895,-1.470044,-0.296875,-0.229004,-0.513428,1.292389,14.876071,-6.528849,5.204091,-0.910425,-1.312411,-0.172119,-0.402832,0.406982,0.014965,3.960923,3.730022,0.165873,0.072431,0.760325,0.043701,-0.571533,-0.351562,0.123649,0.578912,5.345094,-1.87974,-2.062013,1.071363,-0.202393,-0.456787,-0.451172
-0.37909,2.344912,9.088281,-1.979069,-1.13004,1.292001,0.126709,0.195801,-0.571777,2.800272,2.468018,6.392079,1.294673,2.242568,-1.577248,-0.26416,-0.257568,-0.514648,1.142421,7.980823,-8.79062,-2.39847,0.313948,0.534502,-0.186768,-0.426514,0.378662,-1.085088,2.149877,2.40302,3.970718,0.593991,0.937438,0.035889,-0.606201,-0.288086,4.40099,-0.656109,5.031067,4.132068,-2.6368,1.047985,-0.245361,-0.499023,-0.380127
2.242814,-4.824835,6.448644,-1.619452,-1.52619,1.121678,0.116699,0.229492,-0.568359,-1.799305,6.394308,8.361653,0.331546,0.59945,-1.420766,-0.239014,-0.26709,-0.521484,-1.164958,1.102845,-10.155894,1.403986,-0.823396,-0.67807,-0.175537,-0.405029,0.391602,-2.452905,11.893061,1.489819,7.878403,-0.230875,1.424862,0.012695,-0.641846,-0.181152,4.395591,10.275856,5.040881,6.988763,-2.24094,0.215708,-0.26709,-0.549316,-0.274658
-0.375572,-3.628747,8.014461,1.326841,0.290467,0.642893,0.115479,0.212402,-0.568848,2.335352,1.59109,6.944602,-1.845945,0.35037,-0.384496,-0.23584,-0.23999,-0.538574,1.518179,3.332937,-11.653046,5.648198,-0.905961,-1.194809,-0.155518,-0.353027,0.441895,-0.378206,19.763434,2.736567,4.05558,-0.743766,0.607682,0.006104,-0.662109,-0.123047,6.365003,15.277944,7.401305,2.909188,-2.643332,1.533046,-0.302734,-0.562988,-0.216553
-2.159249,2.482871,10.702347,0.482921,0.178371,0.642506,0.128662,0.204834,-0.570801,-0.378261,-0.96606,7.982243,-0.272023,0.326396,0.429119,-0.226074,-0.232666,-0.540771,0.557689,9.888036,-10.433284,4.45676,-0.16644,-1.101436,-0.151367,-0.3125,0.465576,-0.889386,14.531432,3.991408,-1.713131,-0.464978,0.711325,-0.01416,-0.652344,-0.154541,5.390062,11.0927,6.967515,-2.081427,-0.960686,1.232029,-0.330811,-0.540771,-0.239258
-3.208565,-3.410295,10.12584,-1.487412,0.52513,-0.674914,0.119141,0.224609,-0.564941,5.153624,1.543431,9.105683,0.012562,-0.456891,0.507236,-0.250977,-0.231689,-0.5354,2.156897,10.921579,-7.790967,-0.435649,-0.444077,-1.015486,-0.137207,-0.319092,0.464355,-1.024438,4.397515,5.080273,-1.759579,-1.418401,-0.165189,-0.013916,-0.640381,-0.172119,1.472265,3.9257,5.77502,-3.3152,-0.53139,1.600637,-0.349854,-0.498535,-0.269531
-2.015852,-7.169628,8.290405,0.515382,-0.008903,-0.191221,0.135742,0.219482,-0.569824,2.6563,2.385436,10.546834,-0.347067,1.665711,1.189068,-0.219727,-0.214844,-0.548096,0.899616,6.619764,-6.52663,-1.817488,0.04481,0.20157,-0.137695,-0.340088,0.44165,-0.341855,5.951919,4.136698,2.788336,-1.350726,0.211289,-0.022705,-0.644287,-0.130127,4.142854,1.595499,3.219735,0.099489,-2.612848,1.418467,-0.383301,-0.480469,-0.237793
-1.226488,-1.176558,9.516896,1.364834,0.255893,-0.42813,0.136475,0.198486,-0.571777,-5.429324,0.169069,7.35816,-1.323285,0.656466,0.665875,-0.217285,-0.194336,-0.560059,-2.149813,4.307382,-11.434748,0.924003,0.893728,-0.946825,-0.140381,-0.333252,0.439697,-3.324499,16.918348,0.888643,4.188138,-0.708483,0.601921,-0.028564,-0.658203,-0.078369,9.930506,8.515654,1.971758,2.813426,-1.372536,-0.221758,-0.387207,-0.50293,-0.196777
-0.532531,-0.634534,7.717286,-0.378372,0.135835,0.776883,0.13623,0.20166,-0.562744,1.445949,-0.305171,11.054689,0.83947,-1.390679,0.945813,-0.244141,-0.202393,-0.536377,-1.045099,9.312337,-5.423038,1.214695,-0.786171,-1.279118,-0.123535,-0.318115,0.453857,-2.15236,17.70961,-0.804866,-2.822441,-2.421548,0.332308,-0.04541,-0.643066,-0.114502,6.366362,14.696072,2.960585,-0.069346,-0.390236,-0.057218,-0.389893,-0.498535,-0.188965
-2.932527,-6.07432,7.754859,0.160307,1.279092,0.208015,0.155273,0.197754,-0.569824,8.059515,3.74426,13.296596,0.060342,0.525523,0.450096,-0.242432,-0.198486,-0.544678,4.363405,6.798428,-8.656264,-3.068081,-0.258643,-1.268682,-0.112549,-0.366699,0.419189,3.081422,6.749281,1.212045,-4.032034,-2.549547,0.553502,-0.066406,-0.630859,-0.171875,8.091013,11.733911,2.192934,-3.787567,-2.169731,0.795804,-0.416504,-0.476318,-0.209229
-8.327984,-2.080018,12.616039,1.433164,-1.850832,0.101074,0.106445,0.180908,-0.567383,3.022822,-0.624352,11.835685,-1.66495,1.372037,2.468143,-0.251709,-0.157227,-0.555176,2.244049,2.553006,-8.584473,-1.644627,0.815648,-1.085664,-0.106201,-0.382812,0.409668,3.039985,4.978492,0.116659,1.335964,-1.034801,0.766826,-0.078613,-0.62793,-0.143799,12.910572,5.249471,1.656778,-3.201769,-0.796492,0.863179,-0.428223,-0.445557,-0.229248
5.084599,-1.882687,9.735072,1.04167,-0.718165,-1.927976,0.111572,0.146973,-0.567139,4.412241,-0.677775,12.675517,0.020579,1.09851,1.078149,-0.224609,-0.159912,-0.561035,0.10729,5.662272,-8.77331,1.861936,1.312622,-2.455066,-0.104004,-0.366943,0.419434,-1.237323,14.458768,4.93723,2.407848,-1.330735,1.453691,-0.111084,-0.63208,-0.112305,5.628695,6.828294,3.364878,-0.707374,0.554354,-0.191684,-0.430176,-0.436279,-0.24292
-2.064639,0.490941,9.740414,2.680928,-1.448812,-0.583446,0.087158,0.099121,-0.558838,-1.036164,1.02308,8.299748,-0.356005,1.603715,2.725181,-0.219238,-0.142578,-0.568848,-2.402323,12.502976,-7.148049,2.469378,1.109055,-2.392496,-0.080078,-0.348633,0.432129,0.849849,15.655707,6.676909,-1.751075,-2.358518,1.10679,-0.123779,-0.627197,-0.133057,5.740199,9.427285,4.358958,-1.270533,-2.079018,0.153114,-0.4375,-0.431152,-0.228271
0.468386,6.38593,11.490191,1.641474,-0.208956,-1.666811,0.087646,0.066895,-0.5625,-0.824582,1.824644,9.068369,0.633723,0.532925,0.872839,-0.213135,-0.152344,-0.576416,-2.857024,12.64721,-5.210774,-2.063202,1.066092,-1.554589,-0.090332,-0.367432,0.407471,2.465716,8.190659,3.398336,-2.785531,-0.288753,1.198159,-0.153076,-0.606689,-0.172607,10.224146,6.676769,1.474529,-2.0639,-0.920362,0.158217,-0.460205,-0.411377,-0.244873
-2.174165,5.327213,8.639344,-0.644683,-1.820094,-0.463419,0.056396,0.070068,-0.563721,-0.528806,4.013036,11.091288,0.297088,1.102651,1.45677,-0.206787,-0.154053,-0.583008,-2.432257,6.676031,-7.35248,-3.423018,0.65005,-0.99018,-0.087891,-0.403809,0.381836,-2.333452,6.294197,2.911548,0.723201,0.003934,1.529004,-0.175293,-0.606689,-0.154297,4.437096,5.648893,1.115611,-0.767762,0.37065,-1.472054,-0.446045,-0.426758,-0.248047
1.652253,-1.490882,7.61402,-0.714839,-0.655752,-0.79755,0.048096,0.074463,-0.563965,0.538563,2.178693,8.819497,0.43998,0.270555,0.664288,-0.20459,-0.163818,-0.581055,-0.699214,3.747758,-11.33537,-0.358964,1.247382,-1.437651,-0.083252,-0.402588,0.372559,3.821817,11.467551,6.008849,2.084243,-2.52098,1.465398,-0.199707,-0.602783,-0.120117,6.680829,5.976766,-0.005815,-0.280849,-1.925187,-0.509826,-0.448242,-0.423828,-0.232422
1.333235,1.005826,7.840509,3.238977,-1.652075,-0.953142,0.032471,0.02002,-0.536133,1.42519,4.61303,6.149973,2.658069,0.922238,1.785785,-0.196777,-0.188477,-0.5625,-2.999048,7.553383,-12.750012,2.526004,1.655976,-1.178312,-0.083984,-0.380127,0.398926,11.383035,13.828205,5.99012,0.590429,0.480995,0.699399,-0.206543,-0.605713,-0.110596,12.864076,5.24685,-1.997109,0.800243,-0.127286,-0.056942,-0.447998,-0.431885,-0.222412
1.623999,10.149925,9.147706,3.088474,0.441301,-1.761588,0.046143,-0.036133,-0.529541,-3.867979,9.294234,5.977456,1.672949,-0.269603,1.587181,-0.21582,-0.205566,-0.554443,-4.406327,13.89682,-8.664806,1.430947,0.775269,-0.665512,-0.083252,-0.366455,0.415283,4.194854,13.496105,8.435324,-1.411367,3.298832,0.55015,-0.200195,-0.608154,-0.147705,8.794729,9.95859,0.300417,2.125483,2.115585,0.037388,-0.439209,-0.444824,-0.228271
-2.775106,9.402551,8.467759,0.756222,-0.039808,-0.86439,0.048584,-0.059082,-0.521973,2.055486,8.84693,8.129255,-0.426528,-0.923452,1.504205,-0.233643,-0.204102,-0.549316,-1.23958,14.329775,-1.893784,-3.769987,-0.39377,1.174604,-0.097656,-0.396973,0.384033,0.641886,9.647616,7.119065,-3.44808,1.124262,0.621828,-0.210205,-0.592773,-0.202148,7.70677,13.529217,1.531958,-0.032108,1.934207,1.594875,-0.451904,-0.425781,-0.258789
-2.503536,5.320884,5.378666,-0.265642,-0.210911,-0.12651,0.040283,-0.0625,-0.519531,1.292593,3.653765,1.172185,1.048957,-0.167254,-0.13197,-0.242432,-0.222656,-0.535889,0.491555,6.797428,-5.686593,-7.584421,0.082856,1.721845,-0.110107,-0.45874,0.314453,7.525106,5.374707,4.794152,-2.957419,1.088193,1.16197,-0.213623,-0.571533,-0.241699,8.520745,8.140745,0.292507,-3.60931,3.606256,1.905362,-0.436523,-0.370605,-0.338135
0.099393,8.237733,6.361369,2.342257,-0.75984,0.98676,0.0271,-0.090576,-0.505127,1.168013,10.198606,4.119428,4.882909,-0.309933,-1.116002,-0.237305,-0.292236,-0.503662,-0.066413,2.01515,-4.749911,-5.813924,0.886119,2.331657,-0.149902,-0.491699,0.251953,3.373404,8.301333,4.758457,-0.56601,4.101817,1.734932,-0.212158,-0.561279,-0.274414,2.445848,2.240237,0.402768,-2.327362,4.891083,2.006479,-0.407715,-0.31543,-0.420898
2.489075,18.118387,9.238147,0.985833,0.181065,1.377592,0.022217,-0.104248,-0.505615,2.875008,14.681298,3.459803,1.160008,-0.252066,-1.831944,-0.22583,-0.322998,-0.496582,-0.728205,1.9788,-13.030635,1.31866,0.18361,2.446394,-0.174316,-0.477783,0.279785,-2.116678,15.29991,5.334789,-1.662943,2.271111,0.59862,-0.199707,-0.560547,-0.307861,0.476762,3.599341,3.581775,-0.631588,3.545704,1.709977,-0.375732,-0.291504,-0.46582
6.34629,9.975896,3.969369,-2.550423,0.968893,0.532738,0.029053,-0.066895,-0.52002,-1.385405,6.33955,0.013595,-0.590968,-1.206197,-1.131983,-0.234131,-0.327148,-0.48291,2.956183,10.562841,-12.263392,1.797931,-0.407395,2.553912,-0.20874,-0.453369,0.306641,4.420653,12.078108,1.826891,-5.194127,1.534923,0.052201,-0.19873,-0.519531,-0.379639,2.988794,2.542318,1.320827,-0.991676,3.670287,2.208514,-0.3479,-0.254883,-0.512207
5.209943,4.013244,1.225033,-0.859017,2.724611,-0.623878,0.067871,-0.058594,-0.54126,-0.40443,10.081119,5.609463,0.162974,-3.199486,0.44567,-0.285156,-0.331543,-0.466553,0.432851,12.797002,-15.08761,-0.075412,1.707844,1.639445,-0.237061,-0.437744,0.299805,2.448863,2.247373,1.506151,-3.175694,4.968227,-0.167778,-0.140869,-0.481934,-0.439453,-3.281745,-1.01408,-0.315946,0.009226,5.099919,1.43891,-0.279297,-0.231201,-0.561768
-3.724032,8.794189,7.817401,1.293223,3.021899,-1.710341,0.143799,-0.076416,-0.535156,4.956639,6.721241,4.056243,0.75718,-2.846725,1.993623,-0.321289,-0.317139,-0.425293,-3.513803,7.075288,-11.789049,-4.579931,0.301705,2.951018,-0.279297,-0.458984,0.262451,-6.503347,3.602188,-1.99142,3.125913,5.308397,-1.337473,-0.071045,-0.520508,-0.4104,-4.508511,-0.04784,-0.220414,5.308732,1.209609,1.008594,-0.267334,-0.297852,-0.526855
-4.040086,11.634978,7.440392,0.874175,0.638952,-1.702123,0.156006,-0.097656,-0.530762,3.66414,13.520064,6.800577,3.261125,-1.449246,1.513377,-0.356445,-0.342285,-0.38501,-1.088523,0.477695,-9.849634,-2.976112,-2.209074,3.571683,-0.306885,-0.469971,0.258057,-4.377668,12.657412,3.720274,3.529,2.382793,-0.542583,-0.033691,-0.571045,-0.37207,4.250714,9.349053,5.987188,7.038243,0.97711,-1.168356,-0.237549,-0.407227,-0.470215
-2.045417,10.135907,4.857792,0.143289,1.369619,-0.860493,0.180664,-0.108398,-0.537842,2.414927,19.033565,0.966458,0.365777,-1.720769,1.082827,-0.385498,-0.346924,-0.373535,3.078129,0.641174,-7.476649,0.610252,-2.374775,1.477503,-0.307129,-0.456787,0.273438,-0.674584,14.640417,1.10506,0.626503,3.097145,-1.694207,0.017334,-0.581543,-0.381348,2.375425,13.741743,11.25214,3.33342,2.593241,-2.304065,-0.178467,-0.464844,-0.466064
-6.241787,10.417227,5.680008,0.935197,0.610629,0.448352,0.186523,-0.117676,-0.518555,1.271491,15.328147,3.2909,-1.341194,-2.663305,-0.35942,-0.403809,-0.329834,-0.351807,4.668472,2.605142,-10.359191,3.067707,-0.054225,1.769213,-0.33252,-0.423584,0.314697,-2.287337,14.113343,2.073093,-2.449965,1.799429,-1.212886,0.044922,-0.555664,-0.410156,2.998679,10.797537,11.512501,-2.370045,1.496132,-1.90086,-0.142334,-0.444336,-0.494141
-4.083206,11.850489,8.946476,-0.43508,-0.13088,0.931584,0.168945,-0.100586,-0.528564,9.929224,11.722292,4.189297,-2.704266,-1.880571,-0.841321,-0.421143,-0.306885,-0.364014,1.656006,7.6887,-13.770833,-0.459506,0.826624,0.837368,-0.341553,-0.425781,0.303467,1.759641,7.802663,0.874935,-4.04417,-0.580261,-2.122339,0.069092,-0.512207,-0.459717,4.15977,-0.16543,7.889943,-5.18136,2.369837,-2.04904,-0.083008,-0.38916,-0.548584
-0.285545,8.11644,7.577062,-0.968531,-0.232827,-0.019217,0.166016,-0.090088,-0.531982,2.090466,4.673441,5.863144,-1.631924,-0.363673,0.629596,-0.427734,-0.289795,-0.369141,0.878175,5.869239,-15.271611,-4.637055,-0.76229,2.163568,-0.370361,-0.438965,0.251221,5.379082,5.941613,2.026764,-1.312576,0.68079,-2.515986,0.094482,-0.484863,-0.482666,1.238456,-5.075423,9.227288,-0.418751,2.014314,-2.049806,-0.043457,-0.382568,-0.561279
-3.953593,6.590227,6.852124,-1.596346,0.164008,-0.704133,0.182373,-0.057373,-0.539062,6.462966,9.615822,4.504765,1.457696,-1.327107,0.556744,-0.435303,-0.289062,-0.343262,3.212852,2.694364,-12.722593,-4.617681,-1.212183,1.060886,-0.373291,-0.464111,0.214111,-2.942021,10.015266,2.143885,-0.296216,0.840219,-2.760397,0.136963,-0.476074,-0.478271,-0.149284,5.367352,7.936701,3.246721,0.645925,-3.111921,-0.000732,-0.442871,-0.524658
-3.978203,3.359087,5.965924,-0.495363,-0.277193,-0.527204,0.170898,-0.052246,-0.544434,2.040466,15.298008,3.579593,0.992055,0.504277,1.142216,-0.449219,-0.2854,-0.3479,2.675076,4.049345,-8.703795,-3.033772,0.134017,0.107339,-0.379395,-0.492188,0.186523,-2.990538,12.526093,3.852792,-1.698576,-1.710343,-3.718259,0.146729,-0.452637,-0.491699,2.560647,14.053356,10.509892,1.289295,-0.009744,-2.08805,0.020508,-0.475098,-0.497803
-6.361754,9.765598,6.366022,2.311704,-0.737621,0.895039,0.162354,-0.094971,-0.521973,2.383655,17.34245,2.775061,-1.106168,-1.253945,0.089346,-0.451172,-0.28125,-0.338623,0.064757,6.759314,-9.848984,-3.301893,-0.635519,-0.113098,-0.37793,-0.49585,0.140869,-0.799404,10.191284,4.396568,-3.555923,-1.811488,-3.179091,0.146484,-0.377686,-0.540283,0.863395,14.77027,10.913016,-3.356045,1.453501,-2.198978,0.060547,-0.421631,-0.543457
-3.229465,18.523661,9.603062,-0.739671,-0.369884,1.302244,0.149414,-0.071777,-0.537598,4.59993,15.745374,6.306765,-3.956673,0.258465,0.030739,-0.450195,-0.235107,-0.383057,2.901164,9.215654,-7.65916,-5.613213,-0.860821,-0.410061,-0.377197,-0.515625,0.075195,-3.921228,8.455186,4.503655,-3.953464,-1.591454,-4.604212,0.145264,-0.298828,-0.568359,-2.017986,9.659626,11.141923,-5.972373,1.532904,-1.76707,0.09375,-0.333252,-0.588379
-8.366623,8.51577,8.223975,-4.9727,-0.788712,0.775233,0.125977,0.007812,-0.564941,3.598699,5.764865,3.00409,-5.503365,-0.499095,-0.453539,-0.452637,-0.1875,-0.417236,2.426032,5.363054,-7.064723,-9.97797,-0.27951,-0.00662,-0.37915,-0.525391,-0.049561,-4.961698,8.125053,4.160177,-4.251112,-3.764845,-4.018142,0.105957,-0.223389,-0.597168,2.056817,6.589593,9.694646,-4.55069,0.126141,-2.397185,0.112793,-0.263916,-0.615479
-2.821669,2.506934,7.509443,-0.756404,-2.108894,1.407718,0.092285,0.035889,-0.550293,10.612364,3.046237,5.432891,-1.013869,1.580639,-1.280047,-0.42627,-0.178711,-0.434326,2.578086,1.520083,-6.937576,-10.125068,-0.586391,-0.049417,-0.373535,-0.491943,-0.178711,0.183173,8.192101,3.821547,-4.350597,-4.205718,-3.549797,0.053955,-0.141846,-0.619385,7.596018,9.725851,9.937139,-3.529715,1.388301,-3.560902,0.159668,-0.195312,-0.634521
2.338837,12.537488,11.499191,-1.148844,-1.924032,1.353023,0.046631,0.061035,-0.549561,0.378804,7.437629,4.194704,1.08358,3.11875,-1.356256,-0.394043,-0.199219,-0.462158,3.197255,1.842913,-2.97354,-7.335447,-0.332482,-0.684042,-0.375,-0.459229,-0.261719,-0.32351,10.610209,2.201823,-4.737303,-3.020886,-2.988506,-0.002441,-0.064697,-0.619385,4.882173,12.974953,8.699511,-5.080995,1.988112,-4.207634,0.199219,-0.104248,-0.646973
2.895621,2.647006,8.462783,-4.710614,-1.490321,1.555264,0.035645,0.142822,-0.550537,2.664435,10.650866,6.993655,-1.727529,0.928573,-2.201005,-0.360352,-0.19873,-0.483154,3.285744,3.195316,3.810555,-6.129689,0.921504,-1.414287,-0.35083,-0.41333,-0.335449,-5.166384,8.174987,5.536838,-8.509612,-3.063242,-2.485979,-0.061035,0.080078,-0.591553,4.302051,11.197408,8.216088,-8.591866,2.119873,-4.877448,0.234619,0.068359,-0.634766
5.312198,-2.627307,7.448803,-1.832722,-1.070662,1.795614,0.02002,0.179199,-0.550049,3.945132,1.341725,3.45098,-4.873534,2.155479,-1.109583,-0.322754,-0.148193,-0.531982,2.126008,4.357622,8.217731,-4.652759,1.136601,-0.939501,-0.337158,-0.375,-0.389404,-0.342565,-2.51975,3.896853,-9.632014,-3.988514,-2.150026,-0.139648,0.219727,-0.522217,1.481806,1.820185,5.163412,-10.217454,2.691109,-6.164149,0.238525,0.26123,-0.575439
4.744636,-2.446998,7.810907,-2.673456,0.195464,1.238897,0.024414,0.248291,-0.544922,-0.53767,-2.649256,3.135917,-2.875688,0.842342,-1.754827,-0.306152,-0.101562,-0.549316,1.90082,4.506944,9.474461,-3.983151,0.141631,-0.637982,-0.328613,-0.337402,-0.420898,5.708599,-9.743853,1.909666,-4.76373,-1.775187,-0.331765,-0.160645,0.279297,-0.467529,-2.065414,-6.478434,2.517717,-5.477158,1.839265,-6.88209,0.208496,0.365479,-0.518066
2.581755,-6.248783,8.336873,-2.471068,1.069853,1.925651,0.036377,0.293213,-0.539795,4.647472,-4.976345,5.241683,-2.166655,0.257133,-0.508091,-0.312256,-0.078613,-0.548584,3.723936,4.062003,10.168681,-4.517332,-0.674873,-0.297159,-0.332764,-0.2854,-0.44751,3.883086,-11.208865,3.271342,-1.252451,0.689836,0.514714,-0.144531,0.298584,-0.456055,-6.878941,-7.229952,6.144908,-0.167198,0.448517,-7.188234,0.144287,0.387695,-0.520752
0.415903,-11.486946,7.307193,-0.999806,1.241822,1.402168,0.067627,0.321777,-0.545166,1.521877,-5.697202,6.82067,0.383888,0.612642,-0.713833,-0.295166,-0.078857,-0.552979,5.185561,2.446078,9.435313,-8.234676,-0.766602,0.466566,-0.352783,-0.191162,-0.488037,1.59056,-18.274149,5.679554,2.359896,0.835485,1.38798,-0.125244,0.266602,-0.473389,-8.296822,-6.694291,8.181515,6.053768,-2.466635,-6.232741,0.043213,0.300049,-0.578613
2.883233,-6.194949,9.635257,3.428083,1.871594,1.898249,0.105713,0.26416,-0.55957,1.39599,-2.16855,8.277048,2.377058,-0.280114,-0.79942,-0.296875,-0.122314,-0.544678,5.772849,-0.162482,5.840784,-9.461203,-0.099898,1.214247,-0.359619,-0.055908,-0.510742,-0.445121,-10.029295,4.397336,12.63023,-0.706292,2.621112,-0.118408,0.106934,-0.553711,-2.537147,2.173793,11.2096,9.640682,-3.638137,-5.109247,-0.046875,0.14624,-0.630859
-0.832703,5.687922,11.725511,0.891318,2.747462,1.029034,0.147461,0.248535,-0.556152,5.055522,2.186266,12.020832,0.85375,-0.895592,-0.531392,-0.308838,-0.146484,-0.525391,8.643549,-4.457702,7.496531,-7.040087,1.065079,0.904657,-0.342529,0.037598,-0.520996,1.40432,9.269655,14.90531,10.560708,-2.30404,1.964116,-0.142578,-0.050537,-0.566895,1.064977,6.333526,17.444301,3.653524,-1.930083,-4.851375,-0.094482,0.063477,-0.637207
-7.380273,-3.565018,9.482423,-2.859493,1.759112,1.443573,0.178467,0.30127,-0.554688,4.137623,-1.083069,13.965776,-1.607751,0.508184,-0.458338,-0.299316,-0.119873,-0.539795,6.510175,-7.443634,8.077675,-5.314229,5.136673,-0.081536,-0.2771,0.100586,-0.552979,3.24417,7.862277,19.863402,-3.769371,-1.053961,0.359901,-0.1604,0.004395,-0.563477,4.336551,-1.545574,12.541001,-2.219464,-2.240319,-0.138964,-0.136719,0.094971,-0.626953
-5.464647,-7.745812,6.749579,0.141831,1.256151,1.053214,0.206787,0.301025,-0.563721,1.662519,-7.958402,11.706212,-0.540153,-0.004251,-0.53993,-0.294434,-0.118408,-0.548828,-9.805128,-6.257162,12.617462,-0.552142,1.100959,-0.13116,-0.266602,0.115967,-0.546631,0.953464,-5.735643,10.695507,-7.711529,-0.217136,-0.323414,-0.16626,0.123779,-0.532471,3.204349,-1.689595,9.201722,-0.925788,-0.918748,-0.294597,-0.152832,0.116211,-0.615234
-8.165168,-2.82219,8.214013,0.901284,0.892476,0.641375,0.215332,0.29248,-0.562012,2.670109,-4.93576,10.76333,2.969476,0.949824,-0.274314,-0.290283,-0.154541,-0.535645,4.616898,-6.089244,11.746823,-3.95553,-4.676338,0.223941,-0.314941,0.162842,-0.493408,-0.012739,-15.478613,8.74064,-3.090016,-0.895845,-0.170709,-0.171631,0.161621,-0.50708,1.947296,-0.643101,8.398845,-1.735387,-0.829366,0.935416,-0.160645,0.147949,-0.599121
-4.129811,-0.083037,7.332226,0.843031,0.742779,-0.14394,0.229492,0.264404,-0.563477,-2.592554,5.656871,12.795881,4.904202,-0.514455,0.206631,-0.295898,-0.235596,-0.503662,9.922719,-17.148414,11.1879,-0.113452,0.985445,2.025744,-0.299561,0.170654,-0.502686,2.399167,-10.01003,7.510612,5.785105,-1.495165,1.024663,-0.19458,0.079834,-0.529785,1.516045,-3.775902,5.366713,1.418111,-0.811379,0.762135,-0.178223,0.124756,-0.599121
-4.724643,-1.034723,9.238992,0.521229,1.096485,0.357255,0.253906,0.260986,-0.562012,6.8324,10.364988,15.090977,-0.511027,-1.076788,0.597066,-0.310059,-0.218262,-0.499023,-0.832975,-6.580543,12.054124,5.855859,0.888164,-1.266438,-0.294922,0.09082,-0.536621,4.645482,2.928362,13.264565,4.932361,-0.975135,1.304952,-0.203125,0.019287,-0.541504,6.266521,-0.380694,10.419288,2.657192,-0.721504,0.360697,-0.1875,0.089844,-0.607422
-12.658661,-3.215992,11.295279,0.387529,0.281941,-0.372775,0.258301,0.251221,-0.579834,4.688307,-0.246128,13.151717,-3.809737,0.296794,1.791589,-0.3125,-0.159668,-0.535889,6.715627,1.444646,10.787671,3.685291,-1.4183,1.344652,-0.322998,0.052246,-0.536133,4.637231,-1.76861,13.80346,-1.58615,0.256142,0.379781,-0.212646,0.045166,-0.540039,5.843997,0.024546,10.125619,2.942639,0.440071,3.560338,-0.184814,0.066895,-0.61792
-6.230172,-2.125021,8.912642,2.168598,-0.91084,-1.887657,0.235596,0.21875,-0.573975,4.473388,-3.476343,10.928964,-0.835609,0.297178,1.013362,-0.318115,-0.145508,-0.529785,4.015329,-3.662409,9.340128,1.024137,1.057479,0.580693,-0.297607,0.039062,-0.559082,2.527278,-12.734877,10.505862,0.27595,0.494412,0.815138,-0.195068,0.041992,-0.559326,2.246637,1.109705,8.705356,3.285493,1.187266,3.779097,-0.148438,0.035889,-0.645996
-3.989959,6.368174,12.26072,2.553775,-1.13496,-1.768192,0.220459,0.16748,-0.574463,3.53968,-3.679943,9.665608,-0.317458,0.956194,2.18074,-0.307129,-0.132324,-0.540771,-1.376112,-4.228757,10.061302,3.71158,-0.47241,-0.094782,-0.296875,-0.012207,-0.552734,1.975861,-7.322459,7.031034,6.90903,0.186345,0.475137,-0.182129,-0.057617,-0.566406,-1.091235,2.419926,6.885795,3.00976,1.199779,6.350637,-0.108887,0.018311,-0.643799
0.096769,3.575194,11.508959,-2.281704,-0.430874,-2.733655,0.212402,0.205322,-0.582764,5.05601,-1.964394,9.827311,2.619391,0.975,1.292439,-0.302734,-0.158447,-0.543213,6.651909,-1.383532,9.449938,2.190248,-2.901833,1.093525,-0.351074,-0.032959,-0.533936,4.841929,5.313467,8.580747,5.523224,0.116493,0.658609,-0.199219,-0.140137,-0.563721,-0.354409,2.46637,5.878595,2.1063,0.756877,6.081972,-0.105957,0.012939,-0.64917
-3.097788,-11.600771,7.462653,0.419242,-1.969741,-2.297915,0.188965,0.196045,-0.587891,2.022832,6.700088,12.416881,4.053369,1.754665,1.360065,-0.275635,-0.212891,-0.537354,6.902802,-4.336159,10.773063,2.992989,0.809004,0.126748,-0.331299,-0.079834,-0.544922,4.65085,4.11094,4.72558,1.260993,2.573361,0.696333,-0.151367,-0.161133,-0.582031,-0.452275,-1.096016,4.300506,2.841578,1.308537,6.351845,-0.070068,-0.014893,-0.660156
8.584232,6.57786,7.758991,8.306101,-1.161158,-1.940141,0.172607,0.050049,-0.577637,-2.517571,9.908886,8.888037,1.7295,-0.136096,0.697128,-0.287842,-0.237305,-0.528076,4.323163,-3.010879,11.799743,5.143372,-0.064171,1.223047,-0.33374,-0.142578,-0.54126,1.177177,0.624798,6.692787,4.027829,2.995321,1.6669,-0.105713,-0.222656,-0.584717,1.990697,1.097066,8.184829,6.358907,-1.080451,4.188137,-0.086914,-0.10791,-0.651855
-0.055776,23.8626,18.129497,-0.863245,0.311639,-1.89298,0.173096,0.063721,-0.582031,8.811048,15.595789,9.253784,-1.239222,-1.342734,0.824707,-0.317627,-0.216064,-0.530273,6.476865,2.274026,5.534023,7.981236,0.432022,0.331611,-0.334717,-0.24585,-0.512451,1.736789,5.29244,6.838839,7.254449,2.08088,2.180627,-0.088623,-0.327637,-0.554199,6.694003,4.707635,8.676316,6.391316,0.590276,2.863498,-0.091797,-0.200684,-0.630127
3.883636,-3.369115,5.443059,-8.452362,-0.70164,-2.289161,0.165039,0.199951,-0.601074,5.02345,1.277954,5.495193,-6.685869,0.622001,1.410426,-0.315186,-0.121338,-0.576416,4.877323,4.541092,0.501027,9.309116,-0.039122,-0.030736,-0.334961,-0.355225,-0.440674,4.172501,11.916588,8.121444,5.152986,3.182586,1.133838,-0.049805,-0.398438,-0.522949,0.90383,5.215861,12.188106,4.244318,1.33686,2.479481,-0.078125,-0.257812,-0.612793
-6.735168,-11.108402,4.208723,3.613496,0.048188,-1.072856,0.166504,0.141602,-0.602783,2.696622,-4.967455,5.281027,3.885132,-0.414066,0.021147,-0.320068,-0.173096,-0.557373,3.28631,2.79461,-1.73335,10.649617,0.085501,0.51431,-0.328125,-0.464111,-0.342285,-0.889086,7.028073,5.616433,-0.83134,4.04813,1.773583,0.001221,-0.392822,-0.543945,-0.65936,1.635887,10.981826,2.076296,0.695048,1.632625,-0.070801,-0.285645,-0.61084
-2.691223,15.883245,7.456879,6.556968,-3.02085,-0.808619,0.124268,0.02002,-0.580322,6.264477,14.7954,6.318301,6.52029,1.479774,-0.146987,-0.294189,-0.276123,-0.528076,1.977246,1.771706,-8.428082,14.003622,0.760493,-2.105956,-0.296143,-0.581299,-0.151367,-2.6809,-7.287633,1.571261,-0.068927,2.091942,1.133166,0.019775,-0.406494,-0.528809,-3.702672,-3.898171,5.358895,3.590992,0.446422,2.047861,-0.080078,-0.348877,-0.572998
3.284449,21.55396,5.740894,-0.648658,-2.393145,-1.886588,0.091797,0.030273,-0.577637,-0.95802,20.305202,0.203002,-0.926927,1.451193,-0.042375,-0.275391,-0.265381,-0.547119,-0.498581,1.204433,-15.361581,15.658981,3.09582,-4.27277,-0.228027,-0.625,0.060791,0.19747,-5.518399,-1.355606,8.472372,1.929287,1.406739,0.031738,-0.527344,-0.447998,-2.815471,1.356666,4.246977,8.380214,-1.729135,1.755969,-0.124023,-0.462158,-0.491943
5.68397,10.818979,2.612276,-1.954147,-0.299309,-1.418298,0.090576,0.056885,-0.579834,0.913349,5.93653,-7.232301,-4.343241,0.461636,0.189775,-0.273926,-0.20459,-0.574951,-3.188542,3.563873,-18.259197,18.882143,1.867342,0.445133,-0.236328,-0.516357,0.315674,-1.587002,12.505859,1.140302,10.50616,2.078868,0.889856,0.047607,-0.629639,-0.318115,3.872589,11.105934,6.527673,7.586826,-1.104777,2.268401,-0.159424,-0.532471,-0.405518
-3.548585,14.557966,4.270235,2.247706,0.490909,-0.542509,0.099854,0.017334,-0.583984,-1.211513,5.223776,-6.391397,6.616987,-1.172259,-1.838043,-0.276123,-0.313232,-0.52417,-4.183532,16.779531,-17.055286,17.96307,-2.555011,1.831448,-0.218506,-0.30835,0.520752,-3.381516,18.617445,5.825225,1.931603,1.747632,-0.374429,0.068359,-0.654541,-0.274414,0.93802,13.624135,8.656616,2.581305,1.293756,2.954878,-0.186279,-0.54834,-0.369629
-0.954273,21.09166,7.359085,0.274863,0.048964,-0.196528,0.102539,0.001953,-0.57373,5.627368,26.302162,-0.425956,6.920402,-0.667179,-2.017857,-0.266602,-0.418945,-0.449463,4.638819,18.552137,-9.673542,-3.410781,-1.374163,-0.264744,-0.201904,-0.35498,0.491943,-3.209428,7.396434,-0.484401,-2.611712,0.539105,-0.556632,0.084229,-0.640137,-0.311768,-2.63398,6.704782,6.571355,-1.569411,0.105388,3.419146,-0.226562,-0.513672,-0.391846
-2.708108,15.543993,3.260728,-2.959852,-0.082444,-0.227936,0.107178,0.068359,-0.58252,-2.203026,24.722249,-2.507602,-1.681105,0.099661,-1.923485,-0.237549,-0.398926,-0.47168,-6.042951,2.91209,-19.389744,-13.998768,0.396528,3.14259,-0.243408,-0.498779,0.353027,-3.318994,1.854458,-2.970494,1.823178,0.626416,-1.417794,0.102051,-0.656982,-0.266846,-0.538557,-0.449098,4.837963,0.233714,-0.691108,3.36299,-0.279785,-0.48877,-0.366455
0.011128,8.972439,1.403148,-2.901165,-0.25516,0.535296,0.099854,0.126465,-0.588379,-3.235262,15.652605,-4.209701,-4.877063,-1.664476,-2.383521,-0.23584,-0.343994,-0.511719,-7.317098,-1.076014,-14.696903,-10.862705,-1.992417,-0.769633,-0.226562,-0.5896,0.218018,-7.720739,11.645061,-4.462035,4.773829,-0.666903,-1.183989,0.113281,-0.6875,-0.201416,1.772825,6.115059,2.272105,3.34643,-1.184356,2.028007,-0.318848,-0.508057,-0.321045
2.555805,6.828137,4.64116,-0.892462,0.00448,1.424469,0.098145,0.141113,-0.583008,2.151726,8.29501,-3.121849,-3.80383,-1.975043,-2.728749,-0.233154,-0.312256,-0.528809,-3.548699,-1.691176,-13.628838,-5.083344,-4.014186,-1.119155,-0.188721,-0.613037,0.174805,-5.099978,19.431072,-3.242806,2.194797,-2.750139,-1.37734,0.120117,-0.692871,-0.166748,11.253665,11.272717,3.257721,0.047677,-2.762648,1.733508,-0.359619,-0.487061,-0.281494
3.283193,6.542327,6.674171,-1.388388,0.949075,1.335035,0.11499,0.172119,-0.582764,1.019433,4.854957,2.53674,-1.634198,-0.63971,-2.213622,-0.227051,-0.297119,-0.536377,-0.876143,-1.710068,-14.685078,2.481403,-3.32412,1.808783,-0.201416,-0.590332,0.229492,-2.699655,17.138828,-3.185307,-1.616917,-1.392709,-1.363548,0.12915,-0.680908,-0.190918,11.771253,6.914788,0.990254,-2.681523,0.206769,-0.125051,-0.362549,-0.466797,-0.309814
-3.503193,2.232809,5.127544,-2.037338,1.448549,1.014693,0.118652,0.216797,-0.58667,-5.519313,5.864875,2.497119,0.263294,-1.589234,-1.037354,-0.26001,-0.296631,-0.528564,-2.250812,-0.315868,-15.065369,9.791548,-1.259599,1.270846,-0.206055,-0.499756,0.358887,-8.611152,9.3386,-4.76393,-2.155105,-1.19991,-1.777934,0.147949,-0.661133,-0.231689,2.815439,6.442676,1.652457,-1.018401,-0.59541,-1.528622,-0.349121,-0.474854,-0.314941
-2.060886,-1.59759,6.948928,-2.215141,0.599777,1.383008,0.140381,0.255615,-0.575439,-0.08963,11.875954,7.579264,0.622243,-2.460658,-1.287316,-0.269531,-0.309814,-0.499756,-3.799325,8.449662,-14.099677,13.288841,-1.119445,0.942121,-0.20166,-0.341309,0.489502,-6.223797,9.074079,-6.745476,1.835332,-4.264415,-1.416208,0.138428,-0.659912,-0.218018,9.289224,10.664999,-0.638763,-0.488335,-3.46493,-1.635697,-0.363037,-0.487061,-0.283447
-5.95483,-4.784983,9.158802,-0.667094,-0.145256,2.731899,0.137695,0.267334,-0.571045,1.36941,11.878976,9.80133,-3.375426,-0.892425,-1.543342,-0.275146,-0.276611,-0.520508,-1.277462,18.551806,-9.708375,1.193988,-1.822998,1.840936,-0.193604,-0.308594,0.493408,-2.4105,18.380803,-3.542402,2.701533,-3.925772,-0.848239,0.127441,-0.666748,-0.19458,12.959658,13.062613,1.352632,-2.870567,-1.012727,-2.464321,-0.341064,-0.484863,-0.308594
-2.281574,-2.513919,8.657813,-0.861325,-0.527391,2.294927,0.141846,0.295898,-0.566162,1.200933,1.76378,9.332913,-5.433937,-0.935963,-0.725687,-0.278076,-0.197754,-0.545166,0.821917,11.070101,-14.411215,-11.046965,-0.884794,1.775743,-0.213379,-0.432129,0.385498,-4.594633,21.708029,-0.945702,-2.708367,-3.738562,-1.09265,0.109131,-0.646729,-0.251221,9.84924,12.449966,2.425255,-5.248607,-0.076358,-3.509163,-0.308838,-0.478027,-0.36499
-4.686773,-6.43176,8.124062,-1.597722,-0.249908,2.476858,0.141357,0.330566,-0.559326,1.491875,-6.060351,6.989682,-3.248558,-0.258042,-0.351142,-0.283447,-0.141357,-0.556152,-0.376749,2.285628,-12.49822,-10.374125,-0.685476,0.419353,-0.210938,-0.52417,0.266602,-4.840313,16.113789,-1.864049,-5.556703,-4.850271,-1.204861,0.085449,-0.601318,-0.341064,9.271472,11.040052,1.024851,-5.432094,-0.376113,-4.120218,-0.262451,-0.458984,-0.419922
-6.247292,-8.323147,9.685758,-0.084711,0.576194,2.25195,0.153809,0.324951,-0.552979,-1.070763,-5.568834,11.957383,-0.962496,-0.553157,0.366909,-0.299805,-0.133789,-0.547852,0.96389,1.878741,-4.859764,-5.036535,-0.806348,0.052541,-0.213623,-0.558594,0.209473,-2.529777,12.958108,-1.329253,-4.86332,-4.685471,-1.278377,0.047607,-0.547852,-0.40332,11.446539,14.352944,1.455611,-4.314296,-0.082575,-5.456533,-0.209717,-0.456299,-0.461182
-11.207665,-7.747342,11.339832,0.783877,-0.624006,2.682252,0.151611,0.329834,-0.553711,3.242549,-4.086162,14.428125,0.38024,-0.507362,0.421289,-0.306641,-0.120361,-0.546631,2.036119,5.212266,-0.858639,-0.407773,-0.013125,0.370916,-0.222412,-0.55127,0.196533,-1.671583,13.638647,-1.127167,-5.094448,-4.088055,-0.131955,-0.007568,-0.481445,-0.466309,9.84828,18.040207,-0.530461,-5.772928,0.204604,-5.809949,-0.155518,-0.416992,-0.520264
-1.091004,-3.275415,12.578489,3.068098,-1.071826,2.622522,0.145752,0.282227,-0.570312,3.114192,-0.5234,14.175562,0.601539,1.115177,0.62331,-0.293457,-0.126465,-0.555908,2.401918,12.603453,-1.416919,-1.780528,0.764695,-0.985641,-0.214844,-0.562256,0.1604,0.897785,11.48543,-1.717256,-6.577484,-3.616412,0.276875,-0.065186,-0.390137,-0.521484,8.83967,15.83641,-2.887163,-7.91797,-0.346511,-5.831639,-0.114502,-0.326172,-0.589111
-5.075453,4.189322,13.390183,2.106933,0.013713,2.047411,0.148682,0.247559,-0.552246,3.596365,-1.221802,10.278823,0.100224,0.328866,0.784449,-0.290527,-0.121338,-0.540527,4.583276,12.666368,-0.32023,-5.261795,0.778648,0.262122,-0.223145,-0.568604,0.073486,5.592131,5.090188,0.468392,-6.171501,-2.30559,1.344502,-0.108154,-0.284912,-0.557373,8.428891,9.245105,-3.499435,-7.538682,-0.327779,-5.658292,-0.084961,-0.21582,-0.636963
-1.437335,4.376495,13.63202,-0.559506,-0.037344,1.391642,0.150879,0.258057,-0.564941,5.148628,-0.830589,10.0794,-1.023217,1.021123,1.189629,-0.280518,-0.0979,-0.562744,4.411563,6.944101,2.887325,-5.751408,1.611749,0.297201,-0.234619,-0.579102,-0.018799,4.938323,-1.480239,5.265147,-3.481895,0.500335,2.06394,-0.111084,-0.223877,-0.569336,-0.152169,1.589946,1.733277,-5.0351,1.261704,-6.482609,-0.040771,-0.154297,-0.658203
-6.991079,-1.989226,10.684375,-1.9984,0.68983,0.111691,0.157471,0.288818,-0.561035,2.039435,-7.621929,10.200836,-1.295866,0.526133,1.676826,-0.279297,-0.068848,-0.568604,3.337935,2.725704,1.656485,-2.023028,2.031071,-0.497309,-0.219727,-0.577637,-0.065918,-1.263686,-6.366929,7.792709,-0.131453,1.396072,2.126511,-0.089844,-0.209229,-0.573242,-7.918097,-3.094623,11.875092,0.614892,-0.549646,-5.551957,-0.023682,-0.171631,-0.654541
0.263182,-4.709666,9.752308,-0.021666,-0.126904,0.281796,0.15332,0.286621,-0.555908,7.040275,-4.656086,9.919865,3.432059,0.508916,1.461909,-0.281738,-0.112305,-0.553711,3.47822,3.260718,4.686124,1.340759,1.686792,-0.488006,-0.21167,-0.583252,-0.049072,-3.036149,-2.3305,8.860692,3.280183,-1.729318,2.33822,-0.129883,-0.250977,-0.547363,-2.746607,5.925707,11.97509,6.185711,-3.937933,-3.72766,-0.074219,-0.28833,-0.601807
-2.679514,-0.921054,11.455773,1.083103,0.030003,-0.355422,0.163574,0.270752,-0.561523,5.359891,5.49017,13.301388,2.331585,2.011634,0.89495,-0.247559,-0.138916,-0.5625,4.060543,5.639025,4.814949,4.082061,1.509048,-1.562275,-0.185547,-0.574707,0.006592,4.094776,2.440586,11.673652,-0.698366,-2.803446,2.179783,-0.175781,-0.21582,-0.527588,4.882552,15.233817,14.223538,1.781512,-2.923146,-1.743866,-0.109131,-0.309326,-0.571777
1.505738,-1.11961,9.901293,0.309032,-1.135477,0.075052,0.138916,0.263184,-0.55835,2.46001,2.370031,11.227588,-0.609331,1.517997,0.648023,-0.234863,-0.127197,-0.568115,3.226171,15.521256,5.232643,3.753284,2.472827,-2.575732,-0.155518,-0.580322,0.041016,3.457028,-3.481034,9.742297,-5.108459,-0.145315,2.152597,-0.18335,-0.135498,-0.542725,3.827026,9.713102,9.971377,-6.393971,-1.496769,1.291424,-0.148438,-0.20459,-0.604248
-3.269633,-1.922877,9.767287,1.190965,0.173276,-0.136191,0.149902,0.244873,-0.559326,2.304057,-0.30409,10.050776,-0.773167,1.815354,0.204992,-0.202393,-0.116699,-0.578613,-0.750298,18.004084,4.055448,-2.331239,1.980764,-1.491695,-0.13623,-0.577881,0.00415,-2.814668,-10.210612,7.873975,-3.8846,-0.790741,1.724466,-0.195312,-0.061279,-0.533936,-0.06581,-3.979252,6.019882,-6.914775,-0.885991,2.24045,-0.172119,-0.07251,-0.614014
-2.113056,2.578103,12.000405,0.893403,-0.699434,-1.236658,0.13623,0.218018,-0.568848,-0.802366,-4.458871,9.204875,-2.39689,0.837886,1.021684,-0.19165,-0.085449,-0.597168,0.461132,12.735329,5.254801,-6.84138,-0.009891,-0.419953,-0.135498,-0.573486,-0.093262,-0.191089,-9.488433,11.229131,-0.275186,-3.377851,1.639697,-0.243164,-0.046631,-0.509033,-1.294695,-9.184497,10.303973,-0.315383,-2.524454,3.160742,-0.220947,-0.043213,-0.594971
-1.597075,0.514642,11.597717,-2.30894,0.800172,-1.664039,0.143311,0.259277,-0.561035,5.393507,-7.721361,9.542461,0.039267,0.37567,0.785245,-0.192383,-0.074463,-0.592041,4.048505,5.403139,5.783505,-6.265398,0.930805,0.568186,-0.135986,-0.557373,-0.186768,7.870633,-6.501237,13.208296,1.442834,-3.573337,1.536659,-0.286865,-0.062256,-0.488525,6.99095,-3.008417,10.49061,3.501341,-3.466052,3.894911,-0.275635,-0.065186,-0.568604
-1.214298,-9.84231,7.494432,-1.021236,-0.638473,-1.99021,0.128174,0.271973,-0.5625,1.99378,-3.978574,10.919832,3.02673,2.398275,0.555951,-0.160645,-0.121826,-0.59375,2.18894,3.531787,6.209631,-1.854124,2.951273,0.115246,-0.124268,-0.539307,-0.21582,8.647592,-2.667797,12.390936,1.726033,-0.851178,1.705858,-0.292725,-0.064941,-0.486816,6.350254,3.594125,9.799637,2.704204,0.065509,4.836638,-0.279541,-0.053711,-0.57251
-3.343744,-5.30068,8.611616,2.862396,-0.228633,-1.652167,0.123779,0.20752,-0.56958,-1.322843,1.544311,11.692821,3.464917,0.913214,0.949563,-0.148682,-0.184326,-0.583984,-1.738657,5.200922,3.087469,4.957483,3.375886,-0.348275,-0.104736,-0.562988,-0.142334,1.319635,-0.294429,11.181412,-0.676322,-0.325078,2.119844,-0.30127,-0.044678,-0.474609,-3.333173,6.724019,9.879816,-0.688026,0.332755,6.005875,-0.278564,0.004639,-0.567627
3.389881,1.733686,9.857505,2.009139,-0.803086,-2.842958,0.108887,0.167969,-0.573975,2.843069,4.359189,10.726571,0.960341,1.09295,1.474753,-0.140381,-0.199951,-0.585693,-3.143107,18.432388,3.833323,7.919463,0.289944,-1.229473,-0.079346,-0.574707,-0.025879,3.002186,-2.035866,9.271908,-2.402498,-3.042753,1.612125,-0.33252,-0.00415,-0.444824,-1.559422,1.435824,6.943304,-4.785655,-1.822214,7.197924,-0.283203,0.144531,-0.53125
-0.194558,1.764874,8.686745,0.719106,0.97913,-2.708482,0.127686,0.151611,-0.584717,-4.592632,2.29835,9.723871,-0.812577,0.726516,1.512844,-0.137695,-0.18335,-0.599121,1.676462,24.406835,7.086285,-1.063178,0.93694,-0.499435,-0.069336,-0.574463,-0.043945,10.661722,-2.927033,12.260698,-0.510799,-2.29604,2.548675,-0.352539,0.020264,-0.423584,2.787038,-8.783829,5.735448,-3.585718,-1.00089,5.780146,-0.263428,0.244141,-0.498291
-3.502841,1.128635,9.60063,-0.186828,-0.531212,-1.879455,0.109375,0.149658,-0.590576,-0.94226,-1.43855,7.448961,-0.734273,-0.062308,0.179194,-0.147217,-0.17749,-0.60498,-4.308265,14.192183,1.541961,-11.016435,3.227358,0.545047,-0.06665,-0.553223,-0.201904,7.946983,-0.060862,12.653744,0.561883,0.663748,2.817144,-0.336426,0.034668,-0.437988,1.850052,-8.034003,6.73645,1.203734,-0.464722,4.375821,-0.233643,0.263916,-0.509033
2.083556,-4.303917,5.10894,2.838416,-0.768977,-2.183218,0.104492,0.090088,-0.579834,-0.330214,-3.213601,6.644905,4.228686,0.454195,0.348057,-0.143311,-0.24585,-0.575195,-4.222686,5.291088,-1.318776,-8.352564,0.983736,1.984116,-0.094727,-0.505615,-0.302246,0.320072,3.062209,11.38536,-1.013897,0.498921,3.009038,-0.331787,0.072998,-0.437744,0.568814,2.13065,8.658913,1.530003,-0.182463,3.710015,-0.216553,0.276367,-0.511475
0.698118,7.103685,8.480188,3.992252,0.030651,-2.509812,0.120361,0.012451,-0.571289,1.016288,7.140215,6.671836,5.459549,0.367451,0.979147,-0.139648,-0.328613,-0.534668,-1.040471,4.70197,5.107585,-0.835147,-0.626849,1.745512,-0.111084,-0.515381,-0.304199,3.503193,-1.060892,8.953763,-4.302916,-2.431628,2.67797,-0.343506,0.131592,-0.397461,1.413952,3.075051,7.222598,-3.783758,0.398322,4.650816,-0.162109,0.345215,-0.475098
-0.383802,4.875306,4.330166,1.283691,-0.247234,-3.402227,0.134277,-0.015625,-0.569336,-1.472027,17.328627,2.335385,4.52179,-0.210807,2.374118,-0.164062,-0.382324,-0.493896,1.210136,12.276282,-4.813699,5.689279,0.488544,-0.15989,-0.10791,-0.541016,-0.229004,10.379213,-6.68014,9.385537,-1.994512,-1.009878,2.313634,-0.348145,0.188721,-0.38623,-1.029754,-8.354486,4.207168,-5.684656,0.723961,5.553202,-0.095215,0.453857,-0.417969
-4.591066,1.948082,-3.012232,5.648981,-1.119803,-0.969131,0.118652,-0.111328,-0.525879,4.104236,19.417941,1.567365,2.129918,0.032549,1.313172,-0.182373,-0.407715,-0.466553,-2.036707,21.066698,-1.3291,2.085982,1.813829,0.292073,-0.087891,-0.55835,-0.210205,8.244243,-1.014639,11.710151,0.948114,0.268037,2.265041,-0.325439,0.195801,-0.40332,1.337992,-13.734234,3.701259,-1.783507,-0.103301,4.629579,-0.02832,0.485107,-0.397217
-0.493994,19.829922,-2.528899,10.100522,-3.321257,0.341773,0.068115,-0.261963,-0.416748,-2.396837,18.390108,2.021154,1.43199,0.614438,0.71319,-0.186523,-0.431396,-0.452148,-1.949679,20.924625,-0.556499,-4.430501,-0.594152,1.827325,-0.128174,-0.542725,-0.266113,8.234695,4.22532,11.939093,-1.685632,-0.309996,1.269317,-0.335938,0.223389,-0.387939,5.017292,-7.155062,4.728719,0.935476,0.598736,4.749489,0.028076,0.480469,-0.404541
4.008614,35.585803,5.51682,5.291185,-1.174086,-1.858879,0.077148,-0.338379,-0.349121,1.420008,12.413189,-1.849755,-3.219192,-1.527171,1.818266,-0.221924,-0.397461,-0.480469,1.483394,14.76588,-2.735413,-6.825737,-0.357903,2.184353,-0.146484,-0.491211,-0.361328,9.758685,1.616191,9.515407,-4.074699,0.498763,2.016177,-0.306396,0.285889,-0.361084,5.416394,-3.486249,4.412047,-2.33056,2.265929,3.889805,0.114502,0.506592,-0.369873
-0.691185,24.800501,0.19292,-6.748825,-0.937778,-3.518895,0.109131,-0.26416,-0.438965,3.017714,3.708221,-4.587096,-0.730301,-1.07655,2.246792,-0.255127,-0.374023,-0.483643,-1.075829,10.071953,-6.435023,-5.65541,0.139729,1.026023,-0.162109,-0.441895,-0.422607,6.252828,-1.090849,9.92979,-4.003,1.273777,1.620492,-0.283691,0.340088,-0.329102,0.268773,-10.406539,3.01269,-5.67327,4.043839,3.592493,0.199463,0.545166,-0.271973
-5.885695,-0.646564,-4.855761,-1.740034,0.425545,-2.853208,0.153076,-0.245361,-0.450439,3.232415,10.967077,-6.470323,7.474357,-0.60046,1.212251,-0.267334,-0.449707,-0.388672,-0.626332,12.647445,0.567754,-3.100575,-1.679459,1.492361,-0.195801,-0.404785,-0.456299,6.041883,-0.19399,10.455803,-4.233536,0.099279,0.809089,-0.279297,0.383301,-0.283203,-3.369687,-17.241652,2.808113,-4.370454,3.304408,2.921285,0.264648,0.557373,-0.199219
-7.513821,19.46135,4.557603,5.506534,-1.431189,-0.769954,0.13623,-0.322266,-0.38623,3.902685,28.001627,-1.394362,8.478778,-1.161472,0.836305,-0.298096,-0.522949,-0.276123,4.67737,15.956021,4.562841,-2.674447,-2.183196,1.768194,-0.236084,-0.365234,-0.479004,8.998798,-1.791821,6.925261,-5.4463,0.472993,0.848443,-0.266846,0.433105,-0.220947,1.16575,-14.158533,3.927205,-0.296603,2.719684,1.486843,0.302002,0.553955,-0.186279
-3.46278,26.083902,6.833326,-2.465993,-1.148413,-1.804174,0.143311,-0.291992,-0.418701,6.239017,32.646692,3.633938,-0.347768,-0.65859,1.121803,-0.310791,-0.512695,-0.289551,5.128158,13.431566,2.48921,-6.095167,-0.091806,0.518294,-0.243896,-0.286621,-0.527588,6.731842,-7.202424,4.374796,-5.008622,1.905338,0.68377,-0.250732,0.472656,-0.164551,-3.074765,-7.655386,8.220746,-0.464519,4.40438,1.72395,0.349365,0.547363,-0.148926
-3.96304,11.866107,1.269978,-5.880427,-2.133841,-1.507325,0.133545,-0.210205,-0.474854,4.231066,19.189808,-5.437844,-10.956542,0.088956,0.751955,-0.315674,-0.408936,-0.42334,2.202077,7.231801,1.456937,-6.250148,-0.475975,0.332893,-0.255127,-0.202881,-0.563477,3.78009,-10.037935,5.42492,-1.800953,1.083145,-0.122707,-0.246826,0.481201,-0.147949,-9.285124,-10.788459,9.492569,-2.852811,2.159382,2.140011,0.388184,0.540283,-0.086182
-3.465477,9.642252,1.702406,-3.129018,-1.281946,-2.025728,0.139648,-0.162109,-0.504883,1.990207,0.584797,-9.043583,-7.368297,-0.285238,0.710144,-0.314209,-0.311279,-0.494385,1.965022,3.191762,1.815164,-3.121618,-1.72295,-0.132866,-0.274658,-0.155029,-0.569336,5.704335,-7.509622,6.29568,0.523702,0.347938,-0.78044,-0.250488,0.480957,-0.156006,-6.229908,-17.989202,7.096981,-1.458679,0.80707,1.809876,0.42041,0.533203,-0.064453
-4.730804,12.509423,4.32787,-5.559391,-0.611955,-1.450577,0.127686,-0.084229,-0.537598,1.46615,2.517979,-0.538109,-0.309801,-0.249766,-0.464184,-0.325439,-0.311279,-0.487549,3.263631,3.365041,4.826799,0.223118,-1.153763,-0.899314,-0.291992,-0.159424,-0.560059,4.220655,-4.551522,7.749862,0.763952,1.718103,-1.304523,-0.269775,0.472412,-0.175781,-6.993338,-15.067692,7.01378,3.144899,0.493069,0.778534,0.431885,0.520752,-0.10498
-3.407258,-0.577325,4.179032,-7.146786,-0.001102,-0.841817,0.132324,0.041016,-0.574463,0.619176,10.880751,1.166526,1.149184,-0.866879,-0.384501,-0.325195,-0.315918,-0.476562,2.007784,3.646813,5.680231,2.175148,0.320155,-0.268207,-0.290771,-0.199219,-0.554443,1.268429,-6.119311,6.381834,0.37346,1.188341,-1.598581,-0.288818,0.452881,-0.186768,-6.911123,-7.428946,6.76102,3.744045,-0.761742,-0.243787,0.422607,0.507324,-0.161377
-1.74393,-5.979863,6.785753,-3.87511,-0.17133,-0.524554,0.124268,0.10376,-0.575439,3.291101,14.220307,6.005384,-4.173697,-0.85669,-0.777144,-0.331787,-0.271484,-0.500244,-0.691217,3.938012,3.44575,3.784155,-0.033458,-0.094245,-0.279053,-0.230957,-0.536865,2.438971,-7.579079,3.621342,2.256088,1.080675,-2.045737,-0.303223,0.443115,-0.226807,-4.259554,-6.20499,5.592435,1.869759,-1.346006,-0.53281,0.418701,0.523926,-0.200195
-2.947091,-3.896957,8.260927,-3.200364,0.450884,0.294581,0.130371,0.160889,-0.577393,2.337683,3.307556,3.040354,-4.873385,-0.383728,0.341222,-0.33374,-0.198975,-0.525635,0.813375,7.520737,4.433452,4.722364,-2.099066,-0.66221,-0.306152,-0.299561,-0.488037,0.782947,-2.839525,4.094917,3.98789,1.440135,-1.680146,-0.320557,0.394531,-0.284668,-3.472084,-8.093731,6.249255,1.702099,-0.990681,-1.947378,0.380371,0.527588,-0.228271
-3.234241,-6.961055,6.700903,-1.819075,-0.363793,0.7815,0.120361,0.200928,-0.580078,4.698787,5.211928,3.798189,-0.568736,-0.299073,-0.854885,-0.336426,-0.185303,-0.531006,4.578143,8.976168,0.95866,3.109139,-1.901636,-0.851198,-0.321045,-0.341553,-0.451416,1.18138,-0.527294,6.382676,1.988968,-0.190493,-2.03023,-0.3479,0.361328,-0.303467,-4.171508,-6.638934,5.371461,2.717654,-1.468761,-2.585224,0.332764,0.532715,-0.279053
-0.913342,-2.105185,8.739893,-0.720693,-0.190454,2.803856,0.11377,0.209717,-0.571533,3.506759,6.676521,5.315851,-2.3445,-0.011456,-0.184928,-0.336182,-0.164062,-0.535156,3.727941,7.075559,4.809358,0.384369,-0.725825,-0.92337,-0.325439,-0.344482,-0.453613,6.003192,-4.642117,5.508342,0.800411,-0.04092,-2.344807,-0.374268,0.342285,-0.320068,-5.486724,-4.977673,4.498181,1.963803,-1.428173,-2.647966,0.281494,0.543701,-0.32251
-0.773455,-4.349268,8.612515,-2.190872,-0.566405,2.700044,0.103027,0.262695,-0.564453,2.782223,1.032692,6.47584,-1.603505,0.328317,-0.958114,-0.328369,-0.130615,-0.541504,1.227406,3.457022,5.78691,0.152533,-0.862763,-0.446698,-0.328125,-0.346191,-0.437744,3.089524,-8.091519,0.756946,3.058706,2.163045,-2.260343,-0.373779,0.290771,-0.366211,-4.544206,-6.914476,2.292416,2.117792,-2.802027,-2.784703,0.217285,0.540771,-0.362793
1.873749,-7.209927,7.582274,-0.183797,-0.398195,3.592232,0.115479,0.270996,-0.558838,0.459001,3.639561,7.128622,0.614364,0.225596,-0.423227,-0.315918,-0.143311,-0.537109,1.492276,2.607677,4.932949,2.445948,-1.586642,-0.977825,-0.343262,-0.376953,-0.407715,-1.55912,-3.94086,0.485439,6.932702,0.944389,-1.815728,-0.388428,0.197266,-0.435791,-3.795795,-6.42011,-0.550767,4.497458,-3.300625,-3.843745,0.116943,0.509277,-0.439453
1.048873,-1.769414,9.004949,0.609189,-0.263846,3.787866,0.114746,0.277588,-0.567383,2.20012,7.378678,7.919075,-0.767471,-0.428605,-1.073767,-0.317139,-0.13208,-0.543701,3.090724,2.322611,3.832689,3.980135,-1.573798,-1.245104,-0.337646,-0.416504,-0.353271,3.3384,0.688501,0.767974,7.452324,-0.099018,-2.405941,-0.394043,0.088867,-0.474854,-4.174498,-3.139037,-1.538808,6.063741,-4.734077,-3.614038,0.017334,0.439453,-0.515869
1.806915,-2.2205,7.598995,-1.587881,-0.408487,4.80346,0.12915,0.316406,-0.552002,0.980184,3.511473,10.09702,-2.753736,-0.017545,-0.540475,-0.309326,-0.092285,-0.543457,3.226364,2.257122,1.649113,6.557504,-0.29366,-1.26204,-0.331543,-0.475342,-0.282959,3.515382,0.769533,0.737829,7.479937,2.497072,-2.261013,-0.369141,-0.037109,-0.522949,-1.8316,-1.104784,-3.263518,6.948979,-5.866269,-3.780406,-0.117432,0.324463,-0.580566
-0.110359,-8.910683,7.734462,-0.480773,-0.87169,5.502903,0.123779,0.336182,-0.545898,-0.416395,-0.831646,8.438942,-1.799317,-0.35234,-0.793854,-0.316895,-0.066895,-0.543457,1.327484,2.795041,-0.434053,11.112247,1.190435,-1.934418,-0.293945,-0.548584,-0.140381,-2.067931,0.532615,-0.603747,10.189629,2.215219,-1.597708,-0.326904,-0.199219,-0.516602,-0.604656,-0.339294,-3.645892,8.213607,-6.326753,-3.614007,-0.233398,0.171387,-0.590332
1.156376,-5.690812,8.802416,2.483256,-0.639737,4.515081,0.132568,0.297607,-0.553223,-1.539237,0.07867,12.862032,0.00182,-0.818124,-0.15878,-0.326172,-0.070312,-0.537109,-1.390627,2.909526,-8.407429,15.657345,1.820337,-1.957174,-0.268311,-0.574707,0.046387,-1.766117,5.765994,-3.605906,13.782853,1.524742,-1.601316,-0.298584,-0.396973,-0.460449,-1.3877,2.309647,-3.304919,10.913497,-7.38845,-3.615836,-0.364014,-0.038818,-0.562988
-0.366972,2.828028,12.422628,0.944437,-0.267553,4.251415,0.13623,0.30127,-0.557617,6.083209,0.068646,11.972128,-2.488631,-0.848168,-0.62789,-0.339355,-0.033691,-0.537598,-1.742602,4.278616,-12.277086,17.959192,-0.003684,-0.818209,-0.255371,-0.495605,0.280762,-1.397178,13.680166,-2.965951,14.301625,0.468467,-0.757435,-0.277588,-0.549561,-0.310303,2.405974,7.65982,-2.758178,11.314748,-8.15183,-3.789037,-0.459473,-0.241211,-0.427734
0.87539,-2.01401,10.112747,-1.880956,-0.936161,4.132589,0.131104,0.333496,-0.540039,5.56711,-6.687637,10.426499,-2.285318,0.758935,0.199116,-0.327393,-0.002441,-0.534912,3.733961,12.740176,-16.518413,17.077992,-2.289571,-1.712665,-0.203613,-0.337158,0.449951,2.935524,16.406928,1.112783,11.029114,-1.369027,-0.734634,-0.265137,-0.622314,-0.158936,6.931236,9.903368,0.090758,8.627497,-7.01556,-2.436146,-0.498291,-0.357178,-0.271973
-5.886687,-9.077476,9.408958,0.401225,-1.044775,4.258484,0.136475,0.330811,-0.55249,2.625227,-2.559578,13.07881,0.888475,1.116934,-1.171166,-0.30542,-0.022705,-0.554688,3.102409,17.29451,-16.207672,10.756315,1.911532,-3.604444,-0.198975,-0.220703,0.513916,3.025921,17.30266,7.433624,8.655307,-0.095353,-1.009485,-0.243164,-0.64917,-0.029785,4.257913,7.962912,3.687949,4.374897,-4.339056,-2.650562,-0.49707,-0.427979,-0.163818
-1.595791,-0.98097,10.593138,2.601071,-1.710638,3.174722,0.106201,0.295898,-0.549805,-2.939066,-2.121592,10.604769,-2.243555,1.371984,1.109159,-0.29834,0.014893,-0.557617,-8.019797,16.808432,-17.199366,5.760202,1.904454,-0.54282,-0.227295,-0.166016,0.511963,0.786756,22.08099,10.533453,6.869485,-0.94681,-0.75726,-0.232178,-0.668945,0.05835,7.800825,5.107471,-1.082351,3.899487,-4.583982,-2.798154,-0.480957,-0.498291,-0.070312
-0.00347,-0.211195,9.357106,-0.649263,-0.066174,2.272643,0.122314,0.321289,-0.548584,0.244209,-5.76683,11.994079,-1.37096,-2.419862,0.271278,-0.320557,0.046387,-0.53833,-0.393352,16.221248,-12.715844,-1.44829,-4.356286,2.110544,-0.173828,-0.163574,0.534912,3.184589,21.268687,8.558158,-1.567198,-1.858434,-1.026871,-0.210449,-0.659912,0.046631,9.049244,13.619228,-1.452046,3.710441,-0.579779,-3.80372,-0.42334,-0.542236,-0.015381
-2.673052,-4.745442,9.572504,1.413913,0.058847,1.960124,0.120605,0.298828,-0.550781,10.018198,-6.764826,11.033603,0.046014,0.359584,1.34379,-0.31958,0.054443,-0.545654,6.422358,8.491096,-7.216525,-7.542868,-1.605344,1.821006,-0.176025,-0.258545,0.506592,7.381554,7.087478,-2.611107,-6.514719,-0.606107,-1.46751,-0.199219,-0.658691,-0.040527,4.84434,10.40002,-1.216184,-3.704193,-0.686151,-1.893651,-0.406006,-0.562744,-0.048096
-0.619496,2.854208,11.743421,2.945863,-2.626157,3.182221,0.084473,0.255859,-0.562256,-0.60627,-3.293943,10.456992,1.877828,1.401489,-1.22114,-0.301758,0.013916,-0.562988,2.494505,2.307574,-1.518099,-4.865985,0.436112,-0.967613,-0.176514,-0.321533,0.475098,3.903569,-1.656999,-4.672396,1.196334,2.096645,-0.797507,-0.181396,-0.666748,-0.022461,8.641548,-1.26214,-8.24145,-1.181248,-0.855156,-3.745266,-0.348633,-0.602051,-0.046631
-4.215447,2.699597,11.388416,1.773291,-0.424188,2.152924,0.080811,0.22168,-0.560547,4.322675,0.361583,7.773817,-1.865392,1.050584,-0.165077,-0.281738,0.0271,-0.56958,1.426525,0.324922,-7.24575,-0.345555,0.441608,-0.747663,-0.173584,-0.322754,0.462402,-1.364979,10.380003,1.468738,5.701054,0.418664,0.523477,-0.185059,-0.661865,0.053467,1.204191,6.106782,-3.01076,4.227001,2.233414,-6.233649,-0.240479,-0.664307,-0.012451
-2.948441,5.318885,10.719325,0.215144,-0.801009,0.323242,0.064453,0.22998,-0.55835,-0.93925,-13.789541,4.396146,-4.808618,0.779929,0.743318,-0.274902,0.108887,-0.566406,0.324698,0.565422,-8.803972,5.414883,-0.421189,-0.563923,-0.161865,-0.26709,0.500732,4.626937,11.43313,3.543055,-1.344872,-0.519159,-1.485463,-0.158203,-0.675293,0.028564,-2.991344,8.535405,0.235595,0.205106,-0.962188,-2.642658,-0.189697,-0.691895,-0.003906
-3.131958,1.70248,6.655806,0.002398,0.473763,-1.318482,0.076416,0.223145,-0.558838,3.304937,-16.930399,7.972624,3.642487,-1.095301,0.115726,-0.287109,0.054199,-0.563232,1.331142,8.483788,-4.951213,8.37702,-0.851083,-2.6764,-0.141113,-0.156982,0.545166,5.824033,-1.384853,0.636739,-2.189847,2.389704,-1.562348,-0.130859,-0.671631,0.000488,6.884775,-0.331821,-2.752165,0.025807,-0.403766,-2.784028,-0.136963,-0.699219,0.008301
-5.015539,4.974971,11.786169,1.150815,-0.993915,-0.78074,0.052002,0.198242,-0.567139,7.557911,-1.148908,6.793926,8.653966,1.828948,-0.468445,-0.263916,-0.07666,-0.579346,2.05492,12.374867,-3.189067,3.181686,-0.080291,-1.350226,-0.132324,-0.107178,0.547852,-2.009205,-1.510571,-0.631952,5.872541,2.374551,-0.779559,-0.108887,-0.661133,0.084229,-0.755522,4.418914,-3.520031,6.202272,2.985857,-3.789788,-0.055664,-0.702393,0.101562
-7.529863,-1.261065,9.165402,1.268227,-1.50992,-2.681723,0.027832,0.164795,-0.561279,-0.468119,5.678406,13.789904,1.378764,2.430205,0.213139,-0.229248,-0.099365,-0.585205,-1.080001,5.871357,-8.069103,-1.924194,-0.547169,-0.768584,-0.133057,-0.136719,0.530273,-0.742546,12.109018,1.351485,6.441295,-0.146769,-0.952108,-0.090332,-0.641357,0.167236,-4.095145,13.284394,-0.915085,4.053555,-0.241107,-3.135469,0.0,-0.697266,0.1604
-0.575659,4.828393,7.643983,4.584408,-2.801102,-4.126051,-0.016113,0.058838,-0.537842,3.89909,-12.733841,3.557733,-1.633578,0.540278,2.121854,-0.233643,-0.077637,-0.591797,-0.161115,-0.482394,-11.783253,-3.011198,-0.9335,-0.855066,-0.115234,-0.171143,0.519531,3.016675,11.108956,-1.672172,-0.195854,1.29815,-2.19088,-0.055176,-0.637207,0.166016,4.402044,8.468521,-7.317663,0.089709,0.939644,-1.196936,0.033691,-0.689697,0.163086
12.921694,13.608187,7.553864,2.51385,-2.219776,-6.39377,-0.018799,-0.027344,-0.528076,4.6954,-6.425974,1.423071,9.923929,2.24997,2.474994,-0.208984,-0.219238,-0.570068,-0.345741,-0.837742,-10.250304,-2.741232,-1.113013,-0.582114,-0.107666,-0.199219,0.510742,-0.446572,4.834009,-11.13023,0.888641,2.843714,-2.20812,-0.030029,-0.619629,0.183105,-4.107411,9.800642,-13.805201,4.639905,3.603914,-1.574264,0.054199,-0.6604,0.246338
11.427992,13.642005,8.180703,2.155914,-0.045366,-5.178067,0.004883,-0.091553,-0.513672,-5.207802,18.792994,3.458956,11.948198,2.116798,-0.087645,-0.192627,-0.383789,-0.472656,0.077515,-0.23397,-6.561462,1.588536,-1.113976,-1.638516,-0.081543,-0.169434,0.513916,-5.421669,10.890389,-8.2986,3.560608,1.742962,-1.218613,-0.008545,-0.5896,0.22876,-5.508227,21.528187,-10.729622,4.980149,0.900443,-0.371575,0.067627,-0.618896,0.313721
2.958277,16.091561,12.741724,0.56326,-1.491653,-4.100406,0.018066,-0.121338,-0.493408,2.01388,21.991782,7.705247,2.927934,-1.18674,-1.392798,-0.188965,-0.430664,-0.42749,0.102253,-1.048314,-13.838794,4.873168,-0.233739,-4.019049,-0.070801,-0.109131,0.524658,-0.827296,13.146401,-3.340519,-0.047729,0.316908,-1.858092,0.013428,-0.580078,0.224121,2.293583,18.969433,-5.216783,-1.587717,1.536372,1.28112,0.043945,-0.628418,0.285156
14.287086,10.333087,9.329276,-0.948859,-0.633674,-5.65018,0.054199,-0.136475,-0.500488,9.739576,13.048522,1.566671,-0.660455,1.33686,0.309751,-0.181152,-0.429688,-0.437744,-0.408027,-1.002128,-14.264899,-0.517846,-0.221869,-1.741949,-0.06665,-0.102783,0.512939,1.953408,7.967902,-11.181763,-0.748002,2.054572,-2.17746,0.04248,-0.564941,0.218018,-0.694021,10.400739,-8.983693,-1.866329,3.644829,2.249086,-0.001465,-0.631104,0.255859
-0.890921,15.038313,7.792137,-1.151528,-0.085142,-6.056378,0.102051,-0.140869,-0.514648,-0.951976,14.781314,-4.531466,3.932265,2.963176,0.452005,-0.154541,-0.475586,-0.39917,-2.659871,-2.627416,-18.778531,-6.898916,-1.236931,0.36283,-0.053467,-0.187256,0.486816,-4.338467,11.196335,-12.244033,3.048364,2.249651,-1.194552,0.05127,-0.538574,0.256592,-1.297431,11.626939,-9.695258,3.157372,0.789634,2.020163,-0.031006,-0.60791,0.299072
1.064199,9.209629,2.903681,-1.039367,-0.548315,-3.948728,0.120605,-0.122314,-0.527832,-0.306032,24.969913,-3.205731,5.158273,1.403289,-0.222261,-0.142822,-0.519775,-0.337646,-2.08055,-3.191002,-18.67631,-7.093187,-1.034009,-1.12075,-0.046875,-0.263672,0.456543,-4.266079,19.15592,-5.701975,1.296252,0.106626,-1.367844,0.060059,-0.518555,0.267822,5.909991,19.939207,-8.158034,3.307055,1.638467,1.995033,-0.075684,-0.57373,0.332031
-9.450678,16.349167,7.219259,3.355402,-0.579302,-3.480796,0.144043,-0.183838,-0.499023,-0.62103,27.621703,-0.743157,-0.179443,0.379723,-0.891241,-0.125244,-0.531982,-0.347412,-1.142304,-2.501408,-13.956116,-1.167233,-1.411192,-0.241343,-0.016602,-0.276611,0.460693,1.704529,17.498149,-4.21927,-3.602074,-0.057783,-1.563301,0.088867,-0.52832,0.237061,4.436184,20.521912,-4.463036,-2.033507,3.562715,2.750015,-0.127197,-0.575439,0.294189
-0.077383,32.155906,10.099786,-0.115605,-0.714893,-1.69555,0.148438,-0.175293,-0.501709,5.114738,19.754796,-4.667221,-3.60609,-1.121006,-1.571195,-0.109619,-0.500732,-0.391357,0.718889,-1.722832,-13.447825,3.21612,-2.363011,0.377212,0.005615,-0.230713,0.482422,2.882678,10.482669,-5.002575,-3.798798,1.231881,-1.477854,0.095459,-0.54248,0.198486,6.204415,11.948358,-4.389018,-4.790399,2.749231,4.112646,-0.211182,-0.578857,0.210693
-5.825124,24.444174,4.915095,-10.001181,0.146146,-3.199316,0.170654,-0.022461,-0.572754,3.852556,14.907018,-4.017836,-1.902788,0.787898,-2.318073,-0.070801,-0.491699,-0.416992,1.176966,-1.354587,-15.773424,2.866601,-0.680756,0.357479,0.024658,-0.192871,0.503418,-3.012785,12.819826,-4.725039,-0.558669,1.660126,-1.19709,0.113037,-0.545166,0.206543,8.139279,7.611108,-2.994789,-1.292618,3.508028,4.06489,-0.277832,-0.550537,0.16748
-1.753511,2.721852,-1.154731,-8.579192,-0.295265,-1.924354,0.181885,0.126221,-0.602051,-1.414175,16.218281,-2.432446,-0.418984,-0.0563,-2.538913,-0.02417,-0.49292,-0.433594,-2.199751,-0.309444,-14.32725,1.633939,1.083136,2.933927,0.001465,-0.173584,0.509277,-5.638471,19.808084,-3.279951,-1.517898,-0.36075,-1.040143,0.121338,-0.554199,0.189453,6.966662,12.873998,-1.732255,0.730985,3.920624,3.123822,-0.339111,-0.52124,0.133301
-9.890008,7.668799,4.086125,-4.453713,0.445431,-1.353831,0.174561,0.212158,-0.599854,1.404,20.134437,-1.948223,-2.3693,-0.035413,-2.968267,0.004639,-0.45459,-0.468018,-6.825527,3.735558,-13.697241,0.657637,-0.256692,3.756947,-0.010986,-0.157959,0.527832,-3.686428,18.6725,-4.967089,-5.448136,-0.715489,-1.166491,0.133301,-0.575684,0.138916,8.557837,14.708154,-0.00807,-2.319275,3.897261,3.547821,-0.400146,-0.475342,0.065918
-6.719219,3.655329,0.634152,-6.800011,-1.315339,-0.675411,0.151855,0.329102,-0.577637,-3.705164,14.625359,-4.848003,-5.885008,-1.047185,-3.352173,0.033203,-0.37915,-0.530273,-2.415533,6.30318,-13.69366,-4.442068,-1.54481,2.372024,0.0,-0.225342,0.510986,-4.417376,10.550156,-5.182947,-5.617475,0.179587,-1.5467,0.149902,-0.609131,0.064697,5.139468,6.85676,-0.677428,-5.300365,4.645315,3.068109,-0.44165,-0.443359,-0.052734
-5.955379,-0.906477,-2.061114,-5.147568,-1.049136,2.049089,0.13501,0.432129,-0.556152,-0.584923,10.510478,-4.436399,-4.20398,-2.683026,-3.644366,0.022217,-0.297852,-0.589355,-4.426986,0.597551,-15.255515,-5.691878,0.067746,4.097657,-0.003418,-0.3125,0.490967,-6.963766,7.279034,-5.097029,-2.14716,0.136438,-1.760468,0.189209,-0.624023,0.047852,4.759593,-1.106769,-1.074035,-2.353506,2.307103,2.531502,-0.452393,-0.407715,-0.098633
0.518724,-4.093829,-3.425053,-5.662927,-2.557489,4.146649,0.130859,0.519287,-0.490967,-2.827046,8.447645,-1.253641,-4.910136,-2.764351,-4.192097,0.016846,-0.221924,-0.607422,-7.606588,-0.643246,-15.050685,-2.66905,0.088951,2.293419,-0.0354,-0.348633,0.478271,-9.311588,12.801945,-5.886596,0.528085,-0.263766,-1.676617,0.198486,-0.626465,0.05127,7.162671,2.032756,-0.985391,2.531903,1.500672,0.555974,-0.471924,-0.399658,-0.099365
7.835708,-13.369402,-3.56345,-2.403851,-1.850435,6.033321,0.151123,0.55957,-0.473389,-5.788032,2.068229,-1.527779,-4.161641,-4.149188,-3.65305,-0.037109,-0.152832,-0.636719,-10.051202,1.71461,-13.650878,-1.584733,0.123523,3.903056,-0.061035,-0.375488,0.469238,-13.142136,17.677553,-5.717169,-1.470097,-0.340176,-2.445432,0.23584,-0.632324,0.020996,10.093682,11.792519,2.151168,2.693543,1.089402,-1.294892,-0.452637,-0.424316,-0.09082
-2.167569,-9.93417,0.925075,0.487143,-0.642604,4.119071,0.190918,0.56543,-0.473389,1.668011,2.192022,5.957257,-5.25771,-4.47964,-2.941271,-0.089355,-0.057617,-0.645508,-9.169975,3.100387,-15.007617,-3.78268,-2.38068,3.828657,-0.064697,-0.422119,0.432373,-12.234067,15.80064,-6.39674,-3.627091,-3.20707,-2.423066,0.273926,-0.627686,-0.068848,13.612705,13.564231,2.853091,-2.588567,1.488663,-2.047915,-0.429443,-0.437988,-0.14917
0.744106,-6.803874,3.313847,-0.012674,-1.677643,4.168862,0.196289,0.557129,-0.465332,3.763809,-5.092936,5.030987,-5.691928,-2.74094,-0.009035,-0.144775,0.027344,-0.635498,-3.021832,0.978297,-12.271976,-7.7519,-2.70901,3.474822,-0.094482,-0.511475,0.352295,-5.171524,14.096862,-6.374237,-3.438173,-4.509769,-2.586055,0.277344,-0.61792,-0.155273,13.820971,6.509071,0.413606,-6.169951,3.243507,-3.21779,-0.39917,-0.44458,-0.253418
-0.209946,-10.037486,2.414143,1.221379,-1.087591,2.837804,0.199951,0.540283,-0.473389,1.166264,-6.959393,4.561634,-2.982244,-1.830641,-1.331594,-0.182617,0.073975,-0.615967,-1.039493,1.134938,-7.749468,-6.344445,-2.119957,4.457231,-0.134033,-0.567139,0.278809,-3.320903,12.254126,-6.831976,-4.219151,-3.062946,-2.652271,0.301514,-0.591064,-0.243408,7.965,1.041425,-2.345799,-4.196723,4.347943,-3.929432,-0.323975,-0.455566,-0.343262
-3.687736,-5.347576,3.348569,2.785048,-1.733972,3.783253,0.214111,0.50415,-0.493652,-4.087754,-9.565007,4.03723,-3.500661,-2.147765,-0.255939,-0.207764,0.132324,-0.598633,-0.431221,1.29299,-5.018334,-3.395727,-0.409926,3.384791,-0.178223,-0.570801,0.226562,-4.839675,10.776412,-6.898329,-4.57659,-3.559856,-3.325186,0.313477,-0.520752,-0.342041,4.300876,4.711163,-1.795829,-1.027601,2.932069,-4.695193,-0.244873,-0.476318,-0.388916
1.421539,-1.279452,5.934449,2.095784,-0.439027,3.179335,0.227783,0.473633,-0.510498,-1.269515,-12.617978,6.253296,0.677051,-3.337779,-1.264962,-0.263916,0.121094,-0.580566,-2.610017,5.511638,-3.726137,-1.714372,1.536653,2.32329,-0.223877,-0.575928,0.201172,-4.536558,9.33778,-3.120364,-5.663667,-3.807876,-3.442718,0.301758,-0.444336,-0.429932,7.384339,10.490517,1.120801,-1.892936,2.597145,-4.846615,-0.166748,-0.490479,-0.421875
-4.455336,-2.013614,7.297626,-0.479612,-0.459855,3.352289,0.246826,0.474365,-0.503662,4.221624,-3.03654,9.101087,4.974053,-2.875168,-0.048593,-0.301025,0.04834,-0.566162,-2.147378,10.852329,-4.524419,-4.698336,-0.935306,2.00149,-0.251953,-0.587891,0.131836,-3.120467,6.887875,-2.859546,-4.534165,-3.961555,-3.538683,0.276367,-0.36377,-0.510498,7.69036,9.853152,1.412665,-4.642007,4.035073,-5.035207,-0.062988,-0.457764,-0.502686
-6.582157,-10.742766,5.415097,0.238369,-1.739567,3.359587,0.235352,0.469727,-0.5,2.035037,5.647538,13.316448,0.744875,-1.996451,-0.262115,-0.337158,0.038818,-0.539307,3.673701,10.011963,-2.917655,-8.328239,-0.26616,2.554234,-0.296875,-0.578369,-0.003906,-2.842843,10.237378,1.624278,-3.989729,-2.711027,-3.503773,0.251709,-0.273926,-0.569336,5.739968,4.697516,1.746472,-4.658215,4.19116,-4.746674,0.041504,-0.390869,-0.570068
-7.933637,-5.706892,7.120364,5.09632,-2.366246,3.411273,0.219971,0.381348,-0.543457,0.436316,-4.391209,11.295356,-4.62632,-1.802721,0.930552,-0.356934,0.102295,-0.52832,-0.909572,3.422149,-6.884493,-10.818673,2.280426,1.786618,-0.316162,-0.546387,-0.172363,-3.838374,10.609378,-1.723345,-6.475307,-3.665009,-3.362701,0.202637,-0.156494,-0.613037,6.215299,4.185378,3.60866,-2.445561,4.729337,-5.324102,0.159912,-0.349609,-0.58252
-4.992256,5.189834,10.676445,3.608069,-2.355377,3.666396,0.193115,0.331787,-0.546875,1.916975,-12.881933,8.687257,-0.406877,-1.317241,0.774966,-0.374512,0.123047,-0.503174,-2.495402,2.349019,-1.368969,-10.315442,1.511907,0.676563,-0.331543,-0.479004,-0.316895,-0.686713,6.962055,-2.005286,-7.617421,-4.020387,-3.428248,0.119629,-0.010986,-0.63208,4.541096,8.66266,4.949654,-2.477647,5.076356,-5.373333,0.26416,-0.287598,-0.583984
-4.650018,0.784271,8.134959,1.743441,-3.417846,4.202443,0.149902,0.302979,-0.552734,5.211707,-6.803701,11.752212,2.59054,-0.090336,1.570955,-0.370361,0.101807,-0.51123,-1.218584,2.23782,0.233098,-10.326561,-0.548498,1.140992,-0.341797,-0.369385,-0.414551,0.342234,1.917767,-0.37474,-7.551943,-2.760601,-2.617395,0.072021,0.124268,-0.605469,4.592983,8.24397,6.037098,-4.681264,4.803011,-4.612195,0.373779,-0.177979,-0.568115
-6.591759,-2.948041,7.083612,3.928881,-2.336884,3.482524,0.120361,0.256348,-0.552734,3.76965,-7.715273,4.850839,0.785148,0.348027,2.414773,-0.35376,0.12207,-0.516357,1.764429,2.802007,2.992648,-11.481212,-1.64424,1.95126,-0.394775,-0.222168,-0.480469,-0.95273,-2.678261,3.489045,-6.725245,-2.326038,-2.451074,-0.001465,0.234131,-0.560303,0.567682,2.741287,7.256418,-5.440375,5.071992,-4.001305,0.442627,-0.061035,-0.537842
-6.402534,3.403333,8.531238,6.471822,-4.521904,3.25808,0.028809,0.154785,-0.537354,5.739487,-11.129168,6.113308,0.935692,0.474447,3.183715,-0.354736,0.127686,-0.521729,3.57519,1.936124,0.438408,-14.320079,-1.568273,2.894803,-0.420898,-0.027588,-0.501709,-0.003395,-4.405977,4.841689,-4.372442,-2.201876,-1.723285,-0.047852,0.2854,-0.521973,-1.980533,-1.177227,9.757369,-3.402529,3.632767,-4.010726,0.496094,0.020508,-0.503418
9.734104,12.602721,7.241551,5.131825,-2.98004,1.675133,-0.017334,0.07373,-0.524658,1.307107,-8.646648,4.87599,2.162599,1.344368,2.453741,-0.324219,0.110107,-0.547119,0.917313,0.472264,-8.150278,-20.514054,0.075604,4.567885,-0.39917,0.254883,-0.41626,-3.199731,-3.330403,4.850495,-3.836322,-1.508228,-0.800176,-0.074707,0.334473,-0.478027,-2.499222,2.57899,11.552554,-1.358315,2.814767,-4.407741,0.525146,0.090088,-0.466064
3.974375,13.089567,9.024602,2.754363,-0.925411,1.01834,-0.039307,0.044434,-0.51001,1.436674,-8.234011,3.378458,4.828743,-0.140406,1.545347,-0.327637,0.062744,-0.556641,-5.439605,-10.713439,-16.771701,-26.963686,-0.751356,3.791812,-0.36084,0.481445,-0.118164,-2.940567,-4.650214,1.915783,-4.802358,-3.65344,-0.746692,-0.123291,0.402832,-0.406738,-4.525498,5.61636,10.270141,-4.350848,2.644582,-4.706351,0.540283,0.20874,-0.409424
1.853548,11.64864,9.376807,0.143513,-0.699158,-0.370839,-0.045654,0.03125,-0.495605,4.930152,1.980354,4.575953,7.95817,-0.125199,1.201773,-0.326416,-0.046143,-0.54126,-0.227387,-40.029784,-9.816564,-11.459558,-5.051433,1.93898,-0.341553,0.491211,0.06543,4.333486,-9.338912,-1.160161,-4.62705,-4.04888,-0.217132,-0.17627,0.44043,-0.326904,-6.183889,-1.780526,4.657639,-7.498804,1.510082,-3.837949,0.521484,0.326416,-0.332275
-2.476284,9.438063,8.457117,0.867237,-0.948961,-2.020348,-0.063721,0.012695,-0.48877,4.332959,7.33567,11.786384,3.010472,-0.231256,1.66843,-0.342773,-0.072021,-0.537842,9.205602,-25.855933,-5.22593,9.209344,-3.517217,-1.58717,-0.354492,0.481934,-0.035645,5.173776,-12.065354,-0.686506,-2.028096,-1.661627,0.246136,-0.183594,0.453857,-0.29541,-6.04033,-10.821426,0.744173,-4.66223,0.529959,-4.042569,0.490479,0.412109,-0.283936
