# sampling frequency: 40
# units are seconds/meters/radians/a.u.
seg1_acc_x,seg1_acc_y,seg1_acc_z,seg1_gyr_x,seg1_gyr_y,seg1_gyr_z,seg1_mag_x,seg1_mag_y,seg1_mag_z,seg2_acc_x,seg2_acc_y,seg2_acc_z,seg2_gyr_x,seg2_gyr_y,seg2_gyr_z,seg2_mag_x,seg2_mag_y,seg2_mag_z,seg3_acc_x,seg3_acc_y,seg3_acc_z,seg3_gyr_x,seg3_gyr_y,seg3_gyr_z,seg3_mag_x,seg3_mag_y,seg3_mag_z,seg4_acc_x,seg4_acc_y,seg4_acc_z,seg4_gyr_x,seg4_gyr_y,seg4_gyr_z,seg4_mag_x,seg4_mag_y,seg4_mag_z,seg5_acc_x,seg5_acc_y,seg5_acc_z,seg5_gyr_x,seg5_gyr_y,seg5_gyr_z,seg5_mag_x,seg5_mag_y,seg5_mag_z
0.181881,-0.905913,9.809431,0.002167,0.002706,-0.000979,-0.072998,0.445068,-0.59668,-0.235671,3.281328,9.221213,-0.006456,0.004327,0.007081,-0.698486,0.080078,-0.425537,-0.67092,4.31792,8.831775,-0.005058,0.003788,-0.000117,-0.256348,0.589355,0.773926,-0.183721,3.728548,9.132208,-0.003509,0.000654,0.011199,0.640625,-0.075684,-0.104492,-0.307034,3.218671,9.260339,0.005216,-0.001383,-0.00369,0.369873,-0.199707,-0.57959
0.152099,-0.908448,9.807064,0.001168,0.003316,0.0006,-0.068848,0.441162,-0.594482,-0.278058,3.297463,9.221149,-0.007497,0.012696,0.0094,-0.695068,0.075195,-0.418945,-0.693796,4.295094,8.833979,-0.004988,0.006812,0.003022,-0.259277,0.597168,0.773193,-0.16262,3.720718,9.096959,-0.007076,-0.003475,0.008639,0.638916,-0.066162,-0.108887,-0.310309,3.24872,9.255972,0.005747,-0.003962,-0.005299,0.374268,-0.206055,-0.575439
0.172746,-0.89352,9.769367,-0.000484,0.002349,-0.001035,-0.072266,0.450684,-0.592285,-0.259885,3.275696,9.232269,-0.013023,0.002528,0.005383,-0.699219,0.07666,-0.408936,-0.673367,4.303758,8.826881,0.000611,-0.001744,-0.000909,-0.259521,0.595947,0.774658,-0.170642,3.733893,9.129954,-0.000427,0.006674,0.010736,0.638672,-0.064941,-0.10791,-0.291384,3.235288,9.238139,-0.006194,0.002259,-0.001433,0.370605,-0.196045,-0.578369
0.171459,-0.910668,9.800065,0.001352,0.001823,-0.0017,-0.070557,0.449951,-0.593018,-0.233612,3.282591,9.22688,-0.005853,0.009695,0.006721,-0.69165,0.078857,-0.415527,-0.681681,4.311635,8.84302,-0.008884,0.009713,0.001697,-0.251709,0.589844,0.763672,-0.194243,3.731099,9.133674,-0.013703,0.000968,0.009871,0.646484,-0.075928,-0.117432,-0.318809,3.237385,9.255492,0.004462,-0.00386,-0.006318,0.371094,-0.196289,-0.576416
0.168432,-0.90149,9.817416,0.002037,0.003966,0.00049,-0.06665,0.441895,-0.60498,-0.275921,3.298234,9.226991,-0.012507,0.00615,0.008122,-0.693848,0.080566,-0.425293,-0.699793,4.290947,8.821965,-0.003206,-0.001033,0.001826,-0.258057,0.594727,0.775879,-0.167434,3.703981,9.108292,-0.002919,0.000196,0.008551,0.636719,-0.067627,-0.106934,-0.297175,3.239866,9.23304,-0.006868,-0.004712,0.000495,0.379639,-0.202393,-0.587402
0.16899,-0.905523,9.808808,0.000815,0.000882,0.000721,-0.07251,0.447021,-0.593506,-0.23544,3.278162,9.228408,-0.008285,0.00435,0.006552,-0.693604,0.079834,-0.406738,-0.667772,4.297981,8.833387,-0.002763,0.006132,-0.000351,-0.256104,0.59082,0.773926,-0.165599,3.738547,9.13481,0.001323,0.006118,0.01087,0.641846,-0.071045,-0.109619,-0.313208,3.225145,9.238029,0.004963,0.006782,-0.005627,0.370605,-0.19751,-0.577393
0.168614,-0.905373,9.808829,0.000407,0.002202,-0.000952,-0.070068,0.445312,-0.594238,-0.276251,3.286719,9.240393,-0.011225,0.011451,0.008947,-0.694336,0.068848,-0.414795,-0.701569,4.289332,8.822609,-0.006123,0.006186,0.001587,-0.253906,0.592041,0.763184,-0.18893,3.736488,9.10908,-0.012153,0.000996,0.009751,0.642578,-0.072998,-0.118408,-0.329643,3.263182,9.256893,0.00382,-0.007232,-0.003205,0.373291,-0.199463,-0.57959
0.157219,-0.901929,9.816682,-6.6e-05,0.002391,-0.000578,-0.067383,0.444824,-0.606689,-0.249235,3.272364,9.223075,-0.013572,0.001126,0.007815,-0.694824,0.07373,-0.414795,-0.671501,4.319861,8.832105,-0.0022,-0.00083,0.000731,-0.261719,0.589111,0.775391,-0.165282,3.717831,9.122973,-0.007248,-0.00157,0.010277,0.635498,-0.069824,-0.110107,-0.291655,3.227323,9.232217,-0.008899,-0.001985,-0.001984,0.376953,-0.198486,-0.587402
0.167466,-0.892222,9.791297,0.0012,0.003881,-0.000424,-0.075195,0.444092,-0.593506,-0.245752,3.291181,9.227654,-0.006178,0.012168,0.007366,-0.695557,0.077148,-0.414307,-0.678129,4.297679,8.829478,-0.010227,0.010169,0.001445,-0.255615,0.597168,0.772461,-0.170428,3.721468,9.117124,-0.006791,0.009764,0.009443,0.641113,-0.063721,-0.110596,-0.324748,3.242123,9.250334,0.007463,0.002692,-0.005385,0.368652,-0.199219,-0.574219
0.177086,-0.900135,9.796558,-0.00306,0.000963,-0.001731,-0.068604,0.449707,-0.593506,-0.282104,3.293405,9.219234,-0.01373,0.004812,0.009371,-0.698242,0.068848,-0.410645,-0.694415,4.302573,8.819321,0.001559,-0.001544,-0.000932,-0.265137,0.595947,0.775635,-0.171425,3.734635,9.114126,0.004239,-0.002223,0.010728,0.630859,-0.067383,-0.109375,-0.298099,3.231639,9.243727,-0.003904,-0.006863,-0.000925,0.373535,-0.195557,-0.580566
0.168188,-0.905384,9.787115,0.00395,0.002411,-0.000812,-0.078125,0.447998,-0.592041,-0.219222,3.288546,9.235011,-0.007595,0.00787,0.005414,-0.699951,0.071289,-0.416504,-0.682366,4.313398,8.843418,-0.004412,0.006159,8.3e-05,-0.252197,0.597656,0.778809,-0.161,3.736722,9.1244,-0.012795,0.00053,0.011881,0.642822,-0.064941,-0.104248,-0.310835,3.242379,9.232937,0.008725,0.004098,-0.004384,0.368408,-0.194824,-0.574951
0.157189,-0.910356,9.799452,-0.001484,0.002959,0.000543,-0.065674,0.451416,-0.588379,-0.27414,3.296414,9.216102,-0.01316,0.0111,0.009405,-0.696289,0.072998,-0.41748,-0.692162,4.302541,8.833074,-0.00648,0.005746,0.003342,-0.256348,0.595459,0.771973,-0.177214,3.701314,9.111892,-0.009994,0.007861,0.008655,0.639404,-0.065918,-0.106689,-0.315022,3.259473,9.290523,-0.010379,-0.005116,-0.002144,0.377686,-0.192383,-0.571289
0.175983,-0.908527,9.801074,0.000375,0.001636,7.2e-05,-0.071777,0.450195,-0.594238,-0.233401,3.282972,9.229592,-0.008487,0.00092,0.005839,-0.688477,0.070068,-0.418701,-0.669711,4.292702,8.849374,-0.003398,0.001149,-9.3e-05,-0.260498,0.600098,0.768799,-0.176503,3.748664,9.135597,0.003083,-0.000417,0.01123,0.637695,-0.063477,-0.115234,-0.300696,3.208136,9.225767,0.001031,-0.000345,-0.002661,0.372559,-0.196533,-0.578613
0.173785,-0.895161,9.8053,0.002167,0.002704,-0.000978,-0.076416,0.452881,-0.600342,-0.257126,3.293163,9.240121,-0.007902,0.012102,0.008352,-0.691406,0.079102,-0.412109,-0.697645,4.298803,8.820904,-0.007829,0.008812,0.002631,-0.262207,0.590332,0.777832,-0.174281,3.73486,9.109725,-0.010096,2.6e-05,0.007863,0.635986,-0.07251,-0.102295,-0.309758,3.247742,9.27287,0.008429,0.001791,-0.004765,0.369385,-0.193848,-0.582275
0.161951,-0.882819,9.808707,1.1e-05,0.001362,-0.001217,-0.073242,0.445312,-0.590576,-0.269195,3.269211,9.221729,-0.015512,0.000777,0.008262,-0.700928,0.081543,-0.417236,-0.697521,4.304999,8.805646,0.002449,-0.001348,0.000116,-0.260742,0.599854,0.770264,-0.176008,3.729005,9.123324,-0.003987,0.00426,0.011451,0.635498,-0.061035,-0.113525,-0.297953,3.230709,9.260595,-0.010302,-0.004534,-0.000923,0.366211,-0.200439,-0.573242
0.164358,-0.913434,9.813427,-0.001804,0.00109,-0.00036,-0.073242,0.454834,-0.598633,-0.236592,3.28996,9.232157,-0.004699,0.009255,0.008566,-0.688721,0.083008,-0.412842,-0.672905,4.326572,8.853931,-0.008812,0.007101,0.001083,-0.256592,0.594482,0.768555,-0.171839,3.735763,9.127312,-0.009112,0.003107,0.008889,0.63916,-0.069336,-0.11377,-0.312801,3.22438,9.254848,0.00712,0.0034,-0.005801,0.369873,-0.19043,-0.581543
0.173623,-0.912678,9.814227,-6.6e-05,0.002391,-0.000578,-0.070068,0.445557,-0.598877,-0.282393,3.298369,9.252381,-0.01232,0.007338,0.009024,-0.691406,0.078613,-0.419922,-0.699672,4.295956,8.822131,-0.005807,0.001399,0.001819,-0.260498,0.598633,0.774414,-0.172194,3.717006,9.114648,-0.003759,0.000306,0.010425,0.635742,-0.06543,-0.107422,-0.309868,3.248284,9.25614,-0.005187,-0.006763,-0.001942,0.374023,-0.198242,-0.581299
0.171533,-0.886674,9.800853,-6.6e-05,0.00239,-0.000578,-0.075439,0.449463,-0.595947,-0.238862,3.278782,9.221649,-0.009701,0.00318,0.004772,-0.696777,0.076904,-0.417725,-0.667711,4.302489,8.833831,-0.004558,0.004637,0.000654,-0.255859,0.595215,0.773193,-0.178042,3.734649,9.134631,-0.001959,0.003667,0.010957,0.637939,-0.068604,-0.108887,-0.299717,3.215025,9.248625,0.002473,0.002493,-0.00311,0.36792,-0.193848,-0.576416
0.154361,-0.905932,9.78641,0.001222,0.003083,-0.00023,-0.070801,0.447266,-0.594727,-0.263725,3.302662,9.232424,-0.007545,0.011367,0.009999,-0.694336,0.077393,-0.418213,-0.698303,4.282559,8.830695,-0.005926,0.006601,0.003044,-0.261719,0.592041,0.783203,-0.186662,3.730503,9.096102,-0.012065,0.00156,0.008856,0.633057,-0.068359,-0.098145,-0.337234,3.250826,9.273341,0.002787,-0.001809,-0.003878,0.375488,-0.19751,-0.575928
0.190761,-0.889059,9.793862,-0.002212,0.002409,-0.002034,-0.075684,0.446045,-0.585693,-0.257491,3.27368,9.224268,-0.009639,0.000876,0.006487,-0.689941,0.07373,-0.418701,-0.681584,4.295503,8.831583,0.000609,-0.001742,-0.000909,-0.260498,0.594971,0.776611,-0.166372,3.72153,9.119579,-0.001591,-0.0018,0.009674,0.635742,-0.069092,-0.104004,-0.303453,3.244784,9.227807,-0.007931,-0.002891,-0.001362,0.369873,-0.202148,-0.566162
0.161561,-0.913645,9.813454,0.002189,0.001907,-0.000785,-0.073975,0.447266,-0.589355,-0.237162,3.293809,9.227593,-0.009142,0.01214,0.007496,-0.698242,0.073975,-0.418945,-0.685314,4.305543,8.82447,-0.010763,0.009299,0.00174,-0.262207,0.587891,0.769775,-0.16174,3.728739,9.123394,-0.007473,0.005384,0.011173,0.635742,-0.077148,-0.111328,-0.316988,3.244562,9.261741,0.009052,0.001598,-0.004561,0.370605,-0.198975,-0.57251
0.16972,-0.895053,9.805381,-6.6e-05,0.00239,-0.000578,-0.074707,0.441162,-0.597168,-0.283849,3.288253,9.223883,-0.011948,0.003931,0.007981,-0.701904,0.07251,-0.411133,-0.691141,4.295729,8.827474,-0.003852,0.001802,0.000702,-0.263672,0.590088,0.774658,-0.183066,3.730779,9.113967,-0.002885,0.001522,0.010433,0.633545,-0.071533,-0.108398,-0.296957,3.239788,9.233074,-0.008977,-0.004345,0.000707,0.36792,-0.202637,-0.578369
0.160659,-0.900323,9.795933,0.000826,0.002243,-0.000495,-0.075195,0.444336,-0.594727,-0.227073,3.29014,9.23621,-0.00579,0.005612,0.006146,-0.686035,0.077881,-0.414062,-0.668034,4.292746,8.828252,-0.004954,0.005294,0.000379,-0.257568,0.584961,0.771973,-0.17294,3.732525,9.124368,-0.00826,-0.001258,0.010504,0.638672,-0.080322,-0.111572,-0.318874,3.229982,9.232845,0.005654,0.00207,-0.00537,0.369141,-0.198486,-0.577881
0.169113,-0.903534,9.809879,-6.5e-05,0.00239,-0.000578,-0.070557,0.437012,-0.596924,-0.251458,3.293501,9.234721,-0.011484,0.009844,0.00901,-0.689697,0.075439,-0.414062,-0.692933,4.293757,8.828293,-0.004309,0.005061,0.001041,-0.260742,0.5979,0.770508,-0.171028,3.717845,9.098844,-0.006769,0.003804,0.009658,0.639648,-0.064941,-0.108398,-0.317995,3.237013,9.25565,-0.001618,-0.002499,-0.002009,0.373291,-0.207275,-0.581543
0.16063,-0.904516,9.787322,0.000804,0.00304,-0.000687,-0.073975,0.447998,-0.594482,-0.246336,3.277814,9.226945,-0.009811,0.002802,0.005752,-0.689697,0.076904,-0.409424,-0.679997,4.305098,8.816125,-0.002503,-0.001264,0.001412,-0.264648,0.595215,0.770752,-0.181181,3.726958,9.115568,-0.00184,0.002544,0.01208,0.634277,-0.070068,-0.113281,-0.291372,3.225798,9.249296,-0.001438,-0.001066,-0.003458,0.373291,-0.197266,-0.576904
0.168916,-0.907463,9.801297,0.002113,0.002936,-0.000146,-0.077637,0.447754,-0.598389,-0.244357,3.30396,9.219701,-0.007055,0.011463,0.008159,-0.694092,0.075684,-0.409912,-0.676771,4.304996,8.829988,-0.011705,0.009093,0.001761,-0.261719,0.5979,0.773438,-0.161901,3.73195,9.106607,-0.010399,0.000467,0.009862,0.635742,-0.066406,-0.110107,-0.31829,3.237846,9.238811,0.003642,0.001518,-0.003922,0.366455,-0.196533,-0.580811
0.16801,-0.898785,9.796842,-0.002113,0.000584,-0.00248,-0.073975,0.449951,-0.594971,-0.272546,3.292599,9.226505,-0.014274,0.002098,0.006989,-0.696289,0.072021,-0.419434,-0.694616,4.290336,8.829824,0.000985,-0.000898,0.002007,-0.252441,0.593994,0.77124,-0.165432,3.721915,9.133086,-0.002431,0.001296,0.011439,0.645264,-0.068115,-0.110352,-0.296715,3.23764,9.266908,-0.004166,-0.005576,-0.000119,0.369385,-0.194824,-0.578125
0.179018,-0.911171,9.793453,-0.000538,0.002579,-0.000205,-0.066895,0.445801,-0.5979,-0.237845,3.292609,9.248551,-0.004359,0.00989,0.008106,-0.697754,0.077393,-0.415283,-0.669501,4.307396,8.820412,-0.003909,0.007005,0.000858,-0.264404,0.592285,0.770508,-0.167093,3.748002,9.127273,-0.004683,0.004142,0.009673,0.633301,-0.070068,-0.112061,-0.305125,3.228477,9.232597,0.00358,0.002733,-0.00455,0.378418,-0.19751,-0.579346
0.166341,-0.902983,9.809977,0.003895,0.002642,2.1e-05,-0.078125,0.446289,-0.598633,-0.279229,3.294787,9.248305,-0.01298,0.007391,0.007827,-0.686523,0.071289,-0.415039,-0.707603,4.296225,8.832992,-0.006563,0.004221,0.002839,-0.259521,0.593994,0.772461,-0.169451,3.725486,9.09819,-0.007386,-3.8e-05,0.010509,0.638672,-0.067627,-0.109131,-0.323383,3.249896,9.256358,0.001157,-0.002774,-0.001404,0.365479,-0.201416,-0.581543
0.1887,-0.913742,9.785725,-0.000516,0.001782,-1.2e-05,-0.070801,0.449707,-0.595703,-0.241439,3.288365,9.226276,-0.009886,0.001504,0.006341,-0.690186,0.075684,-0.40918,-0.650547,4.30741,8.829728,-0.004586,-0.002086,-4e-06,-0.256836,0.595703,0.775879,-0.161277,3.722816,9.121571,-0.004432,-0.00148,0.01065,0.639404,-0.066162,-0.108154,-0.283753,3.229444,9.243738,-0.004634,-0.002441,-0.00179,0.372314,-0.198975,-0.576172
0.25298,-0.990203,10.404776,-0.022292,-0.009355,-0.000298,-0.070557,0.452637,-0.592529,-0.247998,3.291626,9.303402,-0.006261,0.008624,0.00817,-0.69751,0.073486,-0.418701,-0.554851,4.315165,8.809375,-0.014722,-0.017987,0.004935,-0.256104,0.59668,0.774902,-0.038636,3.726565,9.10705,-0.010117,-0.026836,0.00883,0.63623,-0.068359,-0.110352,-0.30271,3.244057,9.244623,0.007573,-0.001529,-0.004722,0.372559,-0.193604,-0.574219
0.78824,-1.082778,10.025008,0.068682,0.161279,0.024584,-0.067139,0.445068,-0.5979,-0.04752,3.188756,9.328807,-0.042679,0.004554,0.007875,-0.698975,0.075439,-0.415527,-0.803391,4.236441,8.869429,-0.016967,0.064937,-0.003204,-0.262207,0.591553,0.766602,-0.214911,3.677515,9.144789,-0.009326,0.0876,0.009203,0.635498,-0.070312,-0.11792,-0.165845,3.27035,9.159857,0.003682,-0.028779,-0.005804,0.372803,-0.195068,-0.576904
-0.817032,-0.122016,9.065458,-0.040536,0.140704,-0.034901,-0.070312,0.444824,-0.606201,-0.497679,3.165629,9.072541,0.06454,0.078061,0.02878,-0.694824,0.076904,-0.422607,-0.901668,4.255396,8.813988,0.044671,-0.025945,0.00015,-0.258545,0.590576,0.777588,-0.541607,3.726655,9.075915,0.031775,0.012522,0.014938,0.638672,-0.076172,-0.104004,-0.377445,3.163164,9.275561,-0.042162,0.081363,-0.004033,0.370117,-0.201172,-0.585938
0.007686,-1.005913,8.961478,-0.230912,-0.127333,-0.041516,-0.068604,0.445068,-0.591064,-0.40778,3.597882,9.020738,0.081554,-0.050779,-0.008793,-0.695068,0.067139,-0.413574,-0.465696,4.470458,8.863961,0.017323,-0.036961,-0.000455,-0.257568,0.595947,0.776123,-0.075685,3.890255,9.130052,0.003961,-0.138045,0.008504,0.636963,-0.06958,-0.108398,-0.650585,3.210799,9.402704,0.072551,-0.008623,-0.00899,0.371826,-0.20166,-0.573975
0.285968,-1.381231,10.416973,-0.063496,-0.114812,0.033904,-0.072998,0.453125,-0.593262,-0.103639,3.575804,9.496977,-0.138138,-0.012614,0.012947,-0.692627,0.071533,-0.414307,-0.548028,4.341741,8.847415,-0.088787,0.042746,0.005939,-0.259521,0.594727,0.776367,0.280853,3.702367,9.147142,-0.093727,0.029788,0.005122,0.636719,-0.06665,-0.106201,-0.168264,3.441543,9.221947,0.022658,-0.114465,-0.001105,0.369629,-0.198975,-0.578369
0.828866,-1.597875,10.284487,0.115638,0.062665,0.00977,-0.07251,0.45166,-0.594238,-0.091157,2.932052,9.2391,-0.149567,0.004347,-0.014729,-0.688232,0.081299,-0.407227,-0.859357,4.071431,8.849493,-0.058103,0.015656,0.010475,-0.266846,0.596924,0.781494,-0.412438,3.460385,9.080999,-0.023582,0.174646,0.01506,0.629883,-0.064697,-0.097656,0.056939,3.225644,9.037524,-0.126211,0.041832,0.016319,0.371826,-0.195557,-0.576172
-0.593246,-0.385471,9.07722,0.248575,0.108045,0.01971,-0.077881,0.450195,-0.589844,-0.364436,2.846177,9.074132,0.132744,0.057277,0.034469,-0.693848,0.075684,-0.413818,-0.799629,4.204249,8.757032,0.120143,-0.011121,-0.011275,-0.25293,0.593506,0.773193,-0.674697,3.817471,9.09328,0.164782,-0.088916,0.015569,0.644775,-0.071533,-0.109375,-0.551466,2.826423,9.301585,-0.015107,0.114128,-0.013035,0.364502,-0.192139,-0.56958
-0.131435,-0.634581,9.045437,-0.095269,-0.177074,-0.046322,-0.064941,0.445801,-0.597168,-0.533464,3.743809,9.242899,0.157332,-0.022088,-0.006373,-0.700684,0.074219,-0.41748,-0.544418,4.571349,8.894282,0.069459,-0.000343,-0.010885,-0.258057,0.597656,0.772217,0.218157,4.089543,9.222828,-0.03282,-0.163329,0.00511,0.634766,-0.068604,-0.108398,-0.685461,3.394783,9.467185,0.224973,-0.075774,-0.025118,0.378418,-0.199463,-0.577393
0.584851,-1.269758,10.976809,0.022987,-0.144926,0.029859,-0.075928,0.44873,-0.593262,0.007324,3.795939,9.305855,-0.190919,-0.042394,0.007438,-0.686768,0.081055,-0.406738,-0.506727,4.45749,8.841261,-0.138534,-0.010856,0.020269,-0.25415,0.595703,0.777344,0.310384,3.589579,9.032189,-0.205771,0.121095,0.005206,0.63916,-0.065918,-0.105713,0.024834,3.745524,9.214876,-0.081307,-0.106643,0.018182,0.369385,-0.197998,-0.575439
0.978806,-1.103927,10.827511,0.152541,0.122427,0.058284,-0.071533,0.446533,-0.590576,-0.021128,2.794099,9.380369,-0.178582,0.021576,-0.009112,-0.702393,0.070557,-0.420898,-0.81631,4.008576,8.83162,-0.122032,0.041869,0.007999,-0.264404,0.590088,0.777344,-0.596449,3.316866,9.108217,0.036794,0.148732,0.018477,0.634277,-0.070068,-0.104736,0.033817,2.912257,8.904914,-0.223777,0.084438,0.02135,0.37085,-0.191895,-0.571777
-0.311355,-0.171441,9.357069,0.065687,0.225307,-0.021286,-0.074463,0.442871,-0.597412,-0.393788,2.683526,9.19149,0.116391,0.059812,0.024206,-0.693115,0.081055,-0.410645,-0.840629,4.063762,8.766397,0.140143,-0.023132,-0.005468,-0.254395,0.592773,0.770264,-0.53041,3.861664,9.125704,0.221826,-0.13933,0.008028,0.641357,-0.06958,-0.112549,-0.630974,2.790511,9.35309,0.123587,0.077884,-0.034572,0.36792,-0.198486,-0.572266
-0.347981,-0.482491,8.935318,-0.29221,-0.010117,-0.073538,-0.066895,0.447266,-0.597656,-0.445529,3.587251,9.055713,0.222149,0.005908,0.023073,-0.691895,0.07251,-0.417969,-0.503075,4.599259,8.886907,0.144188,0.00379,-0.022609,-0.258301,0.594238,0.770996,0.246997,4.207796,9.219958,-0.045036,-0.078039,0.011492,0.636475,-0.073242,-0.111572,-0.535115,3.597285,9.43432,0.218621,-0.073652,-0.021184,0.375732,-0.201416,-0.580078
0.137295,-1.26423,9.738217,-0.204922,-0.076758,-0.024991,-0.071289,0.448975,-0.59668,-0.205082,4.054833,9.240411,-0.056773,-0.015242,0.004232,-0.688232,0.071045,-0.412842,-0.743988,4.572353,8.922288,-0.131978,0.042648,0.011973,-0.258545,0.592285,0.776367,-0.099083,3.576064,9.089369,-0.258949,0.143269,0.004288,0.640137,-0.071289,-0.103271,-0.095014,3.709926,9.263967,-0.140027,-0.041101,0.017735,0.369141,-0.20166,-0.577637
0.437575,-1.563564,10.162152,-0.02446,-0.050028,0.05181,-0.070557,0.452393,-0.587891,-0.225343,3.204624,9.273364,-0.275434,-0.006851,-0.01394,-0.697021,0.081055,-0.418701,-0.735207,4.090969,8.789837,-0.159361,-0.063859,0.029342,-0.262939,0.593262,0.778564,-0.482851,3.251206,9.036124,0.060536,-0.006905,0.011511,0.631836,-0.06665,-0.104492,-0.235729,2.792515,9.076754,-0.216547,0.054283,0.026527,0.374268,-0.196777,-0.574219
0.222714,-1.210295,10.046153,0.183958,0.073713,0.020847,-0.075928,0.45166,-0.592041,-0.194276,2.498818,9.305653,-0.03321,0.002774,0.010215,-0.697754,0.078857,-0.418945,-0.531934,3.999142,8.788819,0.057715,0.018212,-0.009928,-0.264648,0.593994,0.768799,-0.025235,3.90518,9.152976,0.228084,-0.096709,0.013882,0.631836,-0.071045,-0.115723,-0.438937,2.867643,9.247451,0.194691,-0.001561,-0.036564,0.365967,-0.196045,-0.573975
0.117219,-0.760785,9.678332,0.145429,0.077333,-0.029813,-0.075928,0.446289,-0.602783,-0.276246,3.229283,9.204221,0.268602,0.043263,0.019883,-0.685791,0.074707,-0.415283,-0.788162,4.338473,8.860012,0.157931,0.055259,-0.021965,-0.257324,0.592773,0.766113,-0.056497,4.158879,9.204798,-0.091989,0.078167,0.009813,0.64209,-0.072266,-0.114258,-0.221965,3.716989,9.301793,0.136616,-0.040534,-0.020306,0.36499,-0.204346,-0.581299
-0.187902,-0.477453,8.823142,0.081309,0.027838,-0.00157,-0.066162,0.443604,-0.602295,-0.333926,3.986586,9.201929,0.028565,0.002051,0.016935,-0.693848,0.07666,-0.415039,-0.721342,4.632628,8.900763,0.016931,-0.032164,0.00041,-0.249756,0.595215,0.768799,-0.413607,3.549733,9.090978,-0.178642,0.024765,0.005586,0.645752,-0.073242,-0.113037,-0.278499,3.407029,9.299346,-0.199703,0.043701,0.024682,0.374268,-0.199219,-0.584229
0.425411,-1.045281,11.041684,-0.235945,-0.116006,0.044187,-0.060791,0.445068,-0.600098,-0.323558,3.433446,9.205865,-0.209432,-0.021084,-0.00082,-0.685059,0.074463,-0.415527,-0.567091,4.392136,8.875251,-0.171497,0.002205,0.022887,-0.259033,0.594482,0.782959,-0.05251,3.411383,9.054553,0.072317,-0.082849,0.006644,0.636719,-0.067871,-0.099854,-0.5001,2.831898,9.227273,-0.030457,-0.008652,4.6e-05,0.380859,-0.200684,-0.581543
0.087054,-1.32229,10.230307,0.092118,0.205954,0.123639,-0.067627,0.446533,-0.586426,-0.068784,2.938088,9.022359,-0.072489,0.014741,-0.038732,-0.696289,0.073242,-0.413574,-0.783473,3.959202,8.81462,-0.084109,0.002595,0.009548,-0.261719,0.588135,0.771484,-0.054527,3.850837,9.083379,0.104294,0.070881,0.019969,0.633057,-0.073242,-0.113037,-0.124234,3.277867,9.17235,0.137275,-0.050069,-0.020743,0.37085,-0.201172,-0.567383
0.153231,-0.845514,9.380882,-0.323297,0.027317,0.187949,-0.068848,0.448975,-0.597656,-0.3785,3.003105,9.60469,0.097123,-0.002337,0.041291,-0.692383,0.075684,-0.408691,-0.620216,4.174583,8.726447,0.15998,-0.00366,-0.013253,-0.256836,0.590088,0.778809,-0.405075,3.994787,9.221984,-0.037328,0.021098,0.009186,0.640381,-0.073242,-0.105469,-0.267107,3.389519,9.237652,-0.04459,0.066188,-0.002058,0.366211,-0.202148,-0.57959
0.017554,-1.072513,9.949505,-0.287185,0.075681,0.087475,-0.061035,0.454834,-0.587402,-0.164356,3.411266,9.320141,0.016606,0.009256,-0.012272,-0.691406,0.072998,-0.410645,-0.60611,4.595349,8.830902,0.098259,0.037356,-0.018696,-0.261719,0.593262,0.764893,-0.071431,3.623733,9.070192,-0.111189,-0.102045,-0.001081,0.635986,-0.072266,-0.119629,-0.543759,3.18494,9.418072,-0.035042,-0.010766,0.007855,0.374023,-0.202637,-0.571533
-0.130934,-0.290448,9.072946,-0.090972,0.099537,0.048262,-0.064453,0.457764,-0.601318,-0.170752,3.321187,8.865501,0.015603,0.034952,0.052763,-0.6875,0.075439,-0.421387,-0.891894,4.460317,9.001591,-0.152755,0.030725,0.019447,-0.253418,0.592285,0.777832,-0.032625,3.507214,9.13527,0.003666,0.118382,0.014829,0.642822,-0.071289,-0.103271,-0.121313,3.197905,9.070407,0.049063,-0.071597,-0.013272,0.366699,-0.201172,-0.589111
-0.552981,-1.208109,8.676817,-0.311157,-0.131325,-0.01643,-0.056396,0.464111,-0.586182,-0.593548,3.660656,9.292765,0.066373,0.025541,-0.032778,-0.694336,0.061768,-0.416748,-0.760265,4.029169,8.644795,-0.083341,-0.079395,0.02196,-0.260498,0.588867,0.772705,-0.620201,3.780099,9.065972,0.12067,0.020368,0.019702,0.635742,-0.072021,-0.11084,-0.295117,3.321153,9.321415,-0.040167,0.104666,0.000956,0.378662,-0.200684,-0.575195
0.216729,-2.021371,9.727817,0.055004,-0.275138,0.079083,-0.072021,0.463379,-0.590332,-0.138886,3.352579,9.303013,-0.230498,-0.079204,-0.007496,-0.694092,0.080811,-0.415527,-0.386706,4.284365,8.848989,0.122687,0.012195,-0.021492,-0.264404,0.587646,0.775391,0.008836,4.108736,9.195322,0.012575,-0.196141,0.002642,0.631348,-0.072754,-0.108643,-0.674998,3.057687,9.344292,0.003849,-0.02428,0.0017,0.368408,-0.200928,-0.576904
0.654316,-2.128042,10.584082,0.441743,-0.029639,-0.073516,-0.073242,0.452393,-0.5896,-0.095367,2.746872,9.311658,-0.059755,0.043902,0.029511,-0.691162,0.076904,-0.420654,-0.706023,4.410205,8.958684,-0.039875,0.075241,-0.004747,-0.256836,0.59668,0.773682,0.365143,3.539277,9.100047,-0.273153,0.10426,0.002974,0.641846,-0.064941,-0.108887,-0.093951,3.521006,9.191201,0.123312,-0.122246,-0.013332,0.36499,-0.202148,-0.576172
0.379495,-0.964107,10.217308,0.774579,0.064506,0.096275,-0.062012,0.448975,-0.597412,-0.217612,3.007576,9.309657,0.165503,0.000944,0.013839,-0.694336,0.074463,-0.416504,-0.889707,4.234044,8.763821,-0.007198,-0.027105,0.018985,-0.259277,0.595947,0.766602,-0.657225,3.267459,8.960445,0.129304,0.193868,0.016366,0.635986,-0.067871,-0.111328,0.130449,3.236174,9.138768,-0.238417,0.068495,0.026867,0.375,-0.192383,-0.576904
-0.631568,0.523927,8.69721,0.409314,0.056847,0.014546,-0.069092,0.438721,-0.604492,-0.410475,3.883144,8.917891,0.133188,0.082188,0.013176,-0.700684,0.073975,-0.417725,-0.554462,4.360591,8.754562,0.047116,-0.048139,-0.015329,-0.259521,0.594482,0.778809,-0.522046,4.155547,9.286042,0.252687,-0.254258,0.025722,0.635986,-0.07373,-0.101807,-0.79844,2.665012,9.209604,0.078381,0.142341,-0.024407,0.371094,-0.193359,-0.58374
1.086918,0.431479,12.315649,-0.106093,-0.211338,0.007115,-0.071777,0.437012,-0.588379,-0.403776,3.638674,9.52541,-0.216589,-0.12692,-0.000304,-0.687012,0.079346,-0.413086,-0.460558,4.401936,8.897139,-0.0641,0.041928,0.015084,-0.259277,0.598389,0.775391,0.713191,4.105069,9.178828,-0.260002,-0.058185,-0.019606,0.637939,-0.063477,-0.107422,-0.52384,3.761426,9.59397,0.272551,-0.21754,-0.027502,0.367188,-0.202637,-0.56958
0.096476,1.230774,10.309664,-0.750222,0.471639,-0.031032,-0.063232,0.455322,-0.592773,0.364774,2.747735,9.215911,-0.141137,0.090181,-0.009952,-0.689697,0.075684,-0.416748,-0.882837,4.186157,8.901291,-0.059287,0.041306,-0.004786,-0.246582,0.601318,0.777588,-0.287685,3.187958,8.979371,-0.187357,0.352197,0.025055,0.648682,-0.061523,-0.105469,0.502045,3.568585,8.822739,-0.283576,0.002325,0.030379,0.368164,-0.193359,-0.574707
-0.467513,0.463939,8.582686,-1.356717,-0.002274,-0.292647,-0.05127,0.485107,-0.585205,-0.864361,2.846381,9.19432,0.172185,0.049605,0.042327,-0.701172,0.081787,-0.41626,-0.973938,4.093645,8.80013,0.05066,-0.028234,0.01216,-0.254395,0.597168,0.767578,-1.289559,3.419064,9.174108,0.274607,-0.081175,0.013808,0.641113,-0.066895,-0.11499,-0.669169,2.535623,9.215814,-0.14064,0.24578,-0.003652,0.384277,-0.187988,-0.574463
-0.32003,0.917211,10.207841,-1.522178,0.178375,-0.543681,-0.059082,0.505615,-0.585938,-0.271744,3.782007,9.094084,0.149878,-0.042819,-0.001673,-0.692871,0.076904,-0.417969,-0.139936,4.527158,8.688255,0.120569,-0.117103,-0.011069,-0.259033,0.593262,0.766357,0.637161,4.408723,9.01487,0.188628,-0.457251,0.001748,0.633057,-0.072021,-0.12085,-1.03055,3.038751,9.697441,0.321319,-0.135072,-0.030666,0.378174,-0.197754,-0.583496
1.514908,-3.369416,10.339218,-3.367066,0.087763,-0.278188,-0.065918,0.558838,-0.560059,0.091641,3.805069,9.198485,-0.003128,-0.04243,0.020422,-0.70166,0.074951,-0.420898,-0.693701,4.556362,9.127772,-0.184303,0.254668,-0.013626,-0.266846,0.598633,0.777588,0.659197,4.023092,9.382874,-0.42616,0.441838,0.01595,0.631348,-0.060303,-0.104492,0.487633,4.14359,8.880737,0.1601,-0.225907,-0.020011,0.366699,-0.203369,-0.584961
-1.152872,-6.763803,7.327568,-1.277378,0.298343,0.03338,-0.065674,0.59082,-0.544189,-0.448648,3.402778,9.360298,-0.336406,0.094131,-0.062211,-0.697998,0.06665,-0.417969,-1.403734,3.805786,8.622446,-0.064036,-0.117181,0.04745,-0.254883,0.591553,0.77417,-1.648679,2.675272,8.819471,-0.090233,0.243332,0.00108,0.640381,-0.068604,-0.105957,-0.02049,3.318361,9.284375,-0.536342,0.304344,0.056945,0.367676,-0.190186,-0.575439
0.378633,-5.549481,9.193724,-0.268003,-0.00715,0.114219,-0.054443,0.590332,-0.545166,-0.434932,2.164069,9.078189,-0.102113,-0.055984,0.036573,-0.689209,0.07959,-0.414795,-0.059402,4.397378,8.749601,0.226452,-0.138091,-0.032723,-0.255859,0.598145,0.762939,-0.243836,3.940571,9.174971,0.556583,-0.61297,0.027591,0.636963,-0.068848,-0.119385,-1.250337,1.769526,9.239252,0.024092,0.064321,0.000162,0.377441,-0.195557,-0.576904
0.230041,-3.767006,10.810517,1.290342,0.349497,-0.065624,-0.054932,0.568359,-0.564941,-0.090784,3.320493,9.265893,0.447851,0.002718,0.021276,-0.690918,0.069824,-0.407715,-0.563652,4.570796,8.999749,-0.085264,0.233727,-0.008877,-0.258057,0.594482,0.77124,1.401905,4.653015,9.324446,-0.235918,0.105216,-0.002336,0.638184,-0.066406,-0.113525,-0.330515,4.144999,9.34664,0.768558,-0.336878,-0.108933,0.367432,-0.20459,-0.584473
-0.131659,-0.514959,8.935586,0.499917,0.306164,0.28951,-0.046387,0.560059,-0.567871,-0.200167,4.744424,9.319334,0.028892,-0.006718,-0.068556,-0.701172,0.07251,-0.411377,-1.157278,4.135019,8.706144,-0.057452,-0.088252,0.029529,-0.260986,0.595947,0.766602,-0.895351,3.142214,8.860509,-0.371275,0.527004,0.01456,0.635254,-0.06543,-0.114014,0.836024,4.31378,9.215116,-0.623824,0.059437,0.104195,0.370361,-0.195801,-0.578857
-1.060861,-0.10254,8.305204,-0.248233,0.17658,0.053394,-0.046387,0.562012,-0.570801,-0.181943,2.877173,9.233428,-0.586911,0.022647,0.045456,-0.691895,0.082275,-0.422119,-0.48119,4.30887,8.807932,0.022861,-0.038725,-0.021941,-0.258057,0.590332,0.775635,-1.339356,3.241608,9.222852,0.284695,-0.357152,0.016483,0.638428,-0.075439,-0.10791,-0.954756,1.699431,8.941098,-0.311855,0.349234,0.007674,0.370361,-0.191895,-0.587891
-0.099821,-0.060753,10.328344,-1.392397,-0.19377,-0.169051,-0.047607,0.586426,-0.546143,-0.672467,1.986533,9.17589,0.144042,-0.036155,-0.03241,-0.694824,0.071533,-0.410889,-0.558962,4.31148,8.866325,-0.021749,0.045649,0.020449,-0.259277,0.584229,0.776123,1.212123,4.267352,9.077007,0.207668,-0.318884,-0.012041,0.636475,-0.079346,-0.109863,-1.127874,3.145316,9.779677,0.684632,-0.305202,-0.080897,0.37207,-0.203857,-0.575439
0.118623,-2.821307,9.606469,-2.493312,0.271309,-0.049075,-0.043945,0.624268,-0.523682,0.369174,3.838945,9.322318,0.431218,-0.009009,0.029142,-0.693604,0.069336,-0.420654,-0.663082,4.276869,8.921668,-0.003947,-0.004981,-0.016014,-0.254395,0.594238,0.772461,0.147141,4.039872,9.171893,-0.286045,0.528238,0.038825,0.641602,-0.068359,-0.107178,0.965242,4.548868,8.920646,-0.028538,-0.141199,0.014939,0.366699,-0.210205,-0.574463
-1.03817,-11.427935,4.635318,0.018658,-0.225135,-0.290986,-0.048096,0.62793,-0.526611,-0.52948,4.26819,9.181802,-0.138676,0.088525,-0.016176,-0.691406,0.073486,-0.415527,-0.864467,4.285474,8.715503,0.006716,0.09286,0.009036,-0.258057,0.60791,0.772949,-1.622417,3.20813,9.108211,-0.124477,0.043281,-0.010724,0.637695,-0.055664,-0.105957,-0.474935,2.845364,9.135474,-0.583124,0.388255,0.052467,0.376953,-0.195312,-0.577148
-0.002445,-0.221158,10.413853,1.521013,-0.059252,0.437105,-0.044922,0.619873,-0.539795,-0.46961,2.682498,9.594596,-0.465613,-0.044993,0.029948,-0.697266,0.072021,-0.415039,-0.793302,4.372146,8.822313,0.032091,-0.115121,-0.013193,-0.25708,0.587646,0.775146,0.22517,3.63627,9.132096,0.282051,-0.520266,0.011878,0.63916,-0.077881,-0.113525,-1.252698,2.146757,9.486393,0.263141,-0.10812,-0.034158,0.374268,-0.183105,-0.578857
-0.326579,-1.0338,10.016026,-0.732266,-0.372528,-0.325871,-0.053711,0.608887,-0.528809,-0.017483,2.138389,8.843632,0.151714,0.008552,0.015405,-0.69751,0.072754,-0.413086,-0.278745,4.370386,9.003523,-0.070634,0.002181,0.030254,-0.258789,0.595459,0.773438,0.868654,4.191408,9.161627,-0.010049,0.242138,0.015345,0.635498,-0.064941,-0.112061,0.180619,4.169439,9.222555,0.463789,-0.253701,-0.054012,0.37085,-0.208984,-0.57666
0.244131,-5.540591,9.574213,-0.185727,-0.03691,0.063625,-0.057373,0.625,-0.530029,-0.358366,4.208319,9.00317,0.648502,0.038245,0.031786,-0.693359,0.074219,-0.419189,-0.889406,4.113671,8.746701,-0.032065,0.095694,-0.015747,-0.266846,0.602295,0.772461,-1.039489,3.691323,9.011546,-0.23056,0.289483,0.016043,0.631348,-0.060303,-0.106689,0.188089,3.801912,9.09759,-0.504577,0.177157,0.070762,0.370605,-0.192383,-0.578125
0.462092,-2.208152,10.59742,0.65654,-0.03485,0.02462,-0.060059,0.618408,-0.533447,-0.144427,4.537429,9.75459,-0.526443,-0.010556,-0.043368,-0.692383,0.081055,-0.406738,-0.703956,4.380551,8.811993,0.12026,-0.074405,-0.006706,-0.253662,0.592773,0.776123,-0.469674,3.447118,9.122966,0.06457,-0.376297,-0.002977,0.639648,-0.071777,-0.107666,-0.849389,2.081421,9.277442,-0.157669,0.108517,0.001448,0.366943,-0.185791,-0.57666
-0.543946,-2.724261,9.103977,-0.719759,0.131601,-0.039538,-0.05127,0.615967,-0.52124,-0.32332,1.891433,8.874368,-0.446162,0.00984,0.071255,-0.697754,0.077637,-0.416504,-0.610567,4.408963,8.92542,-0.086184,0.062369,0.010151,-0.263672,0.593994,0.773926,0.719007,3.740627,9.172874,0.083046,0.05169,0.006129,0.63501,-0.068604,-0.111572,-0.423065,3.384418,9.247088,0.53853,-0.217997,-0.070091,0.374023,-0.205811,-0.571533
-0.246215,-5.504565,7.797777,0.111356,-0.085903,0.173898,-0.054932,0.619385,-0.52832,-0.339155,2.708379,9.100189,0.644478,0.01602,-0.046836,-0.685059,0.061523,-0.416748,-0.822587,4.133183,8.709058,-0.029444,-0.038573,0.009073,-0.250977,0.595947,0.772705,-0.63514,3.903679,9.050915,0.005188,0.274707,0.03543,0.644775,-0.068115,-0.106934,0.291456,4.107181,9.268423,-0.212221,0.057487,0.030451,0.368164,-0.196533,-0.576172
-0.164107,-2.135877,9.157748,0.888337,-0.086984,-0.030621,-0.047852,0.606201,-0.537598,-0.157757,4.712058,9.547145,0.051049,0.001234,0.013359,-0.693604,0.06543,-0.42041,-0.534165,4.405493,8.841764,0.085786,-0.000379,-0.016045,-0.259277,0.597412,0.775635,-0.617271,3.889997,9.239306,-0.064334,-0.251318,-0.009069,0.637939,-0.067139,-0.106934,-0.750089,2.582489,9.214599,-0.262901,0.167402,0.025806,0.378418,-0.192627,-0.575928
-0.260563,-2.116904,9.849911,0.095336,-0.195762,-0.044053,-0.057617,0.606689,-0.535156,-0.381064,3.158043,9.153885,-0.529268,0.003564,0.044349,-0.693848,0.074707,-0.416748,-0.814185,4.356876,8.931453,-0.067273,0.080052,0.001868,-0.260742,0.602051,0.773682,0.550394,3.453,9.02235,-0.101024,-0.028535,0.00144,0.634766,-0.062012,-0.111816,-0.589128,3.084334,9.354226,0.312019,-0.210142,-0.041662,0.370605,-0.196533,-0.576904
0.367326,-2.624979,9.903011,0.110309,0.014129,-0.035902,-0.057373,0.607666,-0.540527,-0.270357,2.26244,8.980164,0.14858,0.00172,-0.018657,-0.699951,0.072998,-0.421387,-0.631325,4.212547,8.732783,-0.025227,-0.123842,0.023447,-0.262207,0.597412,0.776367,-0.31578,3.589518,9.097311,0.124505,0.205952,0.030246,0.63208,-0.063477,-0.106689,0.304706,3.69567,9.044752,-0.028448,0.031751,0.00911,0.37085,-0.189941,-0.576904
-0.072516,-2.90519,9.671454,-0.407395,-0.088866,-0.106506,-0.066162,0.611084,-0.530518,-0.056468,3.818313,9.461594,0.277039,-0.007328,0.007497,-0.688232,0.071045,-0.412842,-0.403958,4.305158,8.825122,0.019784,0.079987,-0.020527,-0.248535,0.586426,0.769775,-0.512861,4.068612,9.291293,0.055425,-0.140025,0.005794,0.64624,-0.077393,-0.113281,-0.6051,3.110007,9.335074,-0.164674,0.113231,0.010271,0.367188,-0.191406,-0.574219
0.330731,-4.585521,9.327618,-0.032246,0.096119,0.074766,-0.052002,0.599121,-0.536621,-0.334028,3.799529,9.300571,-0.211785,0.040726,0.018815,-0.700439,0.074951,-0.419189,-1.037828,4.281361,8.90348,0.010292,0.067539,-0.00038,-0.261719,0.59668,0.771973,0.276633,3.742254,9.07426,-0.165105,-0.025765,-0.008748,0.635498,-0.06958,-0.111816,-0.35486,2.978684,9.153513,0.088515,-0.140206,-0.009435,0.380127,-0.20874,-0.581787
-0.529847,-4.314772,8.586193,0.477024,-0.023878,0.011201,-0.05957,0.602051,-0.539551,-0.271288,2.728005,8.976289,-0.143787,-0.003127,0.004494,-0.689697,0.074219,-0.421387,-0.693023,4.318181,8.816542,-0.005726,-0.130075,0.013136,-0.256592,0.599365,0.7771,-0.431636,3.420404,9.05731,-0.003393,0.174783,0.030965,0.637695,-0.067627,-0.106445,-0.014011,3.434384,9.158449,0.057959,0.084103,-0.016533,0.371826,-0.198975,-0.577881
0.024241,-5.004391,8.367978,1.216276,-0.168342,0.29329,-0.059326,0.581543,-0.543945,-0.40054,3.230715,9.432626,0.197838,-0.020455,-0.008984,-0.694092,0.073242,-0.417236,-0.341381,4.39173,8.760333,-0.0096,0.065957,-0.000432,-0.256836,0.591064,0.780029,-0.364072,3.866764,9.178151,0.156709,-0.175393,0.004089,0.639648,-0.072021,-0.103027,-0.745747,3.2964,9.50749,-0.060812,0.021539,0.007371,0.372314,-0.196533,-0.573486
0.426806,-1.970858,10.032164,2.082841,0.011639,0.073566,-0.056885,0.540283,-0.559326,0.098327,3.559071,9.398632,-0.088248,0.023904,0.0184,-0.693848,0.065186,-0.413574,-0.94301,4.239411,8.934464,-0.047245,0.046709,-0.010471,-0.256348,0.598877,0.766357,0.403809,3.933029,9.149383,-0.10879,-0.009069,0.001683,0.637939,-0.063232,-0.114014,-0.064226,3.175021,9.090953,-0.005722,-0.131124,0.005572,0.371826,-0.201904,-0.570557
-0.331533,0.073565,9.723075,0.958894,-0.012716,0.175848,-0.056641,0.52832,-0.575439,-0.468894,2.9232,8.893192,-0.045867,0.063783,0.057557,-0.686768,0.074219,-0.418213,-0.779807,4.166342,8.810054,0.010876,-0.061872,0.024643,-0.260498,0.594727,0.763672,-0.565663,3.471066,9.095554,-0.091746,0.257828,0.02112,0.63501,-0.069824,-0.116943,-0.055086,3.187435,9.057959,0.000346,0.115966,-0.016794,0.372559,-0.193115,-0.582031
-0.516307,-1.121709,8.80499,-0.082113,-0.187385,0.309963,-0.060547,0.5271,-0.57959,-0.48432,3.694205,9.249488,0.234909,-0.032767,-0.052769,-0.685547,0.063232,-0.423096,-0.51874,4.394717,8.700655,0.09311,0.026438,-0.024642,-0.265137,0.597168,0.77417,-0.646826,3.718533,9.070294,0.169241,-0.224518,0.010103,0.631104,-0.065918,-0.106934,-0.85703,3.148574,9.559288,0.001622,0.052819,0.002007,0.369141,-0.19873,-0.585938
0.3738,-3.133072,10.047723,0.568281,-0.275471,-0.115665,-0.071289,0.519775,-0.570312,-0.047071,3.654444,9.398563,-0.287712,-0.030886,0.038362,-0.691895,0.077637,-0.417969,-0.622544,4.541658,9.007835,-0.038622,0.011853,0.002755,-0.250732,0.600586,0.773682,0.750166,4.095492,9.217131,-0.046055,-0.145256,-0.000545,0.642334,-0.06543,-0.11084,-0.25429,3.446486,9.249074,0.12719,-0.161874,-0.014216,0.363281,-0.197266,-0.575439
0.471715,-2.654185,9.54933,1.726954,-0.012371,0.175113,-0.057373,0.492188,-0.587402,-0.101032,2.671597,9.129793,-0.060367,0.028591,-0.00478,-0.696533,0.080322,-0.416992,-0.810417,4.110503,8.826175,-0.17912,0.007417,0.027204,-0.258789,0.584961,0.773193,-0.232524,3.451681,9.017656,-0.215836,0.386085,0.015244,0.637939,-0.073486,-0.109375,0.234066,3.406656,8.983799,-0.166301,0.010378,0.018029,0.375732,-0.191895,-0.580322
-0.165509,-0.134603,9.927665,0.915372,-0.052241,0.034115,-0.064697,0.462402,-0.590332,-0.453456,3.128863,9.289492,0.171763,0.038249,0.025654,-0.692871,0.075439,-0.412109,-0.691616,4.034225,8.644678,0.112895,-0.042303,-0.006391,-0.258789,0.593506,0.772705,-1.089254,3.471688,9.142305,0.204025,-0.130557,0.017244,0.636475,-0.069824,-0.108398,-0.544822,2.661688,9.236837,-0.101905,0.174902,0.000245,0.373047,-0.200439,-0.580322
0.573562,-0.003574,10.561971,0.99626,-0.052036,0.08319,-0.065918,0.451904,-0.594971,-0.169033,3.674183,9.366516,-0.0115,-0.033048,-0.00274,-0.694336,0.070801,-0.418701,-0.541227,4.543281,8.899768,0.134501,0.043756,-0.0292,-0.258057,0.591064,0.778076,0.531904,4.19961,9.212549,0.11001,-0.290552,-0.003311,0.640137,-0.073486,-0.105469,-0.739925,3.263308,9.450026,0.327576,-0.126988,-0.039591,0.368896,-0.20459,-0.576904
-0.336601,2.519864,10.763076,-0.306452,0.202311,-0.151658,-0.060791,0.453613,-0.586914,-0.218238,3.184497,9.206074,-0.114413,0.05852,0.075029,-0.695557,0.07666,-0.411621,-0.791726,4.478649,9.048303,-0.142571,0.038408,0.022048,-0.253662,0.595459,0.772461,0.25561,3.778042,9.08346,-0.291775,0.348469,0.016265,0.644531,-0.067139,-0.108887,0.195398,4.006646,9.219738,-0.052302,-0.09437,0.003317,0.372803,-0.203369,-0.570557
0.276544,-2.25612,9.444402,-1.336981,-0.004983,-0.116353,-0.056396,0.481201,-0.585449,-0.349325,3.178333,8.946064,0.109784,0.020873,-0.035684,-0.693848,0.078125,-0.416504,-0.80703,4.069872,8.65687,-0.067211,-0.069672,0.016255,-0.251709,0.588867,0.773193,-1.216956,3.215543,9.01217,0.026326,0.05741,0.01482,0.645264,-0.07373,-0.110352,-0.208099,2.776057,9.096779,-0.381878,0.197757,0.046908,0.375732,-0.194092,-0.577881
-0.341919,-5.930789,8.412824,0.073331,0.005503,0.124091,-0.055908,0.476074,-0.58667,-0.417031,3.992381,9.257645,0.11325,-0.034171,-0.007933,-0.692871,0.074951,-0.41748,-0.543158,4.269826,8.878606,0.083857,0.039816,-0.018919,-0.251953,0.59668,0.774658,0.056104,3.93893,9.185839,0.246596,-0.351556,0.003695,0.64209,-0.069824,-0.109375,-0.969956,2.61752,9.305891,0.289966,-0.036868,-0.048307,0.377441,-0.203125,-0.577148
0.639336,-5.295307,9.568215,2.700912,-0.001725,0.244285,-0.055664,0.433594,-0.599854,-0.159074,3.174776,9.489547,-0.426846,-0.004743,-0.003324,-0.691406,0.078857,-0.415039,-0.794043,4.344991,8.901787,-0.009519,0.024329,0.003561,-0.263916,0.594727,0.77124,0.512192,4.065687,9.149288,-0.165333,0.171455,0.013274,0.633057,-0.068848,-0.111328,-0.029377,4.100461,9.373724,0.243881,-0.163563,-0.023483,0.376709,-0.19873,-0.576416
0.594864,1.73439,12.081382,3.441626,0.392056,0.195864,-0.05835,0.368408,-0.62207,-0.242495,2.123372,8.986681,0.075971,0.013633,0.049304,-0.69043,0.073242,-0.415283,-0.591765,4.328832,8.802023,0.005275,-0.028545,0.012216,-0.261963,0.595947,0.775879,-0.784733,3.425896,9.051745,-0.12651,0.187335,0.014788,0.637939,-0.069336,-0.104004,0.027649,3.387972,9.153015,-0.450881,0.119264,0.062872,0.364258,-0.197754,-0.582275
0.313693,1.960323,10.763977,1.527152,0.554175,0.423595,-0.045654,0.339111,-0.626953,-0.372314,4.305003,8.685954,0.609506,0.037907,-0.081059,-0.69458,0.070312,-0.408936,-0.635259,4.352798,8.804817,-0.014305,0.044436,-0.009173,-0.263428,0.592041,0.765625,-0.283724,3.606814,9.088268,0.154769,-0.280754,0.007277,0.635254,-0.070557,-0.12085,-0.769115,2.310869,9.131263,0.038071,0.05985,-0.011885,0.370605,-0.196289,-0.573486
0.015658,1.792488,10.690881,1.320127,0.690697,0.420206,-0.034668,0.314453,-0.64624,-0.389812,4.942332,9.71741,-0.334751,-0.149713,-0.067453,-0.691162,0.070068,-0.414795,-0.838306,4.267945,8.864489,-0.035522,0.015799,0.008354,-0.264648,0.597656,0.775391,0.439109,3.990775,9.171461,0.017861,0.052945,0.011693,0.632568,-0.063965,-0.106201,-0.24046,3.637195,9.417819,0.384391,-0.16628,-0.050656,0.365479,-0.204834,-0.586426
-0.048201,1.719566,10.802392,0.329959,0.810297,0.267829,-0.020264,0.312988,-0.640137,0.01557,2.204306,8.879687,-0.685391,-0.01538,-0.077508,-0.696777,0.081787,-0.414795,-0.692431,4.286557,8.778722,0.015404,-0.031961,-0.004579,-0.256592,0.601807,0.773926,-0.60479,3.776488,9.155826,-0.108793,0.191604,0.019452,0.640869,-0.061768,-0.108643,0.028381,3.814712,9.230969,-0.243103,0.069739,0.034827,0.368164,-0.192871,-0.575195
-0.186824,-0.490561,10.524835,0.847908,0.993014,0.323882,0.006104,0.300537,-0.64502,-0.591012,1.935964,9.032246,0.424375,-0.081095,-0.03646,-0.696045,0.075195,-0.41626,-0.401269,4.369368,8.787549,0.012834,-0.00504,0.007529,-0.256348,0.595703,0.781738,-0.193967,3.548241,9.058187,-0.032392,-0.251748,-0.004261,0.639893,-0.06543,-0.102051,-0.712676,2.625631,9.247444,-0.196694,0.073922,0.027279,0.374268,-0.187744,-0.579102
-0.50217,3.986947,10.2585,1.431828,1.124909,0.142332,0.023438,0.263428,-0.647949,0.457633,4.565126,9.845934,0.370522,-0.067868,-0.09964,-0.697266,0.069824,-0.417725,-0.792952,4.330744,9.010929,-0.059954,0.101004,-0.022273,-0.261963,0.595947,0.770752,0.479255,3.655376,9.142053,0.051364,0.090565,0.008165,0.63623,-0.064453,-0.111328,-0.071166,3.061847,9.132831,0.298864,-0.178489,-0.047249,0.371826,-0.196777,-0.571045
-1.073398,4.966999,10.762712,-0.926673,1.087831,-0.002508,0.038818,0.278809,-0.658447,-0.75846,3.685387,8.787016,-0.590052,0.08076,0.027807,-0.703857,0.076904,-0.416504,-1.026868,4.075661,8.699717,0.019415,-0.068482,0.029304,-0.258301,0.578857,0.771484,-0.858374,3.739877,9.122168,0.053602,0.235449,0.027268,0.640381,-0.083008,-0.10791,0.074113,3.783288,9.193073,-0.034079,0.131854,-0.004537,0.369873,-0.197754,-0.580322
-1.277824,0.040987,9.390382,-1.805181,1.259251,-0.089669,0.062256,0.295166,-0.655762,-0.194561,2.374789,9.444623,-0.012247,-0.229747,-0.109604,-0.696045,0.074463,-0.408936,-0.361464,4.529225,8.842267,0.136084,-0.027091,-0.03201,-0.263428,0.59375,0.769531,-0.496692,4.070256,9.12716,0.044682,-0.294439,-0.000553,0.632568,-0.072266,-0.11084,-0.920997,2.884599,9.518108,-0.198612,0.099274,0.025122,0.374023,-0.207031,-0.578857
-2.02505,-3.273263,7.684228,-0.58099,0.916394,0.235381,0.070801,0.317871,-0.65332,0.165789,3.015879,9.470306,0.025873,0.139165,0.00899,-0.697021,0.074463,-0.411377,-0.756123,4.457736,9.034228,-0.202019,0.124457,0.004136,-0.257812,0.598145,0.774902,0.744948,3.650315,9.269578,-0.282759,-0.02166,0.001139,0.641846,-0.065186,-0.107178,-0.44913,3.266275,9.215744,0.297267,-0.197892,-0.042518,0.364746,-0.199951,-0.574463
-1.453417,-1.465869,9.151881,1.54768,1.046808,0.180575,0.099121,0.290771,-0.658203,-0.663468,3.064254,9.248059,0.080158,-0.074768,0.018283,-0.69751,0.073975,-0.408447,-0.872927,3.934843,8.595198,-0.002696,-0.138872,0.048528,-0.260742,0.599121,0.770752,-0.441385,3.12062,8.795317,0.087101,0.304891,0.018182,0.63916,-0.065674,-0.109375,0.42662,3.685413,9.175297,-0.228902,-0.00886,0.041417,0.373535,-0.193115,-0.575195
-2.284652,5.706779,10.615605,1.829703,0.989184,-0.012391,0.112549,0.256348,-0.665039,0.528204,3.393326,9.199243,-0.048088,0.034116,0.003035,-0.697998,0.075684,-0.405029,-0.196206,4.384612,8.867034,0.105809,0.057104,-0.062479,-0.261719,0.598877,0.774658,-0.696072,4.199478,9.406674,0.292583,-0.204122,0.029659,0.635742,-0.064941,-0.109131,-0.619392,2.441195,8.95935,-0.086368,0.217512,-0.007477,0.371826,-0.192627,-0.57959
-2.18781,4.489761,8.274379,-0.505269,1.057763,-0.190083,0.129883,0.260986,-0.663818,-0.99466,3.628641,9.4229,0.117983,0.050788,-0.002572,-0.696533,0.068115,-0.414551,-1.367859,4.28747,8.883661,-0.02919,0.152774,0.029489,-0.256836,0.605225,0.765137,0.245576,3.993404,9.165909,-0.275429,-0.04428,-0.020031,0.643799,-0.05542,-0.115479,-0.645108,3.602655,9.708915,0.37435,-0.184589,-0.051925,0.367432,-0.196777,-0.577148
-3.680112,3.868038,9.649694,-1.584362,0.708141,-0.002296,0.149414,0.300537,-0.672119,0.170169,3.293115,9.394885,-0.298081,-0.115671,-0.03422,-0.698486,0.074219,-0.413086,-0.453919,4.469953,8.845343,0.078953,-0.292081,-0.001387,-0.258301,0.590576,0.774902,-0.154226,3.374392,8.845478,-0.050616,0.122402,0.029302,0.637451,-0.073242,-0.105957,0.108069,3.574657,9.056392,-0.271453,0.026861,0.046693,0.377197,-0.185791,-0.585938
-2.10729,-1.661485,7.083501,-1.877715,0.697132,-0.546091,0.154785,0.321777,-0.656494,-0.15897,2.146875,9.040964,0.028661,0.107137,0.071626,-0.704346,0.075684,-0.415771,-0.185769,4.455985,8.942826,-0.201348,0.240691,0.007971,-0.264404,0.589844,0.768799,-0.345133,3.648963,9.305729,0.064255,-0.04432,0.00731,0.634766,-0.071777,-0.112305,-0.609801,2.899925,9.230563,-0.000791,0.061851,-0.011989,0.368652,-0.202637,-0.570068
-4.056458,-1.903755,7.176884,0.580451,0.467631,-0.123278,0.160156,0.30957,-0.666504,-0.307881,3.86786,9.265405,0.409378,0.016733,-0.046229,-0.702881,0.074707,-0.418457,-1.678372,3.755085,8.695066,-0.022952,0.00543,0.004991,-0.250977,0.592773,0.775391,-0.175649,3.741286,9.030865,0.05881,0.012656,-0.001609,0.647705,-0.069824,-0.106689,-0.075635,3.198077,9.263974,0.02285,-0.124511,-0.002048,0.366699,-0.198242,-0.580811
-3.373884,0.73894,7.973109,1.323034,0.1836,-0.098873,0.173584,0.289551,-0.66333,-0.297021,3.766472,9.616797,-0.33663,0.023401,0.049918,-0.705811,0.074707,-0.413086,-0.4925,4.382845,8.731646,0.230015,-0.124996,-0.004204,-0.269287,0.595459,0.764893,-0.693218,4.022869,9.122952,0.040956,0.107258,0.034901,0.630615,-0.068848,-0.115723,-0.376968,3.129681,9.135988,0.041636,0.171042,-0.004069,0.382812,-0.196289,-0.57373
-4.039778,2.676102,8.46355,1.293413,-0.116621,-0.134949,0.156006,0.26416,-0.67627,-0.55657,2.391879,8.852099,0.055915,0.109894,0.043407,-0.699951,0.068359,-0.419922,-0.346419,4.742435,8.870521,-0.047525,0.08888,0.002295,-0.260498,0.600342,0.776123,-0.037936,3.853503,9.289063,-0.195967,-0.316917,-0.016143,0.637451,-0.062744,-0.102783,-1.199975,3.504077,9.700528,0.072035,-0.018373,-0.002529,0.362793,-0.19873,-0.585205
-2.668376,5.665652,9.158877,-0.726494,-0.245497,-0.484989,0.161621,0.281738,-0.662842,0.359768,3.990658,10.144471,0.371228,-0.015162,-0.127038,-0.694824,0.068604,-0.414307,-0.707356,4.322325,9.083806,-0.222589,-0.029562,0.014405,-0.260986,0.582031,0.77832,0.89098,3.22255,8.928676,-0.105861,0.073473,0.005542,0.638672,-0.073975,-0.104248,0.387544,3.39399,9.162759,-0.145913,-0.344174,0.05027,0.370117,-0.195068,-0.573975
-1.675493,-0.303101,8.450409,-1.461636,-0.027128,-0.603286,0.160156,0.300537,-0.663818,-0.417789,3.246633,7.890726,-0.522526,0.250778,0.165924,-0.693115,0.074463,-0.417236,-0.752607,3.813349,8.694641,-0.023263,0.024928,0.045193,-0.26416,0.593018,0.768311,-0.819607,3.533829,9.154964,0.208223,0.395145,0.035382,0.638916,-0.065186,-0.105957,0.425708,2.763391,8.537747,-0.107873,0.282796,-0.008131,0.372803,-0.203857,-0.570801
-2.690031,0.370534,9.682689,-0.429023,0.006758,-0.415486,0.157471,0.319092,-0.667969,-1.223773,2.750041,8.369502,0.377825,-0.319807,-0.138328,-0.694336,0.0625,-0.414551,-0.680578,4.27979,8.68467,0.241551,-0.010097,-0.07514,-0.269043,0.595947,0.770264,-0.901077,4.235093,9.134422,0.150112,-0.383983,-0.001084,0.634033,-0.066406,-0.107178,-1.258863,3.017933,9.787549,0.174594,0.116358,-0.025161,0.37085,-0.196045,-0.579346
-3.726818,-1.302184,10.408758,-0.439191,0.329878,-0.412947,0.158203,0.32666,-0.664795,0.989865,5.027728,10.871894,0.054565,-0.154256,-0.038498,-0.696533,0.05957,-0.413086,-0.36069,4.91484,8.845941,0.075327,0.022358,0.01825,-0.262207,0.598389,0.771729,1.284554,4.046163,9.290224,-0.227535,-0.174723,-0.008899,0.639648,-0.064941,-0.112305,-0.193923,3.683419,9.380637,0.18877,-0.305166,-0.008082,0.36377,-0.198242,-0.575195
-3.638698,-1.931753,9.879043,0.835497,-0.205086,-0.289739,0.161621,0.312256,-0.669434,-0.150588,2.633681,9.711006,-0.651472,0.214051,-0.064218,-0.696777,0.075684,-0.417725,-1.167979,4.169584,9.068737,-0.401066,0.062498,0.020117,-0.274902,0.588623,0.777588,-0.402253,3.011564,8.924639,-0.285337,0.596825,0.029987,0.628662,-0.066895,-0.099121,0.461033,3.805932,8.854737,-0.211876,0.081578,0.008013,0.37085,-0.196289,-0.580322
-2.904487,1.60033,10.548969,0.655261,0.03771,0.143337,0.151367,0.297607,-0.668701,-0.590089,3.16158,8.532867,0.930382,0.114562,-0.323994,-0.694824,0.061279,-0.417969,-0.781852,3.623653,8.539239,0.044633,-0.180244,0.065202,-0.261963,0.587646,0.774658,-1.636312,3.455173,8.994297,0.412387,-0.227314,0.019588,0.638184,-0.070312,-0.105469,-0.76281,2.273563,9.296597,-0.364389,0.204323,0.053083,0.364258,-0.194336,-0.575439
-2.051676,2.209365,10.443391,-0.501671,0.06279,0.248149,0.162842,0.306885,-0.672852,-0.604096,5.907719,9.153705,0.053532,0.044965,-0.363957,-0.695557,0.050537,-0.41333,0.007613,4.577607,8.823157,0.341184,0.069753,-0.088457,-0.261475,0.600342,0.77832,1.100082,4.620251,9.447962,0.129442,-0.502903,-0.000232,0.643799,-0.059814,-0.108398,-0.919433,2.871693,9.444571,0.569991,-0.137126,-0.088159,0.368408,-0.200684,-0.575439
-1.913008,0.05152,8.935323,-0.796902,0.48263,0.180595,0.175049,0.326904,-0.664307,-0.160911,2.511254,8.122736,-1.034107,-0.187598,-0.19878,-0.687988,0.059814,-0.422852,-0.954579,4.876912,8.980568,-0.02903,0.134189,-0.008514,-0.266846,0.597168,0.769775,0.75481,3.65509,9.010534,-0.495237,0.538527,-0.002738,0.638672,-0.06543,-0.106689,0.475072,4.640473,9.278156,0.074718,-0.225177,0.005331,0.370605,-0.199219,-0.57251
-2.228219,-0.989888,8.5466,-0.227676,0.717895,0.173241,0.185791,0.32959,-0.672607,-0.308199,1.11932,8.271201,0.275793,-0.127883,-0.184716,-0.697998,0.057617,-0.423096,-0.842482,4.418997,8.932517,-0.156182,-0.170408,0.02027,-0.260986,0.593994,0.774658,-1.707882,2.863607,8.907215,0.037876,0.188045,0.030511,0.64209,-0.066162,-0.104492,0.294309,2.764953,8.847154,-0.672371,0.279515,0.078578,0.371338,-0.192871,-0.582275
-5.356332,-0.837307,9.097494,0.236658,0.714758,0.034328,0.198975,0.324951,-0.667725,0.043016,3.139661,11.642458,0.087384,-0.223045,-0.021377,-0.698486,0.052734,-0.413086,-0.576337,3.814031,8.738452,-0.344227,0.02281,-0.009212,-0.260742,0.584229,0.777832,-0.202332,4.011184,9.227953,0.448411,-0.518762,-0.013022,0.64209,-0.068604,-0.110107,-1.308409,2.063077,9.375295,0.313638,0.100569,-0.073403,0.373779,-0.195557,-0.577393
-4.767615,-0.515062,8.433874,-0.052508,-0.123784,-0.084298,0.197266,0.320068,-0.666016,-0.040995,2.45885,9.683911,-0.117811,0.227585,0.095465,-0.692383,0.060303,-0.422852,-0.78981,3.612499,8.693616,0.223167,-0.022444,0.057797,-0.258545,0.593506,0.768311,0.921553,4.427842,9.310319,-0.140134,0.118368,0.033796,0.644043,-0.0625,-0.112793,-0.291393,4.204141,9.631213,0.476049,-0.285077,-0.045572,0.371582,-0.205811,-0.576172
-1.447487,-0.720923,7.063465,0.750691,0.117425,-0.104475,0.200439,0.312744,-0.674316,-0.87967,1.886764,8.028748,-0.090502,-0.052581,0.134697,-0.692139,0.064697,-0.412354,-0.226544,4.735111,8.910304,0.338244,0.110491,-0.117856,-0.267822,0.593994,0.766357,-0.687152,3.413202,9.152452,-0.390938,0.325132,0.004979,0.636963,-0.069824,-0.111816,0.289699,4.004754,9.040273,-0.428051,0.079815,0.055123,0.373291,-0.189941,-0.579834
-4.108627,0.990558,8.32512,0.850516,0.339241,-0.33323,0.198486,0.288086,-0.681152,0.237014,3.123016,8.877313,0.300193,-0.108533,0.271935,-0.700195,0.058838,-0.41333,-1.342325,4.972513,9.182919,0.020362,0.125425,0.023552,-0.268799,0.594727,0.76416,-0.765704,2.996932,8.625819,0.165677,-0.226562,-0.012776,0.635254,-0.070801,-0.111816,-0.592125,2.145113,9.021769,-0.310384,0.135925,0.032852,0.368652,-0.196777,-0.584229
-4.809548,-0.365433,8.569741,0.998867,-0.081989,-0.569438,0.193359,0.267334,-0.678467,-0.291832,3.719752,10.778323,-0.335306,0.067597,0.493301,-0.70874,0.066895,-0.420898,-0.496936,4.29194,8.708685,-0.465916,-0.335438,0.025322,-0.260254,0.588135,0.772705,0.60548,4.201748,9.474094,0.388261,-0.171609,0.026203,0.639404,-0.068359,-0.112305,-0.547737,2.669371,9.426419,0.451446,-0.088281,-0.062353,0.366943,-0.202637,-0.582031
-4.175037,-1.021291,7.382763,1.569806,-0.196206,-0.78003,0.192139,0.240723,-0.677734,0.383237,2.2213,10.051026,-0.114627,0.023863,0.219965,-0.699463,0.068604,-0.40625,-0.063337,3.487565,8.516284,-0.164473,0.192132,0.085067,-0.25415,0.580322,0.772949,0.118541,4.320017,9.316242,-0.280007,0.288541,0.019199,0.646729,-0.073242,-0.106689,-0.040311,4.485734,9.303913,0.29399,-0.094009,-0.042889,0.37207,-0.200684,-0.579834
-2.241626,0.838246,7.359404,3.369398,-0.789105,0.737458,0.186279,0.17041,-0.676758,-0.785378,5.22766,6.236691,1.299232,0.403504,0.05151,-0.697021,0.063232,-0.418701,-1.567491,3.86884,8.784964,0.497369,0.141066,-0.135072,-0.27002,0.598145,0.770508,-1.106713,3.098537,8.849151,-0.263786,0.063682,-0.00599,0.634033,-0.063721,-0.108887,0.09932,3.45304,9.051167,-0.629982,0.122145,0.077877,0.379395,-0.20166,-0.581543
-3.66179,4.381368,8.676744,2.674458,0.054019,0.098625,0.173828,0.125977,-0.675781,-0.985818,7.728236,11.078881,-0.604564,-0.513722,-0.197029,-0.706299,0.064209,-0.414062,-0.459662,5.314451,9.036315,0.235293,-0.160248,0.027135,-0.265869,0.605713,0.77417,-0.139456,3.426829,9.081516,0.325536,-0.264424,0.010125,0.636475,-0.062988,-0.102783,-1.015076,1.86385,9.29781,0.003124,0.105848,-0.017587,0.367676,-0.192139,-0.577148
-3.824866,5.190363,10.033731,2.500565,-0.773884,0.409579,0.161377,0.083984,-0.661377,1.178187,0.337635,8.691469,-1.970718,0.152353,0.082866,-0.693604,0.087158,-0.411621,-0.523932,4.739207,8.916011,-0.39183,0.076622,0.02475,-0.260498,0.593018,0.766846,0.526218,4.336375,9.196323,0.114419,0.021728,0.024737,0.63916,-0.06958,-0.11377,-0.458656,3.640622,9.415094,0.569944,-0.204153,-0.07366,0.368896,-0.200195,-0.572754
-2.311747,8.322901,10.187696,0.916482,0.014547,-0.271142,0.16626,0.061279,-0.669678,-1.249298,-0.870529,8.728781,1.130312,-0.017546,-0.052725,-0.706299,0.074951,-0.415039,-0.912607,3.556423,8.746173,-0.356996,-0.069991,0.039072,-0.261719,0.591064,0.779053,-0.380045,3.847321,9.29874,-0.348536,0.227394,-0.002496,0.640625,-0.063232,-0.105469,0.479665,4.295844,9.237801,-0.208035,-0.029165,0.037835,0.369385,-0.200928,-0.581787
-3.561902,5.227882,9.327045,-0.981391,-0.410683,-0.236123,0.159912,0.083008,-0.667236,0.806466,6.325319,9.715863,1.462317,0.020182,-0.031181,-0.694824,0.060059,-0.413818,-0.524323,3.755018,8.629572,0.324729,-0.01933,-0.005797,-0.260742,0.588623,0.774414,-0.718803,3.142533,8.768962,0.017484,-0.094164,0.009506,0.636475,-0.072266,-0.10498,-0.588918,2.449461,9.084907,-0.470681,0.236462,0.042623,0.373779,-0.187256,-0.576416
-2.660359,3.15881,8.752809,-1.354191,-0.047427,-0.089355,0.156738,0.102295,-0.672119,-1.242395,5.852286,9.654359,-1.386511,0.115194,0.086905,-0.695312,0.076904,-0.41626,-0.632922,4.780747,9.108459,0.275651,0.150329,-0.092947,-0.268799,0.591309,0.768311,0.251929,3.850706,9.285085,0.239297,-0.161425,0.012606,0.635254,-0.070801,-0.108643,-0.867501,2.579612,9.288209,0.433436,-0.133278,-0.055874,0.369873,-0.204102,-0.574463
-3.393677,1.855537,8.981108,-0.806143,-0.231792,-0.366365,0.152832,0.117432,-0.676025,0.425135,-0.156539,8.540988,-0.697231,-0.27298,-0.017772,-0.700684,0.07666,-0.416016,-0.964333,4.731488,8.844228,-0.132903,-0.080662,0.084057,-0.26416,0.587402,0.768799,0.103239,4.073268,9.13371,-0.065296,0.155075,0.012118,0.635986,-0.077148,-0.109375,0.295239,4.273478,9.380672,0.184786,-0.138175,-0.023818,0.365723,-0.208008,-0.577637
-2.711477,1.122903,8.400706,-0.345117,-0.087461,-0.075128,0.15332,0.12085,-0.682129,-0.097827,2.465022,9.237103,1.218865,0.286595,-0.01336,-0.705078,0.067383,-0.415039,-0.38851,4.223988,8.775415,-0.266403,-0.044071,-0.018079,-0.262207,0.591553,0.771729,-0.576633,3.653247,9.133213,-0.162849,0.064811,0.007707,0.637695,-0.064941,-0.10791,-0.204146,3.240688,9.045485,-0.443382,0.206359,0.059512,0.371338,-0.20459,-0.580811
-3.417056,0.82793,7.40574,0.334685,-0.278337,-0.238998,0.14917,0.123291,-0.676514,-0.590355,5.864847,9.793634,0.107194,-0.139635,-0.015651,-0.706055,0.056396,-0.418457,-0.881499,3.802331,8.762901,0.004604,0.074974,0.033058,-0.262695,0.591797,0.772461,-0.231773,3.449132,9.059489,0.052086,-0.138636,0.003,0.639404,-0.068115,-0.105469,-0.771437,2.463031,9.354449,0.069691,-0.036605,-0.0276,0.369629,-0.195312,-0.577393
-3.293179,2.786105,7.754609,0.515535,-0.418164,0.104505,0.144531,0.114746,-0.675049,0.235969,2.846766,9.080851,-0.975748,0.061948,0.098444,-0.695801,0.075195,-0.416992,-0.880246,4.210527,8.886558,0.188929,-0.000617,-0.054447,-0.269531,0.592773,0.77002,-0.045009,3.822916,9.005542,0.138964,0.086574,0.021077,0.63501,-0.070801,-0.108398,-0.104012,3.526955,9.173296,0.300481,-0.112468,-0.033559,0.371826,-0.201416,-0.575928
-2.77812,5.120077,10.91096,0.23531,-0.627405,0.026012,0.125977,0.106689,-0.676514,-0.855077,1.361966,8.821252,0.32178,0.021782,-0.046279,-0.701172,0.067627,-0.415283,-0.402719,4.840053,8.800836,0.101278,-0.040846,0.025876,-0.263916,0.598633,0.770264,-0.379157,4.25642,9.496182,-0.154409,-0.030197,0.040117,0.635986,-0.068604,-0.107666,-0.378036,4.062413,9.296648,-0.000181,0.162285,0.039532,0.367432,-0.204102,-0.579346
-1.79874,4.411373,10.938582,-1.325754,-0.105601,-0.235139,0.127686,0.137451,-0.680664,0.486466,4.460001,9.5476,0.609052,-0.088819,-0.000168,-0.700195,0.072021,-0.411133,-0.686979,4.459744,8.665488,-0.273838,0.092454,-0.002395,-0.262451,0.596436,0.771973,0.145754,3.419818,8.765178,-0.187204,-0.087739,-0.036628,0.640625,-0.065186,-0.109863,-0.566754,2.538748,9.743649,-0.706859,-0.191112,0.003167,0.365967,-0.191162,-0.581055
-3.383907,-0.036296,7.234296,-0.370438,-0.171621,-0.104783,0.129395,0.14624,-0.680664,-0.408314,4.134717,9.495758,-0.573697,0.170444,0.019259,-0.706055,0.078125,-0.421387,-0.864879,4.03056,9.170594,-0.196782,-0.050747,0.019934,-0.265869,0.590088,0.773682,-0.143881,3.550634,9.011907,0.080361,0.092267,0.06864,0.633789,-0.067871,-0.108398,0.123942,2.331862,8.750949,0.542387,0.023349,-0.120122,0.373047,-0.198486,-0.576904
-2.077132,2.43215,9.943815,-0.09189,-0.296434,-0.176771,0.11792,0.147949,-0.679688,-0.300793,1.773593,8.678626,-0.225169,-0.154869,0.039639,-0.698975,0.072998,-0.420898,-0.824686,4.216207,8.667885,0.016142,0.047652,-0.02041,-0.269775,0.593994,0.769287,-0.75505,4.223846,9.358282,-0.135669,0.049307,-0.000435,0.633057,-0.061279,-0.109375,-0.721816,4.46553,10.158327,-0.094409,-0.060313,-0.085568,0.365967,-0.193848,-0.579834
-3.273367,-0.95008,9.746982,-0.088866,-0.142633,0.262752,0.114746,0.152588,-0.684082,-0.243831,3.426575,9.453817,0.539239,0.132532,-0.058665,-0.69458,0.068115,-0.413574,-0.353145,4.639073,8.912282,-0.107508,-0.0606,-0.015848,-0.267334,0.59082,0.779053,0.314692,3.726167,9.276264,-0.356574,-0.304163,-0.003964,0.630615,-0.061523,-0.109863,-0.544873,0.38646,9.388649,-1.45197,-0.088227,-0.457169,0.364258,-0.166504,-0.588867
-0.811141,0.151652,10.326223,0.972076,0.088629,0.179901,0.117188,0.130859,-0.674072,0.049509,3.915743,9.523351,-0.231931,-0.105969,0.070429,-0.706787,0.066895,-0.409424,-0.778608,3.936872,8.965156,-0.477519,0.079163,0.045245,-0.268799,0.576172,0.787598,0.4511,2.610548,9.037904,-0.314697,0.243831,0.004045,0.630371,-0.062744,-0.098389,-0.39708,1.267518,8.016552,1.348613,-0.25755,-0.795466,0.365479,-0.182617,-0.577148
-3.489148,0.663062,8.454205,2.616079,0.187024,0.492716,0.11499,0.078613,-0.661133,-0.091405,2.824472,9.220461,-0.14974,0.139482,-0.024032,-0.699707,0.081299,-0.409912,-0.953455,3.631679,8.664193,0.093746,-0.070338,-0.017444,-0.265137,0.571777,0.782227,-1.138091,3.681554,9.06994,0.494888,0.101675,0.046227,0.637451,-0.071045,-0.099854,0.421061,7.007248,10.271485,0.735911,-0.197638,-0.435979,0.364014,-0.195068,-0.572021
-1.379242,8.21381,11.408073,2.573781,0.472644,0.20754,0.128906,0.022217,-0.654541,-0.632963,2.760366,8.958623,0.1471,-0.068621,0.042168,-0.700439,0.074463,-0.411133,-0.343642,4.333401,9.169737,0.00614,0.037593,-0.030906,-0.262695,0.580566,0.777344,-0.03303,4.313446,9.741079,-0.355773,-0.344404,-0.005371,0.637451,-0.060791,-0.110596,-0.713361,3.953762,9.371384,-1.876658,0.157747,-0.17635,0.369385,-0.175293,-0.582275
-3.277648,6.502023,10.398093,-0.073769,0.584747,0.097859,0.140625,0.029541,-0.659424,0.24519,3.884786,9.579148,0.174275,0.053743,-0.047276,-0.702881,0.066895,-0.423584,-1.093094,4.228865,8.474012,0.047254,0.116871,0.025512,-0.264893,0.58374,0.776855,0.431759,3.213624,8.429178,-0.18653,0.20098,-0.012334,0.633789,-0.061279,-0.109131,-0.477257,-0.93993,8.726643,-0.059114,-0.19937,-0.459286,0.370605,-0.157715,-0.58667
-1.47829,3.270969,10.423753,-0.75283,0.829462,0.348434,0.152588,0.040771,-0.662354,-0.792494,3.222992,9.085539,-0.299133,0.075592,0.066328,-0.699219,0.07251,-0.417969,-0.672966,5.406399,8.875141,-0.069519,-0.060784,-0.128291,-0.268066,0.584229,0.782227,-1.20885,4.802096,9.128398,0.143559,-0.02151,0.105637,0.633545,-0.057129,-0.104004,-1.196892,4.83611,10.389896,1.802547,-0.094865,-0.390188,0.371338,-0.18335,-0.584229
-3.252097,0.485169,9.061863,0.612299,1.16135,0.599668,0.166504,0.030518,-0.648682,0.053017,3.126,8.817171,0.34987,-0.132117,-0.074631,-0.695068,0.074463,-0.412842,-0.75091,6.480105,8.513221,-1.013961,0.203975,0.001682,-0.267822,0.575439,0.779297,0.357596,7.048761,8.986775,-1.075877,-0.411882,-0.044011,0.634277,-0.046387,-0.117432,-0.7135,8.231088,9.79438,-0.60784,-0.81054,-0.311344,0.355225,-0.166748,-0.583496
-2.410293,6.168175,8.858633,1.613216,1.227779,0.086509,0.192383,0.001709,-0.650635,-0.280836,4.5731,9.922868,-0.116814,0.197806,-0.091316,-0.698242,0.066406,-0.421387,-1.147858,6.08602,10.466367,-2.557162,-0.198008,-0.07725,-0.270264,0.524414,0.798096,0.779332,4.890866,9.909059,-3.241862,0.197251,0.077879,0.61792,-0.031738,-0.113525,0.007663,5.314668,8.631384,-2.300113,-0.178443,0.314422,0.356201,-0.130615,-0.598633
-3.683075,6.68749,9.213225,-0.269061,1.30975,0.176809,0.205322,-0.000488,-0.644775,-0.148305,1.77846,8.89876,-0.491779,-0.187845,0.174353,-0.701904,0.078125,-0.422607,-0.39606,0.926787,8.249654,-3.666076,-0.55193,0.394837,-0.246338,0.452393,0.817871,-0.628057,-3.329,8.5329,-3.295516,0.42154,-0.18104,0.619141,-0.017578,-0.109863,-0.683159,1.530545,10.542856,-2.65612,-0.55461,-0.1697,0.336914,-0.092285,-0.602539
-3.208981,2.819622,8.196621,-0.86197,1.142481,-0.033893,0.229248,0.007324,-0.648926,0.696518,3.085656,9.452474,0.652452,0.20301,-0.086041,-0.704346,0.066406,-0.417969,0.027063,-2.236989,8.382555,-0.762902,-0.014629,-0.02652,-0.252686,0.445801,0.825684,-0.923202,-1.72426,8.99691,1.76466,-0.374912,0.130627,0.613281,-0.022705,-0.115234,1.659147,-2.703787,8.728639,-1.419976,-0.800198,0.179165,0.328613,-0.074951,-0.610352
-4.739448,2.414333,8.867713,0.640431,1.336328,0.086214,0.244141,-0.000244,-0.637695,-1.127672,4.105668,10.567893,-0.106103,0.114437,0.107707,-0.691895,0.069092,-0.418701,-0.530317,3.054411,9.057448,1.650812,0.581648,-0.532566,-0.262207,0.481934,0.814697,-0.069015,8.315121,11.669666,0.706093,-0.535715,0.062753,0.624756,-0.020508,-0.116699,-1.475685,2.247033,11.263179,1.612033,-0.057333,-0.350409,0.31958,-0.093018,-0.602783
-5.233776,8.433994,10.157828,0.416694,1.16289,-0.252252,0.272705,-0.008301,-0.626221,0.946379,1.999818,10.104661,-0.529287,0.272932,0.082862,-0.6875,0.08374,-0.42749,-2.041882,7.684614,11.396359,-0.45455,0.161064,-0.290936,-0.271973,0.467285,0.816162,0.205906,5.489135,11.553198,-4.215703,-0.035431,-0.236965,0.603027,-0.004883,-0.108887,0.709048,7.488236,12.926084,-1.360289,-1.587148,0.276425,0.305664,-0.068359,-0.606934
-5.435745,5.647773,8.281524,-1.832615,0.901113,-0.352189,0.283936,0.013184,-0.631348,-0.210201,1.714979,9.991662,0.525336,0.584363,0.520916,-0.683105,0.080566,-0.433838,-0.864001,3.515979,9.495051,-4.472549,-0.886721,0.353136,-0.255859,0.402588,0.833496,-0.717859,-4.661087,8.399322,-3.08476,-0.289316,0.102989,0.582275,0.026367,-0.122803,1.552611,0.08783,11.027681,-3.764628,-0.275362,0.621028,0.288086,-0.021729,-0.601318
-5.170549,1.243317,6.826374,-1.13213,0.872457,-0.154645,0.294922,0.046387,-0.637695,-0.177817,4.261591,11.028067,0.697692,0.778672,0.13437,-0.674805,0.069336,-0.440674,-0.089067,-6.257868,7.6669,-2.935648,-0.296176,0.613285,-0.241455,0.339844,0.856201,-1.134449,-4.18605,9.062053,1.921283,-0.728304,0.194202,0.580078,0.009033,-0.12207,-1.849737,-3.969785,9.603689,-0.11094,-0.629588,-0.396942,0.269043,0.000732,-0.612305
-6.329019,2.232541,7.506573,-0.422404,0.80799,-0.264127,0.311523,0.042969,-0.624512,-1.442784,4.427703,9.543707,0.001068,0.928479,-0.018605,-0.658936,0.061035,-0.452393,-1.037084,-4.392761,9.065054,2.633301,0.305126,-0.532658,-0.259033,0.389893,0.846924,-0.741569,3.868086,11.88737,2.009279,-1.148212,0.290674,0.57373,-0.004639,-0.133545,1.759351,1.444308,11.149835,1.913469,-1.388968,0.04224,0.246582,-0.034668,-0.606689
-5.797553,2.277486,7.536399,0.785937,0.343728,0.378104,0.313721,0.029785,-0.616455,-1.398737,1.515175,9.109891,-0.091402,0.605059,0.103338,-0.645752,0.06543,-0.451416,0.46523,2.308933,9.800915,3.041279,0.108842,0.112197,-0.260498,0.443115,0.829102,1.554774,1.036126,9.906943,-0.93775,-1.320586,0.050661,0.563721,0.005127,-0.145508,1.877536,2.88258,11.777564,-0.261448,-0.165048,0.212902,0.237793,-0.0271,-0.603271
-4.233638,8.91637,8.914869,-0.006168,0.568971,-0.043814,0.328857,0.029297,-0.614746,0.189854,3.677518,9.705436,1.230467,0.963985,-0.442101,-0.621582,0.037598,-0.465332,-0.945202,4.181278,10.046201,1.751659,0.469376,0.13619,-0.26709,0.473389,0.829834,1.429233,-3.044028,8.405285,1.323747,-0.507438,0.146478,0.560547,-0.006836,-0.143799,1.456301,-3.728092,8.65257,0.151947,-0.623119,0.68463,0.224609,-0.028564,-0.606201
-4.985501,1.72281,6.466776,-2.077449,0.361506,0.374032,0.334961,0.06543,-0.612305,-2.333319,4.791636,8.77564,0.134719,0.929926,-0.087304,-0.61084,0.037598,-0.477539,-1.741344,4.038266,10.521006,0.981656,0.256049,-0.049052,-0.283691,0.482422,0.823242,-1.021349,2.414833,9.599764,3.196271,-0.880774,0.239836,0.552002,-0.032227,-0.150635,1.674502,-0.230583,8.672133,3.830069,-0.306621,0.034738,0.219238,-0.087646,-0.595947
-3.946957,1.009342,7.410614,0.349883,0.929004,-0.007085,0.343994,0.056641,-0.604492,-2.149124,3.071127,7.647658,0.330933,0.629041,-0.230071,-0.598389,0.022949,-0.480225,-1.421628,2.875296,10.318403,0.427749,-0.050494,0.262369,-0.285645,0.488037,0.809814,0.850676,5.178447,10.424959,0.567163,-1.516904,-0.110264,0.54248,-0.027832,-0.165283,1.2031,6.682767,10.588361,2.075586,-0.373089,0.772587,0.199463,-0.120605,-0.593994
-5.083946,5.958846,8.791678,-0.419773,0.843756,-0.123932,0.356201,0.067139,-0.602783,-3.925324,2.587821,8.616392,0.648581,0.344024,0.15492,-0.578857,0.009033,-0.486572,0.078287,2.036576,9.060864,0.687274,0.212798,-0.25547,-0.282471,0.480957,0.801758,2.935149,0.63207,8.854195,-0.535817,-0.851974,-0.054669,0.547607,-0.028076,-0.158691,1.209951,2.539042,9.431299,-0.664591,-0.349956,1.458876,0.18457,-0.106201,-0.595215
-4.154462,4.344245,7.769296,-1.16009,1.689218,-0.096443,0.399414,0.081299,-0.592529,-0.388744,3.080835,9.111861,1.184584,-0.221285,-0.023523,-0.582275,-0.005615,-0.485596,-0.206725,2.22498,9.428811,1.194282,0.477191,0.145201,-0.300537,0.491943,0.787109,1.420386,-0.007413,8.975027,1.873532,-0.647169,-0.034211,0.539062,-0.044189,-0.158691,1.511898,-2.1314,8.744958,0.873579,-0.465635,1.156782,0.183838,-0.121826,-0.587158
-8.272741,2.42613,8.004512,-1.89287,1.196305,-0.050334,0.412109,0.114746,-0.588135,-1.008159,5.521119,9.603764,1.531877,0.656192,0.060603,-0.56665,-0.037842,-0.498779,-0.056206,2.829046,9.425819,1.723802,0.30387,-0.076505,-0.311768,0.508545,0.771973,2.080497,4.370001,9.183756,2.540751,-1.644356,0.064276,0.52832,-0.062256,-0.165771,1.938399,2.114278,10.629034,2.799765,-0.717224,0.846364,0.160156,-0.166504,-0.579834
-6.04389,-2.141643,5.920414,-0.554555,0.687365,0.175259,0.416992,0.122559,-0.580566,-1.161857,5.562233,11.199916,0.610348,0.101456,-0.279852,-0.547363,-0.05835,-0.485596,0.270957,4.398494,9.485324,2.393906,0.79211,0.144975,-0.329102,0.54541,0.736084,3.825606,4.891632,8.809072,1.047249,-1.096825,-0.194431,0.512695,-0.058838,-0.172607,3.604125,4.333643,10.434553,1.240733,-0.679753,0.811818,0.134277,-0.185303,-0.572021
-7.67539,4.728062,8.847339,0.93292,0.77202,0.356687,0.422363,0.112305,-0.572998,-1.169124,2.257097,9.432037,0.876583,0.783743,0.090065,-0.538818,-0.05542,-0.47998,-1.489463,7.598779,9.554887,2.16781,1.138037,-0.571476,-0.343506,0.560059,0.698975,2.636487,4.500986,8.526839,0.663976,-0.706313,0.046752,0.512695,-0.071289,-0.178467,1.821091,0.867563,8.378445,0.86462,-0.225956,1.000931,0.115723,-0.190186,-0.575439
-7.409622,4.604275,8.115862,-1.960475,0.224777,0.037607,0.435303,0.138672,-0.575439,-2.231072,4.308182,9.072923,2.985335,0.169024,-0.112243,-0.52832,-0.119141,-0.473145,-1.552535,7.715903,9.267589,-0.616461,0.543815,-0.121973,-0.340576,0.527588,0.693359,2.064687,4.094266,8.648398,-0.043704,-1.23699,0.033127,0.505615,-0.077637,-0.177002,1.328871,3.798537,8.679623,2.441837,-1.152462,0.213298,0.097656,-0.228271,-0.566406
-6.611964,-2.288062,6.013306,-1.043121,0.262408,0.200361,0.442871,0.148438,-0.562012,-0.40922,7.957979,8.867509,2.939354,0.827315,0.101256,-0.503418,-0.144287,-0.460205,-1.984487,3.55471,9.258796,-1.542037,0.394543,0.091339,-0.332275,0.475098,0.679443,3.589195,3.618239,8.734865,0.477245,-1.243712,-0.072762,0.49292,-0.084229,-0.186523,4.072625,6.753081,10.160067,0.008762,-1.097057,0.63333,0.077148,-0.231934,-0.55542
-7.194082,2.018619,7.511376,0.707805,0.037452,0.44948,0.440918,0.128174,-0.562988,-3.958178,5.174831,6.895764,1.564614,0.60232,0.015504,-0.487305,-0.175049,-0.452148,-0.804897,0.975108,8.37052,-0.231087,0.497747,-0.185565,-0.328613,0.448975,0.665283,2.932995,3.825375,9.144036,0.182305,-0.863841,0.298059,0.481934,-0.091309,-0.182373,1.79017,2.454288,8.792328,-0.509841,-0.456605,0.468318,0.05957,-0.225342,-0.559082
-5.84042,4.631596,8.273165,0.016747,0.135142,0.355282,0.447021,0.127686,-0.553711,-0.981555,5.118587,7.326452,2.318368,0.389869,-0.341465,-0.475342,-0.214111,-0.430664,-1.732343,2.231784,8.765339,1.469356,1.120584,-0.106278,-0.341309,0.449219,0.633057,3.069902,2.524283,8.61246,-0.122418,-1.333041,-0.160579,0.471924,-0.09082,-0.191406,2.292004,1.390606,8.181974,0.752033,-1.40509,0.061351,0.0354,-0.233154,-0.546631
-6.891184,4.550106,8.095026,-1.160627,-0.003534,0.240851,0.447754,0.142822,-0.558594,-3.624842,5.427802,6.346135,4.179133,0.706852,-0.046559,-0.455078,-0.266602,-0.409424,-2.546067,5.033183,9.932645,1.14488,0.925143,-0.532142,-0.346924,0.448975,0.614258,4.775023,2.168551,8.771118,0.332386,-1.327075,0.225542,0.466553,-0.088135,-0.189453,4.770898,3.966912,8.994349,1.272419,-1.158951,0.447006,0.011963,-0.24707,-0.542969
-6.52884,1.12271,7.408945,-1.456549,0.238774,-0.041234,0.456543,0.179688,-0.547607,-1.973899,8.646501,6.623394,3.113257,0.254252,-0.577823,-0.440186,-0.306885,-0.377686,-2.464378,4.983831,10.539289,-0.891813,0.403975,-0.019485,-0.338867,0.394531,0.605469,4.899755,2.419196,9.585901,-0.337991,-0.946248,0.103555,0.45166,-0.104736,-0.193848,3.646743,4.501312,9.0214,-0.194327,-0.793183,0.223832,-0.001709,-0.230469,-0.534424
-5.885162,-0.40636,6.947631,-0.47128,0.008382,-0.022315,0.456543,0.178223,-0.545166,-3.300758,5.958321,5.807835,2.634303,0.569335,-0.070104,-0.423828,-0.330322,-0.347168,-2.030011,2.0078,10.311002,-2.288775,0.407424,-0.510106,-0.335449,0.313965,0.603027,5.100674,1.377402,9.534963,-1.262001,-1.12274,0.452342,0.43042,-0.11377,-0.197998,4.607701,1.879687,8.358739,-0.481717,-1.339553,0.650524,-0.032959,-0.22998,-0.533203
-6.505484,3.256094,8.544441,0.839139,0.37549,-0.018511,0.460693,0.166748,-0.544189,-3.480006,4.836243,3.820165,4.173962,-0.041931,-0.664339,-0.409424,-0.379395,-0.294678,-2.602859,-0.314885,9.904794,-2.056592,0.410427,-0.547692,-0.325195,0.226562,0.606445,5.574269,0.444486,8.730383,-1.671908,-0.758998,0.740277,0.413818,-0.135986,-0.196045,5.542403,3.446752,7.761352,0.339856,-1.048954,0.264353,-0.059814,-0.232422,-0.530273
-6.559618,7.535682,9.45379,-1.626319,0.229175,-0.229942,0.467529,0.188232,-0.531494,-3.827178,6.638598,3.061242,5.501175,-0.053785,-0.381084,-0.397949,-0.421387,-0.21875,-2.53453,-0.502231,9.614951,-1.874564,0.275977,-0.926569,-0.318115,0.131592,0.596436,5.206343,0.058481,8.867104,-1.933536,-0.695705,1.037021,0.387207,-0.16333,-0.19751,4.551947,6.065117,8.278005,-1.309066,-0.893886,0.635349,-0.08374,-0.216064,-0.522705
-6.528885,-2.25491,5.777373,-2.87842,0.26072,-0.22238,0.470947,0.229736,-0.525635,-4.117777,7.754523,1.216165,6.443673,-0.749483,-0.800224,-0.383301,-0.47168,-0.119629,-2.777354,0.257351,10.292535,-1.68641,0.47946,-0.760096,-0.300049,0.039551,0.574951,5.601481,-0.219299,9.376963,-1.76059,-0.948387,1.103147,0.365967,-0.1875,-0.207764,5.456182,2.105036,8.235493,-3.104898,-1.311802,0.699055,-0.115723,-0.173584,-0.525391
-5.999462,-1.848214,5.946072,0.38112,0.243078,0.040368,0.47998,0.226074,-0.524658,-3.748144,6.154104,-0.288437,6.61267,-0.904131,-0.454738,-0.356689,-0.496094,-0.023438,-4.215854,0.911914,10.060615,-1.574026,0.325035,-0.788018,-0.282715,-0.060547,0.549805,6.266622,0.582085,9.424961,-1.349873,-0.50961,1.135315,0.326172,-0.225342,-0.212891,5.961659,-0.864919,6.288606,-1.443275,-0.921544,0.675304,-0.132324,-0.146484,-0.523926
-7.225022,4.996966,8.49292,-0.527251,0.467148,-0.533169,0.485352,0.227783,-0.511963,-4.155391,5.712507,-3.240033,8.724086,-1.177151,-0.294415,-0.358643,-0.502197,0.121094,-3.458316,1.26346,10.429588,-1.76953,-0.037161,-0.64815,-0.250977,-0.138672,0.497803,5.579933,0.621627,9.109708,-1.798894,-0.511822,1.086049,0.287354,-0.232178,-0.228516,5.201037,2.14008,8.0359,-0.651297,-1.00569,0.454554,-0.161865,-0.144775,-0.512939
-5.118389,-0.03378,5.694972,-2.09453,0.456701,-0.871417,0.491943,0.281006,-0.502197,-2.758853,7.785313,-6.000949,9.964691,-1.114023,0.283659,-0.352051,-0.466064,0.265137,-3.853177,1.248912,10.419716,-1.410968,0.265628,-0.654449,-0.213867,-0.216797,0.430664,6.506423,-0.35577,9.028794,-1.665955,-0.502345,0.838653,0.24292,-0.253174,-0.245361,7.385253,2.125542,7.4205,-2.02659,-1.135102,0.877701,-0.186279,-0.09668,-0.509521
-6.332306,-1.13492,5.382411,-1.579314,1.260924,-0.908346,0.514893,0.30835,-0.485352,-3.09489,9.181167,-9.092324,9.888763,-0.598379,0.5979,-0.344727,-0.384033,0.387695,-5.107819,1.036263,9.397217,-1.618332,0.263947,-0.803609,-0.173096,-0.292236,0.334717,5.921573,-0.044795,8.974234,-0.984702,-0.172354,0.925929,0.197754,-0.274902,-0.270508,6.410338,-1.13767,6.473875,-1.90899,-0.313454,0.858076,-0.197754,-0.069336,-0.507812
-7.872158,-2.697642,4.643385,-2.147463,1.068014,-0.708013,0.533203,0.339355,-0.478027,-4.110325,9.560651,-8.744958,8.826676,-0.463983,0.960578,-0.336914,-0.283691,0.468994,-5.213924,-0.554069,8.960554,-1.253324,-0.277652,0.007765,-0.149902,-0.337402,0.255127,5.303175,0.256485,9.399886,-0.692008,-0.017288,0.261935,0.141846,-0.287109,-0.269775,5.533601,-1.292179,6.414677,-0.912687,-0.778164,0.468818,-0.212158,-0.058838,-0.510986
-10.600056,-6.005053,4.699104,0.094157,0.920036,-0.204759,0.540039,0.336182,-0.459961,-5.180774,8.544851,-13.468069,7.539675,-0.661591,0.858281,-0.327393,-0.176514,0.531982,-4.708382,-0.276455,11.125857,0.454945,0.090973,-0.376708,-0.116455,-0.353516,0.169678,5.152987,-0.30959,9.098416,-0.536498,-0.062027,0.180697,0.096191,-0.288818,-0.289307,7.985375,-1.348874,6.592986,-0.717267,-0.434161,0.863442,-0.23877,-0.050781,-0.496094
-10.606601,1.04579,7.061096,0.907402,0.162416,0.11351,0.552979,0.327637,-0.460205,-4.58193,9.730195,-11.273107,5.819326,-0.829516,0.758869,-0.293213,-0.104248,0.558838,-3.882539,3.040964,10.737663,1.242568,0.38694,-0.487501,-0.08374,-0.364014,0.092041,5.749038,-0.285186,8.928174,0.043956,-0.073221,-0.255267,0.05249,-0.290039,-0.301758,5.814332,-1.418019,7.234972,-0.127455,0.439778,0.558911,-0.238037,-0.040039,-0.502441
-9.038076,-1.76243,4.666728,-1.857504,0.401364,0.085217,0.56543,0.351074,-0.448242,-3.030622,9.096324,-10.790235,2.547034,-0.314685,0.493186,-0.256104,-0.060059,0.564453,-5.252609,4.461145,10.291705,0.104785,0.677313,-0.5827,-0.054443,-0.375244,0.004883,6.234298,1.437129,9.637781,0.101949,0.220814,-0.160719,0.010498,-0.302979,-0.31543,5.954984,-0.044687,6.959865,0.204296,-0.217505,1.007568,-0.250244,-0.034668,-0.499756
-12.177991,-8.928189,3.22033,1.078154,-0.264247,0.205429,0.570801,0.326416,-0.456055,-5.822666,5.946779,-10.225569,0.776221,-0.090835,0.067852,-0.223877,-0.054199,0.580322,-5.153046,1.475104,10.759552,-1.624355,-0.18365,-0.134162,-0.032715,-0.357422,-0.088135,6.089882,1.665868,8.862132,-0.19103,0.165708,-0.445725,-0.029541,-0.293701,-0.328857,7.18007,1.08443,7.515443,-0.323097,0.326146,0.634009,-0.254639,-0.037354,-0.50708
-8.194994,2.78275,7.258045,3.349526,-0.646924,0.309024,0.571045,0.281982,-0.474854,-3.9415,5.44861,-9.632257,-0.06836,-0.608455,-0.272453,-0.182617,-0.062012,0.591309,-3.398294,-2.972088,10.15322,-0.611806,0.046862,0.606032,-0.010254,-0.34668,-0.162598,6.635812,0.657643,9.165985,0.613808,0.363665,-0.693379,-0.055908,-0.298584,-0.338379,6.604379,-0.992896,8.341409,-0.809297,0.515395,0.866482,-0.257568,-0.01123,-0.516357
-9.227761,4.331891,8.572099,-1.099436,-0.28692,-0.184156,0.581055,0.294434,-0.470703,-4.618047,2.661453,-9.776009,0.238511,-0.055113,0.011908,-0.147461,-0.059326,0.588135,-4.005312,-1.940678,8.326633,2.712847,0.866453,0.123386,-0.00293,-0.343506,-0.206299,6.07232,1.232868,9.021119,1.432177,0.500865,-0.554946,-0.10791,-0.307861,-0.339355,6.450283,-2.909822,6.874598,0.912987,0.466334,0.305012,-0.256104,-0.030518,-0.517578
-7.957335,-6.621121,4.004427,-0.598678,-0.320817,-0.06121,0.563477,0.302246,-0.468994,-4.22397,5.518522,-8.717882,0.883937,-0.326543,-0.32458,-0.115479,-0.057129,0.606445,-5.360275,3.798187,9.781513,3.450173,0.825972,0.291117,0.02832,-0.351562,-0.240479,5.846257,2.233831,9.367516,1.127537,0.509742,-0.865573,-0.122314,-0.313721,-0.352051,6.521964,1.280615,7.848287,2.339742,0.602175,-0.14688,-0.281738,-0.064697,-0.525146
-9.443653,-2.018497,5.689808,1.906348,-0.522814,-0.137556,0.574707,0.276367,-0.481934,-4.485862,5.298085,-7.643671,-0.97371,-0.050221,-0.511998,-0.085693,-0.092285,0.606689,-4.748679,5.585793,11.224143,0.923514,0.107112,0.520273,0.044434,-0.345947,-0.29248,5.706042,1.236586,9.034857,0.769084,0.62322,-0.705391,-0.141113,-0.313232,-0.366943,6.364749,2.847247,8.794366,0.631371,0.714309,0.168762,-0.268066,-0.07373,-0.53418
-5.436349,2.254694,7.290207,0.816008,-0.334465,-0.490817,0.584473,0.269287,-0.48877,-3.161132,3.028047,-8.557434,-0.384542,-0.034634,-0.913461,-0.051758,-0.102051,0.613281,-4.080195,1.312503,8.942957,-1.08651,-0.003084,0.879549,0.042969,-0.324219,-0.347412,5.654105,0.849505,8.987799,1.502864,0.588079,-0.820719,-0.171875,-0.321289,-0.374756,5.896455,-0.559914,7.800684,0.412126,0.866997,0.033478,-0.261475,-0.081299,-0.545166
-7.629119,-0.013159,7.432138,-0.24439,0.049253,-0.506889,0.580322,0.280029,-0.493408,-3.992698,4.594101,-7.671059,-0.831428,0.512444,-0.637161,-0.040527,-0.116455,0.61377,-4.748808,-2.58373,8.586833,0.323169,0.026112,0.792564,0.057373,-0.308105,-0.385498,5.513597,2.667715,9.12142,1.661893,0.815287,-0.399036,-0.1875,-0.32666,-0.377197,5.360714,0.532731,8.03328,2.269233,0.587533,-0.089673,-0.277588,-0.111572,-0.552246
-6.924686,-1.359672,6.577564,0.486667,0.065847,-0.253783,0.592773,0.281006,-0.489258,-5.036865,2.857572,-8.711672,-1.864311,0.005516,-0.608339,-0.004639,-0.150879,0.618408,-4.014427,0.083781,9.354357,2.598989,0.192647,0.418525,0.074707,-0.328613,-0.406494,3.975365,2.521718,9.322615,0.491356,1.116031,-0.392491,-0.186523,-0.331299,-0.39624,5.90796,4.354681,7.774838,1.751083,0.767774,-0.572964,-0.271729,-0.13623,-0.55542
-8.408515,0.232001,6.205652,0.48904,-0.057097,0.033708,0.607666,0.270508,-0.491455,-3.876283,3.184338,-9.175302,-1.251253,0.140608,-0.334825,0.010986,-0.184326,0.617676,-3.691384,4.962199,9.284701,2.105321,0.362545,0.214374,0.080078,-0.341064,-0.431152,4.607239,0.393101,9.279795,0.039235,0.591389,-0.206737,-0.214111,-0.321289,-0.417236,4.197693,3.428303,7.988559,0.364711,1.149906,-0.108132,-0.25293,-0.14917,-0.564697
-5.748506,-1.136222,6.378499,0.356007,-0.102486,0.101545,0.602051,0.269531,-0.499268,-3.379465,4.921982,-8.038131,-2.346014,0.153,-0.404022,0.026611,-0.230225,0.612549,-3.855128,5.35994,9.647782,-0.899648,-0.159067,0.160319,0.095215,-0.31543,-0.473145,5.703428,1.015885,7.933426,0.6032,0.882056,0.121463,-0.218506,-0.315186,-0.436279,4.957185,2.028983,8.563449,0.625009,0.531919,-0.021726,-0.266357,-0.154053,-0.57251
-6.076252,1.253472,7.525903,1.069689,0.124083,0.340917,0.619141,0.255127,-0.497314,-2.591606,1.918227,-8.369999,-2.683557,0.248387,-0.167237,0.046387,-0.283203,0.609131,-3.219356,1.245367,8.40479,-2.44625,-0.602972,0.4353,0.094971,-0.289551,-0.531982,3.54652,2.898902,8.65762,0.052613,1.352224,0.209555,-0.222412,-0.31543,-0.472168,5.930031,3.928755,8.593281,0.562428,1.027538,0.037549,-0.251709,-0.153809,-0.585693
-6.220943,1.60857,6.554645,-0.136172,0.16423,0.184477,0.630615,0.247559,-0.509766,-3.847222,2.596714,-7.406793,-1.252221,0.198861,-0.121851,0.063477,-0.306885,0.596436,-1.851918,-1.625926,7.40156,-1.045977,-0.337841,0.153273,0.097656,-0.26709,-0.560547,3.009067,2.163764,7.722922,-0.854637,0.639219,0.385274,-0.233643,-0.294434,-0.489502,3.439865,3.049805,8.595467,-0.972816,1.195261,0.311682,-0.239746,-0.147217,-0.609863
-5.529667,-2.538709,5.437667,0.39535,0.053539,0.503101,0.633301,0.239746,-0.507324,-2.273514,2.711844,-7.627325,-0.923688,-0.066564,0.185663,0.072021,-0.331299,0.591064,-2.046481,0.686303,6.830681,0.926896,0.259414,-0.034126,0.110352,-0.266113,-0.573486,4.104705,0.625831,6.900833,-0.590196,0.798202,0.384063,-0.23999,-0.272705,-0.50708,3.820377,0.249761,7.547717,-0.655673,0.532441,0.146129,-0.244873,-0.130127,-0.615967
-5.254748,1.507843,7.490699,1.567755,0.270154,0.581105,0.643799,0.217285,-0.50415,-2.775405,3.846987,-6.689157,-0.076422,0.125424,0.185048,0.08252,-0.342041,0.594727,-2.60859,4.232172,7.151384,0.684049,0.037016,0.004483,0.117676,-0.26123,-0.586182,2.311367,0.918735,6.665676,-0.064092,1.117037,0.347763,-0.23877,-0.257568,-0.525879,3.873093,0.874957,7.602111,0.114761,1.025028,0.004094,-0.233154,-0.123291,-0.624756
-5.560701,5.257547,8.33946,0.365316,0.401147,0.256666,0.653809,0.21582,-0.500977,-1.795386,5.351035,-6.309268,-0.648006,-0.111234,0.019143,0.083008,-0.349609,0.586426,-2.168453,4.353667,7.427915,-1.124937,-0.087698,0.102501,0.123779,-0.247559,-0.613281,1.593996,1.90742,6.909779,-0.123325,0.453208,0.207505,-0.240479,-0.255127,-0.544678,2.444837,1.591569,8.205833,-0.470267,0.683523,0.320968,-0.228027,-0.109375,-0.63208
-7.247659,2.241641,6.828034,-1.657018,0.625023,-0.177373,0.669434,0.238037,-0.494873,-2.713521,4.184506,-8.305718,-0.781214,0.270962,-0.152077,0.099121,-0.369385,0.58252,-2.383281,1.382491,7.437054,-1.758007,-0.066291,0.138328,0.125488,-0.212891,-0.641357,2.328285,1.944157,6.269395,-0.511115,0.440199,0.269582,-0.249268,-0.240723,-0.564209,2.8999,0.063743,7.373635,-0.631873,0.574372,0.343316,-0.224609,-0.098145,-0.64209
-6.308283,-4.089099,4.921152,0.716282,-0.205613,-0.069732,0.670166,0.231934,-0.50293,-3.188219,4.447525,-7.876236,-0.405854,-0.378969,-0.271957,0.108398,-0.384521,0.58374,-0.533397,0.030198,6.218557,-0.650741,0.060259,0.036087,0.135498,-0.195801,-0.644287,2.556907,1.403867,6.284744,-0.397748,0.278395,0.330714,-0.250244,-0.227051,-0.563232,1.581037,0.605175,7.436571,0.042989,0.623693,0.107349,-0.223633,-0.096436,-0.656006
-5.403803,7.051188,8.573952,1.470495,0.447475,0.056779,0.682861,0.210205,-0.48877,-0.860922,4.702391,-7.718383,-0.598648,-0.104359,-0.152321,0.121582,-0.397461,0.578369,-2.337495,0.93606,6.805786,0.355733,1.165062,-0.049089,0.156006,-0.202148,-0.657471,2.61934,1.278241,7.271299,-0.175207,0.402903,0.295046,-0.254883,-0.225342,-0.582764,3.156082,1.539607,7.960191,-0.30488,-0.150849,-0.003593,-0.228027,-0.090576,-0.645996
-7.944625,1.631418,6.248692,-1.810063,-0.065352,-0.132546,0.68457,0.234375,-0.497314,-4.513456,3.3803,-8.652257,-0.513463,-0.291707,-0.20512,0.146484,-0.414307,0.577148,-4.670828,3.280921,8.755923,0.689873,0.65209,-0.253085,0.188965,-0.21167,-0.664795,1.126139,1.373985,7.504775,-0.301266,0.509509,0.307465,-0.23877,-0.220459,-0.599854,3.46436,0.237949,7.20511,-0.589367,0.614504,-0.077926,-0.226562,-0.082275,-0.662109
-6.810745,-3.594306,4.650981,0.476399,-0.447129,0.055779,0.697021,0.227783,-0.509033,-2.693819,5.29136,-7.567179,-0.102595,-0.747832,-0.506346,0.158936,-0.420166,0.569824,-1.75588,4.339679,7.150563,-0.611897,0.375361,-0.103196,0.189209,-0.193115,-0.673584,1.751754,0.774241,7.073026,-0.32844,-0.174604,0.056781,-0.259033,-0.205322,-0.604248,0.612413,-0.004129,7.628042,-0.09629,0.297081,-0.162818,-0.210205,-0.086426,-0.670654
-4.039188,2.897958,7.089271,2.032992,-0.049322,0.322662,0.688477,0.19873,-0.509033,-2.584098,3.699664,-6.859559,-1.000939,-0.172226,-0.105745,0.159912,-0.438721,0.564697,-4.744106,0.87228,5.494481,-1.375848,1.416654,-0.010532,0.216553,-0.165039,-0.683594,2.94134,0.864387,7.900463,0.373603,0.262772,0.021628,-0.259521,-0.208984,-0.615234,3.472569,0.466924,7.568745,-0.091088,-0.36171,0.032127,-0.23291,-0.077637,-0.670166
-9.175866,4.936699,8.199958,-0.741315,0.072547,0.191573,0.69458,0.212402,-0.516602,-5.32479,3.166102,-7.106842,-0.054067,-0.461143,-0.566032,0.189941,-0.435547,0.566895,-6.214373,-0.246062,7.741399,0.443313,0.178477,-0.128879,0.228271,-0.176025,-0.685059,1.299618,2.588501,8.733253,0.452213,0.530356,-0.058705,-0.253174,-0.220215,-0.62085,2.91246,0.128084,7.18511,-0.001469,0.709758,0.002617,-0.225342,-0.077148,-0.682861
-5.124963,2.532564,7.151077,-0.544443,-0.350606,0.159883,0.696533,0.212646,-0.516846,-4.201361,5.303768,-6.475144,-0.374741,-0.844252,-0.650823,0.214844,-0.438721,0.55249,-3.09578,3.350823,9.077557,1.040464,0.879404,-0.393573,0.242432,-0.186768,-0.692383,1.903132,3.050941,9.531712,-0.30008,0.013293,-0.008392,-0.263428,-0.216553,-0.638916,1.043251,1.272573,7.466843,0.524873,0.089687,-0.005231,-0.222412,-0.094727,-0.680664
-7.174873,2.373083,6.848221,-1.042877,0.778689,-0.147788,0.701416,0.232422,-0.515381,-4.448908,2.957717,-6.816164,-0.809594,-0.241357,-0.452197,0.224854,-0.462646,0.541748,-7.098711,3.453845,8.596656,-0.558754,1.342032,-0.209691,0.269775,-0.17749,-0.686523,4.219543,1.843025,9.458408,-0.340648,0.217889,-0.014931,-0.264893,-0.212402,-0.644287,3.621513,3.261098,7.964902,0.174217,0.061844,-0.096018,-0.235352,-0.100342,-0.692871
-6.30037,1.098989,6.865144,-0.101739,0.466637,-0.086627,0.713379,0.235107,-0.505371,-5.82146,4.163281,-6.154905,0.642085,-0.484658,-0.416076,0.240967,-0.443604,0.549316,-5.370599,1.336334,7.98656,-1.028254,-0.647918,0.34515,0.264893,-0.157715,-0.705566,4.174768,1.951194,8.739902,0.288518,0.998969,0.071564,-0.247559,-0.209961,-0.656006,3.939956,2.212078,7.630465,-0.66735,0.63735,0.005574,-0.224365,-0.091797,-0.695312
-6.428532,4.877888,8.175317,-0.4087,1.164071,-0.376306,0.739746,0.250977,-0.494385,-3.510174,5.525151,-6.415984,-0.252865,-0.573333,-0.360795,0.258545,-0.453125,0.542725,-2.50096,1.004775,8.653163,-0.123908,0.763059,-0.094139,0.279053,-0.156494,-0.705566,1.630403,2.890188,9.395775,-0.023294,1.134552,0.188213,-0.230957,-0.213623,-0.671387,3.678259,0.994636,7.200508,0.167205,0.619194,-0.099527,-0.211426,-0.090332,-0.708496
-8.187188,-0.164891,5.361937,-2.225889,1.055404,-0.442865,0.755859,0.287598,-0.475342,-5.360798,4.772071,-7.739422,-0.040049,-0.231957,-0.416804,0.273926,-0.462402,0.546387,-6.446252,2.049355,9.112998,0.61962,1.152726,-0.197593,0.30249,-0.159668,-0.695312,1.920264,1.77105,8.733929,-0.548824,0.579741,-0.081198,-0.225098,-0.199707,-0.675537,2.843926,2.929925,8.106373,0.350621,0.984615,-0.25361,-0.196533,-0.105225,-0.717773
-8.417172,-1.450015,4.630175,1.027888,0.854027,-0.706227,0.765381,0.282959,-0.459717,-4.325349,6.822318,-7.585726,0.232322,-0.434711,-0.588288,0.288574,-0.452393,0.547363,-3.893201,3.181848,8.454526,-0.217131,-0.076417,0.220759,0.307861,-0.153809,-0.715088,3.361806,1.010028,8.033901,0.312256,0.896603,0.056384,-0.211182,-0.204834,-0.700439,2.394739,2.48281,8.193353,-0.693107,0.771539,0.251225,-0.186768,-0.091309,-0.71875
-8.304229,5.596844,7.392339,0.255258,0.508806,-0.863793,0.772705,0.296143,-0.469971,-4.682362,5.490914,-8.132014,-0.711149,-0.28577,-0.450236,0.302734,-0.461182,0.540283,-3.367258,1.692404,8.7803,-0.876931,1.167305,0.1675,0.328369,-0.136963,-0.704346,2.10136,2.965606,9.044391,0.709926,1.282,0.193916,-0.19043,-0.213379,-0.697998,2.973817,-0.031174,7.184447,-0.139006,0.967552,0.083361,-0.169189,-0.088135,-0.743896
-7.096602,3.316641,7.455562,-0.615739,0.36349,-1.04754,0.780518,0.323486,-0.454834,-4.781888,4.437084,-8.754333,0.170385,-0.745613,-0.56069,0.326904,-0.464111,0.533936,-5.789429,1.352149,8.947119,0.061215,0.912884,-0.101271,0.355957,-0.139893,-0.705811,2.226483,3.374169,9.705971,-0.571647,0.829732,0.217514,-0.166748,-0.208008,-0.716553,1.89458,2.219944,8.10938,1.058192,1.048968,-0.314048,-0.150879,-0.109375,-0.742188
-8.609716,0.341936,3.717744,-2.305376,0.31277,-1.090083,0.790527,0.364746,-0.446045,-3.9015,6.270989,-8.633852,-0.414369,-0.483727,-0.43415,0.338135,-0.47168,0.521729,-4.832859,3.44922,8.482021,0.216264,0.967355,-0.169523,0.375488,-0.130615,-0.696045,2.350827,0.763165,9.621704,-1.042365,1.545392,0.170313,-0.143799,-0.17749,-0.727783,3.138609,4.493815,8.759942,-0.247854,0.728189,-0.16812,-0.127197,-0.114258,-0.756348
-8.045907,-4.486643,3.816041,0.715539,-0.203323,-0.430722,0.782471,0.372559,-0.453613,-6.261641,3.772969,-8.495295,-1.236335,-0.541179,-0.366401,0.353271,-0.485107,0.514893,-6.856188,3.579563,8.331499,-0.670552,1.090252,-0.281977,0.396484,-0.110352,-0.69165,0.70906,0.726281,9.737215,0.274741,1.266773,0.180346,-0.123291,-0.180176,-0.73584,2.130792,1.580376,8.607495,-1.331086,1.661175,0.266893,-0.099121,-0.085693,-0.765137
-7.738186,6.07727,7.354302,0.267971,-0.499799,-0.445228,0.776367,0.378906,-0.458496,-4.979097,4.301017,-7.548722,-0.806565,-0.864691,-0.461096,0.375,-0.509033,0.481445,-6.631168,2.46798,7.891274,-0.707658,0.436109,-0.041828,0.402832,-0.094238,-0.696777,1.821238,3.227389,11.238917,0.454434,1.013789,-0.051032,-0.110352,-0.181641,-0.746338,0.902091,-0.308652,8.885049,-0.299129,0.963712,0.278951,-0.081543,-0.074707,-0.772949
-7.132123,-2.605889,3.871376,-2.197729,-0.053206,-0.166495,0.771484,0.418213,-0.455322,-5.767157,4.759744,-6.064429,-2.304493,-0.361146,-0.235822,0.383057,-0.530273,0.451416,-6.62023,1.637967,7.469584,-0.023941,0.658423,-0.07734,0.417236,-0.09375,-0.690674,2.063937,3.285641,11.267765,-0.046833,1.537437,-0.321611,-0.075439,-0.1875,-0.752441,2.844642,1.379507,9.802134,0.374692,1.276307,0.263165,-0.060303,-0.07959,-0.781494
-7.776071,-2.437926,4.499304,0.934117,-0.297912,0.181881,0.771729,0.397949,-0.460693,-6.368984,2.048508,-6.449228,-2.071592,-0.648632,-0.35625,0.400146,-0.550781,0.418945,-7.417418,2.40993,8.358928,1.39261,0.359056,0.154337,0.42627,-0.119385,-0.692627,0.220757,2.56624,10.26524,0.617089,1.701557,-0.461508,-0.040283,-0.199707,-0.761963,1.482734,1.730836,10.889525,-0.139572,1.731463,0.626783,-0.027588,-0.081055,-0.788574
-7.503991,4.32155,6.996906,-0.347667,0.004019,-0.022247,0.77417,0.402344,-0.462646,-5.413154,4.211941,-4.504094,-1.073624,-0.254717,-0.364296,0.408691,-0.560791,0.400635,-5.041752,4.637697,7.223324,1.570663,0.114026,0.135899,0.431641,-0.146973,-0.683594,-0.419736,3.48959,9.186223,1.440182,1.296979,-0.60989,-0.011963,-0.227051,-0.758545,0.381728,0.346089,9.738445,0.599289,1.546228,0.418914,0.002686,-0.098877,-0.797607
-6.189856,-2.287055,4.583058,-1.627376,0.300838,-0.354364,0.778809,0.430908,-0.444336,-4.951536,2.328842,-6.139273,-1.160922,0.092096,-0.103459,0.412598,-0.570557,0.378174,-6.535006,3.341763,6.379933,0.974014,0.868248,0.55869,0.453369,-0.169434,-0.676025,-0.597614,3.781255,9.010307,1.696586,1.494009,-0.915111,0.028076,-0.259521,-0.754883,0.081886,1.919143,9.949427,1.526291,1.645705,0.293331,0.040771,-0.129395,-0.795898
-9.464834,-0.85062,6.057082,0.563514,0.53254,-0.110353,0.793701,0.426758,-0.444824,-6.953271,3.580275,-6.360076,1.178443,0.268212,-0.422452,0.42749,-0.562744,0.403564,-6.447593,2.175879,6.061302,2.529428,-0.119237,0.587054,0.437744,-0.205566,-0.669434,-2.092751,3.127343,8.147523,2.163205,1.406109,-0.993846,0.05127,-0.293213,-0.75,-1.316575,1.706068,9.761564,1.466564,1.630819,0.28444,0.079346,-0.162842,-0.795654
-6.736405,1.685533,5.528639,-1.412322,-0.257668,-0.341476,0.779785,0.463135,-0.439453,-4.805324,5.527912,-6.595107,0.282031,-0.157253,-0.392388,0.42749,-0.553955,0.41333,-3.123431,4.800745,5.651595,3.594526,0.550653,0.222265,0.457275,-0.272705,-0.649658,-1.221527,3.963081,6.92054,3.007168,0.828209,-1.178012,0.08374,-0.358398,-0.735596,-1.802086,1.852121,8.870682,2.924032,1.226262,0.130306,0.091064,-0.217285,-0.79126
-7.364247,-6.027168,3.492445,-0.743065,0.324881,0.190773,0.794922,0.462646,-0.440186,-4.619114,2.411013,-7.243599,0.169543,0.500692,-0.480035,0.426758,-0.544922,0.403076,-7.094958,5.352829,4.513138,2.727151,1.406646,0.301332,0.473145,-0.317871,-0.60376,-2.092118,5.239542,7.65361,2.693764,1.608037,-1.119382,0.115967,-0.405518,-0.703369,-0.577543,5.423617,8.310787,3.419464,1.008598,0.191795,0.121582,-0.298584,-0.778809
-7.476032,0.14242,5.207162,1.330151,-0.336937,0.647904,0.787842,0.436279,-0.437744,-6.797708,3.111833,-7.532953,1.497728,0.182349,-0.237757,0.432373,-0.530518,0.432373,-7.245436,4.392725,4.851414,2.525957,-0.085153,0.42192,0.466553,-0.356934,-0.60083,-4.523801,4.357998,6.653793,2.241087,1.056701,-1.178439,0.143555,-0.440674,-0.692139,-2.672497,5.388389,8.942694,1.997692,1.501959,0.00434,0.143066,-0.338135,-0.749512
-8.446099,1.973255,6.550275,-1.03615,-0.421578,0.768296,0.78833,0.443359,-0.450684,-5.602968,5.503225,-5.468823,0.569758,-0.063084,-0.669924,0.445068,-0.516602,0.441406,-3.94568,5.064131,3.676519,2.315071,0.402055,-0.094676,0.479248,-0.391846,-0.577148,-2.955637,4.497024,6.806725,2.328668,0.485483,-1.096253,0.168945,-0.484375,-0.67334,-3.408568,3.37492,7.134168,2.796,0.461957,0.220726,0.147949,-0.393799,-0.740479
-4.938347,-2.601836,4.596354,-0.892105,-0.28118,1.024639,0.796875,0.439209,-0.454102,-5.29414,2.428301,-6.200374,-0.209201,0.140704,-0.323173,0.449707,-0.510742,0.445557,-8.369789,3.97221,4.213299,1.508696,1.437125,-0.194961,0.50293,-0.417725,-0.544434,-4.068263,5.338454,7.045464,1.782943,1.345455,-0.913271,0.205078,-0.517334,-0.648682,-1.582153,7.546992,8.059338,3.469085,0.629908,-0.207686,0.165283,-0.465332,-0.708984
-9.714096,-1.18989,5.132011,0.751084,-0.137837,0.976454,0.805664,0.408203,-0.462402,-7.745529,3.009752,-4.580053,1.018765,0.203571,-0.534396,0.45459,-0.499268,0.458008,-8.378754,3.024077,4.670934,1.595167,-0.366093,0.111382,0.499268,-0.433594,-0.533936,-6.089091,4.525987,6.763138,1.454221,0.538872,-0.982556,0.227295,-0.532471,-0.629395,-3.925716,8.57768,8.550179,1.151282,1.053689,0.221987,0.183105,-0.497314,-0.695557
-6.554277,3.00417,6.485957,-0.325127,-0.294711,0.810781,0.810303,0.407715,-0.459717,-6.795184,3.42731,-3.631059,1.172136,-0.239261,-0.546995,0.472168,-0.484863,0.467285,-3.56475,2.704728,4.702877,1.694219,0.331595,0.120563,0.499756,-0.453857,-0.512207,-2.206302,4.384465,5.278687,2.429513,-0.082748,-0.823212,0.233154,-0.564697,-0.601562,-3.970748,4.14323,6.827607,1.014534,-0.058043,0.298607,0.182373,-0.512695,-0.677734
-6.616164,-0.787015,5.210035,-1.032647,0.115529,0.307822,0.810791,0.421143,-0.451904,-5.57756,1.358677,-4.628617,2.386065,0.02048,-0.478314,0.473389,-0.456055,0.500732,-7.815638,2.592215,4.30744,2.524429,1.572702,0.115862,0.511963,-0.484619,-0.461914,-2.930619,6.921768,6.605085,2.651128,1.591684,-0.581503,0.256348,-0.604736,-0.556641,-0.178099,5.468598,4.80779,3.434375,0.054767,0.075387,0.179199,-0.570557,-0.635254
-7.37461,-0.754287,4.87168,0.171951,0.549624,0.364235,0.814453,0.415039,-0.442871,-7.542883,3.497975,-4.592742,3.663742,-0.01621,-0.2029,0.470215,-0.395264,0.533203,-6.534719,5.498571,4.004934,2.773465,-0.072805,0.191044,0.523438,-0.523193,-0.431885,-5.528206,7.997799,6.445284,1.589807,0.565895,-0.35897,0.283447,-0.631592,-0.531494,-2.528695,10.550149,6.580704,3.012924,0.756176,-0.150565,0.184082,-0.62085,-0.588867
-6.29047,0.877143,5.509667,-0.749553,0.267081,0.135138,0.834473,0.418701,-0.435303,-4.894909,3.785138,-5.18294,3.284373,-0.47309,-0.251358,0.48877,-0.349365,0.552734,-3.480312,7.64973,3.310908,1.064787,0.869395,0.249873,0.525879,-0.530029,-0.411133,-2.448677,7.265068,5.557852,0.522155,0.15245,-0.157281,0.282471,-0.630859,-0.530029,-0.693947,10.002371,7.63985,1.123061,-0.393758,0.225084,0.189209,-0.649414,-0.570068
-6.28861,-2.527723,3.843128,-0.586,0.715042,-0.034745,0.840088,0.436279,-0.425537,-5.426615,3.006565,-6.710987,3.301794,-0.00265,-0.253497,0.493408,-0.303223,0.598877,-8.324066,6.461235,3.258329,-0.613141,1.308877,-0.322962,0.547852,-0.525146,-0.405518,-3.930112,6.613172,6.764944,-0.259565,1.080196,0.218616,0.296387,-0.628906,-0.529053,0.086063,7.714509,6.670296,0.703275,0.794176,-0.350649,0.200928,-0.650146,-0.56665
-7.364013,-0.228695,5.274149,0.762381,0.474561,0.416266,0.851807,0.416748,-0.425293,-6.306668,3.731079,-6.095221,2.121383,-0.262041,-0.13013,0.492676,-0.270264,0.611328,-7.184254,5.229368,2.965817,-1.114041,-0.329394,0.170345,0.541992,-0.516113,-0.422852,-5.433451,5.749406,6.859587,-0.935866,0.123076,0.137283,0.296631,-0.623291,-0.540527,-3.478586,9.067751,7.523316,0.36405,0.514387,-0.441715,0.217529,-0.658203,-0.561279
-8.378336,1.856446,5.036733,-0.687311,0.535028,0.226138,0.862061,0.420898,-0.411621,-6.577168,2.198621,-6.970855,0.892351,-0.297198,-0.225881,0.506592,-0.24707,0.611084,-6.526959,4.682707,3.217052,-1.089804,0.786864,-0.39196,0.552979,-0.495605,-0.425781,-3.556412,5.033528,6.784039,-0.96173,0.219646,0.218298,0.295654,-0.605713,-0.555664,-1.040167,7.76976,7.09755,-1.244541,-0.061634,-0.072227,0.216553,-0.64502,-0.574463
-9.372701,-2.454513,2.9446,0.5472,0.14049,0.278125,0.863525,0.416992,-0.416016,-7.714417,3.163353,-6.507444,0.434605,-0.35145,-0.361604,0.507812,-0.23584,0.614014,-10.312612,5.054786,4.934086,-0.484958,0.655865,-0.409834,0.568604,-0.486572,-0.424805,-5.550413,5.881814,7.465197,-0.722115,0.817641,0.261584,0.30542,-0.599121,-0.556885,-2.83626,5.620627,6.686095,-1.024274,1.288235,-0.287282,0.237793,-0.621338,-0.590088
-8.990925,8.597096,7.228756,1.513914,0.290022,-0.010101,0.871094,0.394531,-0.416504,-8.057462,2.780407,-6.683915,-0.877833,-0.398224,-0.233607,0.516357,-0.245361,0.602051,-7.837822,6.11337,4.600045,-0.827098,-0.284996,-0.180481,0.574463,-0.480225,-0.433594,-5.780425,5.282348,7.294974,-1.393675,0.101438,-0.020676,0.313477,-0.58374,-0.570801,-5.030169,6.872937,6.901777,-0.506917,0.215438,0.041481,0.24292,-0.616211,-0.591797
-9.639104,4.222469,5.315277,-2.805485,0.357785,-0.539882,0.878662,0.433838,-0.393066,-7.813581,1.72413,-7.091753,-1.285998,-0.278513,0.001116,0.523926,-0.267578,0.585693,-8.172355,4.623356,2.824455,-1.294549,0.775775,-0.354779,0.580566,-0.469727,-0.446289,-4.188535,3.267871,6.564238,-0.958296,0.549193,-0.063283,0.317627,-0.575195,-0.587646,-1.860773,6.051053,6.158588,-1.318708,0.54494,0.180777,0.251221,-0.603271,-0.606201
-9.452361,-4.415585,2.904097,-0.109113,0.425161,-0.156236,0.877686,0.431641,-0.393555,-8.696451,2.194527,-7.090638,-2.200682,-0.287224,0.1732,0.541992,-0.309326,0.564697,-10.735365,4.272279,2.239953,-0.265277,0.082041,-0.56109,0.592529,-0.458496,-0.444092,-6.443182,4.501261,6.870702,-0.294081,1.067563,-0.1395,0.337891,-0.567871,-0.582275,-5.18964,3.46461,6.039321,-0.932774,1.328238,0.414191,0.261719,-0.596924,-0.621094
-10.507662,2.26556,5.623865,0.148862,0.18293,-0.128358,0.882568,0.434082,-0.385742,-8.592198,1.918262,-7.221569,-2.795624,-0.391128,-0.110786,0.54541,-0.347168,0.546631,-8.130225,5.657405,2.285893,-0.632985,-0.247204,-0.668284,0.598145,-0.434082,-0.454102,-7.149146,4.211408,5.660155,-1.697543,0.638781,-0.582254,0.356201,-0.533203,-0.597656,-4.960676,4.229271,5.319987,-0.361436,0.477532,0.19455,0.26709,-0.593506,-0.618652
-9.624735,-3.474551,3.059053,-1.294218,0.181939,0.124719,0.88501,0.453125,-0.372559,-8.845118,2.092294,-7.251119,-3.375269,-0.348041,-0.218762,0.550293,-0.383301,0.495605,-11.023473,4.688272,2.658183,-1.513215,0.675838,-1.044068,0.623047,-0.397461,-0.466553,-7.560197,1.255213,3.443234,-2.16189,1.340806,-0.782933,0.391602,-0.489746,-0.614014,-5.043114,3.302569,2.887143,-1.399892,1.713958,0.491101,0.287598,-0.569336,-0.630127
-12.203586,-1.662735,3.63803,1.548718,-0.018898,0.517926,0.89209,0.431885,-0.388428,-10.632494,1.426171,-6.66274,-3.472207,-0.357752,-0.236755,0.563965,-0.426758,0.460449,-10.336489,3.870147,2.544953,-3.016644,-0.666007,-1.586235,0.624512,-0.34082,-0.501465,-8.002576,2.623756,3.772325,-1.776453,1.365591,-0.627869,0.417969,-0.456055,-0.616699,-9.332834,1.423152,-1.693704,-1.485678,1.763392,0.180994,0.319336,-0.546631,-0.644531
-9.488438,4.531541,6.772572,0.306568,-0.179684,0.380784,0.89209,0.423584,-0.392334,-9.410235,2.453192,-6.140244,-2.727848,-0.780154,-0.434163,0.576172,-0.450195,0.423584,-7.170512,1.028353,2.261004,-3.896636,-0.282632,-0.785593,0.623779,-0.273926,-0.535156,-6.368138,3.421087,2.724615,-2.815056,1.757595,-0.880479,0.449463,-0.396729,-0.625244,-5.417654,1.995286,-1.564679,-1.68345,1.8541,-0.532078,0.354492,-0.520752,-0.648193
-9.5616,0.445212,5.917808,-0.845987,-0.296798,0.047545,0.884766,0.436523,-0.393311,-9.113068,2.445076,-3.965277,-2.738894,-1.170162,-0.555869,0.589844,-0.477295,0.367188,-7.069727,-0.233391,2.688424,-2.573376,0.619208,-1.472345,0.645996,-0.230225,-0.537354,-6.676308,2.316908,1.228862,-3.192534,2.700877,-0.60474,0.509277,-0.352051,-0.613525,-7.890275,1.491705,-1.551939,-2.135051,3.51382,-0.816406,0.417236,-0.480469,-0.64624
-6.520489,0.669087,4.639974,0.208027,0.439564,-0.199823,0.897461,0.424072,-0.383057,-6.714097,2.282964,-3.06069,-1.200821,-1.096236,-0.551797,0.614258,-0.477051,0.339111,-7.771371,2.046808,3.088599,-2.142859,1.097411,-1.045218,0.652832,-0.173828,-0.532715,-8.251934,2.285982,1.58442,-3.116154,2.88569,-0.654978,0.544678,-0.285156,-0.599365,-9.172859,1.239464,-1.716195,-1.854725,2.865752,-1.58988,0.491211,-0.453857,-0.635254
-8.6998,0.387159,5.215468,0.011326,0.268263,-0.530372,0.882812,0.441895,-0.381836,-8.541211,4.049579,-1.989119,-1.223003,-0.951983,-0.37069,0.631348,-0.481445,0.305664,-8.331848,2.631915,2.379873,-3.379608,0.856521,-0.846475,0.678711,-0.115479,-0.529053,-6.854934,2.16508,1.20695,-3.083658,2.995711,-0.499372,0.605225,-0.230957,-0.570312,-8.468881,2.195167,-1.779745,-2.15752,3.631213,-1.849961,0.557617,-0.394775,-0.620361
-6.394573,-0.907881,4.727086,0.097769,0.918562,-0.648052,0.899658,0.454102,-0.365967,-7.398295,0.528285,-3.220489,-0.856366,-1.310719,-0.493735,0.653564,-0.478271,0.279541,-7.273449,1.343575,2.187307,-4.047304,0.869745,-0.384404,0.686768,-0.056885,-0.528076,-7.742656,2.679589,0.271624,-3.214824,4.101088,-0.318167,0.661865,-0.181152,-0.518311,-11.220764,1.025153,-1.906362,-2.645284,4.004264,-2.384012,0.648193,-0.326904,-0.586426
-7.544427,-0.264049,3.452273,0.375578,0.619614,-0.543683,0.899902,0.459717,-0.363037,-7.58076,1.526857,-3.33747,0.869019,-1.268177,-0.355831,0.666016,-0.471924,0.26416,-8.104091,1.243236,0.908824,-2.878253,1.412465,-0.351819,0.708496,-0.012207,-0.489014,-10.455627,2.241579,-0.688658,-3.964486,4.321117,-0.446497,0.725586,-0.123535,-0.440674,-12.121754,0.805405,-2.306412,-2.229926,4.086561,-2.533252,0.722656,-0.26001,-0.542236
-7.252261,-2.204279,3.23313,0.552328,1.125048,-0.564874,0.914062,0.463867,-0.336182,-7.448923,2.588571,-2.283179,0.086604,-1.266667,-0.33022,0.667236,-0.470459,0.241699,-7.466188,4.792394,0.816864,-2.498029,1.514458,-0.61098,0.723877,0.015137,-0.467773,-9.426663,0.412662,-2.392821,-4.33819,3.756528,-0.675321,0.766113,-0.07666,-0.38208,-14.710455,1.819303,-1.783745,-3.103767,4.580646,-2.594546,0.804932,-0.171387,-0.468262
-6.500225,0.797498,4.338959,1.413416,1.255734,-0.533781,0.920898,0.447998,-0.331543,-6.231553,0.809491,-3.499207,0.493185,-0.831358,-0.437875,0.678955,-0.452637,0.233154,-8.96279,5.135059,-0.295771,-4.450576,1.99858,-0.195232,0.73877,0.082275,-0.422363,-10.25768,-0.827407,-3.941861,-3.848678,4.831947,-0.69426,0.804688,-0.011719,-0.283203,-14.538734,-0.517095,-2.284033,-4.317461,4.093686,-1.748562,0.855225,-0.101318,-0.409912
-9.070374,1.080387,4.08753,0.287791,1.612876,-0.815319,0.925293,0.475098,-0.304688,-9.274459,2.271595,-4.27423,0.292698,-0.338113,-0.695352,0.695068,-0.432129,0.231201,-9.539846,0.929989,-3.061011,-5.319736,1.43157,-0.263948,0.763184,0.127686,-0.375244,-13.398129,-0.928462,-3.75263,-3.377876,4.169387,-0.75558,0.840576,0.017822,-0.187988,-15.791537,-2.34368,-2.664561,-3.455139,4.811814,-0.859498,0.89624,-0.034912,-0.312012
-8.005799,-1.066375,3.544866,0.296811,1.129384,-0.130887,0.948242,0.468262,-0.28418,-9.262928,0.880611,-5.744092,-0.973742,-1.2836,-0.998874,0.716797,-0.429688,0.192871,-7.444241,-1.481422,-3.221088,-3.323039,1.898585,0.081532,0.771729,0.1604,-0.318848,-10.627917,-0.97575,-4.932625,-2.923118,3.073866,-0.898011,0.842529,0.056885,-0.111328,-17.449601,-0.498301,-1.615186,-2.709741,4.036348,-0.299561,0.933594,-0.013916,-0.22168
-7.671606,0.106788,4.238512,0.999785,1.05356,0.290375,0.952393,0.458984,-0.26709,-8.121675,1.324457,-4.127427,-0.961031,-1.212169,-1.320701,0.725342,-0.414795,0.165771,-10.010526,0.18501,-2.869106,-1.72053,3.314248,-0.520972,0.795898,0.179199,-0.255615,-11.510131,-0.47512,-6.378269,-2.603711,4.178855,-0.488517,0.857178,0.072021,-0.018066,-14.42942,-0.299755,-1.622921,-3.049913,3.721676,0.522337,0.941162,-0.002441,-0.128906
-8.352747,0.051792,3.170358,0.134747,1.208217,0.58121,0.968262,0.445068,-0.253418,-9.635864,1.144686,-3.023539,-2.215789,-1.467868,-1.65714,0.754883,-0.38501,0.114258,-11.607948,2.019038,-2.38539,-2.163284,2.782699,-0.305322,0.807129,0.191406,-0.175049,-15.379406,-0.768588,-5.899806,-2.583858,3.069913,-0.586732,0.851807,0.081787,0.066162,-17.077831,-0.736774,-1.664727,-2.388085,4.433307,0.847185,0.952637,-0.010986,-0.03418
-6.867736,-0.399489,3.612644,0.712091,1.479181,0.936672,0.986084,0.415771,-0.217285,-8.161709,0.193017,-1.440408,-2.203589,-1.348009,-1.827046,0.779053,-0.357666,0.063965,-10.16317,0.094766,-4.001517,-3.433048,2.896625,-0.108534,0.806152,0.210205,-0.099854,-12.255355,-1.047927,-4.743308,-1.762971,1.893098,-0.274006,0.840088,0.093018,0.108643,-17.49096,0.354908,-1.027124,-1.736253,2.722215,0.882261,0.946777,-0.029297,0.037354
-7.744893,0.456312,4.067763,0.578771,2.012675,0.344823,0.998779,0.4104,-0.189209,-9.086253,0.794564,0.216878,-2.127095,-0.940687,-2.183197,0.797852,-0.321289,0.027588,-12.293197,-2.81911,-5.087727,-2.312542,3.174224,0.025519,0.817627,0.211914,-0.017578,-12.50988,0.695508,-3.579059,-1.115412,2.886439,0.108437,0.8396,0.087402,0.180176,-13.915744,1.05811,-1.31524,-1.513717,2.72183,0.800356,0.929932,-0.038086,0.091309
-7.483067,0.276803,2.843801,0.560266,2.280017,0.340716,1.024902,0.395264,-0.137695,-10.222104,-0.25537,0.93211,-2.035527,-1.218534,-2.580315,0.814697,-0.264893,-0.012939,-12.850937,-2.426696,-3.464741,-1.336118,2.215498,0.312744,0.816162,0.206543,0.036621,-14.919984,1.756305,-3.511457,-1.853309,2.293282,0.102298,0.82373,0.085938,0.233887,-16.037125,0.927703,-1.358359,-1.445911,2.990436,0.396586,0.925537,-0.050049,0.157471
-6.653139,-0.948401,2.369127,0.658373,2.293136,0.131664,1.034912,0.393066,-0.094727,-9.943729,-0.039058,1.470096,-1.176484,-1.464933,-3.078445,0.836182,-0.198975,-0.051025,-11.342273,-1.342517,-2.50661,-1.794643,2.414152,0.636351,0.822021,0.190186,0.0979,-13.002566,0.12279,-5.003266,-2.251964,1.685079,0.517266,0.82251,0.061768,0.276123,-14.947385,1.492648,-1.227277,-0.986493,1.866019,-0.081766,0.909424,-0.046631,0.197266
-7.59671,-0.793791,0.325367,1.065926,3.170323,-0.039383,1.053223,0.38501,-0.032227,-9.823769,-0.17864,1.627236,-1.135479,-1.370946,-2.560435,0.844727,-0.147461,-0.081055,-13.955776,-2.049612,-2.953473,-2.233222,2.815238,0.865278,0.811035,0.167969,0.155518,-14.340418,0.036079,-4.842191,-1.813247,2.483669,0.871091,0.797852,0.037109,0.324219,-14.332925,2.540811,-1.075911,-1.322557,2.437238,-0.688684,0.904053,-0.035645,0.244385
-9.00447,-3.628197,-2.047489,1.096661,3.082238,-0.104768,1.055664,0.385742,0.015869,-10.924752,-0.466446,0.512915,-0.506852,-1.035222,-2.598367,0.849609,-0.082764,-0.123047,-13.915019,-2.021232,-2.892705,-2.225202,1.969271,1.128295,0.794678,0.130615,0.212646,-16.535692,1.261131,-3.53445,-2.430238,1.561121,1.09269,0.776367,-0.00415,0.362793,-17.498885,1.822868,-1.045113,-2.147943,1.905219,-1.029199,0.882568,-0.022217,0.270752
-9.486185,-0.972194,-1.331776,2.697544,3.165464,-0.245912,1.046631,0.383789,0.077393,-12.040341,0.304089,1.252504,-0.25652,-1.217075,-2.271119,0.851562,-0.036621,-0.132324,-12.682622,-0.982144,-2.772576,-2.448758,1.970288,1.322732,0.793213,0.092773,0.264893,-13.498887,-0.350359,-3.638244,-3.513397,0.996411,0.963827,0.777344,-0.045898,0.391602,-15.814049,0.84608,-1.525695,-2.336938,1.031854,-1.30534,0.862549,-0.006836,0.299805
-9.772117,-0.098463,-2.029343,0.310671,2.419834,-0.159156,1.055664,0.387451,0.12915,-11.019906,0.466767,0.320533,0.453485,-1.479914,-2.630204,0.844727,0.017334,-0.176025,-13.475176,-0.837483,-1.887954,-2.932201,1.948054,1.346652,0.782227,0.050293,0.302246,-13.543177,-2.13941,-4.412962,-3.151751,1.95973,1.392865,0.751465,-0.091797,0.421631,-15.188213,0.588092,-1.329838,-2.803031,1.272881,-1.047253,0.860596,0.000977,0.327881
-9.200774,-5.785718,-4.907201,2.277001,2.265842,-0.19338,1.04834,0.398926,0.157471,-9.890555,0.332493,0.496644,0.431939,-1.355356,-2.430538,0.83667,0.068604,-0.206299,-12.515578,-1.01836,-1.032665,-3.306893,1.401326,1.500518,0.765137,-0.011963,0.335449,-15.767796,-0.979211,-3.139604,-2.83108,1.157823,1.31157,0.734619,-0.147217,0.442383,-15.628589,-0.652191,-1.385921,-3.220728,0.827324,-0.666723,0.848389,0.0,0.3396
-10.104716,1.140555,-2.744993,2.21123,1.935301,-0.202531,1.041016,0.399414,0.192383,-10.156761,-1.17058,0.817932,0.182781,-0.975259,-2.21609,0.829834,0.110596,-0.221436,-10.83817,-1.422385,-2.141341,-3.614656,1.616275,1.518235,0.753906,-0.070801,0.368164,-11.750782,-0.75734,-2.521417,-3.731169,0.337565,1.24928,0.732666,-0.203857,0.441162,-14.376003,-0.897676,-1.255388,-3.049127,0.337218,-0.035838,0.8396,-0.025879,0.348389
-7.829462,-3.14821,-5.073618,1.757528,2.189139,-0.425681,1.039062,0.415039,0.22583,-8.361668,-0.979546,1.403876,0.044037,-0.808789,-1.928515,0.82251,0.148682,-0.250244,-14.922352,-1.87583,-3.75876,-3.232744,1.941684,1.45877,0.731689,-0.124023,0.393555,-13.507333,-1.893059,-2.037347,-3.945807,2.170861,1.602616,0.701172,-0.266846,0.459961,-12.585149,-0.480876,-1.327433,-3.458501,0.184423,0.621206,0.841797,-0.057373,0.355957
-13.505073,-3.805361,-6.712824,3.162185,2.152329,-0.28053,1.031006,0.435547,0.245117,-13.422923,-1.63155,1.097002,-0.855522,0.076544,-1.302347,0.818115,0.18457,-0.235352,-14.184405,0.906129,-2.330318,-2.54717,-0.092912,1.290005,0.719727,-0.179443,0.386475,-16.908896,-1.873107,-1.513617,-3.742626,0.591615,0.994286,0.684326,-0.324463,0.455322,-14.898888,-1.214405,-1.616981,-4.057313,0.802088,1.495494,0.832031,-0.110107,0.362549
-10.037647,0.590653,-4.505867,3.862863,1.396788,-0.128099,1.018555,0.450928,0.254883,-11.859881,-0.96471,2.367974,-0.962569,-1.603426,-1.746871,0.795166,0.223877,-0.262207,-9.19139,2.817011,-2.252856,-3.864637,-0.04815,1.418952,0.719727,-0.235107,0.378906,-9.88023,-1.673621,-2.415111,-3.603089,-0.787592,0.73663,0.69165,-0.363281,0.424805,-14.098497,-2.590657,-1.754052,-4.110199,-0.377627,2.471645,0.819336,-0.193115,0.350098
-11.97801,1.161479,-3.75703,1.450318,1.236869,-0.751841,1.014648,0.478027,0.275635,-7.038333,-0.821693,1.694559,-1.618119,-0.201889,-1.390586,0.789062,0.263916,-0.262695,-12.157073,-0.406512,-2.517646,-4.606572,0.581866,1.030892,0.702881,-0.296387,0.362305,-10.311834,-1.399338,-3.068365,-3.440903,1.294595,1.05132,0.664795,-0.416504,0.425781,-11.019406,-2.188252,-1.596688,-3.31033,0.275348,3.557939,0.80835,-0.271484,0.347656
-9.974866,-6.972922,-6.015534,2.069954,0.684086,-0.682087,1.00293,0.499023,0.277832,-11.59064,-1.554284,0.437589,-1.98679,0.025415,-1.729733,0.773438,0.320068,-0.250732,-10.522086,-1.352953,-2.919633,-3.195221,-0.600064,0.908383,0.705566,-0.33667,0.318848,-14.678265,-0.691923,-1.480985,-3.325416,-0.287235,0.487949,0.666016,-0.447266,0.381104,-14.985604,-0.158584,-1.05994,-3.390133,0.773111,4.057635,0.765869,-0.374268,0.3396
-9.975062,-0.084146,-1.903162,3.859333,0.560297,-0.504753,0.998047,0.532715,0.247314,-7.612704,-0.971891,-0.298712,-2.847538,-0.03875,-1.367112,0.767822,0.354736,-0.218994,-8.028374,0.435812,-2.336851,-2.642384,0.120423,0.795699,0.69873,-0.371826,0.304932,-8.196435,-0.570014,-1.796935,-3.070104,-1.951835,0.551437,0.677979,-0.477051,0.32666,-13.911303,-0.187879,-1.393599,-3.794065,-0.459344,4.516935,0.726807,-0.463623,0.293457
-7.762685,0.38978,-1.563995,0.762844,0.837073,-0.439215,0.996094,0.543945,0.263916,-9.959526,-1.202771,-0.655967,-3.643066,0.356202,-1.304841,0.769043,0.396973,-0.189453,-10.459048,0.324695,-1.579634,-2.908687,-0.026253,0.667829,0.6875,-0.407471,0.281738,-7.536661,-0.113961,-1.727185,-2.459456,0.136941,0.865668,0.662598,-0.507324,0.306641,-11.086407,-0.653119,-1.758498,-3.146295,0.192488,4.515713,0.672607,-0.556885,0.262207
-9.068046,-5.507732,-3.198303,1.153952,0.833539,0.188839,0.989014,0.545654,0.268799,-7.723971,-0.759523,-0.870482,-4.05003,-0.260448,-1.203545,0.747803,0.448975,-0.146484,-8.26699,-0.311732,-1.062772,-2.532839,-0.848235,0.879956,0.693848,-0.442139,0.243652,-12.236524,0.761021,-1.221199,-2.243914,-0.698404,0.7105,0.670166,-0.539795,0.270752,-12.693894,0.981681,-0.982086,-2.543401,0.230105,4.144361,0.610107,-0.630127,0.240479
-8.574257,-0.04649,-1.440818,1.923153,0.806542,0.145679,0.998047,0.546875,0.27417,-7.429676,-0.820551,-0.716998,-4.766542,0.50633,-0.962374,0.735107,0.475342,-0.088623,-8.004761,-0.257105,-1.332408,-1.664387,0.319452,0.573021,0.683105,-0.45874,0.243164,-8.374196,0.374312,-1.305498,-2.041323,-1.987011,0.697662,0.667969,-0.555664,0.229248,-10.254943,1.297412,-1.256717,-2.681674,-0.442902,3.715348,0.562744,-0.69165,0.198486
-10.429436,-1.654162,-2.661165,-0.376659,0.557317,0.03586,0.992188,0.549561,0.296387,-8.242446,-1.150449,-1.469215,-5.311147,0.633926,-0.852698,0.732178,0.494873,-0.011475,-10.823779,1.152568,-1.187353,-0.649876,-0.157093,0.469609,0.676514,-0.480469,0.218018,-7.586459,0.576299,-0.37824,-1.259116,-0.436496,0.91285,0.655273,-0.584473,0.19043,-9.655099,0.839297,-1.366825,-2.175493,0.153707,3.030351,0.508545,-0.731689,0.173584
-8.094985,-5.250578,-3.790886,1.229393,0.123975,0.315679,0.992676,0.540039,0.273682,-8.694427,-1.023712,-2.388576,-5.92892,0.835759,-0.723303,0.714355,0.503174,0.085449,-8.287796,3.024848,-0.837166,-0.995579,-1.026923,0.67393,0.678955,-0.486084,0.192871,-10.353269,1.333417,-0.138038,-1.243951,-0.809528,0.535079,0.655762,-0.587158,0.167725,-10.073111,1.295578,-0.99255,-1.862746,-0.393864,2.258538,0.468262,-0.767822,0.121582
-9.199297,2.623359,-1.120324,1.130165,0.361729,0.666444,1.004395,0.541016,0.276611,-8.510378,-1.484818,-3.56454,-6.341384,0.435953,-0.826693,0.708496,0.499756,0.172119,-8.388942,1.649768,-0.697086,-1.573295,-0.361627,0.449321,0.670654,-0.507812,0.17041,-7.794429,0.445123,-0.969399,-1.089304,-1.340945,0.387504,0.652588,-0.601074,0.133057,-7.461557,0.530626,-1.231557,-1.650172,-0.424289,1.876154,0.437256,-0.782227,0.097168
-9.311304,-1.280272,-2.766251,-1.508262,-0.005927,0.49265,1.007568,0.520264,0.294189,-7.236347,-0.274349,-4.647288,-6.97395,0.784206,-0.655206,0.699707,0.471924,0.261963,-9.431672,0.70066,-0.582872,-0.604824,-0.677164,0.334164,0.674072,-0.52002,0.147461,-8.074058,1.03278,-0.695278,-0.421788,-0.300355,0.463366,0.64502,-0.610352,0.12085,-8.53105,0.970632,-1.033338,-0.823997,-0.060363,1.068678,0.416016,-0.792725,0.085205
-9.879814,-3.73335,-3.726174,-0.089179,-0.125162,0.494407,1.011475,0.506836,0.290039,-8.91923,-0.195101,-5.931464,-8.340945,0.801272,-0.410941,0.685303,0.423096,0.369141,-7.985679,2.179471,-0.529733,-0.185759,-0.644465,0.168814,0.674316,-0.530762,0.136719,-9.735909,1.654577,0.033959,-0.78867,-0.726873,0.156649,0.647217,-0.618652,0.0979,-7.90273,2.20311,-0.667341,-0.958532,-0.606859,0.455517,0.408936,-0.799805,0.056152
-9.360183,-2.415429,-2.996276,-0.024208,-0.304858,0.566151,1.019531,0.490723,0.284912,-8.020609,0.065272,-8.273158,-8.917927,0.702311,-0.13668,0.674316,0.327148,0.461914,-8.312329,2.360439,-0.647097,-0.579514,-0.559631,0.102761,0.67627,-0.526367,0.119385,-6.967114,0.362298,-0.80866,-0.756281,-1.133315,0.017914,0.647949,-0.61792,0.070312,-7.178289,1.076072,-1.040877,-1.252,-0.260423,-0.127629,0.412354,-0.80542,0.030762
-8.431134,-0.20565,-1.971685,0.511677,-0.36504,0.367523,1.027832,0.491211,0.2771,-8.779779,1.16078,-9.107533,-9.946138,0.389579,0.000394,0.670898,0.199463,0.533447,-8.178076,2.280288,-0.96979,-0.421599,-0.703665,-0.083144,0.679443,-0.524414,0.103516,-7.13469,0.646275,-0.45893,-0.216198,0.015717,-0.075637,0.648193,-0.613281,0.070312,-7.627064,0.468306,-0.906028,-0.583094,-0.433568,-0.793867,0.426758,-0.792725,0.016113
-9.119818,2.201762,-1.921452,-0.895499,0.003878,0.189485,1.029053,0.486572,0.288574,-8.063238,1.584065,-11.636503,-10.365487,0.068567,-0.067715,0.68042,0.059082,0.561035,-9.008184,2.473592,-0.299499,-0.154704,-0.362922,-0.354776,0.685547,-0.514648,0.095947,-10.4888,1.545226,-0.681742,-0.413286,-0.141036,-0.314093,0.65332,-0.600342,0.062988,-7.231116,1.620147,-0.654903,-0.409973,-0.313195,-1.195716,0.44751,-0.775391,0.007324
-9.686531,-1.624766,-3.931899,-1.564362,-0.037715,0.295985,1.033936,0.479492,0.30127,-9.613193,2.797989,-10.001525,-10.202595,-0.04473,-0.406508,0.670898,-0.077148,0.548096,-8.780452,3.096236,0.248336,-0.194336,-0.667892,-0.527354,0.692383,-0.51123,0.074219,-8.88314,0.969726,-1.29987,-0.63057,-1.054255,-0.652206,0.661621,-0.595459,0.028076,-9.325251,1.377472,-0.77205,-0.801342,-0.076367,-1.663758,0.480225,-0.75293,-0.008545
-9.574755,-2.237361,-4.431723,-0.758361,-0.063177,0.458787,1.036621,0.460938,0.300537,-8.017775,2.594821,-9.28343,-9.816719,-0.400082,-0.513194,0.677734,-0.202881,0.490234,-7.932487,2.696475,0.199006,-1.010589,-0.091111,-0.738685,0.710205,-0.508301,0.056641,-7.537665,0.820777,-1.033828,-0.435945,-0.202123,-0.655606,0.676514,-0.591309,0.018311,-9.059011,0.766714,-0.940995,-0.453983,-0.668888,-2.110232,0.512939,-0.730957,-0.033936
-10.372193,-1.304363,-4.867085,-0.764552,-0.085074,0.595916,1.048828,0.437012,0.307129,-9.510476,2.236625,-8.12868,-8.332504,-0.314951,-0.608469,0.686279,-0.29248,0.434082,-9.864637,0.87062,-0.361549,-0.743995,0.097895,-0.902187,0.714844,-0.491455,0.051025,-10.196051,1.052057,-0.037543,-0.50395,0.016955,-0.765122,0.678223,-0.577881,0.010498,-8.627038,1.888152,-0.644494,-0.35988,-0.249175,-2.617459,0.5625,-0.705811,-0.048584
