# sampling frequency: 40
# units are seconds/meters/radians/a.u.
seg1_acc_x,seg1_acc_y,seg1_acc_z,seg1_gyr_x,seg1_gyr_y,seg1_gyr_z,seg1_mag_x,seg1_mag_y,seg1_mag_z,seg2_acc_x,seg2_acc_y,seg2_acc_z,seg2_gyr_x,seg2_gyr_y,seg2_gyr_z,seg2_mag_x,seg2_mag_y,seg2_mag_z,seg3_acc_x,seg3_acc_y,seg3_acc_z,seg3_gyr_x,seg3_gyr_y,seg3_gyr_z,seg3_mag_x,seg3_mag_y,seg3_mag_z,seg4_acc_x,seg4_acc_y,seg4_acc_z,seg4_gyr_x,seg4_gyr_y,seg4_gyr_z,seg4_mag_x,seg4_mag_y,seg4_mag_z,seg5_acc_x,seg5_acc_y,seg5_acc_z,seg5_gyr_x,seg5_gyr_y,seg5_gyr_z,seg5_mag_x,seg5_mag_y,seg5_mag_z
2.0446306863189236,-6.184044689937095,7.267018880612932,0.0005431365033143935,0.0015769421892138868,0.0056573136797109565,-0.5407387131374984,-0.17933317518643727,0.3484229649147036,0.011875948747639404,7.555583477407875,6.2173796555484255,-0.009132411180468985,0.004009881857777019,-0.006157363682414399,0.5443973525054071,0.3577056531994154,0.3863453327183893,-1.6340446559885398,-6.057824808535421,7.452915529239957,-0.004447560573444398,0.012906754651856126,0.003983416034301868,0.6144357420464304,0.21731857078655217,-0.4279583218306928,-2.1480744539927223,-6.262864140716662,7.416344825513388,-0.0021606010530352163,0.007157222281194344,0.007157394659175805,0.2859616556528585,0.4496681751068941,-0.7126248443138309,0.2680167664766659,-6.057235708487932,7.679589192276178,-0.0032496475571109963,-0.011210967273279002,-0.011647737872738626,-0.3293686907154763,0.41896489188727126,-0.42342927221704924
2.036809740136768,-6.212802218700123,7.294953484856763,-0.014997694292969205,0.005430427852370112,0.001345307487097974,-0.5460975718161766,-0.173486231304718,0.3545509891400132,0.00818594532683141,7.640156679585067,6.262175804157993,-0.008398253007804491,-0.0020769899219740743,-0.007935539633882558,0.5348554611073597,0.35927700489853825,0.39484914929599296,-1.6460423973826854,-6.137124811691226,7.489651396085977,-0.001946357023576561,0.006494420799360154,0.002685540321352933,0.6078553758737195,0.21871378007936207,-0.42065500388182187,-2.2047281965746457,-6.427934094705968,7.625480162189019,2.0829665732817926e-06,-0.013178455359198116,0.006712550037569382,0.277464124699233,0.45117314687068316,-0.7028237165887997,0.2573062920469389,-6.048745494875055,7.685199165029934,-0.023944807971207578,-0.028754264217164413,-0.023178976391365777,-0.34077733909472546,0.4206891033797395,-0.41213418289080234
2.1318183185582535,-6.221275231336692,7.296512052849776,-0.0037306108034485174,0.0030431445616408235,0.006770338190234599,-0.5375901778907322,-0.18013528428141728,0.35721464398070807,0.07081768728831704,7.513180351201298,6.187712318851119,-0.013451234885071127,0.009324635370183906,-0.0009378300910936871,0.5368221334158069,0.3570347071274497,0.3917165389249193,-1.563629469532722,-6.047832940857633,7.400222771875191,-0.007078263488166486,0.01659490925033209,-0.011802221103052245,0.6083126370145513,0.21477489019550666,-0.4222980293630445,-2.0926266709136296,-6.319792882976522,7.498938150627009,-0.0005329481178099613,-0.05117247821450753,-0.006803475192096679,0.2776864922518057,0.44897683511856645,-0.7050246973608821,0.4092228277481584,-6.372376224313752,7.8662875717475265,-0.007353954786743434,-0.010832993972434745,-0.016602031399431994,-0.33887881145336723,0.41557117397839394,-0.4158359014697656
2.1911365095008852,-6.1445364733559416,7.235225496641539,0.0031995738234757384,-0.003233983650631057,0.0212948297972907,-0.5412264980961443,-0.18005059064468606,0.3464642574596751,0.13363172778547017,7.542219021550602,6.324179739815854,-0.007476429260545739,-0.010782704301429602,-0.016893599363663952,0.5416798751096669,0.3631758837376104,0.3928421469732866,-1.485001411682154,-6.133605288862785,7.388491279628642,0.003821096818328735,0.011232766757991123,-0.0004492561246411937,0.6127693189528745,0.22275945049488122,-0.4246310244179632,-1.9332408256919447,-6.039698763339285,7.04900445293077,0.008760677299609757,-0.04037062405666702,0.005781103400507595,0.28187184162630635,0.4548120907639918,-0.7047917206111894,0.46595099134171025,-6.167359766688774,7.7673544816704005,0.0018056724281216767,0.03236152201542898,0.013798931477735032,-0.3349331340608515,0.4204191118513933,-0.4148487756957483
2.0436036194954537,-6.2561277076345165,7.259003150117636,0.012795577652473446,0.00034407224289686924,0.016649061019504675,-0.545359906276707,-0.17371837467612794,0.3521092381275245,0.026989715341669385,7.518179071889083,6.180619751507107,2.001545757124253e-06,-0.007347089322413579,-0.013503984726083296,0.5441233949563391,0.3596462919172958,0.4002303657261992,-1.6224900264220838,-5.846775349179206,7.465960176380882,0.00754419403030536,0.01277477987008809,0.01413283898245137,0.6161920077868774,0.2231578176031604,-0.413895134664774,-2.0517271856845056,-6.0094165087344775,7.052918978925439,0.01386082523507468,0.021280481966613297,0.02304753262436921,0.28529465647851404,0.45332377185530875,-0.701388645778988,0.25495890075561567,-6.060256628350153,7.622768844661992,0.014739575744423063,0.01981340077457989,0.009321156882077047,-0.3305208342165968,0.41987338154183274,-0.41047897095026864
2.0474419036747142,-6.052252013994889,7.291709738009371,-0.0016174429516110228,-0.0009120190688838866,0.014899756391172173,-0.5338826682010657,-0.17207594634222595,0.3540999669696938,-0.01463896642018524,7.584516260321357,6.251324664452894,-0.009787246144238773,-0.006017149345034162,-0.015303003158584206,0.5382498587341081,0.3635170714482736,0.39942358318504856,-1.6650939498068842,-6.163029621643511,7.602530791072678,-0.006629679615159093,-0.0022358281001135655,0.020378332657680475,0.6093554875881945,0.22316555866980356,-0.4165797991966825,-2.1693140995974134,-6.433016109277843,7.583857886900677,-0.022095064344466068,0.0482207165842555,0.012083244626953904,0.27871865912443416,0.45604772174245245,-0.7016040472912026,0.27301415131674733,-5.987354245227286,7.706146195388561,-0.0016569153960277522,0.012597502795106233,0.0028611822202888187,-0.33586879037921213,0.42259341672917905,-0.40970418100302963
1.9882107915841656,-6.2767765420642245,7.285482079961665,-0.016102359581409348,0.0046154907040519165,0.01186879764221317,-0.5397536016471306,-0.17593827369695558,0.35137667431616143,-0.013030474123286328,7.616981257814602,6.1678034098867975,-0.015705614840935064,-0.004677571580853095,-0.009636597562116808,0.5363591513624708,0.3504418126842784,0.39182607649604845,-1.7277177394669712,-6.090035724286268,7.620063972963297,-0.017927870234008093,-0.015647779391026486,-0.0005317236146094615,0.607788792865536,0.21014557773052736,-0.42197588435046557,-2.260703796490065,-6.577024873345305,7.749338263340398,-0.014342012010398501,0.03366475819839066,0.0013486782186549534,0.2773739281401955,0.4389707627220275,-0.7074739698796834,0.2118297958722053,-6.024011483612889,7.641143621910451,-0.026532909435244913,-0.0077802963811111,-0.010610070033848076,-0.33747894115356825,0.4060347049840725,-0.4151664836151439
2.139529430814845,-6.148129561982557,7.261693430856625,-0.015963146086208403,0.000762213379542641,0.007014853013029955,-0.53439936055305,-0.17962403417427314,0.35112232610936456,0.07231470000073073,7.512469041452507,6.280567873565849,-0.024299589528974774,0.006768011538202402,-0.00769431150539791,0.5417045787289444,0.35729323627547965,0.39147541562899074,-1.5532287422454742,-6.120241541531905,7.3968028414241065,-0.026283659622942625,-0.022646847744741183,-0.0170139398450743,0.6090773059196286,0.2188907171293907,-0.42407679891414507,-2.0606140442649883,-6.266277566310889,7.404049460493613,-0.021620489797522326,0.008810624464958575,-0.018619260094125827,0.282309008592683,0.44797611354358857,-0.7077289571501213,0.3840264058913778,-6.227944197233593,7.802034031081419,-0.018475950769592724,-0.008193875704461635,-0.01068800720898986,-0.33448275646694275,0.41701524065728274,-0.41780132813674054
2.1202643011049576,-6.25465999506069,7.233678685267083,0.003222117686758635,0.00057279571890526,0.015124620513489949,-0.5478097360283162,-0.17879079137471798,0.3452354246281638,0.09208507649794984,7.507921878522616,6.280059228849741,-0.006613932486853188,-0.00878974979644041,-0.012030800205112034,0.547070384989899,0.35877446759607645,0.3912156485317982,-1.518613676039266,-6.0095433431568095,7.276523268565502,-0.006654111651482457,-0.014715424185061624,0.0008647283870145809,0.6156695695481934,0.2188684141411985,-0.42236896173565946,-2.0055099176729625,-5.938179233577005,6.919929580492001,-0.0018890236845161552,0.022390001140628227,0.004879746760027993,0.2867273464604978,0.45161151029104635,-0.7070109843272322,0.37903500932661516,-6.117012152557786,7.679980392830124,0.0015540946145734676,0.013048445194816741,0.0013364987567587383,-0.32713214114280637,0.41889958805994604,-0.4151390978268976
2.080092630862302,-6.1284636764259695,7.288425569223701,0.0033173700806758645,0.00246652217108797,0.00651153116612123,-0.539500436011526,-0.1732626990231357,0.3528590927205813,0.04519833530903206,7.5603738399499285,6.186323330048315,-0.0027228030112041867,-0.00030419875961932896,-0.012357250821959691,0.5448389209160415,0.3663901407348545,0.3945029343013015,-1.547356182404973,-5.955416345012526,7.311737526029006,0.003373820538073038,0.009613544561583233,0.015914453491695214,0.6132673552710972,0.22401345666018432,-0.4224549678095284,-2.1136496817063337,-6.045692971971341,7.26832834899195,0.0008446548601115879,0.03556233952986511,0.019805546302232704,0.28676618900466005,0.4572250213665553,-0.7055408024806903,0.3061740311808305,-6.0250665268986525,7.7103309167101175,0.002231369186770428,-0.0017866209826141177,-0.006829516162717124,-0.33029306612449294,0.42235478188868936,-0.4175454545888855
2.0252062062548157,-6.205508274638076,7.260096763016204,-0.010092324014022427,9.918247914438655e-05,0.01470687454328135,-0.5414474855468286,-0.17492565546374214,0.34698388515116524,-0.02894264817995499,7.571850010330583,6.255620057017775,-0.011460835783608542,-0.007664806934991989,-0.012916922651717658,0.5387729585062461,0.35823748199304056,0.3902344970600533,-1.6590869910697068,-6.217575187598011,7.462599870417403,0.000790716655043251,0.020362535157752687,0.013606810431571503,0.6083434706022763,0.2188429469833561,-0.42725024636764963,-2.240093220999056,-6.576543655102234,7.754191216661002,0.0011032394816148034,-0.008434411189765614,0.018127786752060022,0.28036752391044356,0.4504292522555549,-0.7084519555515593,0.2831619289647014,-6.119926045363468,7.714731744611529,-0.01648499847028033,0.0017281609189339162,-0.004106100860076947,-0.33424460987049925,0.4165284242747935,-0.4182933850524956
2.041787248042624,-6.266954181343471,7.259910934108842,-0.00269140013813447,0.0021272911219793484,0.007395087476074749,-0.5402805786897131,-0.1868879400469807,0.3459356189939175,0.0015037765118983085,7.607246280738939,6.267660918351661,-0.005928478036582585,0.004906369427349168,-0.0051298124928822976,0.540729416053625,0.3600996217411653,0.38434581007365654,-1.6651145716358577,-6.09198675528435,7.544193157068421,0.0025886850951130115,0.018918299005009166,-0.0071192940124291055,0.610089318450079,0.22365430529714614,-0.4307502378631602,-2.2253976215266387,-6.469018273334854,7.726123810565575,0.009078503030351768,-0.05982856217229958,-0.004248689224122885,0.2801305173577477,0.45507424059401064,-0.7133286533307527,0.2652470070133894,-6.064383659572098,7.675980648135674,-0.006397198249147364,-0.0018947473647531216,-0.007964999182979682,-0.33545018208365085,0.4224294466181826,-0.42386857194996364
2.105615680089726,-6.161507085550216,7.246416271305478,-0.0022511245336070836,0.0017128153934707676,0.007297536143252863,-0.5341627426432856,-0.18302011498138054,0.34743950774344207,0.0587188168832146,7.507752604968707,6.224992989938898,-0.009682640201198528,0.0010348737894432059,-0.007022640527184744,0.5431526817522273,0.3593455073114816,0.3970603123360702,-1.5610480724018552,-6.081105182577334,7.437123614627066,-0.0028459124498050816,0.011436783469754758,-0.010404302965311455,0.6132586891560997,0.22284200779602195,-0.419504819769666,-2.031255527176908,-6.135589731097832,7.122646910956987,0.005187002932867431,-0.06337295809676587,-0.006155669958662751,0.28527105145915505,0.4521067290152898,-0.7055397408789127,0.3711933845284746,-6.172541865561478,7.725441730802655,-0.003957362952404448,-0.0033901958919065976,-0.007659564366035211,-0.3339539019872228,0.41893114207729454,-0.41217725375173486
2.0912057172169445,-6.182938851854172,7.2898734513807835,0.0016206740432301748,0.0033779285685945548,0.00947526612982837,-0.5380511007707026,-0.17475755080095998,0.35651525731234174,0.04631789880898464,7.547747177264922,6.243439545898182,-0.0031839344603695418,-0.001107833805084247,-0.007921956299575495,0.543661988290547,0.35467228190841815,0.39494105770715293,-1.5822587155851628,-5.913230228746877,7.42351539214313,0.005995242169091572,0.012363992257892168,0.001799425680801713,0.6112467323884286,0.2152657717229577,-0.4208418818214131,-2.0020804034280193,-5.927719999359741,6.957515241715827,0.01473860281794256,-0.006657457975027591,0.011456470018538745,0.28208804912041296,0.45090510741701983,-0.7062602931991047,0.29842153067087773,-6.094704636629148,7.707282206489926,0.00015697902662190562,-0.005612546369316679,-0.007217458682768541,-0.3325334199791622,0.41454285009607,-0.4148953064282474
2.16400040576344,-6.147459021202966,7.278898407582218,0.0011545938952772774,0.002399243750900123,0.01390811570130027,-0.5434260200441487,-0.1761894437554296,0.3552724249137958,0.11793753681895884,7.581915816501655,6.207939679137444,-0.008222090670195014,-0.0040982830850196175,-0.01251607265743269,0.5433843267849419,0.36228825523425023,0.39774356576040076,-1.5114168918051971,-6.057037028192006,7.502880226842613,-0.005473056232367585,0.009058031418850547,0.01372088686246114,0.6159321621785518,0.22116181163754745,-0.4165478279084552,-2.0053764228402065,-6.254962583902728,7.4582360982693165,-0.0053078566143621615,0.027766228859497196,0.018921487496584323,0.28407027910398597,0.4545537034563024,-0.7043116595151209,0.45627397758023863,-6.188733955317088,7.820429661511279,-0.002936361926740249,0.01044999344497715,0.004315515801746634,-0.3292910520333594,0.4220702712903944,-0.41193677279361235
2.028070979206136,-6.189746473055221,7.301187379959736,-0.0073041900393810465,-0.0012889113337032217,0.01994393846366505,-0.5372959910187785,-0.17156567350030888,0.3531190016446781,-0.008685506375607818,7.580951520935353,6.20586792041411,-0.013641788775624527,-0.012471433742430494,-0.0182729412085031,0.5453553264232464,0.36047260140469,0.390940305689155,-1.6937922320177476,-6.131081506870587,7.595425527347684,-0.006938916935244568,-0.008251160057267578,0.008818074930228719,0.6176159100264801,0.21806284666941989,-0.4257744047011186,-2.1755672424695236,-6.491375872291067,7.58443028821209,-0.017997013564656997,0.024704290790341,0.0033156577476912436,0.28649527137061775,0.4547885097559032,-0.7087160674785642,0.26131962846821766,-6.042461504119733,7.716776432342933,-0.010787966349585567,0.021441892834994702,0.0063586665027199184,-0.3293260191144903,0.4221139844782014,-0.4192605588677989
2.0078912498103243,-6.212765237130322,7.216547956686851,-0.006813182082626418,-0.0013468284503874227,0.013036591158512465,-0.5438725598897398,-0.16763933855822818,0.3548369753953797,-0.021429775911378818,7.525512839877661,6.255808005662166,-0.016881851380679252,0.00038126681840087886,-0.010320315817543783,0.5421606649705117,0.3637187800560812,0.3960083226944208,-1.6713736094966847,-6.056082074644687,7.507797048894326,-0.01986197211513759,-0.0145603554607195,-0.003900991355411171,0.610318891249112,0.22142873652669975,-0.4177709802195984,-2.1476506712488104,-6.3077233333749865,7.4011044822682575,-0.01503016286432361,0.027620740513936023,-0.004099375895635926,0.27992515750563335,0.45506641546597937,-0.7035627674467937,0.23702460749557114,-6.060510479877726,7.605579451430563,-0.008429177993804954,0.005884910088413576,-0.001676681424732319,-0.3334413392825092,0.4213607914213388,-0.4107001564161737
2.110021969204658,-6.203601949290297,7.273439376399815,-0.000160077413885701,0.0024540117792923675,0.009202216657341751,-0.5426761682098351,-0.17277042038600893,0.35456364185394507,0.07350826932962386,7.580454835868628,6.245809529360953,-0.009342664067361077,-0.0017639556720487753,-0.010888787559296358,0.5336160195227286,0.36533768581400794,0.39254833435359787,-1.550956083644879,-6.045894537017073,7.378623642224006,-0.011099836795923688,-0.022233968370666202,-0.0014917924105160858,0.6027657588474841,0.223598673509771,-0.4229332140784021,-2.0658334533958764,-6.151802774055296,7.219142137836117,-0.00708656448494731,0.04520700643306927,0.0027059298145215914,0.27724022502175055,0.4550822077754486,-0.7035521297800985,0.3588981318698056,-6.10968354748661,7.733187827423422,-0.002922130092349301,-0.000546054584631976,-0.005211460171006689,-0.3400652882502901,0.422188125925686,-0.418720827939815
2.106780223958155,-6.1142290194551165,7.2723431581584315,-0.006656655222965134,0.0009930588734072413,0.011993616732100377,-0.542205425270536,-0.17957176883486395,0.34866197451645836,0.05217960322997002,7.562582448549123,6.190851795602081,-0.014121040763016821,-0.0023659255792846186,-0.011112808507416298,0.5390132179603832,0.35875593902611413,0.3919354687528085,-1.534090772793325,-5.992365726762667,7.335649563773989,-0.014859626071974462,-0.009308493719875391,0.0068287377800101004,0.6103383773368399,0.2240320450502226,-0.4226985242350018,-2.085558505149671,-6.102478591623231,7.342147970241407,-0.01665667808273903,0.0377211256241014,0.00602672132247395,0.2818555387974626,0.45237059687768977,-0.7052819754642216,0.3582822648957072,-6.1105144785151255,7.753971415431657,-0.01084112303368855,0.005399968947440504,-0.004661147577057162,-0.3347349262933769,0.4165348433655423,-0.4187800200293833
2.0338573069449755,-6.213504509867931,7.245326918772018,-0.01037898048147835,0.00042371097540514093,0.015635246949581984,-0.540381475341888,-0.16288189578247483,0.33338966001757114,-0.002122930139835862,7.576332817227385,6.270639422436277,-0.016151875591452244,-0.008978221686076428,-0.014137034209264548,0.5499841975998082,0.36105995650706985,0.3958219774944388,-1.6227069101667024,-6.146555860476956,7.37412352569881,-0.005288594543058014,0.004831440266477234,0.008054209254209837,0.6164268580403304,0.2220814286965332,-0.41973690026090527,-2.2038186449387194,-6.360428036849368,7.409037789097513,-0.005092495699985875,0.011473699976538645,0.012405131131672992,0.28995370215064065,0.4557360541481983,-0.6999397791307249,0.26825382130352504,-6.108895267899356,7.695700201754997,-0.01633116033305769,0.007127612820279228,-0.0018015414677864474,-0.32660091510798284,0.42179827815224086,-0.4104861973714013
2.0385589177880155,-6.262202834395969,7.274238354530945,-0.0009303286224177496,0.00046733182228844467,0.007013869375899929,-0.5389729301311218,-0.17147337078274147,0.3396872772422857,-0.009865528791015555,7.553956323555458,6.2737571745234275,-0.002829731745652904,-0.0006315608709160268,-0.009782590204744958,0.5370733410380882,0.35649360884817,0.38855156809050895,-1.6465456109959007,-6.101361258510493,7.465752882451266,0.00435017139194974,0.014555581177729347,0.0017679591169462079,0.6044139921078334,0.21576142893498743,-0.4235347650691785,-2.2130458911761997,-6.373154658532171,7.592495745080392,0.010640264391846245,-0.02074005668481522,0.006558289364023228,0.2794015719614915,0.4521437369391036,-0.7082025059530573,0.25871442942246975,-6.056440480124022,7.657647709983968,-0.004488363998202233,-0.0014579465716192857,-0.007211483509926764,-0.33691705659567267,0.41776281297494716,-0.41729722942306674
2.0690758966236826,-6.112838545314037,7.241521228758767,-0.00048031880378362313,0.004913280466301225,0.0032047419406552365,-0.5433919822112468,-0.1703127781605827,0.35262330451028934,0.030222725966997516,7.5659236270077335,6.166773452441338,-0.006819189677606604,0.0024849032498000453,-0.005770893083393307,0.5407183930432734,0.35715582980586846,0.3980689831956034,-1.6001057775916812,-6.067432928277774,7.426517418811749,0.0023102476853463032,0.015441124339158487,-0.0034221386259179276,0.6098012771604739,0.21775470240855774,-0.41868609931237916,-2.134373111145829,-6.326770089815411,7.4284281151308695,0.0021948109567077865,-0.04958258749589051,0.0008543038550057851,0.2794267571017117,0.45067065961998887,-0.6996589318227169,0.3008907423451105,-6.090148706904351,7.66793046027644,-0.0051144322476682404,-0.00888392025305724,-0.014431027154063933,-0.3364094829229308,0.4162579374502606,-0.41120445660423144
2.1071313615025704,-6.186222499903453,7.294561958134128,-0.014262765242508399,0.0034779788000819448,0.00722194759765501,-0.5375543544141873,-0.1749778166409873,0.35236396751072513,0.0478331717037233,7.5628929326466094,6.234105384662561,-0.011677187888685527,0.0019687299480425423,-0.007662719582760188,0.5390038501638419,0.36049327993425084,0.3936156237496175,-1.5676666177559675,-6.047736020578167,7.4232985032760155,-0.0010985132828487448,0.019927301164201362,-0.00645019479385111,0.6098341986987874,0.22207906102098995,-0.42290952964368556,-2.0558322140307785,-6.135346071627989,7.1896599312467,0.006632263132648696,-0.040175071719488975,0.0003516647170612439,0.2789409605684676,0.4553184664823164,-0.7059996547388195,0.3486490146639418,-6.10359315360363,7.742234374601801,-0.021103066547953044,-0.007956214987346038,-0.009800020119764821,-0.3366445698739534,0.42043573850595184,-0.415573526695741
2.081711276653001,-6.20315850787502,7.223950498680102,-0.009047214230957654,0.002860103767135767,0.006627502402894554,-0.5370651672763951,-0.17835514914759285,0.34550779787425573,0.04379727270451174,7.540694097163571,6.261036784207797,-0.009609440791091819,-0.0013124651923352032,-0.009010525722809365,0.5412183346161744,0.357978341548616,0.38877775174564333,-1.5785016842153616,-6.033050030550275,7.4695256741035845,0.0008524562826451389,0.01622533003406362,0.00499624314579384,0.6137217705566614,0.2195825339111428,-0.42433374010554287,-2.0655412186106576,-6.147249649512926,7.274531757836005,0.00829174036905399,-0.011973208947968569,0.012103940603806918,0.2825734913727045,0.4535925887044623,-0.7108987036110169,0.32965811856577093,-6.12260286920777,7.651343929097127,-0.015166311049456316,-0.010089323070802776,-0.00941908435699066,-0.33204470841636125,0.41823324688885727,-0.42024676992155185
2.036562158522829,-6.226450538374147,7.268225691094088,0.0024892725656468955,0.004822553763081016,0.0049112962948809,-0.535349463886714,-0.17376418973852042,0.35188882910618735,-0.0045982863793674385,7.543374021442707,6.245572122982383,-0.003950328334723075,0.001705883214441868,-0.00814835630704558,0.5414737568981545,0.35434232381966374,0.3903042312026336,-1.6388589629914823,-6.100342495635157,7.505305260302163,-0.0005340947034483468,0.009874409482003653,0.0028842678844838232,0.6102758381454332,0.21596821156927928,-0.4230507619972528,-2.1442605565958974,-6.373367559213663,7.480139472656571,0.0020959364863162803,-0.0040035114821534564,0.007680974681483699,0.28083921469590195,0.4479858880919079,-0.7089441428804484,0.27975438155088,-6.123114739271346,7.700086553872436,-0.0031915775731068373,-0.01314639504087062,-0.014356645813845721,-0.3347384555795765,0.415554510960182,-0.41805283303889224
2.090896545234745,-6.165055187428294,7.270670446475614,-0.0033726578015893633,0.0019717979314134945,0.008461510874013686,-0.5402642249288271,-0.17744126493727547,0.3579581775787688,0.0494241843954022,7.588983054842743,6.233044415103308,-0.008051494538491698,-0.001019133175164947,-0.0071955486425926245,0.5387288983309068,0.36525219535116593,0.40086056478072424,-1.5972477249478614,-6.089327655066499,7.509833172483742,-0.006445884447588919,0.0030469747706543707,-0.0021658772899975304,0.6088799709771231,0.22470399155663268,-0.41245399282636913,-2.1124488432200126,-6.335954871770361,7.5101413407210815,-0.0033789080442852507,-0.010399378392468654,8.65071009829023e-05,0.27876002507625525,0.4594605677047276,-0.6962299300338466,0.370381226820941,-6.141873011600064,7.728530745135997,-0.01620431104869005,-0.012782536263043777,-0.01370432818934487,-0.33533987457891656,0.42598736712652874,-0.4062683491130025
2.1112144554133367,-6.1753616387068915,7.270087267243642,-0.003659268938130604,0.0022964455943352774,0.009370883708097685,-0.5355671799619984,-0.1720035507289799,0.3438421711049643,0.06480639492359833,7.541111170417262,6.228670670161089,-0.01020697790606142,0.0007136859209481971,-0.008525363829855847,0.5402177687218307,0.3603224111612313,0.3977711177752392,-1.5761039274864288,-6.011590172884984,7.436496956710165,-0.0075854390981062786,-0.0013696047400543173,-0.0042824943134744916,0.6095818694480832,0.22093004781085995,-0.4187395205798841,-2.045988475051715,-6.163150355463811,7.275989333076488,-0.0035615615541189096,-0.008760806567650768,-0.0015002295092515839,0.27968930917021023,0.45628759755667625,-0.7033166742448576,0.364385431607958,-6.080366715774559,7.751207132736086,-0.008864456777930352,-0.0028243185346535533,-0.00993682544110628,-0.3370938587123908,0.4218677507596461,-0.4094586560965439
2.0519521118817337,-6.16951746420459,7.229410615334604,-0.009054090825064488,0.00042938224013681214,0.008486282532613333,-0.5409589933515958,-0.1734798552164362,0.34968017927831213,0.023471761273746655,7.526178327248453,6.269550558626303,-0.01125209846074118,-0.0031572951899874607,-0.013511067919045779,0.5441818605637809,0.3449718565636945,0.39876676952993395,-1.6066589586646827,-6.060755455842164,7.392646935781593,-0.00631498843513999,0.0027020487002000523,0.0018804698577205088,0.6158366867659752,0.20889934993701365,-0.4197597573112495,-2.089739401050951,-6.116773558082309,7.2008737861581285,-0.00355487960042749,0.009298895789636325,0.006692938078299272,0.28447396438407535,0.4403913158804508,-0.7045706891389201,0.2854852771980539,-6.090854703413895,7.6542653979446635,-0.01705005254464244,-0.007774300387204879,-0.012175354110433004,-0.33208832824671575,0.40597140873504023,-0.41104247742294037
2.0978256489932607,-6.22278119762286,7.283810220565018,-0.0020929026331090892,0.0052241426744784915,0.01128202614272001,-0.5389899627693481,-0.1691074771917237,0.35166534500821583,0.03653778816992194,7.578220402675441,6.248090870222225,-0.008144827710128092,-0.0019593862121352673,-0.007240981511095286,0.5456132199978893,0.35681207334599563,0.3910019922814546,-1.587331639383679,-6.052196146383342,7.4528871205837515,-0.005439063726989267,0.008165181258070493,0.005916806384917796,0.6159058628234241,0.21788147328007212,-0.4228404723131865,-2.094029678386841,-6.2822252258757,7.472200105990479,-0.002510188171049026,0.01563249465428335,0.010330841215976938,0.28940889486496824,0.4523297825486534,-0.7092179306606156,0.43015860530834366,-6.209153404349666,7.734085949329638,-0.011214694792798236,-0.005545648740217993,-0.011935905275868384,-0.33079631224757505,0.4194221223963066,-0.41633952024517495
2.0859351270719553,-6.153438551399788,7.281829719310127,-0.0028105695082481837,6.732455438907804e-05,0.01351702102697491,-0.5375606519450109,-0.1769231046279599,0.3511317240328176,0.05866427264396567,7.577828087469139,6.229735163518347,-0.008919005728341325,-0.004653017587117237,-0.01311405178241234,0.5341258360407586,0.359485496209422,0.39289115347488573,-1.5863774811704157,-6.122504939948856,7.474124878362434,-0.004684633286595601,0.0034805423411949465,0.0038391974397352507,0.6030104767676133,0.22364199822562728,-0.4202486289878222,-2.11023014366074,-6.347810730084123,7.514022351789051,-0.0025134331334244675,-0.006248376461109666,0.004387054989859906,0.275028827463429,0.45363131959402575,-0.704765766597296,0.33375673653059124,-6.110874605020089,7.696461678818522,-0.006612692635633667,0.0059741059940353,-0.0017228228808173441,-0.3434715779571676,0.4202276661098292,-0.41334410916874
1.9950534951891739,-6.231755968321811,7.213472150109749,-0.002035127277511681,0.0008703812894457283,0.010701844438007436,-0.5351049128420018,-0.17328194992197998,0.35262445370193796,-0.01767518471071676,7.534656367218909,6.23208400821916,-0.010307898265323249,0.0003785654191757177,-0.00593756141653712,0.5434218987288529,0.3522838116951396,0.39815506767021264,-1.6719142495773467,-6.0181569334271146,7.46115291789234,-0.004102817011770229,0.0026668507271119662,-0.002576167068967226,0.6109931727903475,0.21391392382637464,-0.41422610977313895,-2.161090828146592,-6.264601195488689,7.342433064212459,0.00010850791659701164,-0.011510357804077689,0.0005566599088703889,0.2830435777732406,0.44430308561841264,-0.7016322960983773,0.2631996944000911,-6.058507505285692,7.635004297518936,-0.00426566233837316,-0.010302421901650089,-0.0051072734188983265,-0.3347274919950069,0.41283073996120984,-0.41172095722322977
2.146329350636336,-6.147445361002622,7.343779793788847,0.003473894934068085,0.0023555739412109483,0.007340227407549716,-0.5490120116956451,-0.17271130479128657,0.34990979154803925,0.07121164255640146,7.5732559612951835,6.27484120146816,-0.0037002096891924916,0.0002210649668065223,-0.008420130909698308,0.5348576172648573,0.35526241452630186,0.4029744682739859,-1.552834767758085,-6.108956409364071,7.429118276514135,-0.0006998820661466027,0.005963036728905791,-0.0004992995726083535,0.6059021930622238,0.21858773094901282,-0.4145484874836112,-2.0244095336546266,-6.189309527707966,7.357833828992108,0.0024683174152701536,-0.008419293451867173,0.004991291607271667,0.2774897123824426,0.4514123549800922,-0.6967205404688716,0.43020502998301735,-6.080382098869934,7.733406277500837,0.0011141597932489066,-0.004789366850332904,-0.011942253435932427,-0.33787037564201067,0.41552482154613696,-0.4092488003117145
2.0665462629288234,-6.157107884727461,7.243733589097603,-0.007333050692912101,0.0032702338884589115,0.011211267629039826,-0.5417002630030097,-0.17422468015797923,0.35211479405489343,0.04473076983297449,7.567417627068396,6.150983697883347,-0.00996606648341373,-0.004044483595216185,-0.010818674655252583,0.5324285795741037,0.3523153513720437,0.40253161427805356,-1.5772085391984536,-5.951544050093109,7.444468206400696,-0.0038468670411338623,0.009757328076619467,0.004563372521836396,0.6024445833451646,0.21348809864970258,-0.4144616631993916,-2.0846988135454025,-6.171374942286508,7.329249127051871,-0.003319989265793567,-0.009651303995206313,0.00829405133014802,0.2740204203174833,0.4453322709907339,-0.700618612716837,0.3617246527647271,-6.158246626050341,7.757220186651003,-0.013420494679796982,0.0015338276836174896,-0.007264983908207194,-0.3432675894564981,0.410915806728632,-0.4077854984109692
2.0661286665479266,-6.1759540340548575,7.27023898782677,-0.009065229633229104,-0.0008248209296167332,0.015364544546809421,-0.5397414894182946,-0.1737357441909883,0.3506575011316945,0.012684875474998468,7.52365860303006,6.29199069163901,-0.014042754109853676,-0.004724695555999299,-0.013127497663808904,0.537779462110674,0.35887788923529296,0.3995004168458088,-1.6300162128564326,-6.161058914021857,7.447918199118126,-0.003726476668512023,0.006969618082591383,0.004486274224994585,0.6098045519798849,0.2180849993843033,-0.41356393588435664,-2.0923017097037464,-6.3210426163373405,7.316021165976214,-0.0014870493158628123,-0.00016414325501905625,0.00528877143805853,0.2789426867045473,0.44969523142485224,-0.6972159214488703,0.31574010541344266,-6.093357410382687,7.695504219041848,-0.012197970662324637,0.00749110354637546,-0.0015050964681868125,-0.3378434375685644,0.41893876015088216,-0.4087405380337227
2.0551048796783173,-6.280614577459999,7.239090562004686,0.002944337440590344,0.0021123310741969514,0.00920748040828325,-0.5424305293282128,-0.1737337633746518,0.35236013627735396,0.02808095478816227,7.605344751307906,6.241365846994187,-0.0033608638058395617,-0.001958707649103921,-0.009659264766220014,0.5387494868587328,0.36034948641792625,0.39972146371916123,-1.645905759809162,-6.001921212111376,7.553506581903768,-0.001357771841228759,0.0033310727799560694,0.0032647344090755703,0.6117608193649811,0.21853000156667549,-0.41528120172740285,-2.1375900758952175,-6.251668059963747,7.506519709038031,0.001916715704550705,0.004058301187558026,0.007016323351941087,0.27796801464301335,0.45190048599942745,-0.6998959961929363,0.31281136656502107,-6.140082278558787,7.629600400088137,-0.0009089341483276512,-0.001737031452013177,-0.006319212486435385,-0.3378399379958625,0.4189343852510102,-0.4080075594438294
2.0752481205548166,-6.094779823902418,7.305300653699114,0.000952176835291398,0.005638009822316345,0.008701828860521154,-0.5443186420993439,-0.16414869110084312,0.34362655180880075,0.02178129018305818,7.5302896755177455,6.199774056013316,-0.008649867067485271,0.0026310405460690167,-0.00570741722320829,0.541664740336376,0.365910508824061,0.39572677737858863,-1.6125598860234673,-6.126401025170392,7.428095031892373,-0.010515730065103824,-0.0026057487061038843,-0.0015885039749743994,0.610608581027662,0.22743111420080173,-0.42373298442033874,-2.1121051382399947,-6.356046622164909,7.397030991548384,-0.008364206103716475,-0.001801178507737452,0.00040338720581686323,0.28213026429614085,0.45676315136872914,-0.7043018887621254,0.3461178619272927,-6.01224018644737,7.737387556411413,-0.006071830121784688,-0.009349174413236858,-0.013398202930358436,-0.3353737231910785,0.42504392867915175,-0.41188998260936865
2.088327592224256,-6.173116097423377,7.291802235691888,-0.01198424679470229,0.0008140511676218543,0.01185378009160628,-0.5463454217622026,-0.17735267285486514,0.3484220097679194,0.06227954234390747,7.5953729251316995,6.230782874542955,-0.0151862700025645,-0.006689534825599063,-0.011885378085122363,0.5390149679983675,0.35474441433707293,0.40030377011010787,-1.5862604011248824,-6.019586268416096,7.427864130203817,-0.003929430809890671,0.00387085724960957,-0.0022114376915090745,0.6119966183641107,0.217323765547407,-0.4142838108823332,-2.056848698908348,-6.142121974925703,7.316971580827536,0.0003399543314262522,-0.0035314642544568824,0.0004333096722181794,0.27990758672631744,0.4489581245777792,-0.6989294521442435,0.38689439563696837,-6.111603398858551,7.7342237361014,-0.018226281953381426,-0.0022740481986140834,-0.009401829234049216,-0.33686458634291283,0.4181895908773673,-0.407040633131188
2.081191835113,-6.206607489251425,7.209996313431519,-0.008607222482368664,0.0036240458798335326,0.011562454652878385,-0.5407122111285149,-0.17420021197467261,0.34747920047895164,0.04603226677698097,7.518630426596838,6.212586842550261,-0.01428957229613331,1.6169110042950488e-05,-0.0108509096463596,0.5368111173024656,0.3559690967276617,0.4010126630162334,-1.6012512199483893,-6.039528242222447,7.42188715532453,-0.011690072951033909,0.0016568116574630506,0.0031457030265427,0.6063566637024682,0.21422260999913115,-0.4125208138091606,-2.064481566088119,-6.166886434987257,7.28339701704071,-0.008822873581320825,0.004117898749410881,0.006594866235006693,0.27550992985622524,0.4470291512856146,-0.6969608663343166,0.3550465162578466,-6.130639746423815,7.656346895041768,-0.014279850180394085,-0.0006102185624688889,-0.008083701697336278,-0.3408050337807644,0.4130879198402769,-0.4065642555300761
2.1117587171810084,-6.19235867055133,7.2753300796193985,0.0020250574184925256,0.0038257283306260036,0.009365037009646783,-0.5453563718140926,-0.17443297530620092,0.3491746985644801,0.08733402842043834,7.511231091429961,6.316012932707606,0.0016460035368004078,-0.006510525957168807,-0.007457352755359754,0.5409675385948555,0.35851535756137215,0.39169875707904034,-1.4993208561268216,-6.003695433950795,7.096929104663264,0.014336961796836871,0.03283133492810986,0.022310410827107465,0.6095562953416557,0.21769492497019666,-0.42234754582520867,-1.9864309176273807,-5.848610334281328,6.813340153824899,0.019228605757399677,0.015981770166114965,0.02956232475608056,0.27914848928120284,0.4504359700621049,-0.7079581221345177,0.37747591401304903,-6.102259073564725,7.681461933254046,-0.003892035095691459,-0.0071450341214445694,-0.014871497611784055,-0.3366451770126318,0.41969793916650144,-0.41460089893236535
2.1103531229727754,-6.207759143448486,7.218769861970721,0.0127460166735805,0.00702508475054271,0.015443818478747418,-0.5427002676369677,-0.1791019085000544,0.35208181783131315,0.09127470933339143,7.5371061010683755,6.27193344338259,0.026819160185453095,-0.013684523714387246,-0.013937779401948522,0.5377812142876712,0.36050494202489053,0.39458950388081554,-1.4506215838428456,-5.8032581185998025,6.750174393618271,0.061297884520676596,0.09192104381940853,0.06252635711794005,0.6102898008531745,0.21772213342311117,-0.4203949251849762,-2.0094638590924125,-5.211987466245608,6.585223109403744,0.07247619622964326,-0.0017706113430367872,0.07894923121572593,0.2784212577369829,0.45141726399447857,-0.7079543143296011,0.3872356170496965,-6.154114840600051,7.651839971742113,0.006438906938186973,-0.028579005787735298,-0.023527001947251155,-0.33933226130817395,0.41922631489651446,-0.4141028702819743
2.1609998266389816,-6.2862102071999,7.310419720726854,0.011914706578329059,0.004619475150245582,0.005648526753816946,-0.5438734055379989,-0.17318679224274836,0.34405993749515024,0.12560325048608864,7.519879406972922,6.326518282476144,0.0658748482684903,-0.020440629560027245,-0.017959431694603317,0.5346348333774857,0.35645976838977517,0.3870828131032633,-1.5177175567462315,-6.218638611582282,6.9571719031100026,0.11790929357002548,0.18252387373677545,0.10271000979427082,0.6114791136611715,0.21378267993517056,-0.4217941043232879,-2.054399911766422,-6.231343064786008,7.164644022471627,0.12294460985928685,-0.05934403773368265,0.13341141240917506,0.2771427203868099,0.44410327469082295,-0.711863224242892,0.4990350489755814,-6.200037207563448,7.902129429759284,0.00340266534198055,0.0018947438639580997,-0.004578070364299517,-0.3459614496735904,0.41587177455866414,-0.4167763200641027
2.123400189218029,-6.163796109987052,7.225582876594271,0.014669425916757945,-0.0005368211025947294,0.005194748923341652,-0.5372647970041925,-0.1669023122060609,0.349241237034395,0.05123611383768912,7.594024466901945,6.101705555868329,0.07762676413561767,-0.02197905716203894,-0.032704953556013584,0.5350966813856816,0.3600098297259535,0.3948372939322226,-1.8134947450653323,-6.288659223524178,7.947658436687986,0.1330384947710285,0.18220625429069928,0.07555241991764435,0.6156131920283646,0.2114415037761777,-0.41394168168779083,-2.316949576701267,-7.437162625114918,9.1152754193103,0.1295297159351076,-0.1710750438690936,0.0915390569590819,0.27226474985859145,0.4426647795859586,-0.7084272608613769,0.4448981740117793,-6.157926856140223,7.747488714379515,0.007051896635707157,0.027917546440215144,0.006721153814467631,-0.34200828621075857,0.41849366994164,-0.4109203739204927
1.6566933006929827,-6.15803740134365,7.273800593577043,0.012554148145130211,0.0009349725313481988,0.010801059425618768,-0.5377568307628044,-0.16763451806436883,0.34948047616465117,-0.3285780998633965,7.825614206104493,5.966009029933722,0.006173528350407427,-0.001159674389893897,-0.004954884460422864,0.5451288274043019,0.3541899533833287,0.39495160323908834,-2.3148282947081755,-6.110608517672295,8.62632873352965,0.03300367326256489,0.08537483476826042,-0.02079357995800841,0.6270491568015265,0.20647864663901513,-0.4133731152949057,-2.6411456185291935,-7.446208262161624,9.154729809224794,0.03599125434710337,-0.28001174918640526,-0.017343076719307546,0.2817518712973386,0.43919408210155636,-0.7118861154085105,-0.1045248809716239,-5.980812695274999,7.405785955514868,0.012872120048672107,0.01312966855637309,0.004247032735023516,-0.3320507515298789,0.4128216801724075,-0.4134428411921932
1.9811429967131322,-6.259205813422522,7.32656634473129,-0.0007165705167669344,0.004283982370753091,-0.010261071812514377,-0.5360719310719628,-0.17445695293517083,0.3460236284003627,-0.04517590378032857,7.601340593777267,6.281122883970626,-0.031119823680636267,0.029861444965277834,0.02366825083676006,0.5427075101428029,0.3532812744774303,0.38495230769564415,-1.918081461861291,-5.919163284183875,7.941444477654593,-0.03635787126661223,-0.006937289677783198,-0.07176953486603475,0.6243650064432084,0.20667352509085868,-0.4175262611198134,-1.94512209057132,-6.020245906774997,6.766214566634681,-0.018239728588675404,-0.1769982658460056,-0.07300129036200788,0.2761115007573552,0.4375218421645257,-0.715771417940449,0.2123953630719682,-5.886499915987905,7.670861525538765,-0.002070336509782422,-0.04173889483020358,-0.035054257445986024,-0.3354878843223732,0.4121317175614983,-0.4163606344957546
2.4218053317925734,-5.920643140542947,7.27103388442227,-0.00970461040248932,0.007589005622797299,0.003976533615229103,-0.5336559380875365,-0.1786352152191307,0.34868824679436244,0.3802695219118259,7.451628998507261,6.174835300225718,-0.024795102438707972,0.0074683035472198145,-0.002253094356781794,0.5331622258714199,0.35606018297434133,0.3927028088887467,-1.3237332641237873,-5.693797444865345,7.425388569575405,-0.03952609530007484,-0.05024020185336545,-0.025693920799724133,0.6146125372253003,0.20845790996121505,-0.41755367987611003,-1.3469420071464047,-5.167954973492454,6.080465502859795,-0.0355371034910528,0.06396646679666729,-0.02181792231210535,0.2688140399956491,0.44171438315984435,-0.7152505662975289,0.7785395381178452,-6.1950154704143925,7.944693202763188,-0.013622560741552285,-0.03763396649660816,-0.04070876844827037,-0.3454770287838964,0.4143945999798592,-0.41532340689898906
2.2636906680318503,-6.047319024099268,7.290685588751898,-0.03976375798658052,0.0013377786612700647,0.02908517543419851,-0.5412000099336935,-0.1746766956630496,0.346010015119517,0.19733360231275554,7.511144258550198,6.1531859205703086,-0.04452430390662734,-0.018935921987501884,-0.030004540541616897,0.544368936585679,0.35986669501438573,0.3987628849654891,-1.5420425560017765,-5.9093782920883235,7.660593289671225,-0.058248813697788816,-0.08550487046158788,0.025273224154178816,0.6214931428834944,0.214101184786556,-0.41276789258224705,-1.6992270187462324,-5.843380360228877,6.926648764591592,-0.06778489419233452,0.24239069709117203,0.018967201295649706,0.2766793703895667,0.4433669860561492,-0.7042930266347378,0.5942242005490104,-6.329422533152005,7.87300388162584,-0.05326953270461192,0.02580728366997607,0.010864673258302206,-0.3366201681396232,0.41843473545083576,-0.4075283511644815
1.855840532164765,-5.828941493839396,7.515763240640751,-0.08231716865595977,-0.013628456330497883,0.05668440412947804,-0.5365779363523957,-0.17522489978750747,0.35212074192137904,-0.2136928371723926,7.858565263893341,6.0163926613631356,-0.07294126478965957,-0.056780389050623756,-0.04333220053429753,0.5322104236342826,0.3504136867887205,0.3910864440391076,-1.9662867570682225,-6.129562311761445,7.859608019535823,-0.07333540638971701,-0.12625983567737728,0.022968287667493568,0.6082239601865184,0.203315188721767,-0.4213728923175538,-2.3626922541058355,-6.636959925014903,7.778775174583236,-0.07826177089073869,0.32448121750908127,0.01961250445174824,0.2700289846284245,0.436574504126514,-0.7091561968418738,0.13050610216472286,-5.922821135967416,7.694181389116091,-0.09493822986974751,0.0324590770694205,0.02916284833483182,-0.3474668938495326,0.40878947873256244,-0.41461434003072967
2.069578021600621,-6.304508677474699,7.211098600223054,-0.10403054101009898,-0.012615014624400256,0.0638411169167041,-0.5414193040082851,-0.1685824486529882,0.3477567539349118,0.06754811811292155,7.602858123610212,6.1684717200511345,-0.10716838161721258,-0.046789347970892424,-0.031236383785679108,0.5507394547633697,0.35566395280151797,0.39420430118980926,-1.6461446750423212,-5.8997150095490865,7.432306298482864,-0.11371525942861288,-0.1296553128146769,-0.015191037818778431,0.6239422743327356,0.21522495509766912,-0.41742613918716165,-2.211649119500653,-6.304103695856325,7.8271316425991335,-0.10845110430036721,0.27875815770417367,-0.02371177343443391,0.2937929923503854,0.4452164235543489,-0.7011849549942447,0.3890637828669405,-6.088874698449634,7.550143657910501,-0.12334270438296883,0.007790947094598187,0.006853577231251749,-0.3273323716778347,0.4200785719611295,-0.40780689094945666
2.2152797373632964,-6.359048288544831,7.117030034314292,-0.06275938939657011,-0.01960907163456264,0.0635627106816589,-0.5396814256067043,-0.16465708728858772,0.34339042151282206,0.18865357998394258,7.397489680408638,6.470693679873661,-0.07585151104633567,-0.056557479555579084,-0.03694393597476952,0.5412028894970579,0.35860205125020833,0.39682442836748133,-1.3801206936175192,-6.099559389861619,6.713403861298653,-0.08033424896454416,-0.08173448661201864,0.018187691238097867,0.6107645052584368,0.21588080594888953,-0.4135270712363034,-2.0064759018854654,-5.528236358089055,6.70813340281126,-0.08821075690483142,0.20707143178172513,0.011240456091417217,0.28648851949958926,0.4447661848687256,-0.6955414360124436,0.5384812282470797,-6.3295563500798036,7.730816064289135,-0.0745673545434107,0.000737145460240182,0.00604958436322174,-0.33782185497166767,0.41915897430040144,-0.40458820544590385
2.1650283469606517,-7.100442607023959,8.019347485338855,-0.02290940891087347,-0.03741644677598382,0.03188038633728209,-0.537041703050682,-0.17106047060764903,0.35019271104623617,-0.02007174175049871,7.622762583203345,6.5301280358245775,0.004120350803623589,-0.037050472831363535,-0.062655031515653,0.54436945277029,0.3624460935893366,0.3923708271806209,-1.7025171244109323,-6.152496042196793,6.702433843741118,0.016212939915339314,0.00540636962361594,0.04696823918132806,0.6178699101947194,0.21918990410038852,-0.4167591742846604,-2.3220237088376603,-6.335416573993724,7.138408931670098,0.0060121710083851174,0.12963706049634832,0.0538975959169986,0.29187841332514336,0.4505971944922621,-0.6994632633058718,0.526137940564367,-6.4165873336060795,7.931032399960405,-0.05502921887188989,0.052960291337154235,0.029881692352231058,-0.3341539485605243,0.4245442729104918,-0.4114097743592296
2.641415126716928,-5.829121505403113,7.121704492839053,-0.16395922481968433,-0.10301563375270532,-0.02347381539197876,-0.5336469237997771,-0.17330725584935613,0.35555783955497405,0.528417938107034,7.870533235255596,6.525819316132632,0.11386674674710161,0.04017299613840965,-0.17577889101793412,0.5417209471156228,0.3554864633752408,0.38564584739773383,-1.1680754481282731,-6.34541052893653,7.694754924276105,0.11454302378382923,0.042214601172590786,0.04622872200587239,0.6148475115473082,0.20738873916765171,-0.4229074978485655,-1.9958426085128127,-6.138323917333832,8.555830072494032,0.10988434133009024,-0.024984273924830207,0.049856975980310636,0.2878861524101537,0.43890554413536553,-0.7038535920770147,0.7478642391380892,-5.797022155402115,7.950916255393552,-0.16946723338252137,0.014293040061137645,-0.03807971455361435,-0.33834255492181764,0.41723287870715453,-0.40850432971967104
1.811714332173934,-6.4303442275194,6.322763146834974,0.02214132099652988,-0.09002401785323423,-0.028354437097025745,-0.5319330664610596,-0.17715997318737742,0.34577254425356213,-0.016884873509670772,6.938481173118401,5.910137190559122,0.08237721636190586,-0.019183658622906632,-0.10607808294036772,0.5417025202267431,0.3563735653529157,0.39490928431558303,-1.703655453356091,-5.516919464677429,7.672918667637392,0.06308599117630465,0.004063514796887727,0.07597030563186308,0.6158395658724084,0.2092049762490238,-0.41610238608752154,-2.023612077334657,-6.1580254517085224,6.984636252357052,0.02176082490975132,-0.053053448394458864,0.04803799238835484,0.28918366086238895,0.44401415835872254,-0.6921347839664048,0.5343140121750327,-6.079729337072395,6.889206466324017,0.03207574580159483,0.11660971869994437,-0.04004732602797989,-0.3363493843276402,0.41790711850146384,-0.4011846077521181
2.040923517405978,-6.799420845638122,7.8257610200594545,-0.06454602809373593,-0.04139879879611059,-0.04060856098856259,-0.5231017769641663,-0.16503472807934885,0.35221680805110234,-0.23052801447230983,8.11918567830064,6.234408751387352,0.02667887505386989,0.085614610401871,-0.08186895493162132,0.5409645606509946,0.364417310585493,0.3796353031941481,-2.010095025874089,-5.549919496171368,7.990586220367264,0.007932168807440028,-0.04133060902351388,0.04446917419691655,0.6139457346601284,0.2170701595344963,-0.42844307497531536,-2.3763508810090457,-5.893402455501105,5.983254477069738,-0.02183161356563562,0.19066607213135928,0.02789041564982588,0.2933124653204902,0.45059598698636355,-0.7072820028089228,-0.15956107511002587,-6.490320063214043,8.130006881969349,-0.06355910359825734,0.04494507556669804,-0.07185439358932615,-0.3361150201022162,0.42506083588334315,-0.4138393994544749
2.305161273396872,-6.5768199951281625,7.057060278053087,-0.04287324534836835,-0.07906413468008756,-0.07355582938549185,-0.5265433066843984,-0.17038480481122625,0.35144302439413977,0.16024904535430973,7.47184889231815,6.265580689522806,0.028899746527844602,0.15344449539562582,-0.10042266657188552,0.5248601667274855,0.35768409980717464,0.38948718047572156,-1.5863127711902116,-6.089390776353297,8.097934698157687,-0.037065905207146956,-0.09468343773577649,0.028128474873517988,0.6011994742505485,0.210477616001345,-0.41978238491420083,-2.0119525005525145,-6.4826018141153625,7.161909790461319,-0.049167119745738674,0.45630061520696513,0.02254042509921454,0.2865087758853585,0.44525000932930164,-0.691147020969439,0.7233824504226964,-6.11099347562462,7.497590964763267,-0.0370354527974604,0.07752398071102552,-0.10092442822629032,-0.34637120049251524,0.41922610014996053,-0.40552401487387774
2.2852904262769367,-6.146243011865839,6.846176669907615,-0.039631934917430514,-0.07202724888796581,-0.09010033379145485,-0.5263020569268377,-0.1732867730002221,0.34678629419103235,0.026604789232192283,7.452118987520057,6.374329715574647,0.008219269664542894,0.1506554524294126,-0.10784093874531372,0.5363312609347051,0.3608197972389095,0.38457037365566993,-1.495358048481072,-6.457863705182108,7.291177799959586,-0.04890704008399974,-0.16842431538935457,0.025639119794744793,0.6100269769801056,0.2156027987280488,-0.43037057945234386,-2.4107624035401827,-6.57795342884912,7.886300204579031,-0.05608398855038042,0.4916629568373392,0.0009131463439922172,0.3055646278476682,0.44904625001456144,-0.6936598338654012,0.5202390114693601,-6.315015719769287,7.677290380489601,-0.020172001294698743,0.10288152307707292,-0.1204531639398002,-0.3408007282509086,0.4187478448644853,-0.41409871497868633
2.1801199731777685,-6.1391239938754065,7.053569069685832,0.13340699666676087,-0.08065814560898424,-0.08472650238428799,-0.5156148073693545,-0.1862593412771929,0.34404536748726877,-0.15380701264653585,7.918106052510624,6.5777138937752815,0.09590824991561131,0.07146769234030238,-0.009605268901833504,0.5341535311579318,0.3589760342443918,0.37702848098609393,-1.7632667973611205,-6.083508134433576,8.324990637115357,-0.032680155067027414,-0.09839808769251684,0.04534528713384453,0.6046861295063652,0.21953331253359362,-0.43141147449348033,-2.662590778933474,-6.159289210666333,7.367736264554109,-0.030076005928017315,0.4572606953278722,0.04803001488328614,0.3102006851945473,0.4475526016267695,-0.6922145803339766,0.7114888875703775,-6.266190071230721,7.705627536259613,0.16127548192447544,0.2093003183960809,-0.050836258864390714,-0.337888340799369,0.41825633641990706,-0.4170456392703883
2.0330971870966357,-6.042607098535158,7.481904288288996,0.10336736394877599,-0.0991764168365555,-0.0878563878311821,-0.512640082130679,-0.17458312003727797,0.3485197978768208,-0.4071784745290309,7.561430176830051,6.146814961287598,0.08644440541624981,0.07501651685284454,-0.0981991335475926,0.5341120475510137,0.366669536873285,0.3844687460626601,-1.8391698409504273,-6.311580899218092,7.154824918272754,-4.438447976944772e-05,-0.2171618439912048,0.06763762061425277,0.6032660584091386,0.22524603897617773,-0.42637957975382,-2.705199379405772,-5.956365256256847,6.899004395949457,-0.03243755138932858,0.5556383703610711,0.04042958778367572,0.3207889039194165,0.4538260101250744,-0.6788234113391605,-0.17615643890419902,-5.94835815569465,8.214638277234217,0.12014322835576989,0.29287393594801614,-0.08803815924115334,-0.33441724152787644,0.4228458414013547,-0.41288369743120906
2.0037133254409203,-5.943308151308681,7.202689692673166,-0.027090683401756268,-0.08576598032672932,-0.04980567352642556,-0.518068130154383,-0.18411057863585797,0.35357420568631814,-0.4892275203218015,7.4944480167431955,6.408873257637083,0.0298842383054235,-0.025087498785113935,-0.08569097546773269,0.5392898502305585,0.35349991053938307,0.3842097795839531,-1.7166950294452852,-6.751926529976054,6.685374689173703,-0.07207733064760806,-0.12892972480689305,0.09263579053980277,0.6080402647831399,0.21124114064257113,-0.4293194432138785,-3.0051250681394523,-6.489433244386173,7.354895273496244,-0.07628812711627303,0.4459975371160668,0.10741765793617895,0.33392041444774084,0.4432481110873309,-0.6761993739553166,0.054572267618028775,-6.295103218283884,7.36585837098433,-0.015109974777708294,0.2744203985078076,-0.07678322880703223,-0.32572288285836637,0.41083051751572575,-0.4147059735489662
2.106226180421882,-6.144696502950697,7.119100296141284,0.08311119217106805,-0.11002708793752998,-0.02055825520054765,-0.5045569695430633,-0.17189702868829362,0.3424527932484363,-0.3033394875013857,7.558688782341173,5.782947544372689,0.12194227765094383,-0.09248075379909441,-0.08794047218460567,0.5327607040258722,0.3420452200629058,0.372425743351578,-1.5648748309333176,-5.971794158040106,6.551081169544572,0.0686409653259301,-0.025886378583829948,0.0752150555536529,0.6018887173609759,0.20509503491035116,-0.4345860279365654,-3.0062657912977824,-6.775384246230323,8.220436779458842,0.09980798239186034,0.15916640665328688,0.12325108139869041,0.3297163206724287,0.43570696919305185,-0.678630912451563,0.014623926758585273,-6.102805704661767,7.3934206269212055,0.10031993871748043,0.25027618117460254,-0.038213305371015284,-0.3314639552441586,0.40117516468853615,-0.426455534887313
2.5071121088389634,-6.512012183805814,7.611562054537931,0.0473060868727211,-0.08184875683276993,-0.030369168752546773,-0.5050588882954067,-0.17289618855208438,0.34635141686872023,-0.2000149370367319,7.995013217048054,6.568821985860638,0.14756025368314654,-0.07006562726437636,-0.09005457493661785,0.5312475390115722,0.3519144703153929,0.3788509807863567,-1.5874258064168003,-6.306455291894584,7.05279613215679,0.1292144915729466,0.09296040907754749,0.05903801433551058,0.6041308580651024,0.21079892886513998,-0.42833480071181806,-3.143310539537261,-6.042687595882878,8.79546856342527,0.15429214476242697,-0.24993082893007626,0.10305140294016009,0.33000492521764174,0.44180634231456295,-0.6764292519552402,0.1940200324040356,-6.344965367844477,8.422767873088642,0.054239371764731634,0.195760750119024,-0.05727023343242355,-0.3257344459265653,0.4133078428714032,-0.4207953103254609
2.6276792653459915,-6.5520717039153515,7.399377680395056,0.07921955263790786,-0.16284310439219504,-0.04399632605982476,-0.5041315192015513,-0.18122811234322228,0.3506954699879202,0.02686752813615472,8.653898737430362,6.50540319427951,0.114881010145016,-0.08361240917065374,-0.09637494903625064,0.5256729441099478,0.3458541512481542,0.3681994638293198,-1.496076275754951,-5.7360092015508,8.258121084020127,-0.026445456310489227,0.17889628011570902,0.1291858458047622,0.6048329769561973,0.20691259830658176,-0.4268043273038869,-2.6237811632305132,-5.6295883031010385,7.237017958523572,-0.07061796070096407,-0.42619554683584954,0.1152381789717638,0.32314589463705523,0.4423417920641597,-0.6829936616057903,1.316520746125677,-6.692759255698775,8.936893915656606,0.09455978476371507,0.48223236987544194,-0.02550800632654054,-0.32410156795091377,0.4060010469412538,-0.4257298608370865
2.342299625017697,-5.9303744548899715,6.784473207726848,0.016131617160949786,-0.2657431066510366,0.015573116008953858,-0.4992061821047421,-0.1763157602772713,0.3421928395324117,-0.12716323120809755,8.174851211900657,6.3110126294861,-0.03160996961231433,-0.12468620916949982,-0.08053463409644514,0.525946895951505,0.34109523200898245,0.3609545211750576,-1.7727190696810073,-5.996077723758911,8.550572854958986,-0.2278000012721262,0.1459680925050916,0.1697895052700382,0.6126744369747091,0.21053398636992882,-0.42564626544339573,-2.5276670467671427,-6.077859400847155,6.09268612383096,-0.257712816531752,-0.14028531370843486,0.14330976075270505,0.3266127554282349,0.4486657972926534,-0.6800713565011569,0.6782064723393821,-6.803397211673087,8.068356718868522,0.0321963807631576,0.902186450087098,0.015497423753453091,-0.30825577802715426,0.40862555616138924,-0.4345791077567686
2.549949348677047,-6.267470312775676,6.744907493964842,-0.22636330492404766,-0.3252916151437223,0.11059221780058086,-0.4938558103461432,-0.17350160164366296,0.35662857987468977,-0.04190321573068882,7.691808956351245,6.655422736590305,-0.3058043247637597,-0.22004477213554,-0.024793882422873295,0.5223447382274068,0.3317963141144686,0.34596490184293943,-1.7661301457879939,-6.4267296569892185,8.063037120404143,-0.43932497129448683,0.07149210257580299,0.2164234340139469,0.6149391843430957,0.21928799844743035,-0.42677145471829303,-2.6075891057284624,-6.132280288369955,7.165416595685664,-0.4600078938951678,0.1363622716548669,0.15942759752394295,0.33131818029384624,0.46060222637542975,-0.681055661629629,0.40107451304529107,-6.059310449540127,7.1520221400130115,-0.20881715629073044,1.0779319544713237,-0.011321750628101725,-0.2955714881633323,0.4149511552826183,-0.4463202552478809
2.780747304157719,-6.289397957815558,7.415715714953485,-0.14182909270128446,-0.33781487372105684,0.011167119161041896,-0.49117016912252,-0.17809650844353173,0.3475729645605051,0.01179295772586356,7.830753073227539,6.858859461346655,-0.2950687524653476,-0.2361560123240247,-0.043829913469667726,0.5146463733955176,0.3040844891788219,0.3405557862358184,-1.74657460096672,-6.324608163771632,8.045842668980681,-0.5491419526172039,-0.023795721588575056,0.25738955855831386,0.607297159418879,0.20966966112828292,-0.42147966671491,-2.8088072084625226,-6.417226914548245,7.744666266075484,-0.5653294417743624,0.22694164007544715,0.18980243798211316,0.32939249522667274,0.4562070573539317,-0.6676240997214022,-0.7586302557374113,-5.21736443762878,7.422747985743037,-0.0814715971231346,0.9694170082418632,-0.021244698129205163,-0.2900600085160557,0.4007544059327313,-0.44692031940623295
2.7669232042521648,-6.19372627357336,7.325067738025908,-0.33834320130419177,-0.18907178269851427,-0.05296526934168254,-0.47872570500543044,-0.17889502849508876,0.3488176747941466,0.13518583405617746,8.384681966400239,6.621007418703754,-0.5686602947691668,-0.22738999746405544,0.04345524840961324,0.5079105932920973,0.28215692246462915,0.3304118508361328,-1.7789566491158113,-6.050815501384943,7.481870741571277,-0.822805735872976,0.002546564393935604,0.27389821457124935,0.6012517871737475,0.21714660423855275,-0.41525506294088693,-2.9165315413059894,-6.258582572124284,7.410048138892723,-0.8420763494681371,0.18999563773777736,0.17802921908504535,0.3319065543026885,0.4620423349891424,-0.6578624318371566,-0.9791652042616963,-4.939083082600167,7.550652543178767,-0.24668339288672977,0.5784429274626625,-0.18153012990772707,-0.29200922937827173,0.4017482923672775,-0.44739309502481645
2.6083948226712117,-5.674877110459631,6.882500736078739,-0.6066879308476762,-0.1957188824281085,-0.13634406369863536,-0.46946913878919355,-0.18333530643116816,0.3490559157116845,-0.03865883139555967,7.498006224816355,6.8620618621447385,-0.7804714164546884,-0.22740444404970556,0.052912525375913164,0.509503943881745,0.2548142618992394,0.31573292232944844,-1.8820603966251872,-6.5837017279314125,6.785603659718639,-0.8854527230347942,0.04765823156659159,0.34061791731676894,0.6115255736686617,0.21958173664961075,-0.41090322847740623,-2.958892137559009,-5.80620984216989,6.884227371655731,-0.9346914574594677,0.095866596235314,0.2012145675530266,0.34420787007339304,0.47246048003859437,-0.6496011524545189,-0.031380580646710635,-3.914736721258576,8.065578357893123,-0.4478192766985028,0.6469373375174237,-0.4673243837294356,-0.28030757773796694,0.40143918471963913,-0.45062490169464126
2.7762201739320744,-6.980765703840231,7.072376973932779,-0.974755651154695,-0.16520527505273305,-0.1274716345534865,-0.46727887815094415,-0.18818467228471808,0.34219457195444863,-0.10143458289982647,7.097355667787806,6.87721723362773,-0.8278258704354505,-0.2986113381810233,0.061055129035380226,0.49469390974385463,0.23726658488984478,0.3064782141002017,-2.0998256689733044,-6.818810578683041,6.743849801472975,-0.8197361365660425,0.06457892486038261,0.4085928628875639,0.6013512629245465,0.22978459527168776,-0.40423535109250347,-3.0214812815464485,-6.437015234844065,6.156196772814514,-0.8642794660909422,0.06464415328423595,0.29255013855187334,0.3394656481427538,0.48981363144903173,-0.6397998531382547,-0.8784623138406543,-9.407845326282484,8.51685223483533,-0.8712674774678283,0.7886132738818484,-0.399785145227033,-0.28898686611152713,0.41146416204587427,-0.44271039893470404
2.9454648487950004,-7.942036538161139,6.25625436638381,-0.7026163980569275,-0.2227027343953455,0.17581185390167828,-0.45730481840373566,-0.1938723488472343,0.3460897834351408,0.24191568401588698,6.5948378600129365,5.68968194739997,-0.5148262250456851,-0.35014168673665375,-0.04305346141044363,0.4828381718314139,0.21431089034029346,0.2943895681338738,-1.7288634868277644,-7.1777195776094205,6.523921448918141,-0.4497643916989716,-0.01831027751305038,0.408280742860901,0.5976765968041517,0.22813302924168025,-0.40249829969656026,-2.562453157092953,-7.777441894059765,6.01599638313766,-0.4919301895712578,0.14350463379087292,0.3157919614048683,0.3422126621952731,0.4949173340633581,-0.6319938168572873,0.7886758966091504,-9.862861627909862,7.038133842407088,-0.7464824363599238,0.9865778223759034,-0.24484683417633282,-0.2823564514927394,0.4162952950506004,-0.4419811987745201
2.8283195017320075,-7.1072911978569975,5.9773720615453465,0.11546848339097664,-0.3996609006944483,0.20406143847255936,-0.45881076612947935,-0.2007241765573664,0.34970529771086895,0.47401860173446353,6.387342213731067,6.074232377379698,0.00785142731831269,-0.2606961226107153,-0.13733257018567785,0.4814497763415321,0.20226941579124777,0.2755430224650155,-1.5631481188720553,-7.2042820871032065,6.260564646601025,-0.008332482007813878,-0.055115452953640176,0.2926959133320869,0.5971421517239149,0.22233777096919513,-0.41338810754662825,-2.520192844980691,-7.966098692713243,5.836250792515815,-0.07010885731152862,0.20257570632238914,0.24594851729875677,0.3480172407866716,0.48878337989695847,-0.6366606374731655,0.14974104279873585,-7.527449101239276,6.3405578188868015,0.06514880519238693,1.156544512116306,0.09970669057119344,-0.2685765920637342,0.40601914606467415,-0.4550477028645934
2.8905423553943907,-5.8687163185500175,6.264802240993867,0.7139928728785113,-0.47680124572029514,-0.034837777128637455,-0.4443741538442543,-0.19395498533346536,0.34953819325146457,0.23929558565494466,7.251383145241554,6.648672721727155,0.49004232650151247,-0.18430489049759852,-0.15996043809534044,0.48614998527607156,0.18969910021108466,0.26745911714723847,-1.95524750703435,-6.7400835968262145,6.563007332776961,0.4085317890415464,-0.002753566112788066,0.21383235113793225,0.602924430100292,0.21234575678859474,-0.40955886031084365,-3.0359185836063087,-6.939104467785632,6.007325523342425,0.326504416166286,0.1735804597253648,0.26812005301439823,0.3567587932930205,0.4767633419670379,-0.630847572967931,-0.13773230290189317,-4.844365035784686,7.656538693782536,0.7218292569651782,1.2889330957259189,0.3447288075756047,-0.24600695711567316,0.3942004469010533,-0.4657243089915934
3.0334454408489595,-6.09290476580801,6.689869660764678,0.2339742261326216,-0.5121961751934144,-0.04691929018941066,-0.4361269782472732,-0.20209133722178074,0.3560979867407495,0.27020660389152235,7.884231565323737,6.786268385645252,0.24612044335099223,-0.2481528050605087,-0.10092534640174478,0.47570807841903906,0.1787664287905283,0.2585901589897542,-2.160275969917824,-6.439236629078944,7.661486245573613,0.2333446823220583,0.03648234325921938,0.2504211264796447,0.5928610889182147,0.20535687870481956,-0.4087053280131331,-3.290291224849583,-6.231585998869589,6.559930438220694,0.1719663897402879,0.23008754869104547,0.29020623265194895,0.35551023559307604,0.4689544884274133,-0.6264550020730449,-0.9581069366927157,-6.888124293996866,7.970047430224707,0.3248249909336511,1.5380280074845152,0.27783299631103103,-0.2368415054944425,0.3824499307197691,-0.4714543678963742
3.531458174373151,-7.81025574717625,7.230348902790958,0.1350555529126504,-0.5037544262437952,0.22267672190474505,-0.4251137008348726,-0.1929094600792424,0.36301800652228483,0.38377916793861394,8.159870007215696,6.644479325865799,0.09245558317456003,-0.3126777867736789,-0.07925995704746373,0.4762810027382056,0.16453574266580132,0.23978355432160603,-2.009079825040288,-6.235225671349963,7.659231532581875,0.10866298213226107,0.008574305925905263,0.29560718616605536,0.595748639809148,0.20010527070754935,-0.41472252414549227,-3.2287171125089364,-6.518823682030423,6.786086308891471,0.043512919381560586,0.33885269331595597,0.3051077094083604,0.3645607933826994,0.4706084768354641,-0.6245362251077043,-1.6792139841527902,-9.197028685922504,7.179530469729918,0.02241350373829087,1.502402567058181,0.2397080604196723,-0.2161649967007129,0.37943822699774654,-0.4828013908008006
3.131769936565718,-6.271539733545584,7.626960959646191,-0.21330240821544336,-0.47460100524103277,0.3423561391514596,-0.411201614668265,-0.1992541808534958,0.35202515735613865,0.2032001573608446,7.957935849997869,6.7549418070097555,-0.20815446207487448,-0.26043618735946855,-0.07755184470393625,0.4688145683327548,0.1451766121015934,0.22275844198520567,-2.3090483999867275,-6.525276361649309,7.552452878219333,-0.13263802700733943,0.013428448124190463,0.2785812053505696,0.5898540813174664,0.19552481406425723,-0.4139106817180071,-3.7109889470474506,-7.497603853462677,7.51381119229378,-0.16412404816696308,0.341248250095331,0.2559300640705637,0.3689169037235027,0.46301314638046076,-0.6228516483127662,-3.467017547936926,-2.6974140478633934,7.542282457936035,-0.40176532340419646,1.2330956158257227,0.0044599976797167415,-0.20571780397377548,0.37203632944207854,-0.4824074355982425
3.357996434435428,-6.499582273157708,7.078645087311768,-0.0605416596130518,-0.29163701912888235,-0.006609718217695775,-0.3996927231967789,-0.19367272161557753,0.3489135521637962,0.5297181880431808,7.382676970542723,6.747284950648474,-0.04867231389884168,-0.16410781243137768,-0.030707824307827234,0.46034376140572575,0.1340726852904971,0.2031521559172423,-2.153192243552757,-7.232829905180628,7.3407309815248665,-0.0483627556876655,0.04034978597583868,0.20783305022781914,0.5842666107414741,0.19929374179400716,-0.4247171741799645,-3.6559224066971634,-7.570617203895316,7.6770154396816785,-0.08378841630261936,0.20937384098654538,0.2032417320779366,0.37136448843713354,0.46593050989000023,-0.6257885896167095,-3.5520630300552627,-6.527669739199279,6.678010421861562,-0.029570300277275648,0.8907479387457297,-0.07030645949516667,-0.1994388518634451,0.37109106300398204,-0.49538243408599525
3.535396197353409,-6.337190820058917,6.871444176978086,0.23834068214405005,-0.2231837291470419,-0.15150356154602024,-0.3957763382852641,-0.19294084836329742,0.34599842064575853,0.5431911653638007,7.812378104559134,6.801938247448645,0.1790677462968102,-0.17992404893600897,0.009557656179935753,0.4621360256909143,0.11798381381908264,0.18975046089353942,-2.093276664175399,-6.719219654237998,6.944812421565217,0.09751674778311825,0.10109793483954446,0.21766904020090438,0.5890899911639442,0.19157171509879628,-0.41701834576139435,-3.4393210603368978,-6.433151535167499,6.648639643631179,0.023251857121525114,0.08179155525283957,0.23680653059137086,0.3784329843273663,0.4605131009266315,-0.6206946504755952,-2.546773030403681,-5.295574375552719,5.674387279610362,0.36483577048870874,0.43476701903595577,0.13337895570328587,-0.18556394638908186,0.3619280341973214,-0.4903762204303676
3.6023166855183195,-7.248891498870532,7.626167708523386,0.11455870247425153,-0.25253777619967094,-0.11398014692717702,-0.3750131719337161,-0.18963335595105354,0.34802174810341113,0.3801925746934999,8.006869307390005,6.711244509148272,0.1626651837189342,-0.17304990938531165,-0.014379406052435213,0.4504953655140771,0.10682689903872111,0.1676973682026911,-2.2295617228652698,-6.244812835934949,6.556410111221321,0.15003575999574625,0.1941117835230175,0.24383420823586677,0.5835249666422249,0.19812797308189636,-0.4217669237939952,-3.3987395937970017,-6.27733993762084,5.539827669274647,0.08292354031505424,0.05672772225935857,0.27810002041151066,0.3779616240909703,0.4661348070285299,-0.6248374887576699,-3.5377689200630664,-6.968743478539845,6.114074163118908,0.15339757078151248,-0.07029362722521813,-0.01721541762063731,-0.19264009148607242,0.36443720154206904,-0.49325754491788865
4.086462407552665,-7.287496545281357,8.329184501830246,-0.07457958706678414,-0.1844846431613623,-0.11927369490198914,-0.36668556177509576,-0.1883965318012107,0.3392601764368429,0.6049746099548008,8.286568622329671,7.027800911718285,0.038892039579414096,-0.06653018320229284,-0.10067353768206737,0.44327189594348343,0.08419008519621558,0.15902968498152656,-2.209886934322673,-5.889201150684164,6.860773451507073,0.09156487148391299,0.2791549670032597,0.27142478442018425,0.5905331754027333,0.1886884252839258,-0.41355168914494467,-3.493641788346542,-5.634614832608921,6.4012577707072,0.03817130465785295,0.053579281496083694,0.29082319668327833,0.3867185841353167,0.4550894369325264,-0.616582540712768,-4.094562778973921,-6.428420617105534,8.1960581938239,-0.006919667742644081,-0.5595377101720208,-0.15315402949574358,-0.19727403232907129,0.3553504387720962,-0.47864022828227376
4.392745312518123,-7.2326898906112485,8.11765522401795,-0.26447630855667364,0.046451883420811295,-0.07073924727401695,-0.3434000616922584,-0.18175212244869055,0.31347782463860074,0.9605547315298266,8.052458737131063,6.672796341101251,-0.19868141575886336,-0.013114722941397549,-0.12701769528386217,0.4270132727912645,0.06622946637893165,0.140013061677313,-1.9732743936961865,-5.918260915077382,7.151717174973811,-0.17069005672059984,0.34437139985665177,0.33999710116189014,0.5810005428613595,0.18713572886253943,-0.4086392700205056,-3.344694266001384,-6.061021501078697,7.225552934099383,-0.23739125440575787,-0.031162760897143062,0.3117212369344255,0.37967680743922566,0.45732202035469594,-0.6102045108268671,-3.827519515733058,-7.460868858610265,10.933854060819364,-0.1808908580237819,-0.6975503275587691,-0.2577212168741134,-0.2126588053760689,0.3488151428052854,-0.46957251749516987
4.3061807202926214,-7.691460867381123,7.8992873991891805,-0.2998548049308724,0.18849220788455637,0.028075437087847186,-0.3266126501633644,-0.15819684176969595,0.282170908864393,0.5907421263913476,7.621113827072149,7.394309181774207,-0.27384704790315073,-0.007690100680373936,-0.2426876030502077,0.42736876028627546,0.048445552551541864,0.1132074068705215,-2.6345596396365343,-7.498942698809191,6.891094578835176,-0.22108547139534485,0.3178618861537469,0.358088701008117,0.5951841088184765,0.19016244059935192,-0.41089239070132955,-3.699765323581283,-7.7567552521518435,6.7751699181757274,-0.3057731403656045,-0.10173925070931825,0.32003592173701817,0.39115847825010064,0.46238676774259363,-0.6158601804854916,-1.6153375031772788,-8.192968196655707,9.807633987729258,-0.29039113967743196,-0.35716379459591413,-0.23111605887235487,-0.20263566472204975,0.3514365100626951,-0.47082576213670185
3.317815367442505,-7.787480487480251,7.953357309041933,-0.3506243172598024,0.09732484225349376,0.09538702949788282,-0.31259278613780533,-0.14424602532663,0.26617749643062144,-0.23787117159575244,7.609281234946838,6.49506122530139,-0.3146896456696329,0.08146043829980845,-0.45739939998793616,0.41233140437964,0.030261986263072374,0.09517371272955275,-3.2183378676372785,-6.540234968117095,7.32871265578644,-0.15874910868653183,0.17821076094293484,0.27696308741666614,0.5895594903890391,0.18896461722417762,-0.4120908700232711,-4.067607460181559,-8.012839258635772,5.991784909297281,-0.20602126859954994,0.015824218058697635,0.2579172384573448,0.38943614434585094,0.4594669459618545,-0.6148801270731751,-2.6143580918064844,-8.271103005759558,7.914826993206241,-0.3544413011555588,-0.3113618497833995,-0.19921196311621014,-0.20607368685072194,0.3431108449412909,-0.4625577980506047
2.9646110705075537,-8.213827169380382,8.147664979421755,-0.06454121574603287,0.06984007899128593,0.07199966825975646,-0.29287755209776806,-0.12118952250689621,0.2343864267652239,-0.8245762968384744,7.629521217567072,6.5133614791645025,-0.05474029042829847,0.24928213116737874,-0.6111563915222317,0.40119963603770975,0.012556746957934345,0.07567239667833724,-3.6663521446977074,-6.696673211594215,6.966659742696635,0.15053433674701863,0.10255509890905894,0.136772706505678,0.5819109709105693,0.17875147091265547,-0.41313796276362774,-4.578520228428225,-7.782167432151542,5.657939258048149,0.1395154396795251,0.1832657802418998,0.17012622541323977,0.391336379208124,0.45115553191027197,-0.6158715351280938,-3.095014739023487,-8.029654067247805,8.642516138791535,-0.10857186392730085,-0.2796109023182922,-0.08617601447097714,-0.20096282301689103,0.33792106585927084,-0.45821904731429053
3.49828735351413,-7.241250823831541,7.589251602042467,0.13765522277281209,0.08972748584867059,0.003859274367559171,-0.27709100469762366,-0.10781799208462522,0.1927590189628003,-0.33158328454574637,7.740989731163727,7.365514653909568,0.10385614740773147,0.3668520769312507,-0.7093927622705571,0.39588087812147804,0.004735509283456401,0.061876327909740535,-3.24208422353492,-5.44083987092112,7.0418195157342005,0.2707284372882406,0.10730791727089203,0.1343378577000935,0.5848659070582177,0.18205573060318972,-0.4185661747400368,-4.33785394525061,-4.382423761343295,6.425762460972969,0.22442847407676805,0.22916328889206236,0.180460888163465,0.40111888314529626,0.45427249787544477,-0.6163952868738324,-2.541314044038658,-7.241514157693253,8.489638133631674,0.1130536881879554,-0.1742530396408714,0.028526052583865227,-0.18707616285755319,0.3312062123251023,-0.4544183130913118
3.9614748595993303,-7.182188761825348,7.022792371527023,-0.09249219877373215,0.11037428439812323,0.06703909774603647,-0.25833339119696097,-0.07988626643823367,0.1629482862114158,0.09135568734764409,7.865682155003104,6.941074914726463,-0.12034456986692027,0.35850038688551633,-0.7742624071201449,0.3813036244770038,-0.004947388577339406,0.04101478879580991,-2.6881481356475287,-6.818827100715599,6.925274725544556,0.08005345596927722,0.09780085862527091,0.24475812245671189,0.5826687091467028,0.18205630283847118,-0.4195427294032182,-3.7715759613773274,-7.424511362731466,6.318573319774965,0.013958059483746784,0.251087889418144,0.24909594765067958,0.4025771549251016,0.4527984444383383,-0.6159144502271657,-1.7535443483159576,-6.995481091594751,7.304161891522564,-0.12035681859566454,-0.3556619146990331,-0.009571421218816187,-0.17825009099390768,0.3335602918970218,-0.45029628084655243
3.817023789767593,-7.286926353181069,7.0489634171780535,-0.19408569439289183,0.13199998975847618,0.05700712119368228,-0.24228858209881204,-0.061416083030040675,0.1255045671670731,-0.23314569837270918,7.723234966546857,7.252848825341961,-0.19259366390035135,0.4090142542753484,-0.8165293867694041,0.3730731086271621,-0.019773004988284857,0.032458736558883775,-2.988329959845405,-6.057337732314324,7.364091535746791,0.04137439212973123,0.08802611964475955,0.22215597124583827,0.5770431464270566,0.18054735009463022,-0.4102364790463784,-4.231900835434732,-6.106302214306388,7.310377818761265,-0.016418162961018008,0.22544416785706164,0.23076365746413033,0.40527832386320345,0.44666625792237297,-0.6027468433109016,-1.9197362335546897,-7.24737875188865,8.259763808414874,-0.19702822930300545,-0.40538564180655723,-0.06185867036889782,-0.17285973345179137,0.327092440117536,-0.4366882219134513
3.621872529413806,-7.656997419904699,7.287980139750687,-0.20295287135989998,0.20089811370627553,0.035331601704880165,-0.224991856901569,-0.03370764125209831,0.09349189897634844,-0.6608644324673562,7.452145184296152,6.892575867343808,-0.20407251932809586,0.49024068676315025,-0.8459238733846436,0.3614318289029065,-0.03139333757008807,0.011878604341866307,-3.1082199595891837,-7.0830088207104245,7.08273635769635,0.024687118268532638,0.08993026836639245,0.17540078095933356,0.5772992328971472,0.18230899317477822,-0.4214988118144155,-4.386848359581944,-8.200310232743698,7.419329980106977,-0.01348715368016698,0.1017468692998361,0.18520038068073624,0.4071903054594953,0.4449532104862965,-0.6105690970690708,-2.2925368784719478,-7.166881867548056,8.038230649780026,-0.20891292880912957,-0.46535952316809126,-0.04671543999748169,-0.16337202855406366,0.3236179425725274,-0.4387073156664413
3.391090420986192,-7.300937942375765,7.014649557051772,-0.20825488322509156,0.3543130159580684,0.04533138456523328,-0.20896603022085536,-0.019385793174645494,0.055777110473082404,-0.9491809521978414,7.478914905660628,7.178878115881205,-0.15643544355663744,0.5442953127095471,-0.8109769401466692,0.35243719857006217,-0.03932449131368545,0.00686841597505836,-3.3036865860640536,-6.647257559431394,7.129486716307467,0.06794594420624493,0.13074785384316182,0.12686884257503514,0.5734324295387917,0.18723548898428644,-0.4061975594203561,-4.594949459757491,-7.044731307094368,7.270508922971678,0.04791058866172698,-0.06046182906882569,0.14462830803386625,0.4116549726526749,0.45004477692256595,-0.6005718498439994,-2.868649390287284,-7.420539338373329,7.763276210188024,-0.21321409157387428,-0.6921544082006832,-0.08328659507801697,-0.15520364256946834,0.32859221848458475,-0.42284716196108924
3.166520427678758,-7.587791555038506,6.8665693098571055,-0.18408271193615972,0.4812109762018202,0.05567418337182938,-0.19946782914058317,0.011772899835297022,0.02450049257486847,-1.2986087552629715,7.057506727586701,7.110813458161578,-0.06971138570989391,0.5316433014570421,-0.7530347781240008,0.3544854091370236,-0.053652684539937344,-0.018037931134555627,-3.3838295210239537,-7.524054405858807,7.351024083731021,0.1973854298799878,0.15351735997032817,0.1136395635983925,0.5745792710715067,0.1779355626906806,-0.42142441781046197,-4.633924426572632,-7.593493943118267,7.604859492033348,0.20312268810167464,-0.16054235473412803,0.15140237918794805,0.41497130649567465,0.44344783907820823,-0.6164603579526751,-1.648623225968594,-7.341350141388167,7.479823781539632,-0.2088387858680917,-0.8522792967066921,-0.06299559456253791,-0.14427600123316503,0.3263704159780664,-0.4319458605189679
2.942301323108774,-7.953852559309613,6.474230617189836,0.22142930600178673,0.49553770445748174,-0.01885015248152142,-0.1802767698644105,0.02581583591521998,-0.010034421919214546,-1.8146543438675244,7.395474161483848,7.475745145748115,0.42172317587339103,0.5548055107630638,-0.7400084583632791,0.33942450485905873,-0.07090731342442438,-0.02436755184899075,-3.904193095027439,-7.254521699013238,7.561561559926638,0.6676637201315229,0.16206560801882416,0.06295739451108516,0.5623635099751827,0.176829928484246,-0.42018132294718785,-5.4598955426006786,-6.920568915928815,9.581120842471204,0.72716712209935,-0.47381075933672445,0.24398475264963934,0.401492244069883,0.43791631713449536,-0.6210513133116212,-1.1936900187261823,-8.793262167568834,6.744321588154671,0.15939936568171542,-0.9211695741609174,0.08721253739263002,-0.14450899162488387,0.3246341024914565,-0.4270729689796882
2.2270449959376917,-7.1800750789493195,6.317266675537595,0.7891442185098133,0.4569487908023359,-0.037314119550367425,-0.1725490365282015,0.042354971235304524,-0.04458103032508235,-2.3217206602855196,7.1534694869967135,7.0296685941432795,0.8019739402437658,0.503255746891894,-0.6817573228672874,0.33681838132148895,-0.08626474189839452,-0.0368117685689702,-4.142028947218536,-6.882062929849774,7.998725587565888,0.9390181447339655,0.13897111625850947,0.07182326841104783,0.5575993806795129,0.1607268660643491,-0.421618063617958,-5.2975022794737745,-7.657532572971245,8.574470151660014,0.9866079737178677,-0.7631102237672792,0.26389812598648044,0.3954369799335529,0.4152612295863986,-0.636917971794974,-0.9102733771287894,-6.106920501532942,7.161276037960845,0.7043206210509333,-1.0186412582755098,0.3280411878138388,-0.136090152675864,0.31118181816709406,-0.43329663471677415
2.2592775641241616,-6.615768814127443,6.5409089016217745,0.5269719619707534,0.4073427955841018,-0.09674508337080265,-0.16094563721910318,0.05565785023487975,-0.07230253592626278,-2.3835757154563977,7.650772924376428,7.029484040284114,0.5678283379194506,0.45177366559319343,-0.6513466746772594,0.323965992280162,-0.10268624453687653,-0.05218588125961694,-4.131139403379195,-5.494702291279715,8.659801199678792,0.6841718823039385,0.022727666207641124,0.06597782089035399,0.5451112246530762,0.1562121960296104,-0.4344804875938967,-4.947421015979069,-6.665139404447116,8.269696673629872,0.6715408398020373,-0.7590158526472377,0.14065051277958887,0.3806727524420565,0.4090192567491035,-0.6566416415264872,-0.9091635652825785,-7.564895446556368,7.717640087819036,0.49338415727151785,-0.6705040673857924,0.24379265585243332,-0.13105786616624446,0.30436471583244734,-0.44263862108178537
2.261456448476724,-6.513211502326115,6.8223896698335,0.09645671031367449,0.3676204616520112,0.06638331429076191,-0.15078065767548907,0.0731369008125215,-0.10293034614479044,-2.5288606694916327,7.712927326972503,6.99629638780756,0.14405551050113946,0.3619973523841274,-0.6499163186104332,0.3281525726019117,-0.11383029234345249,-0.04784175813817032,-4.042414573770574,-6.218802187225261,8.64797142991896,0.2954365770997092,-0.18453062454343974,0.07638553753306769,0.544874309147736,0.15690756938702344,-0.42228340368268535,-4.610062010664396,-6.680390227286892,7.711937875920859,0.29340768323379357,-0.5842671962008935,0.10595397868850609,0.38069890293803826,0.4075459480420819,-0.6478540694155243,-0.9430745323886873,-6.241205259215462,7.782463308553026,0.05038877798521512,-0.4605539507742116,0.09892350798178265,-0.11342533418454509,0.3039246907900309,-0.43100709087822253
1.981807188691217,-6.676043189309937,6.645915229938028,-0.11007801211564903,0.40275858114030905,0.07955523635507696,-0.14863741890872736,0.09749751285742868,-0.13475616123861284,-2.6586612371715064,6.928920583610573,6.642124256104623,-0.07748469005711561,0.32138065815098726,-0.5577884648029134,0.32482138425749824,-0.1257445559600911,-0.0732866423329802,-3.9942547803372173,-6.216615656949616,8.414513486460592,0.0780764675478818,-0.30126453995118,0.054982017280638534,0.5327046621915865,0.1620844612593907,-0.4394587317582856,-4.527141722497477,-6.919717196538182,7.838101899807652,0.08842507017360753,-0.4454468123426036,0.056746204653755586,0.37627287475901594,0.41295797695997777,-0.6639445592635792,-1.5318324714053304,-6.2220443559353,7.307403709873698,-0.13838726529528964,-0.400116433796684,0.0041517364939178325,-0.10248028067204142,0.3103014367415238,-0.4490878146103785
2.2678725987365027,-7.073045111620435,6.837682085088734,-0.08114847318755124,0.43322685435388025,0.046015597257572476,-0.1363534928866607,0.10415253935973062,-0.1539725465838866,-2.594008913735108,6.909587819424836,6.415484721761619,-0.0021588298114039567,0.34116699246568627,-0.5558411603504761,0.3051199790444426,-0.14511755112304275,-0.07372781695513556,-3.6610081443324787,-6.135686930125552,8.01699024479017,0.12424321189496494,-0.46025256404915255,-0.00671683900384679,0.49972630869851065,0.15968310780131215,-0.4377001355979633,-4.191464313846811,-7.191390601390304,7.532152670758731,0.13380762063043417,-0.31443097021197525,-0.003372599557870756,0.35452974643719376,0.4069767949220073,-0.658493162175728,-1.0587126955433726,-7.0606480709979795,7.719592732619824,-0.09477741029417154,-0.3790725887895123,0.013758409804465537,-0.10807994422201199,0.3098294224128274,-0.44515778247302445
2.2977355942562054,-7.17648884987792,6.725277010719705,-0.11039823963180587,0.4288969555562987,0.04978374008385415,-0.12965153889157496,0.11526014436129638,-0.17830143845706786,-2.770541999096228,7.7211427357623235,6.66351519776676,2.0868742848839574e-07,0.38615369873917743,-0.5348762086829149,0.31494209782494625,-0.15550326856001084,-0.08379291193636323,-3.3594234064283053,-5.823295930216875,7.887389722783783,0.10778001092681877,-0.502721179043667,-0.06121494879978509,0.4963361019411777,0.16345557226639595,-0.44728610800571694,-4.1541825982224365,-6.330068755630993,7.61109462466715,0.12570002556392904,-0.2657466542464058,-0.05605879102396729,0.36257111423158933,0.4064444248301302,-0.6616995082394791,-0.5193257756690248,-6.9466369644167925,7.096802812342048,-0.12547800458150932,-0.3351708886870442,0.010776923678850083,-0.08659083340191201,0.31163942934162786,-0.44695862785204943
2.274500719499057,-7.372932135438028,6.472500806403774,-0.013962809689608783,0.35233545240627695,0.01913894104269833,-0.12077567776961086,0.12219829763674576,-0.20118626173517026,-2.862403541356453,7.696282453995357,7.233868806858558,-0.037170457612113156,0.37886062201928,-0.4718989896207348,0.3035541830699689,-0.17261938877911273,-0.09719965468688319,-3.1742061304129923,-6.715274674660082,7.814485313609945,0.02313899918995265,-0.43514105986453255,-0.04803926961828964,0.4699829770935346,0.16548511396784765,-0.4548822447374118,-4.102967479757317,-6.6299516789736765,7.83615047868799,0.027629490953941325,-0.3420052005082234,-0.05240907372732281,0.345720170312888,0.40776749492521897,-0.6648046105843726,-0.2793485806022384,-6.907055641906973,6.704514867942464,-0.021072831578026655,-0.2858487648334694,-0.0038625886998283924,-0.08589732260697298,0.31168226070881283,-0.45501791865529556
2.0288923377791477,-7.003927127328565,6.50614695563458,0.00857594635490125,0.3108546027509722,-0.026968488215936993,-0.12236498136926381,0.13819279725640649,-0.2198891582751397,-2.837530259163773,7.497694734988721,6.581427008839221,0.07663007153964244,0.3723569765401271,-0.3583481559722674,0.3136352277629954,-0.18714639772563957,-0.10670694772774039,-2.8066673823638606,-6.037395245450184,7.747853067058146,0.1314931329349624,-0.33615908010402373,-0.05627756665461734,0.4709714046349115,0.1670752397850724,-0.4615022284897214,-3.891567686273019,-6.682749707545245,8.501999543305303,0.13988042717673776,-0.4960690074439675,-0.046536232458271654,0.3478843778740911,0.4062956128716726,-0.6711626214252314,-0.8233933915171647,-6.759974978124265,6.745092343132279,0.010901920837985241,-0.2995335678465767,-0.02426451969733917,-0.06447152734266123,0.30864490474666745,-0.46295157229350137
2.1578953244382117,-6.944555219204157,6.5471590356197265,-0.09564921009862845,0.35635137574530523,0.006938963462704178,-0.10370411703736566,0.14658187017338967,-0.24786865076481923,-2.663353962510785,7.3603328264684125,6.078848913007431,-0.02847824492977545,0.40305162763164226,-0.22953278888691203,0.3085695189887669,-0.2025733218389461,-0.10816659769159678,-2.3259417656175687,-6.227984068427117,7.27577878268209,0.006189120091509403,-0.2090264554298958,-0.10228216485735256,0.4529078698645393,0.16764971014412697,-0.46468147437611046,-3.414423883321379,-6.8169280106715116,8.234702328018644,0.012430936476105579,-0.7712053595981782,-0.10863342312277506,0.33077496599796874,0.40713390627460116,-0.677198185145698,-0.9320812629304936,-7.297392660747078,7.073541277216354,-0.11054570169676703,-0.39777179805593843,-0.036805390280706396,-0.06448545476426393,0.3101404413865224,-0.46806972920647105
2.1991938241092077,-7.219956043264612,6.809227173014844,0.18935933417974568,0.4775356843399166,0.022478356879696446,-0.10265509537806412,0.15303837296323508,-0.2658930590569944,-2.8837852842455876,6.8395791209856664,6.198908567151682,0.19057399794751018,0.41671958567191975,-0.10545140139289717,0.31597353943670015,-0.22166311965205368,-0.11247333307483787,-2.6562703724065844,-5.499625109663009,7.298173588081893,0.19179000602643628,-0.09936327864759613,-0.141592606208021,0.45241643440942697,0.16718613729377205,-0.46345236070932755,-3.5230001812305454,-6.102756084664095,8.09282597965784,0.21559927728452222,-0.9755390763401461,-0.13310220792235702,0.3253632817327239,0.4025308204125731,-0.6805991677919485,-1.0477246384386727,-7.563386487870466,7.112144942357475,0.15563339406607288,-0.591408983110614,0.08196953549059535,-0.047685723837383724,0.30564228137718025,-0.47110687232374077
1.6349426681706813,-6.804360070389596,6.748947192838126,0.13740864259479413,0.5895954515726647,0.026717337368865987,-0.10137389385899157,0.15946002414383736,-0.27854501103217183,-3.265617519258918,6.4764166065311874,6.346179207921748,0.12686379406733203,0.4534940585785912,-0.09184020798516768,0.3126534684294223,-0.2402663311210521,-0.12901602972763174,-2.9804385333523014,-5.611145205451942,6.873935978920118,0.11996136440976543,-0.07071358106383605,-0.13082113881202748,0.4399568335059272,0.16634418192948905,-0.475643545864597,-3.652186404456227,-5.357915898303562,7.312670972482286,0.12023577259696504,-1.1462575785239617,-0.15177896285518158,0.303766520889261,0.39803864414004464,-0.702002159998806,-1.160958205335332,-6.507385915823421,6.815866625190706,0.10033350894630308,-0.8494159186848808,0.06679520066772933,-0.05048246491588929,0.3028448715983781,-0.48990876528347393
1.5105620988784187,-7.467529539108499,6.577130220380165,0.44451470936106036,0.6587092879352159,-0.03434885521429819,-0.08886479448983642,0.1590713989112818,-0.3039091748544078,-3.4677000325032163,6.587188070503759,5.857855000190613,0.40689152069946527,0.4829758425724411,-0.012980930333269148,0.30733768704149017,-0.255868719938488,-0.12632257870241018,-3.0001388740282056,-5.525575942435492,7.462356771739401,0.36505681348655344,-0.019450744392426677,-0.10330170689114596,0.42869800367474614,0.16278216918285746,-0.47484840749591967,-3.2685202703412397,-5.715904318800721,6.727863720634113,0.36950382110815233,-1.150498460832737,-0.09581471950581176,0.2800194067632677,0.38963701533052736,-0.7060662084771272,-0.5202598083403184,-6.931161212870016,6.479623611395491,0.42039064978819946,-1.0300074655281475,0.09287005073185496,-0.05521258702354432,0.2936311522648341,-0.49506832484697844
1.3851381627637929,-7.413657789356228,7.045253398806681,0.5288104353581607,0.6233175994310046,-0.07124954429245307,-0.08419963459855855,0.15887742896361623,-0.3153735192250299,-3.896663416764654,7.140685352548688,6.31442059807316,0.5495348918618433,0.5821932458043841,-0.02430187416945342,0.30785365239579054,-0.26130240958173556,-0.13013733880155479,-3.629982734427889,-5.155864900696311,8.458573253040505,0.5362270359876559,-0.07443787885726061,-0.09480175052247206,0.41895733197094315,0.16612313652806496,-0.48393632749760257,-3.2494729265466975,-5.457799675211746,7.054166826204963,0.5416838751306287,-0.971182798994534,-0.1021129336450984,0.26535025263293227,0.39461789681699333,-0.718454550889179,-0.037294194103470873,-7.024706553276318,6.939361885976903,0.4960039214821505,-1.1130044379690711,0.04632732348712508,-0.06205680842583895,0.30034184564568456,-0.5067149358881604
1.459533310557332,-6.361438611478469,6.751851732166845,0.35437793519203326,0.5590764792192827,-0.022774536280725774,-0.07486032805415756,0.15706895053304956,-0.3453922556747189,-3.4359216334042575,6.889144935770652,5.809626868204203,0.3700117650298005,0.5986441493116876,-0.04666610534871779,0.29861473804958194,-0.2784038217644443,-0.11399552465132615,-3.077585913091279,-5.486012239797647,8.398431209447722,0.3718456653331655,-0.2388782772710638,-0.08158429103659767,0.39672530083745444,0.16418090760446633,-0.4790139169612977,-2.4370467616075286,-5.617294578823073,7.231060775977835,0.3596670246271198,-0.6231997056191741,-0.12230497741731274,0.24284828901306882,0.3847360159876771,-0.7139808587310691,0.27391885910375413,-6.886690705065658,7.344466635154358,0.3142130806772751,-1.0080995677557165,0.010921339205147063,-0.07379491417915948,0.296756772637473,-0.50545925525613
1.2001460737661063,-5.772467358781756,6.575014881064832,0.1356986504049621,0.5410362365138149,0.03448087242572617,-0.06505619913303765,0.1602579129251781,-0.3551150825763792,-3.462405384240517,7.077835573005489,5.503617018865079,0.17540875501442657,0.5487651069200932,-0.034971219199044,0.30795956891289433,-0.2898376925698891,-0.1281944730116971,-2.6747199457893776,-4.780339087495332,7.95063530883047,0.20118356970952636,-0.36106636939347636,-0.053736590577983884,0.3962228460394413,0.16265143200750157,-0.49754565334983514,-2.351242540518214,-4.682598452611886,7.794802350518916,0.21916183730622338,-0.4324240530167782,-0.06645670918051133,0.2435133295215383,0.3815695684666298,-0.7264375957523981,0.34178911726904715,-6.072048887505589,6.873263015728526,0.1098305741594993,-0.9097638368932781,0.039308870169664084,-0.06974257242497772,0.2926607044852429,-0.5196644646526719
1.0212661301710888,-5.693810489720031,6.1682052736231565,0.1358764851141922,0.5071855268251712,0.04766328424569878,-0.05477959665518867,0.15978727121119332,-0.36559175198460836,-3.3620496157057738,7.319978168990659,4.982142385959159,0.05172163140543554,0.5416011554804712,0.07989123185918874,0.3075422157654171,-0.3112233729226047,-0.12197750275265894,-2.085771155797969,-5.035218487421222,7.178633906586876,0.013230581213243383,-0.2788274835337601,-0.05106935045592899,0.38471507917851105,0.1584046682006014,-0.49405253382097875,-2.2554101733223577,-5.051408976633728,7.7234178637352136,0.02550095405229162,-0.4916806271352107,-0.0574926333746227,0.2358928451269221,0.37184787092134225,-0.7249516531460499,0.5281202652560226,-5.951653146583058,6.591261755476784,0.12576259983507448,-0.8320098048470262,0.053568295979395976,-0.07104430612425323,0.2839027021739551,-0.5233726300874454
0.7011325757383482,-5.536117066950887,6.249669363138792,0.37005697147228545,0.421309124842942,0.08866331322951151,-0.04956750442710245,0.17083902810185642,-0.3799143234100056,-3.67813051360191,6.402611217799582,5.406984360592741,0.23688643565458908,0.4043505665381226,0.1392812662534465,0.29876595264736233,-0.3120868835220574,-0.12783768885271615,-2.528527921908979,-5.799405957090215,6.715695787228767,0.23500130644896264,-0.15938355312891478,0.0024398955475943723,0.36888721247327455,0.16396488838511133,-0.5046413948107658,-2.471216746909741,-5.351830276243941,7.339720607316844,0.24658314542708892,-0.6522125508360457,-0.011093167862325764,0.21219632027910987,0.3756581198028402,-0.7343763654810797,0.5945336982815963,-6.119651370066795,7.122709504875599,0.351027430072004,-0.5752260109379378,0.10784800658089107,-0.08106086614116356,0.28940454668413884,-0.5330572530751199
0.6127044483121403,-4.857428411502002,6.538254572875673,0.5234203303008786,0.34983226479748303,0.14795825049108596,-0.04198940209832314,0.1626295786624085,-0.400212189381474,-3.5137024249427795,6.946335283495235,4.699150822347842,0.3901182963366719,0.24708163647581197,0.1926234970838379,0.30076329587783074,-0.3263791737609356,-0.12149030350539666,-2.270571999922182,-5.29097108777052,7.598185217478107,0.40714544633458205,-0.11046345230102426,0.044542552696868305,0.3654052155186104,0.15570412839630068,-0.503769219017147,-1.9340461670881544,-5.450764303405435,7.896266144299891,0.41663335681668967,-0.7117704609550585,0.02354585680072829,0.2050503534516745,0.3654473333460046,-0.7358227883217789,0.33774154956079344,-5.399093554342629,7.100447500042876,0.4971257235114589,-0.3072922528890404,0.1694844464267638,-0.07066502762540204,0.28058771366592067,-0.5412167475498447
0.5838882949875498,-4.899260212085439,6.714341420688114,0.5869683210371293,0.34583553915178733,0.19379183043525405,-0.041971928223631806,0.16267551427427043,-0.4075360244822437,-3.4897104959847076,6.798051422475416,4.446591462925297,0.4350863896572537,0.11176185142505814,0.2545530907199118,0.29103563998458787,-0.3385318402911715,-0.11593160563381363,-2.450320721410021,-4.681795998940594,7.899469968882059,0.42664270448161595,-0.15226460259410682,0.048820826288289,0.35633812253593283,0.15136033695969614,-0.5049137826015585,-1.852405209976433,-5.079290015707316,8.208493999199252,0.43410879650289746,-0.7142592352192035,0.020173329345562832,0.19059292958186122,0.35869918924804617,-0.7389450144958,0.09528888129326885,-5.355717181010849,7.039879167512257,0.570798835160774,-0.23083333661320637,0.21866548826030519,-0.07415192219835932,0.274294651981255,-0.5461208033070802
1.3275982212006647,-5.008000411750163,7.7979271777756445,0.5236699438878165,0.37914984663658946,0.24092881706010558,-0.027340941575230936,0.1509886594525849,-0.42368878013170375,-3.2185151033196426,6.687076073529847,4.820013421596249,0.2911254825781275,0.0649581134713055,0.21855020884204474,0.28936113701321803,-0.3499218225244981,-0.11037208303530047,-2.4989033674093233,-4.414897638705841,7.459500106246325,0.2792555523603273,-0.2465300822926206,0.054229839209813516,0.34651561245185303,0.14410816520078454,-0.5050330194557389,-1.6501877541581418,-4.279600046558407,7.855089380939964,0.29019723028340083,-0.6669188664203973,0.027142648698588418,0.17515476562757473,0.3504908870651487,-0.7410897370873749,0.8105400653560174,-5.513078299467289,7.999641159259678,0.5207441338373857,-0.27385299021461806,0.2522446837902896,-0.07109389005410051,0.2630850865557025,-0.553526523756499
0.7633352688517442,-4.862141666679165,7.974465728519648,0.3297900754952261,0.5314213372563759,0.26994894062118174,-0.01905572713904035,0.14994433192024992,-0.41903645815751206,-3.3813081711637984,6.520459915270411,4.358883197236845,0.10602254377769026,0.03143609655039854,0.1227322565366651,0.28890752585887364,-0.3563728764875695,-0.11636976622851722,-2.59512009081821,-4.375492507462317,7.587046602545277,0.09725590620625871,-0.4022820948131308,0.059753653526446585,0.33629508317034695,0.14865315039560104,-0.515362261624687,-1.7258498193345142,-4.955689245090305,8.165895157908059,0.11025335092876604,-0.59259737143877,0.046454214080519446,0.1658495170824497,0.3503079383907865,-0.7478891517898324,0.04160991666513425,-5.573663294330698,8.482949790038827,0.3496518525526566,-0.4515149055575834,0.35863726723225775,-0.07138429546935145,0.26412937122318975,-0.5645052251472847
0.4152090118795683,-4.690290256512812,7.500065314650332,0.15704363150490278,0.6820887178059118,0.38736741451707013,-0.011279436055452422,0.13799681030334068,-0.4273940273733066,-3.43536533842427,6.813998270789117,4.000767302074194,-0.02733496260895112,-0.02107284260779875,0.10736663074994104,0.2808959903716192,-0.3646055312332554,-0.1250357688234164,-2.4259480064473946,-4.506013919272117,7.805040813830369,-0.026380022934805104,-0.5047830199155705,0.003051126329064068,0.32090799550181387,0.14811174664698198,-0.525604440888001,-1.6508038515172179,-5.240884206689194,8.69910220718533,-0.008869724530551905,-0.6045034235466099,-0.002273184150035025,0.15066663096049823,0.3484523387393062,-0.7566199145251999,0.3416704917186827,-5.495314169966425,7.648496458581708,0.12646555331193565,-0.6683720924306105,0.3662317417202304,-0.07877337267300599,0.26229310593971994,-0.5752232201504166
0.5082884953764584,-4.842823116427238,7.770995811812018,0.1369441403548666,0.6518589448224599,0.4600394975949521,0.003922270343742765,0.14653732929091615,-0.4380464328751419,-3.4636442066424324,7.12312391898325,4.138811258967849,-0.024997641548851132,-0.08146131575873763,0.03683693682773303,0.28729499165944095,-0.37824308950951985,-0.12430870707917073,-2.2939998163415045,-4.5838431142643605,7.5209955311664265,-0.03466665955208274,-0.5844439490651051,-0.040497318759205175,0.31522070579656986,0.13884185500959023,-0.5276440886123983,-1.6645951101459364,-5.176279284299638,8.410881650802766,-0.021587674987252788,-0.6464127268012673,-0.0472349823223732,0.14473390662773428,0.3382362228033618,-0.7600241586666762,1.05539458550807,-5.469238100862483,7.198723412397742,0.12477152057615051,-0.6895397486287579,0.44239171526386495,-0.07446812892382015,0.25178152464794823,-0.5782366009770914
0.20407545337322786,-4.759168116310576,7.562806999805652,0.2668327496224021,0.4814487524574349,0.5314241972277213,0.01587832062986875,0.14284641840367693,-0.4424351556253377,-3.49057389851971,7.329435901493059,4.073433864539295,0.07030654725916392,-0.14406614081571475,-0.08088152337809666,0.2836257457886265,-0.37702092431122963,-0.1233582098579231,-2.1086805444682364,-4.4952819366062196,7.323532092033597,0.044232944879005885,-0.5999832542574074,-0.07164036518626861,0.3003872856674236,0.14668258217451788,-0.5328998656051374,-1.6123287643001114,-5.020947516065365,8.265349963881537,0.05011046722778603,-0.7357224084601798,-0.08493665252272094,0.13013093759455527,0.3434458139412558,-0.7562994126898356,1.1421184893638774,-5.7382649172302305,7.155842430027432,0.28799979694998873,-0.5593120342737764,0.5009413844935305,-0.07638879740954184,0.25692814180999196,-0.5791737409641329
0.4377807769100446,-5.301545004601522,7.823226696463531,0.26783943232927343,0.2889715375548709,0.6209544112466764,0.020065183134799647,0.14629674278214727,-0.450704712448296,-3.31357994691565,7.451937990798599,4.5424832187605295,0.07532070483184328,-0.18968476805360474,-0.19655019233286067,0.2843825217332375,-0.37889842648651934,-0.13358096691027652,-1.919726161303088,-4.244552488014886,7.321807513892739,0.060168738482668856,-0.5920732704702424,-0.08582788645350335,0.2891337843015264,0.14389493652901988,-0.5440824679750191,-1.4294593106564708,-4.50328556011794,8.396129450475424,0.06638265198499395,-0.8571230104316471,-0.10366131191061528,0.11249736876776623,0.3425840327453941,-0.7686815673731431,1.4834813657693366,-6.018887272436264,7.626475512421573,0.31662699172330466,-0.28314734195472613,0.5842184266464245,-0.0757560608708471,0.25310494385272486,-0.594092016295154
0.1528037805701062,-5.344348163483116,8.340402973409624,0.23985068702662096,0.22883223124929394,0.6760886864978053,0.03446297783613023,0.13922080341897283,-0.46219000003141797,-3.552573968089554,7.414443771418492,4.747191306666708,0.02083286056285402,-0.17892921289496955,-0.2992735781714706,0.28707933196438457,-0.383468295486397,-0.13008146624573352,-1.8507406045271118,-4.723632761273767,7.500613974683459,-0.014819339445123172,-0.5657533878020129,-0.09143765498937222,0.2783868327747074,0.1432709747118351,-0.5426038478307981,-1.437671485708898,-4.95350725127115,8.70534854984358,-0.01862574085184836,-1.0065728016028876,-0.0999356808003694,0.09394636268451587,0.3404924953653732,-0.764703123118515,0.7715716477321835,-5.901014055454034,7.990457549572475,0.30282697799779607,-0.25936885329140486,0.629875567413933,-0.07186492520374349,0.2494005158640866,-0.5916916335137652
-0.2394653834250295,-4.575159093109619,7.734682744787111,0.25182205558159987,0.3783711659054513,0.7448816947677042,0.036395699779932365,0.13674667363806153,-0.45853882423242476,-3.5389380327820654,7.145647133465721,4.6606882075339175,1.8967077858025308e-05,-0.26863325690765427,-0.25517065069759914,0.28023073313247143,-0.37796602915533295,-0.13531281494961053,-1.6988958790244955,-5.120107260504239,7.876751958969787,-0.026760934889323865,-0.5248865918389678,-0.10519657961893142,0.26184718883914737,0.15154708416809184,-0.5517730508906584,-0.9979471681485286,-5.541333506095937,8.50737875449153,-0.02964230321835784,-1.1486755018149033,-0.10964893309189463,0.07173971337033049,0.34771068353348394,-0.7726654860722202,0.5268604699302274,-5.287235188616787,7.582166282292898,0.3326126956199387,-0.5907887323639033,0.6925551170797096,-0.07825070074231766,0.25023438162653566,-0.6009334388385468
-0.2281277416602579,-4.714314749888165,7.55147889526766,0.15293543148984215,0.38831926311031695,0.8078205781684917,0.054732601886322375,0.1376936902540305,-0.4675223380032022,-3.41984001718133,7.180477190813536,4.477022416538112,-0.0926929173315148,-0.3446593470279694,-0.25290576300042417,0.2873486289933387,-0.38464844558897954,-0.1422699906783944,-1.6098359685249044,-4.8126841221144545,7.776176618247614,-0.11197494905907418,-0.5334103172061074,-0.15105352680191747,0.2535153918986111,0.1476567399996123,-0.5546356928508844,-0.6916951418100329,-5.4860397654099025,8.052066773745898,-0.11091886076972228,-1.166725008306321,-0.14583178846589767,0.048480540906311965,0.34028455640141786,-0.7781955520851566,1.1751712510415175,-5.411599087898475,7.516703866363429,0.25554109022718713,-0.639565706603278,0.7675291464247792,-0.07858809526442484,0.24246865469090928,-0.6085474000347798
-0.1328173832374263,-5.00276973187635,7.3951396010211194,0.18804384847194938,0.29945857994420955,0.8573831291042856,0.052097145976811116,0.14073177270273146,-0.48289091715626375,-3.224312799619696,6.717207053626688,4.495015580920321,-0.049103619977434565,-0.3711682308843837,-0.3031768309308423,0.2900377235393048,-0.3846790222255237,-0.14470628737464328,-1.3817343226190855,-4.635437192023879,7.269651313827862,-0.06596995390705697,-0.5517095450752524,-0.1838734486552062,0.24744522509688213,0.15201093933282006,-0.5598351156232583,-0.5176554177444973,-4.9667051212901185,7.989669181539388,-0.07475955439219117,-1.192362530563111,-0.18339247148456006,0.03310559778915029,0.3428180635815211,-0.780330338142917,1.4077069744349102,-5.243033777099588,7.393579150911225,0.31220097496902716,-0.4824791999461819,0.8009441788549817,-0.07371746261032674,0.24368080052165472,-0.6129575481086929
-0.6507255003739509,-5.011014118555889,7.658230171603529,0.3380678668923182,0.23064056024875454,0.9009194204966493,0.06593679994939122,0.1276875376646086,-0.4765915686828536,-3.4747594833267668,7.2183781328220675,4.100056369003103,0.0202598435888753,-0.36165140755569175,-0.37910377988057725,0.29271361086286934,-0.382218950749553,-0.14425486809647528,-1.3800521805183323,-3.7861287670569457,7.653848963258646,-0.04124866422274219,-0.5553180107203115,-0.20170788907347054,0.2323120204651557,0.15246264468109735,-0.5544668732803093,-0.3983239574393912,-4.392920801615812,7.991346201320208,-0.06137559685048576,-1.258673146233322,-0.20645249739433286,0.008471367575708384,0.34295731142550306,-0.7741286924880046,1.11969421698764,-5.619044590641845,8.327790286632645,0.5006526812623292,-0.30048740971537335,0.8016116859548554,-0.07180151995067831,0.2370619655926072,-0.6108091370896
-0.6970808408790125,-4.482271700848391,7.575700952332468,0.022608598132282887,0.2767754922347168,0.9968683012302695,0.07639042784078239,0.1166721301761815,-0.4798097883416452,-3.4137425674358175,7.067419754895388,4.557567609282403,-0.31575963116330047,-0.3222154782600866,-0.3637982302379165,0.28810862270872106,-0.3877416896479617,-0.15222836483003938,-1.1094947759860132,-4.411248500001104,7.477995983160045,-0.4436665040984747,-0.5108279141764539,-0.2913411202339478,0.2193990925817909,0.15593098272261205,-0.5574522157579492,-0.14771543779853774,-4.753638079723768,8.312365284371056,-0.4714861930131265,-1.334904250725126,-0.22006134907561264,-0.01985374038790927,0.3436139553680614,-0.7762130222560849,1.1717320189719662,-5.880152076862566,8.770552358124927,0.29248251142918313,-0.1387294148065168,0.9089971427202173,-0.07239007956223478,0.22881582822359642,-0.6194007950247747
-0.7545288082919599,-4.590385026269523,7.070992448184277,-0.05880499449792421,0.3339375946331894,1.085919583278476,0.08157743391841277,0.12548560556510757,-0.48755430985813797,-3.2665387741045477,6.879872584673931,4.8990809888853235,-0.4199373562154324,-0.37791759317543844,-0.3023533490359861,0.28590186627476294,-0.38319036671942264,-0.156946900899769,-0.7496696524406061,-5.056029147552832,7.749006364635195,-0.572923643856443,-0.47908543186656316,-0.3360020859243054,0.20604531694784758,0.16555952838335175,-0.557365741615273,0.5670155573863622,-5.06240652168252,7.739935993721661,-0.6137195390903468,-1.4222804382352923,-0.21926647369800323,-0.05050700743637427,0.3581940757944507,-0.7702188703054356,1.2102832879609802,-5.26661002712622,7.80561203423818,0.18156263941615464,0.010149388059739084,1.0541755305736573,-0.06680387379308839,0.22807272692430608,-0.6243150440583248
-1.0805288985938315,-5.111825313618926,7.077878383207384,-0.00995571393306104,0.2900368948321667,1.0977010528929076,0.08281751488956973,0.12769973675559448,-0.4912005464462227,-3.342475962133492,6.646248503637702,5.517323975368983,-0.39637826871710724,-0.4339201714032,-0.26959501902528954,0.29348750998483875,-0.3833370777246859,-0.16743113255424533,-0.7879587719333258,-5.349572396224974,7.754386751189815,-0.5585960664540017,-0.4809094773452548,-0.3196589208431862,0.20169622664935272,0.1714762331009399,-0.5560000107265513,0.861732389734132,-5.071317929894224,7.044518776942713,-0.600741765418866,-1.3470481545405084,-0.1915132453524692,-0.06709748579823928,0.35902231528943324,-0.7686874340307444,0.8324262837462377,-4.627347605000716,7.529007391688401,0.24313182495938096,0.1695345869114514,1.053052835359501,-0.04711804708730936,0.2213916145733522,-0.6332381671474663
-1.276210812340722,-5.433670365963416,7.573133079066723,0.10465232835601401,0.33318876744408443,1.0568122139664913,0.1015574498874063,0.1168477150138715,-0.48780582268808975,-3.3994810820925165,6.524785851097135,5.554221174033199,-0.2359780816145308,-0.4435832488087869,-0.22330822813942106,0.2886365657239995,-0.38813602173727796,-0.17590522449039034,-0.8176951767152802,-5.337705289114036,8.001675016112477,-0.3467439428433304,-0.500122618660211,-0.2792168580439126,0.1848373741703485,0.1698281755919793,-0.56011828773743,1.2956123586065131,-5.3018898606562725,6.995100121700352,-0.3881997707879868,-1.1992694308159346,-0.19366801904439176,-0.09274623537533756,0.3572208219152185,-0.7693206715485542,0.5985401279551641,-4.802299683062685,7.984995157757922,0.3343935469482463,0.17221435945633234,0.993077365542794,-0.04770588393462285,0.2124047724171252,-0.6403692067561069
-1.2734754610296144,-5.322450794581165,7.485591195486616,0.1731650272364116,0.38738646526925946,1.0209927918106974,0.11576171323846746,0.12364867987173547,-0.4928553921406074,-3.1091562265119137,6.621028725275692,5.667446727694698,-0.1793348087947094,-0.42008608847840007,-0.21197019574101167,0.2885899403952609,-0.37616353660733787,-0.1753735348327099,-0.5753495137741463,-5.186413759943069,7.965851718710754,-0.29627387410665923,-0.5669754689404585,-0.26053903640640635,0.17666000216151845,0.185787554383313,-0.5586756309438957,1.725365836379299,-5.089177747156647,7.220388437098017,-0.3388237949510408,-1.0215741477656122,-0.1879668113815266,-0.10967072599291161,0.378795697337808,-0.7594671706562117,0.7994316149913069,-4.787278588359783,8.196790878071939,0.3993570476525102,0.15809256303423466,0.9402183796552465,-0.03543839337969077,0.22061639194003171,-0.6401347578369952
-1.1031098330690225,-5.596898966353008,7.315682515138357,0.12681066777318847,0.36003327752471154,0.9663864111124143,0.12449707127227505,0.11213400023748069,-0.49315177692711065,-2.518027908522023,7.030697559346428,5.893499851551826,-0.23066614410822298,-0.3543226265390357,-0.20548413116521563,0.29155100550178903,-0.3797495541295326,-0.18605205344558004,0.22895588065866646,-5.216320738479291,8.001602172443697,-0.39084912628956414,-0.6401928827558291,-0.26079954308331466,0.16472344067684758,0.18927299988474006,-0.5601963174925485,2.5393604725233896,-4.986468123555584,7.353926474051453,-0.4341063314785821,-0.9050073495627338,-0.15332400953746084,-0.12580541385517255,0.3764513642113651,-0.761358574573854,1.112270613557575,-4.7551025959793645,8.348026745604711,0.3514429144009181,0.42867399442324655,0.8915856776511202,-0.018968561995434695,0.21006969895325558,-0.6519946841949816
-1.5444089133559866,-6.0207267838600425,7.61035006340437,0.01881369046810431,0.286144878752134,0.8399074773693213,0.13008831845554383,0.1084287089326385,-0.490475616191682,-2.524455888503499,7.081950377950549,6.199091725246941,-0.2971759993901497,-0.223234211008994,-0.20904001659648253,0.287864743176278,-0.3710647058112859,-0.19157535542506343,0.4280722248364891,-5.1245340379178685,7.622673949642456,-0.4734179500365025,-0.6896335818060988,-0.25520386310071164,0.15066057200431127,0.20184804156067943,-0.5594271741070967,2.4794884505310013,-4.939877072409259,7.135709727105616,-0.5097721328608882,-0.8366580866047618,-0.12275957785166933,-0.14621453208177637,0.3895054313009516,-0.7556504018685934,0.5181000039112558,-4.199117659298587,8.152764187735588,0.21751701746833074,0.7105546252786158,0.8002708152880796,-0.006042834329572221,0.2109776181444643,-0.65620209967841
-2.123642290081924,-5.675250290149246,7.6151580190991774,-0.04420770676043585,0.28604917010112846,0.6913901744170502,0.14399953153034195,0.10714498725074732,-0.49093848812970375,-2.9756440563619906,6.713381939027813,6.176321772687586,-0.3103481879180853,-0.06317112805853017,-0.1719069378959835,0.29471674607048665,-0.37495726500217513,-0.19223176481193963,0.36090402416722683,-5.188586544134208,7.23715505749285,-0.4833671365031747,-0.6622618672141763,-0.22652804919857913,0.1445606089096928,0.2023883675254795,-0.5591905919943847,2.0387815789072725,-4.85829066474846,7.3505934769301,-0.5148826097078142,-0.8631036080477901,-0.09343119473900245,-0.1549987829360314,0.38588893910446503,-0.7490270228123812,-0.3560251272473661,-4.280839010471455,8.495024780578822,0.11314190796581822,0.7991006586309525,0.6604835375983509,0.016134599435019617,0.2039694309870889,-0.6541517501022791
-2.091983341137164,-5.008827444572472,7.861125847278123,-0.08919371812524729,0.41161208667134025,0.6134136112274156,0.14817833664144864,0.11178259215208751,-0.49382949653897107,-3.1444049371963736,6.580856329322523,5.712393730358557,-0.31389997044146695,0.015979951886923142,-0.09722761560142153,0.2886420342220691,-0.37996906604862823,-0.1985060488531246,0.3409107447945026,-5.047112208923638,7.201419955273171,-0.4811990147803577,-0.5982538937706209,-0.19038140484748967,0.12528155031193033,0.2035013314209398,-0.5599362326259519,2.052179133461966,-4.650068287505898,7.605149037492839,-0.5017729923131155,-0.9979772459483885,-0.054416640592852804,-0.17887996139224854,0.3904201869555791,-0.7442892036459203,-0.49974196206164645,-4.309516118228332,8.560050670412528,0.051341446691888254,0.698565956369206,0.5901084969626861,0.027024071772556422,0.19465191135636897,-0.6606075399177215
-2.1588411119751045,-4.647161914949676,7.865559776037581,-0.16549260884038816,0.5366513847958746,0.5591895912808753,0.16354700053952914,0.10974924515432952,-0.49258455438186255,-3.13054353101235,6.708879075104605,5.53334590015384,-0.3781383537042837,0.07633083039733478,-0.05523974843957342,0.28858284689390096,-0.3645821667087419,-0.19827554817115098,0.5382844737483361,-5.028275479199234,7.207375275764,-0.6058189982487274,-0.5612802371733114,-0.18147311802187052,0.11424068457382723,0.22785286736588048,-0.5544835578808897,2.3630536022565907,-4.643462385286201,7.1636417116583475,-0.619891325939119,-1.095374481619978,-0.0017912473881553572,-0.1979576514915178,0.41615428110597563,-0.729541199145827,-0.574118860589386,-3.917691404495606,8.52668139457889,-0.034188432181165004,0.5337086457131355,0.5527128027692544,0.03862358132312267,0.21042334653517383,-0.658127715612034
-2.322298151224848,-4.4923823636995515,7.51747072332762,-0.28667946021906676,0.6372430354408812,0.5031411009494219,0.16990360730982054,0.1104649834264217,-0.4947629485366813,-3.1938111923653465,6.664559952465075,5.80905264213594,-0.4953524729479686,0.10722396981880092,-0.001623755717130309,0.2927454403330401,-0.3696149322009617,-0.1935446562509358,0.6866147743212282,-5.553341605477708,7.30534824298391,-0.7594724131770164,-0.5261710563907247,-0.1805237199753761,0.10740954957373393,0.22832247666817707,-0.5442341671812578,2.726344738712329,-5.02781364597084,6.729412316992549,-0.7707779746210632,-1.1429961227281054,0.05531302941052419,-0.2105977239477805,0.41548183883862855,-0.7145987042839402,-0.646102746831702,-3.881044336869244,8.38612469029609,-0.15728402088381474,0.44538981447476017,0.520438427490475,0.057133199710644365,0.2004926170502783,-0.6529042051979401
-2.423430161371023,-4.435114032902129,7.10259228075622,-0.37239492638874905,0.6542649544446373,0.4669725437105215,0.1757385324459919,0.11230293103048214,-0.48082118597737744,-3.153306992440832,6.532668862238423,5.990964305734788,-0.5475158975691473,0.06829998326229986,0.03826911245927346,0.28618191190066145,-0.3708610713464457,-0.20818594966195142,0.917316456619102,-5.918444667122632,7.283891235843274,-0.7944032782193629,-0.529765972878599,-0.14441462448907796,0.09380811046586135,0.23759792865034812,-0.5507356144602316,3.1569336238458745,-5.318372360540111,6.211989923119512,-0.7935713465821692,-1.1056444662001568,0.11601913196422829,-0.2315495967312909,0.4226847421577686,-0.7140209754213087,-0.6112764113325208,-3.998434243744045,8.333207232792692,-0.2442508344804346,0.5389454970122406,0.5001654280134127,0.06439227098950967,0.2012604752987501,-0.6675827080806802
-2.551998484642283,-5.156383601635318,6.848818072004314,-0.3948367062053703,0.6200332225658458,0.42773841890518366,0.20064386469559461,0.11629161119605569,-0.4736565878676674,-2.826384979951332,6.358069752113516,5.878941096021773,-0.4634577037336078,0.05571235888207241,0.10520297156338584,0.2825220026693853,-0.3718355787689536,-0.2071986798395133,1.0654773771602521,-5.762863025291592,7.304229099019057,-0.6071573097105852,-0.5558785575220672,-0.0892976468737587,0.0823811454738112,0.24368874194045254,-0.5422888993865744,3.742067873496463,-5.833464941262399,5.686267093012528,-0.5865934376344535,-0.9884438509157045,0.11636439501895247,-0.24682537914234762,0.4320410048053251,-0.7012565603935846,-0.6481838615672174,-4.321903458699615,8.15119350284025,-0.2837890872142337,0.8001454865157955,0.4728863676355163,0.07982405868336442,0.20305643410685098,-0.6598334387905215
-2.7127135426934705,-5.429163243714791,6.769714996282837,-0.3044885530143507,0.5198692072186512,0.3693184379611695,0.20752873508692957,0.12579069689372047,-0.4752886208339214,-2.820820345447312,5.972371446956791,6.056774590954723,-0.379778678809084,0.12882578698305355,0.07700991105191285,0.28837076448209537,-0.3653692002327929,-0.21608725677202983,0.7783328439788764,-5.896404812123903,6.9026655516847875,-0.528082882583123,-0.6549065652127473,-0.07899590860887117,0.08078297492734818,0.2580541688830952,-0.5454608320245758,3.4403578655855296,-6.020213120072206,5.486860025578586,-0.5173642127782025,-0.80601689084648,0.09024227949007255,-0.25187466315145285,0.4452539262190073,-0.7012240532981601,-0.9190635887919444,-4.56723300258519,8.031655030503709,-0.2046226923359023,1.1590086548242924,0.3869957631985019,0.10893176417278588,0.21337034447107636,-0.6640609731948556
-2.6630527816321603,-4.816173485204997,7.0329610343231375,-0.31850077760739126,0.5263154227640124,0.34959099311656455,0.2114226055042322,0.12308884171726292,-0.4755412822253231,-3.0342015650563945,6.199222472090434,6.292917674708949,-0.3918875723861445,0.12379730787937164,0.08317648605293711,0.2871197157886469,-0.3613173149389462,-0.2071228901612687,1.0941789550143495,-6.492588096315988,6.770589256829472,-0.5404743438011836,-0.7057496938875473,-0.06536142712114933,0.07110151801998976,0.2686205495454468,-0.5314731712534089,3.4783687873406466,-5.9700746327783865,5.621661302594845,-0.522379103138945,-0.6901888912848375,0.10815610951656053,-0.2605186313822674,0.456761894242425,-0.6816467793511402,-1.2511757463370565,-4.701823623496168,7.85783225913434,-0.22191489544207482,1.2780651424435092,0.3590600925691765,0.13198846543221074,0.2170110124852128,-0.6473028343827893
-2.8130568988730658,-4.5680090219187655,7.00868207224414,-0.4102031506867016,0.6050383885235094,0.3552940794434635,0.21409229565910695,0.1252056950469237,-0.4647783936977173,-2.973716476548824,6.362004214648275,6.074971454785169,-0.4912561629001429,0.05632617943666198,0.12792002100413072,0.28203187927145257,-0.3683026210783896,-0.2148286939293747,1.432584983082894,-6.361867646885694,6.547759905368283,-0.7000482435256304,-0.7140913259446234,-0.06869932441683357,0.05622422456551074,0.2706968404973511,-0.5310160527213453,3.570423363626017,-6.349753146863964,5.512473143068784,-0.6754175846376973,-0.6481096918377935,0.16895299463785549,-0.2727007540539837,0.4580505033562468,-0.6772033235155286,-1.5298140874075352,-4.256664388097202,7.680518313573083,-0.3112353819365755,1.2012629320994064,0.3799777547866868,0.15365071923997847,0.21077865131281762,-0.6518385870419049
