# sampling frequency: 40
# units are seconds/meters/radians/a.u.
seg1_acc_x,seg1_acc_y,seg1_acc_z,seg1_gyr_x,seg1_gyr_y,seg1_gyr_z,seg1_mag_x,seg1_mag_y,seg1_mag_z,seg2_acc_x,seg2_acc_y,seg2_acc_z,seg2_gyr_x,seg2_gyr_y,seg2_gyr_z,seg2_mag_x,seg2_mag_y,seg2_mag_z,seg3_acc_x,seg3_acc_y,seg3_acc_z,seg3_gyr_x,seg3_gyr_y,seg3_gyr_z,seg3_mag_x,seg3_mag_y,seg3_mag_z,seg4_acc_x,seg4_acc_y,seg4_acc_z,seg4_gyr_x,seg4_gyr_y,seg4_gyr_z,seg4_mag_x,seg4_mag_y,seg4_mag_z,seg5_acc_x,seg5_acc_y,seg5_acc_z,seg5_gyr_x,seg5_gyr_y,seg5_gyr_z,seg5_mag_x,seg5_mag_y,seg5_mag_z
1.744387,-7.233722,6.238215,-0.071906,-0.047643,-0.019989,-0.354492,0.314697,0.116943,-0.214082,8.359887,5.165524,0.013196,-0.017675,0.022699,0.265869,0.397217,0.464844,-1.815579,-6.889263,6.742789,0.078952,0.014044,-0.009397,0.585449,0.233887,-0.312988,-1.571051,-6.973628,6.674626,-0.04057,0.059949,0.022251,0.328857,0.325684,-0.52124,0.076846,-6.489028,7.135301,0.246087,0.010634,-0.089601,-0.244141,0.428223,-0.389404
1.931104,-7.563696,6.148203,0.008946,0.050216,0.000287,-0.36377,0.314697,0.123779,0.056969,8.362003,5.12194,-0.018238,0.022651,-0.009804,0.259521,0.404297,0.469971,-1.480295,-6.995202,6.777621,-0.121291,-0.013091,0.017407,0.578125,0.233643,-0.304199,-1.483092,-7.615512,6.599984,-0.140759,-0.064899,0.050545,0.319824,0.331055,-0.512207,0.310867,-6.159625,7.178106,-0.003809,-0.105161,0.010582,-0.256348,0.424805,-0.383545
1.819106,-7.430265,6.17235,-0.007403,-0.041402,-0.018146,-0.362061,0.312988,0.123291,-0.143335,8.3982,5.137641,-0.006201,0.003893,0.03181,0.271484,0.395752,0.476074,-1.663657,-7.298103,6.593505,0.029646,0.039675,-0.018724,0.577393,0.231445,-0.306641,-1.394887,-7.688884,6.510095,0.101491,-0.043259,-0.045126,0.319336,0.324951,-0.515137,0.541111,-6.856588,7.377257,-0.410948,-0.003684,-0.013722,-0.254395,0.428467,-0.380859
2.128438,-7.413811,6.140866,0.026464,0.025716,0.02602,-0.356934,0.318115,0.12207,0.198111,8.311369,5.10649,-0.029207,-0.010177,-0.019314,0.268799,0.39624,0.466309,-1.35346,-7.001474,6.662719,0.025826,-0.030514,-0.01074,0.586182,0.237305,-0.306885,-1.127603,-6.850182,6.345376,0.120625,-0.097735,-0.043596,0.322754,0.328125,-0.517822,0.533652,-7.786437,7.015901,-0.114873,0.012436,0.091221,-0.246826,0.435547,-0.377441
1.70036,-7.408465,6.173834,-0.011136,-0.014509,-0.003944,-0.353516,0.317871,0.131348,-0.1802,8.238813,5.170136,-0.003188,0.028204,0.024523,0.265137,0.403564,0.470947,-1.616686,-7.001359,6.675333,0.04123,0.084744,0.018652,0.588623,0.236328,-0.301514,-1.103452,-6.839124,6.348333,-0.041822,0.05838,0.06781,0.326172,0.330322,-0.509033,0.201989,-6.932798,6.904278,0.539211,0.087591,-0.086569,-0.243408,0.430908,-0.379395
1.985052,-7.419836,6.167053,0.054038,0.015114,0.011946,-0.360352,0.31543,0.131592,0.015392,8.383357,5.055249,0.039084,-0.018102,-0.023325,0.271729,0.405273,0.472412,-1.760478,-6.842823,6.842785,-0.023193,-0.04238,0.013519,0.579834,0.237549,-0.299805,-1.480447,-7.368748,6.748247,-0.143658,0.093102,0.04169,0.32373,0.334473,-0.508789,0.203137,-5.776735,7.336336,0.20806,-0.059559,-0.020372,-0.251709,0.427246,-0.379395
1.644304,-7.174213,6.274901,-0.052417,-0.007627,-0.001547,-0.362793,0.304443,0.124756,-0.19511,8.483661,5.201481,-0.028422,0.025732,0.022778,0.266602,0.401611,0.467529,-1.610639,-7.27913,6.76455,-0.111935,0.009729,0.016434,0.580566,0.223877,-0.306641,-1.613165,-7.969619,6.683635,-0.073535,0.019068,0.052952,0.321777,0.320801,-0.514648,0.364246,-6.210783,7.06728,-0.334138,0.007643,0.04939,-0.250732,0.420898,-0.384033
2.024324,-7.72247,6.010663,-0.047076,-0.00177,-0.014625,-0.355469,0.309814,0.120605,0.050376,8.307174,5.104008,-0.068684,-0.019102,-0.003168,0.272217,0.394531,0.4729,-1.721685,-7.136479,6.621129,0.076231,-0.051812,-0.05265,0.581787,0.233398,-0.310303,-1.373493,-7.420026,6.491743,0.167044,-0.031893,-0.096022,0.325684,0.328369,-0.515869,0.252079,-7.270314,7.198706,-0.357869,0.001882,0.006377,-0.247559,0.431885,-0.379883
1.867094,-7.276423,6.190537,0.085747,-0.002984,0.018334,-0.353516,0.312256,0.123047,0.015896,8.191332,5.182389,-0.008375,0.023203,0.013592,0.262695,0.39624,0.463379,-1.212288,-6.931813,6.559517,-0.02307,-0.026662,0.001852,0.588379,0.235107,-0.310059,-1.102742,-6.617254,6.222451,0.058959,0.010656,0.014898,0.333252,0.327637,-0.517578,0.504249,-7.505903,6.858156,0.156299,-0.062068,0.015878,-0.241943,0.430664,-0.382812
1.893396,-7.415073,6.171794,-0.05544,0.01164,-0.016986,-0.356445,0.319336,0.123779,-0.028785,8.372667,5.121941,0.055727,-0.002379,-0.006644,0.269531,0.405029,0.46875,-1.657286,-6.988774,6.614158,0.023342,0.058608,0.018472,0.586426,0.240723,-0.306152,-1.395218,-6.927972,6.420877,-0.107768,0.091048,0.051929,0.327393,0.332275,-0.515625,0.316997,-6.423309,7.170034,0.439622,0.079026,-0.096119,-0.24707,0.429443,-0.387451
1.814306,-7.405153,6.179912,0.038036,-0.000345,0.01306,-0.359375,0.313721,0.119385,-0.090375,8.470936,5.1784,-0.035437,0.019505,0.006891,0.265137,0.401367,0.465332,-1.569089,-7.032808,6.718459,-0.057148,-0.014291,0.018399,0.580566,0.23291,-0.30957,-1.637845,-7.688223,6.723252,-0.151419,0.004436,0.072396,0.324707,0.330322,-0.516846,0.202936,-5.940873,7.364703,-0.105114,-0.05122,0.028243,-0.250488,0.425293,-0.387207
1.820066,-7.470747,6.133347,-0.054977,0.003596,-0.012427,-0.361084,0.315674,0.115967,-0.127789,8.29193,5.145075,-0.022377,-0.00892,0.009781,0.268799,0.388428,0.467285,-1.692611,-7.304059,6.714777,-0.013285,0.061373,0.002508,0.582764,0.237305,-0.312988,-1.59597,-8.000779,6.630154,0.067002,-0.092138,-0.032966,0.324219,0.331055,-0.522461,0.413344,-6.961275,6.983782,-0.379948,-0.005528,0.037837,-0.248779,0.432129,-0.387939
1.952996,-7.442957,6.12822,0.062929,-0.005469,0.001433,-0.353027,0.315186,0.126709,0.043851,8.346784,5.098859,0.004166,0.018442,0.004326,0.27002,0.391113,0.468506,-1.603946,-7.038746,6.638395,0.082705,-0.031011,-0.036554,0.586426,0.233643,-0.304688,-1.192887,-6.937227,6.440048,0.204457,-0.111617,-0.086097,0.324707,0.329102,-0.51416,0.271547,-7.352154,7.004322,0.053922,0.01694,-0.014389,-0.244873,0.433105,-0.378174
1.873172,-7.280889,6.260373,-0.024443,0.009325,-0.002881,-0.356445,0.3125,0.12207,-0.062506,8.333498,5.168964,-0.0082,0.006126,0.009435,0.269775,0.398926,0.477783,-1.38135,-6.837664,6.666356,0.001138,0.042128,0.004394,0.585205,0.231934,-0.30542,-1.081175,-6.684577,6.285481,-0.046337,0.002507,0.048545,0.324707,0.32251,-0.512451,0.343952,-6.687448,7.071486,0.311207,-0.047831,-0.043734,-0.244385,0.423096,-0.382812
1.917892,-7.561707,6.08717,-0.005971,-0.012943,0.001611,-0.355225,0.315186,0.126465,0.002581,8.335724,5.062027,0.002702,-0.007271,0.001871,0.263184,0.397461,0.469971,-1.775846,-6.985729,6.785315,-0.041296,0.00388,0.029773,0.587158,0.236572,-0.304443,-1.367359,-7.267171,6.614362,-0.124883,0.064692,0.046765,0.32959,0.330078,-0.512939,0.505828,-6.286901,7.466759,-0.056969,-0.024474,-0.008001,-0.245605,0.430664,-0.381836
1.915143,-7.237625,6.262926,0.053428,0.032744,0.018327,-0.353271,0.317383,0.123047,-0.018952,8.408872,5.145838,-0.00538,0.024043,-0.000225,0.272461,0.403809,0.473633,-1.401488,-7.223507,6.703924,-0.053443,-0.004771,0.003563,0.587158,0.237061,-0.30835,-1.359355,-7.735923,6.624846,-0.068911,0.006595,0.036926,0.330322,0.331543,-0.513916,0.445197,-6.891474,7.053259,-0.205014,0.069866,0.070937,-0.243164,0.432861,-0.381348
1.749634,-7.468698,6.099728,-0.08734,-0.031862,-0.008897,-0.355957,0.318115,0.128174,-0.144306,8.368803,5.19198,-0.034857,-0.010495,0.005163,0.263916,0.406982,0.475098,-1.889626,-7.098324,6.749398,0.067168,0.014638,-0.012777,0.584473,0.237549,-0.303223,-1.457941,-7.495138,6.519742,0.107114,0.04895,-0.034482,0.326904,0.330078,-0.512207,0.020442,-7.000316,6.917741,0.100615,0.042569,-0.033702,-0.246338,0.433105,-0.380127
1.963173,-7.52085,6.108394,0.061631,0.020571,0.008768,-0.364502,0.317383,0.122803,0.015972,8.21949,5.136982,-0.032904,0.002623,0.007317,0.267822,0.401123,0.475342,-1.450704,-6.897862,6.698997,-0.02908,-0.089714,-0.017747,0.575684,0.239014,-0.306641,-1.325939,-6.896323,6.470593,0.029621,0.006494,-0.005505,0.316162,0.331299,-0.515625,0.342354,-6.512057,7.2127,0.144393,-0.110777,-0.025322,-0.255371,0.431885,-0.385254
1.888243,-7.213931,6.241351,0.005053,-0.012876,-0.006027,-0.358887,0.314941,0.120605,-0.010814,8.434683,5.115457,0.055934,0.015217,-0.001474,0.268066,0.39502,0.468506,-1.413492,-7.060515,6.565796,-0.029964,0.044525,0.010976,0.580078,0.233398,-0.312256,-1.27749,-7.113484,6.444633,-0.072655,0.059815,0.046458,0.322998,0.330322,-0.517334,0.64056,-6.529363,7.190028,-0.102627,0.022996,0.004658,-0.248047,0.428467,-0.386719
1.849184,-7.442199,6.147424,-0.055802,0.021439,0.01223,-0.349609,0.316895,0.125977,-0.093425,8.431385,5.153692,-0.071768,0.004625,0.004487,0.267578,0.414795,0.455811,-1.703923,-7.082206,6.6686,-0.014563,-0.006415,0.013711,0.5896,0.23584,-0.30249,-1.568488,-7.418981,6.459871,-0.063745,0.039704,0.022338,0.333496,0.330811,-0.508545,0.172621,-6.889395,7.067667,-0.111312,0.078546,0.030583,-0.240723,0.43335,-0.377686
1.815442,-7.611747,6.092807,0.014547,-0.018844,-0.011096,-0.361328,0.312988,0.123535,-0.102047,8.228944,5.211177,-0.003933,0.001919,0.008986,0.266357,0.402832,0.459473,-1.533846,-7.146074,6.658686,-0.001587,0.021517,-0.003636,0.577637,0.232666,-0.310303,-1.55724,-7.541124,6.638313,0.022578,-0.042502,0.012486,0.321045,0.32666,-0.516846,0.15073,-6.929425,6.97702,0.084052,-0.068865,-0.023631,-0.250732,0.426514,-0.385498
1.892628,-7.210999,6.199603,0.063758,0.023892,0.0006,-0.35791,0.313477,0.127686,-0.011125,8.359713,5.04392,0.030558,0.016356,0.002403,0.264893,0.401367,0.473877,-1.662504,-7.062238,6.688262,0.040428,0.020105,0.000128,0.579834,0.234619,-0.304443,-1.351868,-7.256923,6.55281,0.05444,-0.068149,-0.035563,0.321777,0.32666,-0.510254,0.48454,-6.519449,7.16623,0.129579,-0.033766,-0.044021,-0.249268,0.427002,-0.378662
1.890367,-7.344669,6.20769,-0.087929,-0.021382,-0.010878,-0.362793,0.316895,0.122314,-0.061047,8.415187,5.179943,-0.024789,0.002843,0.01172,0.272461,0.400879,0.468994,-1.487834,-6.922465,6.679389,0.002037,0.004816,-0.02161,0.581055,0.23877,-0.307129,-1.311625,-7.137347,6.402848,-0.003867,-0.051922,0.004822,0.320557,0.331299,-0.518066,0.327085,-6.509963,7.218972,-0.093365,0.027187,0.015838,-0.249756,0.431885,-0.384521
1.889438,-7.634371,6.052168,0.015548,0.031098,-0.00044,-0.355713,0.316406,0.119385,0.016424,8.263273,5.161906,-0.047232,0.01178,0.004318,0.27124,0.398438,0.468262,-1.617829,-7.061483,6.706002,-0.044914,0.041141,0.024079,0.584229,0.236572,-0.310547,-1.249605,-7.163423,6.446019,0.011252,-0.013716,0.010162,0.328125,0.330078,-0.519043,0.296269,-6.905308,7.036399,-0.155532,-0.036576,-0.007129,-0.246582,0.432861,-0.388184
1.851617,-7.288326,6.234565,0.031293,-0.013671,-0.004124,-0.358398,0.309814,0.118408,-0.080908,8.279718,5.093413,0.034251,0.014854,0.009411,0.273193,0.397949,0.473633,-1.640202,-7.133859,6.711733,0.017316,0.000622,-0.008177,0.581543,0.229492,-0.310059,-1.396179,-7.276026,6.654879,-0.05293,0.028432,0.027141,0.323486,0.324707,-0.52002,0.384974,-7.007753,7.007707,0.069186,-0.012689,-0.011266,-0.249756,0.425293,-0.388428
1.914588,-7.446724,6.122757,-0.027859,0.013014,-0.002213,-0.358887,0.320557,0.13208,-0.016711,8.488904,5.159759,0.016739,-0.001139,0.004008,0.268555,0.394775,0.479736,-1.574864,-7.0321,6.731101,0.006639,0.004001,-0.001641,0.580566,0.238525,-0.29541,-1.461926,-7.574344,6.590751,-0.031357,-0.036199,0.012947,0.32373,0.334961,-0.508301,0.285716,-6.579038,7.228001,0.125088,-0.01777,-0.048376,-0.251709,0.43457,-0.373779
1.889489,-7.429829,6.15306,0.019379,-0.009045,-0.00402,-0.357666,0.315674,0.124512,-0.025887,8.354397,5.129238,-0.069534,0.010498,0.0111,0.271484,0.400879,0.467041,-1.590535,-7.040932,6.670497,0.000422,-0.000868,-0.012074,0.578857,0.236328,-0.301514,-1.225826,-7.250113,6.3963,0.105772,-0.032162,-0.036863,0.320312,0.327393,-0.513428,0.484304,-6.608117,7.191447,-0.090064,-0.041013,0.009587,-0.249023,0.431396,-0.379639
1.869883,-7.29186,6.179545,-0.002976,0.020036,0.002247,-0.352783,0.303223,0.126221,-0.04471,8.23928,5.129172,0.002639,0.014417,0.003442,0.264893,0.400879,0.469482,-1.530117,-7.017459,6.662932,-0.015866,0.008164,0.003549,0.587646,0.221924,-0.305176,-1.265961,-6.85591,6.463469,-0.000985,0.045698,0.011743,0.327148,0.314453,-0.51416,0.345213,-6.842059,7.00743,-0.040272,0.042763,-0.002049,-0.245117,0.418457,-0.377441
1.890083,-7.536289,6.124784,-0.03828,-0.017238,-0.002704,-0.352295,0.315186,0.122559,-0.054733,8.364059,5.136211,0.01763,-0.009696,0.008841,0.268555,0.405029,0.469971,-1.627564,-7.082583,6.678871,-0.006876,0.00503,0.00792,0.588623,0.23584,-0.310791,-1.464812,-7.342144,6.57543,-0.122859,0.00696,0.058065,0.329102,0.327881,-0.515381,0.23269,-6.82049,7.208761,-0.013877,-0.04485,-0.030993,-0.244629,0.429688,-0.384277
1.915955,-7.432631,6.169903,0.054103,0.016472,0.002578,-0.36377,0.31543,0.125488,0.009968,8.453135,5.154879,-0.008531,0.017953,-0.003488,0.27002,0.400391,0.472412,-1.510485,-7.079465,6.685389,-0.009087,-0.003353,-0.003059,0.578613,0.234131,-0.303955,-1.323771,-7.639503,6.476605,0.006786,-0.021406,-0.003024,0.318115,0.330566,-0.513916,0.61198,-6.888856,7.023583,-0.000221,-0.037356,0.019885,-0.254639,0.433105,-0.378906
1.752791,-7.296071,6.173213,-0.034758,0.001279,0.00065,-0.357178,0.306641,0.128174,-0.168471,8.285066,5.177694,-0.059406,0.015399,0.015256,0.272461,0.403809,0.475342,-1.704945,-7.069808,6.701805,0.017244,0.037754,-0.001042,0.586914,0.230225,-0.301758,-1.43346,-7.202254,6.516365,0.100291,0.020972,-0.020265,0.325439,0.322266,-0.511719,0.223198,-6.703352,7.045006,0.102508,0.098427,-0.02626,-0.247559,0.421143,-0.37915
2.032866,-7.615233,6.127471,0.007987,-0.013929,-0.004673,-0.36084,0.310059,0.133057,0.064015,8.263983,5.113671,0.046269,-0.018422,0.002539,0.261963,0.406494,0.469971,-1.546265,-7.009711,6.671019,-0.012913,-0.041955,-0.012195,0.57959,0.231445,-0.296387,-1.36279,-7.049393,6.564558,-0.044596,-0.055611,0.007041,0.319336,0.325928,-0.506348,0.228354,-6.550623,7.246099,0.000193,-0.123887,-0.009119,-0.253174,0.426025,-0.374512
1.796676,-7.178512,6.220745,0.048525,0.026741,0.004467,-0.36377,0.308105,0.12915,-0.032995,8.492359,5.110454,0.000765,0.038612,0.003611,0.265869,0.400635,0.473877,-1.437162,-7.080255,6.669144,0.015815,0.047981,0.014142,0.577393,0.227783,-0.297852,-1.189856,-7.330693,6.384254,-0.020735,-0.001351,0.030989,0.315918,0.321289,-0.509277,0.766877,-6.752622,7.172266,-0.102533,-0.005531,-0.007601,-0.258301,0.425781,-0.374268
1.921823,-7.448642,6.157368,-0.081971,-0.01882,-0.002457,-0.358398,0.313232,0.129639,-0.101661,8.314446,5.19525,-0.073676,-0.014107,0.007957,0.26709,0.4021,0.47168,-1.744746,-6.948453,6.708323,-0.013696,0.01252,-0.007133,0.582275,0.232666,-0.299316,-1.433312,-7.276299,6.527703,-0.008059,0.030574,-0.007031,0.32373,0.325195,-0.508789,0.213867,-6.965353,7.051981,-0.016192,0.108775,0.029999,-0.248779,0.429688,-0.377441
1.81895,-7.616721,6.073871,0.029137,0.017793,0.002172,-0.361328,0.315186,0.129395,0.007281,8.21751,5.110237,0.031548,0.011105,0.004232,0.266357,0.401855,0.47168,-1.516579,-7.20082,6.735954,-0.043988,-0.014878,0.019283,0.582031,0.235352,-0.300049,-1.377281,-7.37126,6.616957,0.001746,-0.022352,0.033478,0.321777,0.327637,-0.512451,0.165548,-6.752637,7.043554,0.101751,-0.093689,-0.040426,-0.252686,0.431152,-0.376953
1.898383,-7.246753,6.221745,0.064341,-0.009309,-0.00182,-0.357666,0.320312,0.124023,-0.105772,8.460666,5.108523,0.016152,0.017088,0.006435,0.26416,0.407959,0.464844,-1.669671,-7.04499,6.651423,0.062511,0.022057,-0.024896,0.585693,0.241211,-0.303955,-1.33077,-7.271071,6.545855,-0.006306,0.008752,-0.021693,0.325195,0.33374,-0.515381,0.604206,-6.524885,7.17579,0.066415,-0.023335,-0.018726,-0.250488,0.433838,-0.381836
1.87494,-7.289827,6.225399,-0.072916,0.008844,-0.000542,-0.356934,0.312988,0.129395,0.014272,8.418447,5.134923,-0.039165,-0.012236,0.006138,0.258301,0.397461,0.470459,-1.525521,-6.966489,6.676716,-0.028042,-0.028894,0.001932,0.583984,0.230957,-0.302002,-1.366618,-7.355779,6.422777,-0.002729,-0.02069,0.031422,0.32251,0.324463,-0.510498,0.355165,-6.580318,7.2308,-0.106308,0.03753,0.003408,-0.252197,0.429443,-0.374512
1.891451,-7.67495,6.012779,-0.012669,-0.003043,-0.003101,-0.361816,0.308838,0.131836,-0.039042,8.256815,5.144626,-0.045746,0.023336,0.004337,0.263428,0.401611,0.468506,-1.562531,-7.026305,6.648977,-0.013122,0.03802,0.001316,0.578857,0.229492,-0.297607,-1.250674,-7.046647,6.483542,0.060594,0.008394,-0.037769,0.318359,0.322021,-0.509521,0.323068,-6.946613,7.000995,-0.106862,-0.034206,0.007975,-0.25415,0.427002,-0.374023
1.922529,-7.275698,6.209538,0.06484,0.005619,0.005627,-0.358643,0.314941,0.123291,-0.046832,8.276437,5.174765,0.03682,-0.011094,0.010892,0.263428,0.400879,0.466553,-1.521507,-7.122756,6.4079,-0.002721,-0.019387,0.019831,0.583008,0.234375,-0.304199,-1.352655,-6.913312,5.965897,0.030817,-0.011407,0.055843,0.323975,0.326416,-0.51709,0.467781,-6.898172,7.018827,0.114631,-0.022835,-0.02666,-0.253906,0.428955,-0.380615
1.948933,-7.453162,6.16606,-0.065147,0.008287,-0.001102,-0.36084,0.316895,0.123291,0.080488,8.362446,5.126494,0.009313,-0.00527,-0.002515,0.268555,0.397217,0.473389,-1.168484,-7.027523,6.288332,0.111888,0.08513,0.056019,0.58252,0.234863,-0.308105,-1.296784,-6.715343,5.721851,0.204429,0.00422,0.019705,0.318604,0.324463,-0.519531,0.345023,-6.529385,7.101968,0.092686,0.00447,-0.049459,-0.256592,0.43042,-0.382568
1.889946,-7.508476,6.185213,0.060109,-0.004927,-0.000272,-0.365479,0.311035,0.119141,-0.105059,8.238432,5.313877,0.045608,-0.010373,0.020612,0.265137,0.402832,0.463867,-1.513188,-6.853888,6.36685,0.076288,0.21205,0.144913,0.579346,0.228027,-0.30835,-1.501777,-6.171203,6.446232,0.026656,-0.024921,0.130012,0.317383,0.320068,-0.524902,0.567448,-6.702066,7.430261,-0.150596,-0.090883,0.019624,-0.259521,0.42749,-0.383301
2.093105,-7.352819,6.133508,0.014194,0.016622,-0.005478,-0.36377,0.31543,0.124512,0.146087,8.381954,4.946572,0.136895,-0.025126,-0.031698,0.270508,0.411377,0.470947,-1.686318,-7.44433,6.937958,0.005668,0.207354,0.131762,0.586914,0.22998,-0.298584,-1.563308,-8.604638,7.706388,-0.452469,-0.181772,0.248139,0.320068,0.326416,-0.513428,0.744413,-7.191896,7.038164,-0.081389,0.042323,0.02747,-0.25708,0.429932,-0.374512
1.264829,-7.430299,6.124372,0.031549,0.042524,0.00681,-0.353516,0.308105,0.126465,-0.419581,8.607263,4.956234,0.051869,0.090866,0.027582,0.268555,0.413574,0.468262,-2.574016,-7.156267,7.514335,0.238927,0.212781,-0.034301,0.59668,0.221191,-0.29834,-1.944698,-9.877523,7.674401,0.185688,-0.226193,-0.126461,0.325928,0.320557,-0.518311,-0.163463,-6.945616,6.593238,0.247782,0.222425,-0.009215,-0.245361,0.424561,-0.381836
1.815636,-7.343829,6.300542,-0.003229,-0.068922,-0.028531,-0.355469,0.308838,0.11792,-0.323676,8.59504,5.246782,-0.092078,-0.06662,0.020683,0.270508,0.402832,0.463135,-2.38594,-6.37388,7.22689,0.019871,-0.157053,-0.117601,0.59375,0.2229,-0.305908,-1.340522,-6.777303,6.562409,0.667449,-0.394129,-0.312562,0.313232,0.310303,-0.534668,-0.466248,-5.918124,7.233348,0.373048,-0.187805,-0.077727,-0.250488,0.418945,-0.388672
2.251813,-7.456421,6.102147,0.018312,0.027686,-0.005838,-0.362549,0.311523,0.121338,0.546432,8.11184,4.909704,-0.114097,0.020365,0.028402,0.272705,0.396484,0.467529,-0.788301,-6.929172,6.514122,-0.229553,-0.108452,-0.007356,0.583252,0.22583,-0.30249,0.463351,-4.782865,5.983666,-0.040549,-0.055395,-0.023523,0.304199,0.314209,-0.531738,1.40064,-6.047899,7.646588,-0.400375,-0.328106,-0.077199,-0.26123,0.425781,-0.384277
2.151305,-6.974801,6.324613,-0.018315,0.000282,0.0164,-0.355225,0.311768,0.126465,0.039514,8.227407,4.963027,0.058442,0.024025,-0.027978,0.265869,0.403076,0.465576,-1.710271,-7.192942,6.772638,0.017145,0.051989,0.021055,0.591064,0.227783,-0.295898,-0.745857,-6.96371,6.348413,-0.614821,0.525499,0.278488,0.322754,0.322754,-0.514404,1.234669,-7.692482,7.106981,-0.568799,0.294035,0.17063,-0.250244,0.43457,-0.37207
1.42878,-7.308675,6.38565,-0.089072,0.028453,0.046946,-0.369873,0.303955,0.123535,-0.373399,8.772649,4.834563,0.036248,-0.000863,-0.021339,0.271729,0.405029,0.469971,-2.189015,-6.867415,7.110812,-0.052784,-0.158965,-0.002671,0.576904,0.220947,-0.303711,-2.050299,-8.690662,6.76947,-0.094749,0.338693,0.073441,0.314453,0.313477,-0.516846,-0.675591,-7.702678,6.823949,0.362354,0.202519,-0.019284,-0.259277,0.419434,-0.380127
2.048524,-7.321045,6.127121,-0.170212,-0.087786,0.037964,-0.349854,0.315674,0.130127,-0.023145,8.698387,5.165131,-0.251762,-0.138031,-0.012534,0.267578,0.404785,0.463867,-1.566037,-6.873964,6.68118,-0.091372,-0.195404,-0.055538,0.593506,0.229248,-0.304688,-1.428303,-7.258948,6.795742,0.279579,0.199853,-0.054625,0.335449,0.320557,-0.517578,0.244558,-5.702374,7.205735,0.480881,-0.352579,-0.128356,-0.246582,0.422852,-0.380859
1.944006,-7.806358,5.938215,-0.080744,0.001778,0.047112,-0.359863,0.317139,0.132568,0.297879,7.791955,5.271472,-0.220791,0.004486,-0.004196,0.270996,0.404053,0.459961,-1.16539,-7.053041,6.178395,-0.184672,-0.103881,0.015049,0.583008,0.232178,-0.299561,-1.280881,-5.984663,5.95866,-0.013225,0.22725,0.006645,0.327637,0.319824,-0.508789,1.444519,-5.850401,7.363107,-0.585751,0.031741,0.082729,-0.25415,0.429688,-0.372559
1.921494,-7.695292,6.734371,-0.059697,-0.04229,0.024073,-0.354492,0.320557,0.130371,-0.228898,8.06017,5.452096,0.232954,-0.059899,-0.033599,0.273438,0.406982,0.46582,-1.413537,-7.488294,6.007491,-0.021443,0.046268,0.063782,0.588623,0.234131,-0.303711,-1.702541,-7.00692,6.183128,-0.36244,0.168683,0.218674,0.337891,0.32666,-0.50708,0.188915,-7.98797,7.182158,-0.724107,0.282191,0.171671,-0.243896,0.443359,-0.371094
2.383578,-8.24009,5.77924,-0.072252,-0.193271,-0.117238,-0.356445,0.30957,0.126465,0.454361,9.924742,5.541569,0.396191,0.005618,-0.268303,0.268799,0.407471,0.465332,-1.692803,-7.269853,7.064388,0.141859,-0.018687,0.03367,0.586426,0.223633,-0.310303,-1.962741,-8.850278,6.94581,0.045543,-0.029759,0.04578,0.33252,0.318848,-0.513428,0.203798,-7.797521,7.019314,0.59873,-0.212725,-0.096149,-0.251221,0.426514,-0.377686
1.713621,-6.153023,5.489716,0.1695,0.161432,0.064442,-0.35498,0.312012,0.13623,0.138261,7.547113,5.06074,-0.847087,0.029529,0.119733,0.269043,0.383545,0.455322,-0.835193,-7.089693,6.470928,0.225906,0.100899,0.067092,0.587402,0.225098,-0.297852,-0.621559,-6.502807,6.612932,0.607482,-0.303048,-0.148793,0.330078,0.313721,-0.510986,1.822109,-5.265947,6.851275,0.573909,-0.099658,-0.293997,-0.254639,0.421143,-0.371826
1.956007,-8.616197,6.580417,-0.55506,-0.31019,-0.189067,-0.354248,0.315674,0.128662,-0.455361,6.66146,4.700437,0.75623,0.073761,-0.260732,0.271484,0.408447,0.460449,-3.099526,-5.781649,7.595057,0.272608,0.064736,0.013124,0.586182,0.230225,-0.315918,-1.017186,-5.580715,6.008506,-0.219777,0.464276,0.134844,0.33667,0.323242,-0.519287,-0.494283,-5.798242,7.516638,-0.724296,0.827264,0.240562,-0.243164,0.437012,-0.384033
1.736252,-8.39004,5.51809,0.416928,0.164325,-0.014927,-0.364014,0.30957,0.133301,0.229323,11.103093,5.981825,0.509901,0.129353,-0.013828,0.269287,0.412354,0.456543,-1.202718,-6.312876,7.13617,-0.467365,-0.356624,0.040115,0.57251,0.229492,-0.306396,-1.830213,-8.003835,6.812894,-0.507041,0.277678,0.233004,0.32959,0.324707,-0.503174,-0.684732,-8.210671,6.8884,-0.672081,-0.621825,-0.129361,-0.26416,0.438965,-0.363281
2.705599,-5.991936,6.275091,-0.042722,-0.239397,-0.133081,-0.351807,0.309082,0.130127,0.010758,8.039027,5.107099,-1.175764,0.174531,-0.148293,0.261719,0.386963,0.458496,-1.389854,-8.437938,6.279776,-0.337559,1e-06,0.081875,0.584473,0.232422,-0.314209,-0.62495,-8.658378,6.088267,0.156094,0.546623,0.035101,0.3479,0.321777,-0.506592,2.760794,-7.698984,6.620621,0.628315,0.039532,-0.234387,-0.256348,0.43335,-0.376953
1.446808,-8.684293,5.405399,-0.187895,0.102133,-0.135424,-0.354492,0.307129,0.128174,-0.270205,6.137982,4.435417,0.695633,0.059896,0.066722,0.267822,0.383545,0.451416,-1.813226,-8.36082,7.055967,0.232549,-0.16935,-0.033708,0.579346,0.233643,-0.318115,-2.692615,-7.055617,7.121766,0.397878,0.665939,0.056355,0.355225,0.321289,-0.508057,-0.094509,-6.346186,7.773499,0.263334,0.74789,0.019342,-0.248047,0.433594,-0.386475
2.131952,-7.226277,6.54169,0.548737,-0.198058,-0.076166,-0.347412,0.313965,0.138672,-0.595739,10.309263,5.716817,0.586564,0.176182,-0.219696,0.265137,0.400635,0.450195,-2.004214,-5.829638,6.991472,0.487791,-0.150917,-0.033657,0.57959,0.237305,-0.316895,-1.659388,-5.846712,6.432625,-0.195327,0.27577,0.063051,0.362549,0.327637,-0.49292,-0.353768,-6.555835,7.686854,0.149552,0.024844,-0.024619,-0.246826,0.436279,-0.380859
1.511809,-5.919902,6.557417,-0.208227,0.041331,-0.091036,-0.343994,0.298584,0.13501,-0.866969,9.016494,5.102188,-0.710974,-0.083034,0.078533,0.256104,0.379883,0.458008,-1.50058,-6.575661,6.096265,-0.730767,-0.263086,0.131404,0.58374,0.230225,-0.315674,-2.181704,-7.809101,5.908602,-0.380942,0.762396,0.441803,0.381836,0.319336,-0.483154,0.592834,-6.435876,6.746285,-0.057992,0.298049,-0.180055,-0.239014,0.421387,-0.381592
2.179032,-8.72804,5.540694,-0.114902,-0.218899,-0.068408,-0.347656,0.29126,0.133545,-0.17006,6.330581,4.205889,0.036371,-0.148089,-0.133864,0.265381,0.384521,0.442627,-1.268725,-9.624887,5.479771,-0.109042,0.003077,0.183449,0.57666,0.223389,-0.321289,-3.749722,-8.925053,6.545075,0.157187,0.079201,0.046478,0.375732,0.312012,-0.493652,-0.146447,-7.237535,6.574366,-0.182545,0.373249,0.182954,-0.239258,0.418945,-0.389648
2.025347,-7.029294,6.781881,0.406685,-0.026069,-0.014489,-0.343018,0.302246,0.138672,-0.370304,9.02307,5.392017,0.967905,0.010473,-0.053489,0.261475,0.394043,0.440674,-1.50668,-6.68294,6.735083,0.994124,0.126841,-0.182076,0.578369,0.227051,-0.323486,-2.110123,-6.917224,7.065285,0.597892,-0.33934,-0.06397,0.373535,0.314209,-0.493896,-0.327994,-7.03764,7.89166,0.293323,0.144845,-0.19235,-0.237549,0.42627,-0.385986
2.623172,-7.797826,5.8064,-0.332606,-0.177928,-0.132445,-0.346436,0.299561,0.139648,-0.054362,11.137898,5.458296,0.148049,-0.199121,-0.105332,0.257812,0.384521,0.437256,-1.334463,-5.115035,7.847437,-0.189933,0.145496,0.266695,0.578613,0.223389,-0.317383,-2.397616,-5.463797,7.193103,0.062094,-0.473398,0.026901,0.36377,0.311768,-0.500488,2.064849,-7.061143,9.616932,-0.222848,-0.100568,0.06516,-0.241943,0.426758,-0.385498
1.769514,-8.135513,5.21418,0.399647,-0.221384,-0.017698,-0.338379,0.303467,0.14209,-0.142601,8.660559,4.805491,-0.779645,-0.010662,0.01274,0.255615,0.364258,0.427979,-1.994595,-7.709187,7.388787,-0.866138,0.211666,0.241583,0.584961,0.230225,-0.3125,-0.806712,-6.636993,5.998667,-0.712537,-0.434002,0.252475,0.368164,0.321533,-0.494873,2.478202,-8.347776,7.571347,-0.303368,1.269475,0.186613,-0.217773,0.430664,-0.388916
2.431457,-5.48719,6.130406,-0.195095,-0.396788,0.061938,-0.335205,0.308838,0.142822,-0.53227,7.689036,5.124025,0.016038,-0.313671,-0.000957,0.255859,0.358398,0.427002,-1.952358,-8.389667,6.809182,-0.203517,-0.068333,0.176117,0.585449,0.233398,-0.31665,-1.276401,-8.072256,6.328687,-0.436591,0.42912,0.284366,0.376221,0.331055,-0.494141,-0.871089,-7.486911,6.570021,0.589086,1.444677,0.042176,-0.200684,0.425781,-0.412354
2.655869,-8.797942,6.019626,-0.603008,-0.35899,-0.12861,-0.341309,0.293701,0.153076,0.445778,9.47076,5.91716,-0.096923,-0.175622,-0.050169,0.255859,0.342041,0.412109,-1.598256,-6.618731,7.144191,-0.249532,0.008509,0.194399,0.579834,0.2229,-0.3125,-2.753539,-6.996323,7.272385,-0.28615,0.238931,0.219452,0.375,0.320801,-0.485596,-0.238568,-5.136697,6.29567,0.643887,0.682878,-0.088379,-0.197754,0.406006,-0.417236
2.920338,-6.843484,6.679138,0.373322,-0.117009,-0.034463,-0.341064,0.292236,0.154297,-0.385127,9.289041,5.463312,-0.626351,-0.210562,0.120502,0.261719,0.319092,0.403076,-2.008447,-6.365414,6.989541,-0.93799,-0.11882,0.238859,0.574219,0.226318,-0.304688,-1.943079,-6.485011,6.53425,-0.841338,0.02511,0.358085,0.37915,0.331055,-0.471924,-1.631546,-3.8734,6.169033,0.166796,1.161646,-0.078493,-0.188232,0.402588,-0.426514
2.240558,-5.46571,5.76755,-0.841083,-0.189239,-0.212044,-0.332275,0.284912,0.159912,0.353703,8.926465,5.58889,-0.972311,-0.192584,0.039935,0.262695,0.294189,0.393555,-1.267648,-7.613365,5.989337,-1.249623,0.001113,0.40152,0.580566,0.228516,-0.301514,-2.205949,-7.027246,5.91993,-1.022635,0.27128,0.333697,0.395996,0.336182,-0.460205,-0.68365,-3.382828,9.439504,-0.261285,-0.118969,-0.538802,-0.187012,0.4021,-0.423828
2.545482,-7.82342,6.363362,-1.475997,-0.127183,-0.250153,-0.343262,0.285645,0.172119,-0.861054,7.591528,5.47349,-1.103526,-0.212348,0.157221,0.258545,0.263428,0.378174,-2.627511,-8.942348,5.538161,-0.88657,0.072779,0.401882,0.572754,0.235596,-0.291748,-3.16777,-7.596074,5.55582,-0.851723,-0.054794,0.48228,0.390137,0.353271,-0.447754,2.009289,-5.287641,7.988684,-2.872351,1.087571,-0.35162,-0.188721,0.435791,-0.392334
2.764141,-12.075278,3.280541,-1.106779,-0.237176,0.089516,-0.342529,0.282471,0.177002,0.482539,7.000619,4.563218,-0.692617,-0.506903,-0.040275,0.26416,0.23584,0.371826,-1.612923,-8.1983,5.479469,-0.350658,-0.254498,0.364063,0.56665,0.235596,-0.297119,-1.422729,-8.461062,5.299174,-0.921439,-0.100297,0.428361,0.391602,0.361572,-0.438965,-1.584861,-13.980635,5.434696,-4.277162,1.263235,0.830198,-0.175537,0.487305,-0.349609
2.457088,-8.718992,4.470143,1.061466,-0.491662,0.237334,-0.334717,0.28125,0.17041,0.56929,6.694723,5.858083,-0.00814,-0.169254,-0.059234,0.253906,0.219238,0.369873,-1.224362,-7.936812,5.434368,0.029027,-0.03012,0.266784,0.56665,0.228271,-0.305664,-1.883559,-10.663555,4.303321,-0.162016,0.298441,0.451717,0.399902,0.355713,-0.439209,1.011733,-16.694771,3.287494,0.063319,0.427617,-0.236986,-0.168701,0.476807,-0.36084
2.819716,-5.312722,5.562212,0.704681,-0.382677,-0.202152,-0.325684,0.27124,0.179199,0.015302,6.90434,4.991021,0.761041,-0.196485,-0.135447,0.264404,0.220947,0.351074,-1.965139,-8.488172,5.797651,0.268072,0.049307,0.256503,0.571289,0.218506,-0.307129,-2.984816,-8.794538,4.915773,1.085272,0.255243,-0.017816,0.406738,0.337891,-0.447266,1.106689,-9.143781,5.892828,5.390444,1.642939,0.460019,-0.137695,0.408936,-0.42749
2.54728,-6.57241,5.908122,0.043192,-0.584919,-0.09707,-0.331299,0.263672,0.189697,0.162738,9.933172,5.986611,0.936375,-0.240358,-0.088123,0.263428,0.213867,0.345947,-2.054784,-7.456525,6.687239,0.680368,0.008115,0.143914,0.559814,0.20752,-0.307861,-2.22758,-4.886113,6.650358,0.680475,0.068102,0.199499,0.40332,0.327393,-0.445312,-1.623818,0.815854,9.393744,3.718061,1.757142,-0.462957,-0.130127,0.353516,-0.466064
3.666954,-10.681628,4.975837,-0.59571,-0.511245,-0.004305,-0.324707,0.256592,0.194824,0.199081,9.564067,5.109506,-0.450268,-0.363656,0.053204,0.266113,0.207031,0.336914,-2.154182,-6.48588,6.952067,0.054758,-0.0186,0.367864,0.558594,0.207764,-0.316162,-2.370299,-6.938177,6.11978,-0.783767,0.377368,0.591716,0.412109,0.332031,-0.437012,-0.743571,-2.405836,7.25601,-4.081548,1.516021,0.821463,-0.101562,0.404541,-0.421875
2.83706,-8.443541,6.399916,1.03618,-0.582355,0.418121,-0.318359,0.25293,0.193848,0.385217,8.457893,6.022109,-0.146706,-0.222068,-0.087636,0.269531,0.186768,0.315186,-2.125779,-7.095329,6.758557,-0.261168,-0.011803,0.221177,0.555908,0.201172,-0.318604,-3.336504,-9.47573,6.270666,-0.10022,0.371537,0.35021,0.422119,0.325195,-0.436035,-3.66653,-12.493344,3.7981,-2.85146,1.81755,1.084403,-0.074951,0.429688,-0.402832
3.717618,-3.126134,8.138746,-0.514577,-0.246587,-0.169514,-0.314453,0.253418,0.191162,0.300413,8.476793,5.965126,-0.264911,-0.191418,0.045548,0.270264,0.170898,0.30127,-2.246589,-8.281462,6.528879,-0.427573,-0.010842,0.32801,0.547119,0.206055,-0.325928,-3.225812,-8.482353,6.435838,0.084059,0.176608,0.177324,0.421875,0.328857,-0.440918,-5.670941,-7.979496,4.766147,3.126796,1.149047,-1.260079,-0.075684,0.388184,-0.446045
3.110984,-11.551574,4.232716,-0.461801,-0.225719,-0.234947,-0.305176,0.243164,0.204346,0.653465,7.334941,5.184903,0.198673,-0.17431,0.051105,0.263916,0.155518,0.287598,-1.738641,-9.208477,5.912879,0.186924,0.027518,0.144149,0.551514,0.203613,-0.324707,-3.130419,-7.779017,5.691394,0.24777,-0.064976,0.218672,0.42749,0.31958,-0.437256,-2.944472,-3.204101,4.573688,1.701679,-0.461538,0.835483,-0.06665,0.366699,-0.453369
3.525781,-6.795565,6.889303,1.213838,-0.192486,-0.067497,-0.299072,0.250244,0.194336,0.123804,9.432412,5.745942,0.742571,-0.114891,0.007635,0.269775,0.141113,0.276123,-2.13648,-7.006305,5.962342,0.757325,0.252917,0.236999,0.542969,0.204834,-0.333252,-2.516072,-6.62724,4.964429,0.261394,0.020334,0.208819,0.424561,0.32251,-0.444336,-2.047472,-3.698846,4.775186,-1.00464,0.351822,-0.463796,-0.07373,0.382568,-0.445801
3.935233,-7.738872,7.583582,-1.084076,-0.271366,-0.300405,-0.282471,0.239746,0.20459,0.708173,10.482419,6.16458,-0.039649,-0.160994,-0.081065,0.263916,0.121826,0.262451,-2.175723,-5.596794,6.550538,0.038147,0.201576,0.245313,0.546875,0.19873,-0.325439,-3.140729,-6.613395,5.66976,0.07817,0.088468,0.329856,0.434326,0.313232,-0.4375,-5.831433,-8.091939,6.203904,-1.606706,0.317353,0.420561,-0.060547,0.39502,-0.419678
4.628314,-11.014388,6.702936,0.066415,0.091925,0.016036,-0.275635,0.241211,0.197266,0.901647,8.887992,5.559323,-0.612599,-0.003352,-0.083828,0.265625,0.095215,0.23291,-1.804631,-6.935079,6.350783,-0.473216,0.265979,0.489011,0.537354,0.196045,-0.320801,-2.849706,-5.929131,6.491966,-0.01088,-0.135601,0.261823,0.424561,0.3125,-0.435059,-5.769013,-9.551984,10.036672,-0.350303,-1.457223,-0.49836,-0.087158,0.396973,-0.412354
4.276005,-7.205457,6.879395,-0.116758,0.244801,-0.007908,-0.245117,0.250488,0.175049,0.667542,8.248452,5.930874,-0.062323,0.016381,-0.214935,0.261719,0.078857,0.206299,-2.476535,-8.449975,5.599956,-0.687222,0.430791,0.404878,0.549805,0.203613,-0.324219,-2.850323,-7.726925,6.073119,-1.164504,-0.084871,0.552638,0.439453,0.325439,-0.430176,0.495537,-9.336997,9.383748,-0.411052,-1.114539,-0.548411,-0.091064,0.397461,-0.407227
2.678416,-10.160161,6.113461,-0.912727,0.127032,0.130549,-0.229248,0.255371,0.166016,-0.335415,9.948511,5.86691,-0.084415,0.120695,-0.494974,0.253174,0.056641,0.195557,-3.785602,-8.712762,5.969313,0.276308,0.146484,0.314067,0.543701,0.199707,-0.326904,-3.623046,-11.230915,4.998015,-0.242913,-0.063221,0.399291,0.438721,0.321045,-0.427734,-1.610362,-9.199421,6.57855,-0.145668,0.598437,0.17684,-0.08252,0.395508,-0.407959
3.020511,-10.319662,6.465587,0.249316,0.061626,0.062564,-0.20874,0.262939,0.143311,-0.850581,8.500808,5.763412,-0.649939,0.177361,-0.584752,0.250488,0.033691,0.172852,-3.305256,-6.477694,6.373871,0.329882,0.121733,0.037729,0.537598,0.193848,-0.330566,-3.547889,-8.645107,4.930615,0.724748,0.281108,-0.09061,0.437012,0.307861,-0.440674,-5.387601,-9.221234,8.156418,-0.390345,0.065039,-0.48673,-0.080566,0.386719,-0.404297
3.033923,-8.070788,6.590149,0.42627,0.016293,0.020687,-0.179932,0.281006,0.122314,-0.420989,7.623112,5.797768,0.491702,0.219054,-0.757452,0.240234,0.008057,0.145264,-3.736046,-7.151539,6.150138,0.107396,0.062326,0.203397,0.538086,0.19751,-0.337402,-4.314999,-5.751704,6.21773,1.007595,0.255868,0.137502,0.446045,0.299316,-0.443848,-2.490979,-9.642076,7.43401,0.227931,-1.159595,0.358994,-0.07373,0.386719,-0.400879
4.226432,-7.911981,5.73703,-0.308545,0.126144,0.072516,-0.163086,0.30249,0.097412,0.19261,10.445012,6.246707,0.34445,0.25255,-0.851506,0.240234,-0.005859,0.129883,-2.367309,-6.916244,6.153867,0.137895,-0.069737,0.248556,0.530762,0.19751,-0.344482,-2.827188,-3.613087,6.584052,-0.415066,-0.036409,0.18312,0.443359,0.304688,-0.444092,-0.586394,-7.859071,5.327636,1.044394,-0.117771,-0.482937,-0.071777,0.372559,-0.418945
3.285217,-8.932377,5.798894,-0.164484,0.084212,0.037904,-0.140137,0.311279,0.087646,-0.36027,9.071282,6.160788,-0.878823,0.351025,-0.793081,0.234131,-0.0354,0.104004,-2.909153,-7.775282,6.353934,-0.149269,0.266667,0.229683,0.531006,0.193848,-0.332764,-3.375547,-10.848058,5.409359,-1.039131,0.396609,0.882793,0.45752,0.306641,-0.419189,-2.848084,-5.28383,8.360445,0.169525,-0.093581,0.024174,-0.063477,0.363037,-0.408203
3.906799,-8.444548,6.227948,-0.193208,0.259136,0.11252,-0.121826,0.331543,0.05127,-0.421369,7.144412,5.678458,-0.14449,0.367922,-0.911107,0.232422,-0.051758,0.088623,-3.433985,-7.586886,6.256468,0.06149,-0.078022,0.241574,0.525879,0.194092,-0.349121,-4.626618,-9.416383,6.206656,0.765122,0.127724,-0.354659,0.452881,0.304199,-0.435303,-2.517476,-7.568847,6.86399,-1.434413,-0.775908,0.013933,-0.062988,0.379395,-0.39917
3.150975,-9.140128,6.010534,-0.30892,0.286555,0.019244,-0.098633,0.351074,0.043945,-1.07692,8.783634,6.156555,0.266809,0.55722,-0.891329,0.233398,-0.075195,0.068359,-2.589846,-7.753306,6.257306,0.041004,0.203323,0.063621,0.520996,0.203125,-0.335693,-3.732611,-6.282418,6.588436,0.394567,-0.166607,0.355099,0.453613,0.302979,-0.425293,-2.566118,-9.81992,5.584174,-0.645071,-0.303656,-0.130968,-0.053223,0.386475,-0.382324
3.131206,-8.339104,5.756286,0.000252,0.568089,0.227705,-0.071045,0.366943,0.000732,-1.510544,8.664029,6.496216,-0.436004,0.400198,-0.781736,0.22876,-0.092529,0.050049,-4.170923,-8.06564,6.563133,-0.082269,0.211335,0.256987,0.523438,0.200439,-0.350098,-4.219087,-8.332618,6.603593,-0.784673,-0.038215,0.05018,0.459961,0.307861,-0.432373,-3.45712,-8.805701,6.542562,0.555017,-1.085788,-0.197686,-0.051514,0.37207,-0.401611
3.082668,-9.510997,4.925778,-0.143828,0.431706,-0.005827,-0.063721,0.388916,-0.01709,-1.432409,6.224493,5.722717,0.168384,0.524452,-0.741918,0.235107,-0.115234,0.037598,-3.027905,-9.99365,6.29851,0.317798,0.089653,0.083031,0.512207,0.200928,-0.348389,-5.272874,-12.109358,7.191486,0.713942,-0.383494,0.40092,0.447754,0.299072,-0.438965,0.136445,-7.757352,6.260634,-0.151208,-1.504653,-0.246542,-0.062256,0.375488,-0.390381
1.465249,-10.353436,4.208048,1.04972,0.594369,0.112797,-0.04248,0.395508,-0.049561,-3.158125,7.677599,5.900346,1.315923,0.520886,-0.738149,0.233398,-0.135498,0.027832,-4.82158,-8.989785,6.6389,1.542167,0.391831,0.097475,0.508057,0.185547,-0.362793,-5.45953,-7.686388,7.754246,2.062495,-0.919082,-0.543706,0.431152,0.272949,-0.470215,-0.921758,-10.97121,5.750496,-0.428889,-0.510682,0.761961,-0.048096,0.372803,-0.394043
2.570293,-4.308524,6.344709,1.215123,0.34818,-0.033195,-0.033203,0.402832,-0.088135,-2.109392,9.7492,5.767836,1.04598,0.256573,-0.677584,0.237549,-0.150391,0.025879,-4.303262,-5.573531,7.40826,1.534793,-0.141666,-0.068453,0.491699,0.174316,-0.381836,-3.207818,-5.343256,8.076009,0.673667,-1.051024,0.175111,0.413818,0.264648,-0.48999,-1.606733,-8.116499,6.886194,2.614641,-1.109152,-0.37102,-0.056885,0.337402,-0.425781
1.493998,-9.030578,4.977879,-0.961339,0.383845,0.109374,-0.011963,0.42627,-0.090088,-2.957918,9.261061,5.603631,-0.357649,0.410477,-0.640243,0.237549,-0.169922,0.007812,-4.181346,-4.816443,7.865478,-0.292874,-0.021358,0.158429,0.48999,0.181641,-0.36792,-3.518045,-7.550693,7.443126,-0.398455,-0.410164,-0.0749,0.413086,0.271973,-0.471924,0.772507,-4.076559,8.00214,1.16833,-0.568443,-0.032102,-0.041016,0.326416,-0.421631
2.320056,-8.479253,5.252643,0.806997,0.392287,0.163694,0.003418,0.439453,-0.129639,-2.639382,7.183889,5.335812,-0.353244,0.116625,-0.59019,0.234863,-0.186035,-0.013184,-4.495072,-8.797255,6.789886,-0.614135,-0.469319,0.115504,0.479248,0.192139,-0.385986,-4.039919,-8.8787,7.311894,0.235835,-0.573984,0.138573,0.405518,0.270996,-0.49292,-2.079741,-4.615755,7.349641,-0.967106,0.217032,0.244791,-0.025635,0.342285,-0.433838
1.821948,-5.876903,6.454926,-0.563264,0.374288,0.108255,-0.001465,0.453369,-0.138184,-2.605185,7.253493,5.356087,0.299998,0.377967,-0.560712,0.239258,-0.204834,-0.012939,-3.494467,-8.442765,6.669778,0.813746,-0.425612,-0.151338,0.44751,0.184082,-0.393066,-2.865095,-7.512824,6.938867,0.25232,-0.388623,-0.303748,0.380615,0.268066,-0.48584,-1.909716,-8.333673,6.881577,-1.780263,-0.786441,-0.107445,-0.041016,0.358154,-0.410889
2.397066,-10.761944,4.398174,-0.368187,0.456183,0.086807,0.021973,0.4646,-0.156738,-2.987685,8.814344,5.494747,0.336176,0.292866,-0.612098,0.244873,-0.219238,-0.020752,-3.660164,-5.094198,7.420951,0.579041,-0.517833,-0.246829,0.442871,0.185547,-0.404053,-3.460347,-7.556905,6.857569,0.130165,-0.128259,0.085645,0.388184,0.268066,-0.487061,0.286174,-10.507497,5.552167,-0.073862,-0.656548,0.275642,-0.023193,0.360596,-0.414062
1.794581,-7.259982,5.374088,0.647631,0.316871,0.114691,0.020264,0.469971,-0.183594,-2.862587,9.205335,6.217667,-0.188413,0.366614,-0.489928,0.250488,-0.242676,-0.033936,-2.825361,-6.428087,7.427054,-0.877303,-0.490282,0.066371,0.417969,0.196289,-0.409912,-3.817592,-6.971752,7.164501,0.017447,-0.335317,-0.313613,0.368408,0.266357,-0.490723,-0.050974,-7.683468,5.966118,1.302395,0.007702,-0.532529,-0.029297,0.341064,-0.436768
1.92371,-7.781073,5.320691,-0.534481,0.365603,-0.00523,0.04541,0.483398,-0.195557,-3.16981,7.359745,5.316385,-0.258569,0.298293,-0.360691,0.247559,-0.253906,-0.039307,-2.973723,-10.477551,6.423355,-0.180772,-0.328192,-0.04157,0.417725,0.200928,-0.418213,-3.321501,-8.342785,7.061814,-0.188556,-0.578193,0.150402,0.372314,0.27002,-0.493652,-1.21871,-5.354978,6.365088,0.499871,-0.217285,0.19493,-0.00708,0.335938,-0.446777
2.123582,-8.963713,5.214892,0.193213,0.276167,0.049086,0.050781,0.492676,-0.212158,-2.391819,7.840538,4.938711,0.331497,0.354173,-0.312823,0.259521,-0.271973,-0.05127,-1.922916,-6.240483,7.036626,1.463215,-0.298791,-0.416692,0.400635,0.193115,-0.433105,-2.969465,-7.621433,6.88023,0.33921,-0.750012,-0.531619,0.348145,0.268555,-0.499756,-1.042426,-6.442028,6.400508,-1.037414,-0.516224,-0.193973,-0.008789,0.344238,-0.437744
2.169259,-8.050806,6.028651,-0.028918,0.503212,0.122536,0.071289,0.497559,-0.228516,-3.071563,7.854582,5.304228,-0.0916,0.467938,-0.062178,0.255127,-0.284912,-0.058105,-2.175797,-4.567665,6.965341,-0.333528,0.084287,0.012592,0.401611,0.195068,-0.430176,-2.717975,-7.340722,6.85478,0.04463,-0.987507,-0.072252,0.342773,0.265381,-0.501709,-0.951393,-10.182234,4.984109,-1.330059,-0.413497,0.319191,0.00708,0.358398,-0.428467
1.644833,-8.645524,5.4532,0.363782,0.618471,0.126903,0.080322,0.499512,-0.253906,-3.355923,6.881896,5.26437,0.087273,0.447252,-0.190051,0.254639,-0.30249,-0.054199,-3.761187,-7.799079,6.114581,-0.394278,-0.073812,-0.118148,0.387451,0.201904,-0.443848,-3.308138,-6.430669,6.568228,0.37815,-1.022876,-0.635416,0.316162,0.262939,-0.522949,-2.270353,-10.061414,4.774065,1.443816,-0.861857,-0.079096,0.002686,0.340332,-0.458984
1.132831,-7.769732,5.604172,0.25024,0.646375,0.0902,0.088379,0.502441,-0.270508,-3.523338,6.761053,4.992416,0.321981,0.501795,0.032405,0.262695,-0.320557,-0.056641,-2.15741,-7.897248,6.540143,0.662236,-0.063168,-0.101843,0.376465,0.194824,-0.450684,-2.463589,-5.847634,6.652799,0.11144,-1.358509,-0.085949,0.290527,0.257324,-0.529785,-0.436538,-5.45719,5.976171,1.702078,-1.356229,-0.506113,-0.012207,0.312988,-0.471436
1.520325,-9.775937,5.01114,0.496601,0.671028,0.046732,0.099609,0.511719,-0.291016,-3.889443,7.565534,5.030822,1.057587,0.645039,-0.130395,0.256592,-0.334229,-0.041504,-4.256842,-5.936801,7.469735,1.001745,0.319456,-0.164788,0.373779,0.197754,-0.458984,-1.82914,-7.981233,6.567375,0.239427,-0.939801,-0.391602,0.272949,0.262695,-0.540527,0.521507,-5.427647,6.606388,-0.159874,-1.242222,0.434445,-0.017578,0.324707,-0.479492
0.840659,-6.917648,5.659839,0.90938,0.501153,0.072815,0.101562,0.509766,-0.304932,-3.852645,9.501719,5.044851,0.415546,0.50542,-0.06236,0.259521,-0.34668,-0.053223,-3.916402,-5.073058,7.668369,0.234311,-0.602003,-0.075183,0.349854,0.197266,-0.459473,-1.347137,-6.17147,7.337964,0.861895,-0.713766,-0.328458,0.246094,0.251709,-0.541016,0.394675,-8.461322,6.632805,-0.815856,-0.908,-0.275572,-0.035156,0.334961,-0.464844
1.257151,-6.170062,5.659842,-0.101534,0.610984,0.163531,0.121826,0.513916,-0.324219,-3.203915,7.077203,3.940661,-0.428312,0.569584,-0.094735,0.266113,-0.358398,-0.05127,-1.830878,-6.842678,6.79845,-0.071227,-0.245657,-0.069676,0.345459,0.198486,-0.47583,-0.987687,-5.028407,7.410853,0.192367,-0.348227,-0.210828,0.243164,0.249023,-0.55249,0.301513,-8.928766,5.75475,0.719255,-0.973115,0.127809,-0.031494,0.323975,-0.487305
0.742144,-7.721652,4.687841,0.111626,0.439488,0.082597,0.133789,0.510986,-0.334229,-3.550629,7.122117,3.718572,0.513612,0.5377,0.029635,0.269287,-0.372803,-0.042969,-2.787381,-5.687836,7.247805,0.551953,-0.400452,-0.17052,0.337402,0.188721,-0.483398,-1.902826,-5.676974,6.879616,-0.201486,-0.439752,-0.013299,0.237793,0.243164,-0.547607,0.667753,-5.658687,6.526924,1.414482,-0.955383,-0.41786,-0.039062,0.294922,-0.499023
0.293577,-6.523028,5.131015,0.554638,0.507177,0.211695,0.13501,0.517578,-0.354004,-3.992701,7.997084,4.242731,-0.06151,0.547547,0.119014,0.265381,-0.373535,-0.04834,-1.46491,-5.96701,6.142592,-0.417508,-0.054855,0.070735,0.31958,0.201904,-0.489014,-2.058208,-7.431168,6.263825,-0.145362,-0.653522,-0.099168,0.214111,0.250244,-0.554688,1.437225,-4.830817,7.879207,-0.1324,-0.617755,0.195934,-0.048584,0.307129,-0.507324
0.605415,-6.361944,5.465546,0.530209,0.221123,0.182989,0.146729,0.515137,-0.360596,-3.777963,6.067674,2.918438,0.214496,0.111465,0.204389,0.268311,-0.389404,-0.05127,-3.165384,-8.661954,6.748023,0.277314,-0.133596,0.107653,0.318848,0.196533,-0.48999,-1.128439,-7.154392,6.904235,0.746825,-0.917629,-0.199194,0.202881,0.23999,-0.559814,0.614605,-7.695906,6.597122,-0.437827,-0.191659,0.362341,-0.039062,0.312012,-0.501465
-0.104697,-5.834519,6.02317,0.663161,0.400166,0.271345,0.152344,0.508789,-0.37085,-3.607075,7.182696,3.195831,0.780219,0.290105,0.253201,0.258545,-0.398193,-0.040771,-2.008541,-5.966527,6.94068,1.359496,-0.108942,-0.132797,0.306641,0.18335,-0.497559,-0.594345,-5.553552,7.619763,0.540655,-0.565918,-0.227762,0.18457,0.229004,-0.560791,-0.29625,-7.651621,6.024837,1.257871,-0.066841,-0.011467,-0.039062,0.293457,-0.51416
1.886605,-6.416273,6.957068,0.402255,0.13744,0.288103,0.158447,0.504883,-0.376953,-3.271527,8.565402,3.659419,0.479252,-0.081174,0.2504,0.261963,-0.409668,-0.037109,-2.886787,-3.054977,7.010265,0.530668,-0.200963,-0.021019,0.299805,0.174561,-0.502441,-0.982344,-5.316931,7.45051,0.331914,-0.822217,-0.078904,0.168945,0.220703,-0.5625,0.562547,-4.945654,7.556791,1.483539,-0.720594,0.214438,-0.043701,0.271484,-0.526855
0.147419,-6.385487,7.461448,0.493192,0.678167,0.364678,0.171875,0.506836,-0.391846,-3.372419,7.547596,3.412449,-0.406795,0.224957,0.141558,0.260986,-0.419434,-0.03418,-2.944488,-5.030673,6.78743,-0.613592,-0.418302,0.21093,0.288818,0.186035,-0.509766,-0.160788,-5.193699,7.548143,0.002524,-0.539791,-0.07486,0.156738,0.2229,-0.567627,1.236187,-4.723535,7.523757,-0.145722,-0.158214,0.212557,-0.039307,0.277588,-0.535889
0.831236,-5.908996,6.74352,0.076659,0.509401,0.50641,0.180664,0.505859,-0.403564,-3.810955,6.317149,2.130711,0.063152,-0.134641,0.123105,0.255127,-0.435303,-0.031982,-2.336578,-6.759914,6.662391,0.064261,-0.582075,-0.18506,0.276123,0.186035,-0.522217,-1.183223,-6.573308,7.912744,-0.300919,-0.536357,0.052694,0.143311,0.228271,-0.574463,-1.541917,-6.616416,6.889441,-0.457569,-0.474981,0.648094,-0.042969,0.284912,-0.539062
-0.317498,-6.192185,6.641261,0.093394,0.647231,0.548285,0.202148,0.498535,-0.40918,-3.122478,8.373476,3.223235,0.478221,0.036208,0.055995,0.259277,-0.432617,-0.032715,-2.457529,-4.873453,7.03707,0.429881,-0.490677,-0.073537,0.270996,0.169434,-0.5271,-0.603867,-6.834726,7.236745,0.055775,-0.767093,-0.232226,0.135742,0.214111,-0.572998,1.325339,-7.29631,6.430942,0.193734,-1.562449,0.09598,-0.050781,0.269775,-0.540527
0.212569,-6.590874,6.065461,0.245794,0.378207,0.612462,0.212158,0.504395,-0.413086,-4.109455,8.846712,2.789628,-0.20392,-0.173568,-0.052077,0.258057,-0.438477,-0.036621,-2.201927,-4.68591,6.991397,-0.244224,-0.720034,-0.223144,0.255371,0.183105,-0.529297,-0.714076,-5.764841,7.413412,0.169646,-0.59268,-0.201659,0.123047,0.217773,-0.570801,3.067052,-6.289321,7.07188,0.690514,-0.354685,0.527685,-0.050537,0.269531,-0.546875
-0.464315,-6.094481,6.655233,0.282445,0.134606,0.668658,0.221924,0.503174,-0.426514,-2.979375,7.267461,2.941303,-0.014327,-0.270965,-0.10813,0.258301,-0.4375,-0.04248,-1.678499,-6.182292,6.554126,-0.037244,-0.525323,-0.006401,0.244629,0.183838,-0.541748,-1.014534,-5.570455,7.494922,0.031209,-0.904196,-0.250293,0.102051,0.216797,-0.584473,0.468903,-6.109467,8.005622,0.153691,-0.094614,0.561074,-0.044434,0.268066,-0.560059
0.619701,-7.475661,7.319221,-0.020357,0.140206,0.656758,0.230713,0.500488,-0.42627,-3.68203,8.817206,3.725697,0.477923,-0.073331,-0.341947,0.268555,-0.443848,-0.043945,-2.066295,-5.201284,7.191065,0.307844,-0.568036,-0.341397,0.230957,0.179199,-0.541016,-0.234808,-5.458597,7.56542,-0.137275,-1.023702,-0.235521,0.082275,0.218994,-0.57666,1.511044,-7.098957,6.565598,-0.047619,-0.572364,0.635283,-0.046143,0.270264,-0.554688
-0.817771,-6.34742,7.000108,0.728706,0.242472,0.859173,0.237793,0.500977,-0.441162,-3.929385,8.221702,3.344511,-0.59123,-0.38166,-0.11508,0.259766,-0.446289,-0.042969,-1.449168,-5.36685,7.384022,-0.345802,-0.552897,-0.007113,0.217041,0.191162,-0.547607,-0.588834,-6.86623,7.450797,-0.428479,-1.110356,-0.156369,0.057373,0.22876,-0.577881,-0.009276,-7.015571,6.153681,0.764122,-0.141602,0.645149,-0.043945,0.26709,-0.571045
-0.076906,-4.692567,6.865752,-0.056121,0.293407,0.820082,0.25293,0.496338,-0.443848,-3.188636,6.580283,2.834764,0.029664,-0.363488,-0.250451,0.272217,-0.446777,-0.050537,-1.762256,-6.708725,6.990505,-0.149893,-0.467963,-0.282397,0.210449,0.188721,-0.556396,0.451642,-7.184791,6.771053,-0.010558,-1.378392,-0.382807,0.033691,0.223633,-0.581787,0.344397,-5.26727,7.602351,0.811518,-1.273724,0.557768,-0.053711,0.248535,-0.578857
-0.970612,-7.566377,5.879113,-0.125771,0.085549,0.893462,0.268066,0.499756,-0.44751,-3.62448,8.470149,3.664792,0.254599,-0.381167,-0.200098,0.26123,-0.442383,-0.05957,-1.448281,-5.459526,6.725047,0.338099,-0.617497,-0.288361,0.202148,0.187256,-0.560547,0.85275,-5.604252,7.015898,0.105748,-0.978846,-0.39612,0.019775,0.222168,-0.58252,3.33225,-5.241365,7.268769,0.036669,-0.736637,0.814729,-0.054932,0.253662,-0.582031
-0.104802,-6.470127,6.540751,0.711526,0.179219,0.938892,0.278076,0.492676,-0.44873,-3.044107,7.550938,2.892626,-0.368691,-0.433571,-0.347609,0.270996,-0.45459,-0.060303,-1.177571,-4.518729,7.28488,0.161749,-0.467851,-0.265079,0.189697,0.188477,-0.556885,-0.314083,-5.406834,7.155894,-0.1139,-1.250391,-0.354998,-0.005859,0.223877,-0.573486,1.353157,-6.592145,8.157323,-0.021653,0.187039,0.881625,-0.043701,0.255127,-0.575684
-1.472816,-4.706932,7.348483,0.00911,-0.021682,1.0122,0.283447,0.484375,-0.456055,-3.82857,7.78249,3.484494,0.067208,-0.283007,-0.281683,0.273438,-0.457764,-0.063477,-1.333281,-3.588733,7.343747,-0.34356,-0.570391,-0.439803,0.174561,0.187256,-0.559814,1.414972,-4.77562,7.024502,-0.497357,-1.463487,-0.414314,-0.038086,0.221924,-0.571289,0.234944,-7.441124,8.413482,0.185063,-0.418586,0.880702,-0.045166,0.248291,-0.585938
-0.450379,-6.597451,5.897662,-0.365602,0.279794,1.110287,0.291016,0.490967,-0.454346,-3.132447,7.950161,3.677652,-0.759286,-0.483772,-0.296827,0.269287,-0.453369,-0.083008,-0.274862,-5.515062,7.207237,-1.335472,-0.491956,-0.224343,0.161865,0.208252,-0.554443,1.122011,-6.024281,6.742289,-1.145568,-1.319285,-0.148822,-0.061523,0.240479,-0.559326,2.396583,-6.875046,7.380691,0.617076,-0.425095,0.977892,-0.042725,0.244629,-0.592773
-1.526589,-6.252311,6.10252,0.198883,-0.003505,1.142678,0.309326,0.484619,-0.460205,-3.505262,6.562354,4.288423,-0.486614,-0.372538,-0.157027,0.265869,-0.448242,-0.093262,-1.005527,-8.181561,6.748383,-0.773265,-0.378884,-0.411604,0.158203,0.21875,-0.553711,2.043103,-7.247022,5.798912,-0.65496,-1.548032,-0.365344,-0.08374,0.248779,-0.553711,1.657022,-5.051018,7.19452,1.075344,0.488627,1.000404,-0.020264,0.222656,-0.605469
-1.303179,-6.219959,6.906346,-0.190497,0.255357,1.077165,0.314453,0.474121,-0.462402,-3.646691,7.000376,4.509312,-0.08031,-0.499993,-0.200775,0.27124,-0.455566,-0.089844,-0.829657,-6.875284,7.18231,0.20048,-0.502533,-0.381439,0.13916,0.210205,-0.55957,2.705617,-6.264447,6.182257,-0.307097,-1.072905,-0.324811,-0.110107,0.241699,-0.546143,-0.281584,-3.794192,7.933305,0.471987,0.251339,0.967018,-0.013428,0.209961,-0.613525
-1.368216,-7.440654,6.120489,0.272057,0.109452,1.067679,0.329346,0.484863,-0.461182,-3.04823,7.624171,4.766121,-0.08459,-0.448154,-0.13618,0.279785,-0.446289,-0.097656,-0.664363,-5.114346,7.349926,-0.120144,-0.534354,-0.420252,0.130127,0.227051,-0.555664,2.490873,-6.178156,6.331348,-0.461401,-1.051438,-0.2831,-0.127686,0.259033,-0.534912,1.079184,-5.085015,8.152559,-0.284862,-0.3125,1.037587,-0.005371,0.229736,-0.610352
-1.453582,-5.570409,6.450117,0.22172,0.262174,1.035688,0.344482,0.471191,-0.470703,-2.693254,7.716946,4.937391,-0.210428,-0.435777,-0.155097,0.274658,-0.453125,-0.105225,0.003551,-5.85214,7.304035,-0.684322,-0.775978,-0.238607,0.121094,0.228271,-0.558594,3.696004,-6.177388,6.121849,-0.446411,-1.071229,-0.228685,-0.144043,0.258545,-0.533691,2.246845,-6.478429,8.367825,0.143943,0.349713,0.95359,0.010254,0.221436,-0.619629
-1.497773,-7.001874,6.268419,-0.326641,0.123763,0.844719,0.345947,0.479248,-0.466309,-2.075079,8.125461,5.530814,-0.183048,-0.221619,-0.193542,0.276367,-0.450195,-0.101807,0.941812,-6.808135,6.743418,-0.472011,-0.637984,-0.405322,0.102051,0.242432,-0.556152,3.947067,-5.962159,5.684247,-0.53974,-0.680452,-0.162137,-0.159668,0.27002,-0.525635,1.014935,-5.259497,7.923082,1.146728,0.91508,0.767111,0.027588,0.209473,-0.630859
-2.574053,-7.182094,6.549924,0.201792,0.219788,0.728926,0.361328,0.467041,-0.47168,-3.278134,7.908421,5.594488,-0.533287,0.039926,-0.127103,0.281738,-0.447998,-0.108643,0.076621,-5.979096,6.889997,-0.231948,-0.609444,-0.316552,0.099121,0.23999,-0.55835,2.383046,-6.0313,5.974716,-0.588238,-0.656747,-0.103225,-0.164062,0.270264,-0.515137,-0.437141,-2.807043,8.588475,0.828649,0.974074,0.568073,0.056641,0.185303,-0.63501
-1.946707,-5.474675,7.449076,-0.018245,0.259238,0.665375,0.36499,0.462158,-0.472168,-3.168503,6.471598,4.573479,-0.510119,-0.062115,-0.105609,0.2771,-0.444092,-0.120117,0.762076,-5.688459,6.752391,-0.519763,-0.654311,-0.297675,0.07959,0.240723,-0.555176,2.515218,-5.983692,6.042401,-0.481741,-1.121733,-0.160146,-0.19043,0.271484,-0.509033,-0.800237,-3.400138,8.167579,-0.678338,0.66701,0.733765,0.068359,0.191895,-0.637451
-2.385549,-6.133771,7.107137,-0.268537,0.475628,0.619162,0.373535,0.476562,-0.462402,-3.054617,7.327431,4.56807,0.02037,0.151697,-0.066961,0.284424,-0.446533,-0.118408,0.468812,-5.955557,6.675159,-0.560383,-0.504917,-0.225182,0.067139,0.264648,-0.546387,3.542716,-5.407918,5.591226,-0.561791,-1.145274,-0.093362,-0.208252,0.289551,-0.490479,-0.553863,-5.666657,7.475007,-0.573189,0.431963,0.703064,0.079102,0.215576,-0.628174
-2.356895,-5.380175,6.840005,-0.07641,0.552109,0.604258,0.391846,0.463623,-0.456787,-3.508537,8.277742,4.996154,-0.574387,0.115319,-0.036998,0.277344,-0.444336,-0.124023,0.867084,-5.807311,6.777139,-0.801688,-0.596951,-0.294767,0.063477,0.263916,-0.533203,3.280314,-5.664409,5.439246,-0.997762,-1.09767,0.069108,-0.218262,0.295166,-0.470459,-0.678104,-5.100141,7.875567,0.505998,0.489208,0.408294,0.09375,0.195801,-0.629883
-2.70736,-5.087633,6.343927,-0.520053,0.59324,0.53774,0.400635,0.468994,-0.461914,-3.176889,6.844909,4.731814,-0.87789,0.07988,0.054534,0.270264,-0.447998,-0.125977,0.933448,-6.957862,6.489716,-1.146821,-0.500648,-0.144033,0.049316,0.27832,-0.541748,3.917842,-6.915013,4.66566,-1.0195,-1.309304,0.13384,-0.234863,0.304932,-0.466064,-0.431951,-3.206105,8.795617,0.265975,0.369105,0.480379,0.10083,0.187988,-0.643555
-2.825039,-6.217667,5.633776,-0.553901,0.546548,0.506703,0.409668,0.470215,-0.451172,-3.18023,6.55947,4.912311,-0.292207,0.050703,0.08349,0.286133,-0.445312,-0.124268,1.307144,-8.070435,6.234338,-0.626922,-0.62581,-0.177694,0.036133,0.284668,-0.529541,5.073462,-7.293794,4.20289,-0.61011,-1.08084,0.0614,-0.253174,0.313232,-0.448242,0.056282,-3.605096,8.891188,-0.843017,0.753712,0.570794,0.120361,0.198975,-0.634521
-2.997553,-6.794716,5.439691,-0.313227,0.47431,0.426561,0.42749,0.478027,-0.45459,-2.448754,7.302731,5.369302,-0.381716,0.142853,0.045291,0.283203,-0.438232,-0.133301,0.525849,-6.476318,6.106486,0.00548,-0.500707,-0.244823,0.034912,0.288086,-0.536865,4.232726,-6.700097,4.216608,-0.395604,-0.595135,0.005772,-0.251465,0.321045,-0.444336,-0.334007,-5.746604,8.152332,-0.899397,1.238279,0.609889,0.153809,0.216553,-0.633301
-2.841789,-5.755915,6.351814,-0.100991,0.420348,0.425172,0.435303,0.479248,-0.440674,-3.639844,6.710282,5.142328,-0.512627,0.259156,0.102961,0.273438,-0.442871,-0.138916,1.055787,-6.00596,6.146786,-0.843578,-0.919639,-0.127847,0.02417,0.299316,-0.517578,3.716394,-6.825483,4.187541,-0.668262,-0.782988,0.127838,-0.259766,0.332764,-0.418457,-1.329569,-6.244675,7.04839,0.006718,1.42634,0.388922,0.179932,0.218262,-0.621582
-2.819482,-5.358496,6.23565,-0.466264,0.6035,0.427918,0.443848,0.47583,-0.437744,-2.977824,6.961223,4.904188,-0.303752,-0.051279,0.056074,0.27002,-0.44458,-0.135986,2.026638,-8.12611,5.477763,-1.011967,-0.680653,-0.109245,0.010498,0.306396,-0.515625,4.629722,-7.244516,3.628795,-0.713238,-0.734546,0.191637,-0.27124,0.335205,-0.411377,-1.668324,-4.651347,7.233799,0.401849,1.125814,0.388697,0.201172,0.203125,-0.626953
-3.624432,-5.671547,5.581055,-0.557287,0.530119,0.38811,0.451416,0.484131,-0.436768,-3.085493,7.47794,5.391311,-0.646973,0.214968,0.201977,0.271729,-0.442139,-0.146729,1.06876,-7.46578,5.490205,-0.328815,-0.65183,-0.268087,-0.003662,0.314453,-0.516602,3.848984,-7.273858,3.763982,-0.740278,-0.460826,0.198969,-0.273926,0.3479,-0.40625,-1.45306,-3.073351,7.43696,0.017014,1.207114,0.347596,0.220703,0.202881,-0.630615
-2.805009,-5.464415,6.352687,-0.594349,0.58761,0.30536,0.463135,0.481934,-0.425781,-3.201428,6.508603,5.355197,-0.822452,-0.037487,0.095882,0.268311,-0.440674,-0.15332,1.780405,-6.104261,5.429599,-0.864499,-0.854911,-0.237779,-0.012695,0.317383,-0.505371,3.694496,-7.019441,3.668761,-0.781222,-0.760737,0.214084,-0.278809,0.350098,-0.388184,-1.67391,-3.023194,7.538693,-0.853274,1.37448,0.357583,0.250488,0.208984,-0.615234
-3.677456,-6.058282,6.405035,-0.884955,0.717201,0.328342,0.478271,0.49585,-0.41748,-3.39033,6.961132,5.404737,-0.485165,0.097256,0.219655,0.262695,-0.435547,-0.15625,2.078522,-7.877075,5.235235,-1.585761,-0.712674,-0.03527,-0.018066,0.339844,-0.49292,4.446532,-6.823821,3.208487,-1.032868,-0.721258,0.363587,-0.27832,0.366699,-0.374268,-2.866311,-5.140721,7.130066,-1.648234,1.318835,0.515299,0.277832,0.236328,-0.5979
-3.567819,-6.368666,5.826541,-0.883523,0.843866,0.402905,0.486572,0.501953,-0.403076,-3.613067,7.774325,5.666283,-0.927628,-0.148919,0.201949,0.26709,-0.437988,-0.167236,2.331044,-8.868927,4.780834,-0.898251,-0.711321,-0.221015,-0.031006,0.346436,-0.486084,3.968368,-7.732253,2.575607,-1.162585,-0.575279,0.450276,-0.28125,0.381104,-0.360352,-3.154378,-7.127757,6.726588,-1.280832,0.917772,0.474935,0.29541,0.251953,-0.589844
-3.996236,-6.510422,5.455131,-0.888288,0.795386,0.422034,0.499756,0.513428,-0.38623,-2.922748,6.290285,5.497823,-1.242491,-0.127825,0.35344,0.254395,-0.436523,-0.191162,2.006972,-6.820281,4.825706,-0.69647,-0.496691,-0.200933,-0.039062,0.357666,-0.473145,3.31604,-7.725509,2.742582,-0.966106,-0.705876,0.349123,-0.283447,0.395508,-0.338867,-2.467384,-6.501432,6.878758,-0.110728,0.846057,0.375907,0.313965,0.255615,-0.57959
-4.164061,-6.847124,5.083159,-0.817803,0.939974,0.388417,0.51416,0.518311,-0.36792,-3.039443,6.04007,5.99717,-0.488184,-0.039109,0.166141,0.253174,-0.428467,-0.183105,1.839412,-7.370683,4.67831,-1.49702,-0.667677,-0.05855,-0.048584,0.374023,-0.450928,4.574107,-7.741306,2.082581,-1.010188,-0.874945,0.368935,-0.286621,0.409424,-0.312988,-2.435497,-4.05563,7.162919,0.109897,1.231019,0.243626,0.334961,0.253174,-0.56665
-5.250284,-6.46512,4.677198,-0.564787,0.719409,0.292274,0.518555,0.524414,-0.359863,-3.583596,7.651914,6.387207,-0.51949,-0.051669,0.20436,0.247803,-0.431885,-0.192383,1.943165,-9.471373,4.439382,-1.088197,-0.632264,-0.052364,-0.05542,0.380859,-0.441162,4.786972,-8.1069,1.748385,-0.886022,-0.273023,0.397206,-0.287354,0.419678,-0.305908,-3.995425,-3.552061,6.871569,-0.884485,1.477348,0.341912,0.357178,0.262695,-0.553467
-4.774307,-5.943534,4.367879,-0.844941,0.72613,0.233263,0.529541,0.540039,-0.345947,-3.045964,6.760252,6.096787,-1.17097,-0.104477,0.153364,0.24292,-0.428223,-0.209473,1.838327,-8.042629,4.178424,-0.340994,-0.65684,-0.265409,-0.063721,0.394531,-0.435791,3.65531,-8.200392,1.799366,-0.816424,-0.143218,0.372042,-0.281006,0.438721,-0.293213,-3.808747,-5.17536,6.311873,-1.351352,1.105092,0.322768,0.380127,0.287109,-0.533691
-4.940392,-6.852267,4.073658,-0.799558,0.476113,0.146904,0.544434,0.527832,-0.329102,-2.940788,5.692266,5.650783,-0.628795,0.006385,0.060916,0.251465,-0.428223,-0.204102,2.031201,-6.548057,4.24994,-0.942076,-0.755776,-0.133696,-0.063232,0.385742,-0.419434,4.096259,-7.866883,1.523364,-0.822629,-0.113132,0.350156,-0.265869,0.429932,-0.2771,-2.228814,-6.188724,6.10072,-0.855291,1.55248,0.221572,0.410645,0.28125,-0.509521
-4.642294,-6.88126,4.874531,-0.783886,0.483324,0.209525,0.537598,0.543213,-0.327637,-3.209802,7.400826,6.445115,-0.388731,-0.052079,-0.018835,0.245361,-0.416016,-0.215332,2.777952,-8.267253,3.729505,-1.64607,-0.771569,-0.147406,-0.083984,0.410645,-0.407715,4.330393,-8.187412,1.299663,-1.2349,0.145715,0.492058,-0.272949,0.451172,-0.26709,-3.906685,-6.38409,5.585431,-0.824816,2.272254,0.335176,0.432373,0.297607,-0.492432
-5.183456,-7.041057,4.689064,-0.792178,0.455191,0.232762,0.550049,0.550049,-0.313477,-3.288707,7.332388,6.756797,-1.251781,-0.045983,-0.021313,0.243652,-0.408936,-0.218994,2.314546,-9.480015,3.255864,-1.263104,-0.60777,-0.246309,-0.083496,0.419678,-0.389404,3.675536,-9.007278,0.977233,-1.305825,0.356462,0.495695,-0.255371,0.4646,-0.249512,-5.734911,-6.315698,4.547437,-0.538439,1.772705,0.247751,0.465088,0.303711,-0.468262
-5.049372,-7.187428,4.336545,-0.767325,0.471137,0.152495,0.545654,0.552246,-0.297119,-2.985242,4.882,6.884686,-1.065971,-0.194775,-0.067408,0.244629,-0.401367,-0.236816,2.491267,-8.751144,2.949538,-0.963158,-0.81786,-0.314604,-0.102051,0.42041,-0.37207,3.580316,-9.305294,0.715839,-1.044813,0.360371,0.435262,-0.256348,0.466797,-0.237549,-4.804367,-4.900803,4.205546,-0.043965,1.317216,0.058014,0.470947,0.294922,-0.447021
-5.729455,-8.099134,3.419661,-0.447057,0.460793,0.052483,0.557861,0.553467,-0.303711,-2.85431,5.542344,6.899635,-0.009523,0.086462,-0.200764,0.245361,-0.407715,-0.233154,2.992987,-9.128373,2.949664,-1.015121,-0.732339,-0.135604,-0.101807,0.425537,-0.371582,4.180727,-9.256835,0.403139,-0.76012,0.558557,0.279064,-0.237061,0.474854,-0.245361,-4.911641,-4.530914,4.167652,-0.653238,1.70666,0.065201,0.502197,0.303955,-0.437744
-5.475025,-7.01493,3.987582,-0.002534,0.296009,0.019694,0.556641,0.566895,-0.285645,-4.026275,7.153575,7.232259,-0.207183,-0.059937,-0.178227,0.253906,-0.402588,-0.234863,2.616075,-9.970475,2.679912,-0.52645,-0.77533,-0.197218,-0.112305,0.441162,-0.353027,3.7295,-9.350127,-0.109661,-0.443889,1.01961,0.294665,-0.23291,0.494629,-0.22876,-5.864412,-6.689,4.445039,-1.109419,1.579531,0.154043,0.518555,0.325439,-0.397949
-5.548397,-6.727077,4.126935,-0.385994,0.391105,0.027609,0.555176,0.558838,-0.281738,-3.137906,5.835092,7.021515,-0.698365,-0.135741,-0.179818,0.254883,-0.387451,-0.241943,3.438515,-8.802008,2.87909,-0.228299,-0.781914,-0.233863,-0.122803,0.427979,-0.351318,3.479841,-8.716587,0.595737,-0.385397,1.07695,0.212173,-0.2229,0.486572,-0.23584,-5.650606,-7.919242,3.708948,-0.158678,1.501021,0.04036,0.530029,0.314453,-0.38501
-6.32994,-8.431456,3.620523,-0.463373,0.417099,-0.008283,0.555176,0.562256,-0.27417,-3.969232,5.500399,7.432234,0.027789,0.050229,-0.144945,0.252686,-0.389648,-0.231445,3.108125,-8.634638,2.761743,-0.624837,-0.629375,-0.073552,-0.131836,0.43042,-0.34082,3.644686,-8.686304,0.647948,-0.436473,1.37935,0.372702,-0.211182,0.48999,-0.237061,-6.575947,-6.381891,3.441654,0.421854,1.794193,-0.0682,0.545898,0.314453,-0.366211
-6.190578,-7.890629,3.294193,0.257199,0.277491,-0.029106,0.563721,0.555908,-0.275879,-3.784241,7.080311,7.763037,-0.022525,-0.089658,-0.241924,0.249756,-0.37915,-0.237549,3.194473,-10.079362,2.282092,-0.58595,-0.725671,0.017106,-0.128174,0.428711,-0.331787,2.258196,-9.028194,0.985935,-0.267776,1.382289,0.32116,-0.190186,0.489258,-0.242676,-7.093785,-5.659998,3.402422,-0.016225,1.358371,-0.022343,0.564697,0.310791,-0.346191
-5.477714,-5.944408,3.322886,-0.040213,0.266389,-0.088871,0.56665,0.564697,-0.265381,-3.41458,5.80559,6.985358,-0.61431,-0.048883,-0.105417,0.256104,-0.382568,-0.243896,4.0388,-10.110597,1.956963,0.192289,-0.589498,-0.018578,-0.12915,0.435059,-0.326172,3.539056,-9.18063,0.475496,-0.027252,1.031808,0.367467,-0.174805,0.501221,-0.239014,-5.294907,-6.225008,2.650298,-0.277463,1.208405,-0.079676,0.576172,0.321533,-0.322998
-5.821493,-7.778715,2.407143,-0.423168,0.257937,-0.082999,0.57373,0.575439,-0.260742,-3.501153,4.879714,6.803354,0.036894,-0.039528,-0.096602,0.258789,-0.384521,-0.236572,3.625911,-8.195691,2.709763,0.275311,-0.443963,-0.00641,-0.126221,0.436523,-0.330322,3.842084,-9.003131,0.537912,0.035176,1.603798,0.341037,-0.151367,0.508301,-0.246826,-5.414047,-7.208723,1.732259,-0.409982,1.827994,0.052572,0.599365,0.32959,-0.295898
-6.188397,-7.669868,2.500442,0.09954,0.122391,-0.000178,0.560547,0.565186,-0.262695,-3.96427,6.707176,7.598893,0.185394,-0.010091,0.004719,0.250732,-0.383545,-0.23877,3.993673,-8.638936,2.361622,-0.440038,-0.491893,0.152219,-0.142578,0.428711,-0.323975,2.375115,-8.768196,1.161552,0.08262,1.578696,0.433413,-0.148193,0.499268,-0.255371,-6.948357,-7.834217,1.908037,-0.156767,1.736953,0.067774,0.595459,0.321533,-0.27417
-6.306877,-6.884726,2.808865,-0.280352,0.083363,-0.038413,0.570557,0.572754,-0.250488,-3.560207,6.385848,7.563471,-0.50818,-0.088967,0.101275,0.252441,-0.373291,-0.248535,3.929069,-10.206406,2.024137,-0.090668,-0.208801,0.193899,-0.128418,0.434326,-0.31543,2.796577,-8.749547,1.369309,-0.008088,1.29148,0.407568,-0.119629,0.504395,-0.254639,-6.234835,-6.902353,1.208612,0.448159,1.498148,-0.066171,0.620361,0.323242,-0.251465
-6.115037,-8.022264,2.581411,-0.276608,-0.101216,-0.101398,0.552734,0.569336,-0.25708,-3.551597,5.28957,7.157008,-0.28309,0.08027,0.140701,0.246582,-0.386475,-0.254395,3.67817,-8.962335,2.23606,0.396553,-0.162546,0.066521,-0.143066,0.422852,-0.32666,2.722153,-9.322147,1.244606,-0.073122,1.403344,0.494243,-0.115479,0.501465,-0.268066,-6.136613,-5.442861,1.376709,0.164125,1.885966,-0.086039,0.617676,0.317871,-0.22876
-5.465641,-7.129923,3.09073,0.096444,-0.076323,-0.066977,0.552246,0.572266,-0.26001,-3.585818,5.740361,7.195849,0.048508,0.025088,0.19354,0.244629,-0.377441,-0.247559,4.070588,-8.647433,2.39817,-0.028876,-0.041155,0.23882,-0.134766,0.42627,-0.326904,2.465001,-9.911262,1.403391,0.181985,1.235664,0.425961,-0.096191,0.50293,-0.27417,-6.804298,-6.354684,1.417914,-0.699035,1.806008,0.083964,0.629639,0.323975,-0.203613
-4.931373,-6.841945,3.489829,-0.286846,-0.018179,-0.06412,0.554688,0.57251,-0.259521,-3.139078,5.730344,7.133618,-0.247379,-0.000654,0.346679,0.239502,-0.38501,-0.239258,3.748724,-9.912741,2.134743,-0.050738,0.055019,0.205833,-0.128418,0.426025,-0.329834,3.08633,-9.296005,1.509424,0.332076,1.311717,0.389417,-0.078613,0.499756,-0.283936,-6.697443,-7.80471,0.751651,-0.183656,1.632075,0.056438,0.643311,0.32373,-0.178711
-5.762049,-7.985942,3.034154,-0.254018,0.087471,-0.013318,0.560547,0.574219,-0.250732,-3.346853,5.71645,7.147204,0.07912,0.024444,0.423696,0.22998,-0.375732,-0.240234,4.286725,-9.834821,2.208792,0.467124,0.027171,0.148411,-0.121338,0.421875,-0.330811,2.721349,-9.355617,1.547764,0.199351,1.43666,0.507058,-0.049316,0.499023,-0.282959,-6.89437,-6.712385,0.211502,0.449567,1.617042,-0.111114,0.654785,0.324219,-0.150879
-5.209951,-7.149641,3.024013,0.055407,-0.038511,-0.01982,0.561035,0.57666,-0.258545,-3.227543,6.315501,7.25381,-0.034233,-0.039439,0.515034,0.234619,-0.38916,-0.240479,3.936182,-9.09197,2.274186,0.473356,0.379272,0.188796,-0.115967,0.419678,-0.342529,2.194781,-10.062027,1.818234,0.317421,1.464782,0.49766,-0.030518,0.498047,-0.297607,-6.67024,-5.73778,0.716692,-0.044809,1.42802,0.013128,0.660156,0.322998,-0.133545
-5.62867,-6.792974,3.119433,-0.145168,-0.021269,-0.014654,0.555664,0.579346,-0.253906,-3.296275,5.47216,6.837112,-0.160813,-0.056711,0.577028,0.226318,-0.388916,-0.236816,2.914213,-9.22031,2.448642,0.392557,0.317618,0.164995,-0.112793,0.41748,-0.341553,1.22066,-10.055984,2.54825,0.583692,1.350598,0.421406,-0.014648,0.493408,-0.302979,-6.226531,-6.594459,0.121581,-0.341964,1.435331,0.082383,0.664307,0.323486,-0.106689
-4.920129,-7.240574,3.026856,-0.108203,-0.036536,-0.028179,0.547119,0.581543,-0.255127,-2.747859,5.564956,7.121792,0.283359,-0.136143,0.587355,0.216309,-0.393799,-0.249023,3.82794,-9.131615,2.491663,0.460418,0.320404,0.124731,-0.115479,0.41748,-0.350586,1.745762,-8.95398,2.673326,0.599371,0.99971,0.308778,-0.00708,0.491699,-0.314209,-6.453272,-6.665301,0.118353,0.249997,1.573106,0.013459,0.658691,0.325195,-0.084473
-5.661068,-7.190647,2.985224,-0.062815,-0.043572,-0.066529,0.543701,0.583496,-0.253906,-2.901339,6.506489,7.519953,0.148272,-0.071215,0.690812,0.205078,-0.400391,-0.246826,3.621519,-9.250918,2.649622,0.366226,0.551934,0.174394,-0.110107,0.416748,-0.358643,2.097276,-9.333444,2.760785,0.253781,1.150731,0.498327,0.01001,0.488281,-0.320801,-6.813749,-5.591152,0.055403,0.301717,1.509842,-0.059281,0.660645,0.325928,-0.070801
-5.337269,-7.229185,3.08128,-0.129877,0.002132,-0.106543,0.549805,0.581055,-0.258789,-2.937521,6.023784,7.319154,-0.028153,-0.151081,0.785034,0.19458,-0.405518,-0.248535,3.315452,-9.55016,2.824876,0.472807,0.598708,0.186256,-0.095459,0.410156,-0.371338,0.723433,-10.077885,2.906438,0.538333,0.997361,0.365512,0.030762,0.478271,-0.335205,-6.656906,-5.59122,-1.01105,-0.132969,1.433713,-0.013779,0.671875,0.320557,-0.053711
-5.599907,-7.77302,3.132676,-0.195965,-0.087018,-0.103546,0.547119,0.589355,-0.248291,-2.554643,6.104175,7.254619,0.211244,-0.153921,0.816901,0.184082,-0.4021,-0.237061,3.194014,-8.940616,3.03768,0.599265,0.725717,0.130844,-0.08667,0.410645,-0.369141,1.32223,-8.904504,3.178092,0.630038,0.705183,0.278815,0.042725,0.479736,-0.335205,-7.235253,-6.852145,-1.319371,-0.534841,1.511071,-0.034482,0.671875,0.330078,-0.016357
-5.292493,-7.723764,2.960294,0.015341,-0.008106,-0.111738,0.541748,0.579346,-0.244385,-2.411568,6.556057,7.424754,0.170829,-0.093966,0.878358,0.173096,-0.415039,-0.239746,3.055524,-8.709572,3.227911,0.371096,0.807941,0.203698,-0.080322,0.400635,-0.373047,0.936736,-9.312911,3.432996,0.212628,0.817454,0.404971,0.052734,0.467285,-0.330078,-7.243546,-7.615876,-1.42969,0.11399,1.110777,0.005008,0.667725,0.318848,0.0
-5.064669,-7.264578,3.159602,-0.103037,-0.095203,-0.144257,0.539307,0.584229,-0.243164,-2.121657,6.345166,7.267049,0.052324,-0.173327,0.957676,0.161865,-0.411621,-0.233398,3.127893,-9.186005,3.255337,0.288885,0.913625,0.173525,-0.069824,0.39917,-0.375244,0.424643,-9.997656,3.40073,0.419963,0.407786,0.225453,0.061035,0.464844,-0.335205,-6.262172,-6.406109,-1.025082,0.561351,1.125644,-0.191049,0.667969,0.325928,0.016357
-4.959701,-7.965286,2.816583,-0.243877,0.002347,-0.132141,0.540771,0.595703,-0.239746,-1.501057,6.259523,7.171285,0.150132,-0.077153,0.992374,0.144287,-0.419434,-0.241211,2.625935,-8.946374,3.463569,0.518598,1.033907,0.165553,-0.053955,0.405762,-0.384277,1.304303,-8.95302,3.361827,0.567547,0.445384,0.158012,0.071289,0.467285,-0.343506,-6.652462,-5.690504,-1.613123,0.010937,1.298943,-0.072502,0.669434,0.335449,0.032959
-4.957907,-7.744041,2.882447,-0.153398,-0.064495,-0.10584,0.529541,0.593994,-0.239258,-2.006529,6.522456,7.467189,0.058049,-0.064394,1.07993,0.141846,-0.419434,-0.234619,2.351864,-8.094084,3.641316,0.369315,1.014973,0.120704,-0.051514,0.401855,-0.391602,0.148747,-8.582328,3.4715,0.21698,0.574725,0.202255,0.072998,0.464355,-0.348877,-7.201288,-6.667093,-2.303187,-0.489131,0.99876,-0.171487,0.656982,0.333008,0.05249
-5.331761,-7.880311,3.045896,-0.34146,0.045584,-0.168141,0.526855,0.601562,-0.237305,-1.006794,6.554374,7.382058,0.058032,-0.053498,1.071234,0.13501,-0.422607,-0.237793,2.439334,-8.22523,3.718989,0.011815,1.11824,0.204282,-0.039062,0.407715,-0.394775,0.371906,-9.032845,3.458441,0.144271,0.227189,0.148878,0.078857,0.46582,-0.353027,-6.746392,-7.250271,-2.091241,0.031692,0.79973,-0.230442,0.652832,0.336914,0.059082
-4.96433,-8.078168,2.820383,-0.197042,-0.119014,-0.231687,0.526123,0.608154,-0.235352,-1.417451,6.977863,7.372007,0.069852,0.135676,1.111912,0.116943,-0.435059,-0.227295,2.070995,-8.994348,3.74621,-0.018363,1.173483,0.21496,-0.018311,0.412354,-0.39502,0.63289,-8.746723,3.573578,0.218984,0.397647,0.103075,0.087158,0.464844,-0.352295,-6.599166,-6.420065,-2.14651,0.350296,0.797938,-0.327527,0.652344,0.349365,0.069092
-4.770316,-7.341983,3.118362,-0.224907,-0.027015,-0.210909,0.519775,0.601318,-0.230713,-1.257771,6.859509,7.11904,-0.157098,-0.007592,1.118386,0.101074,-0.432373,-0.233887,2.088851,-9.117696,3.731769,0.142189,1.232039,0.195934,-0.007324,0.402588,-0.393555,-0.109009,-8.798703,3.852061,0.04977,0.312286,0.170706,0.091064,0.455322,-0.35083,-6.581436,-6.036672,-2.221001,-0.082587,0.698644,-0.331305,0.643799,0.341309,0.080078
-4.423754,-7.752559,3.145665,-0.514732,-0.109638,-0.228607,0.51416,0.618896,-0.229004,-0.911525,6.295321,7.485428,-0.18396,-0.058652,1.17722,0.09082,-0.431885,-0.233887,1.394826,-8.833099,3.945405,0.026599,1.278425,0.268971,0.006104,0.416748,-0.397217,-0.017615,-9.271588,4.041789,-0.050341,0.114815,0.138597,0.092773,0.470459,-0.354004,-7.048856,-6.703967,-2.460929,-0.267106,0.574987,-0.327286,0.639893,0.36084,0.086182
-4.769044,-8.668628,2.676607,-0.367045,0.043925,-0.296448,0.513184,0.609131,-0.221924,-0.047341,6.483421,7.70261,0.051613,-0.068502,1.132147,0.071777,-0.434082,-0.24707,1.8525,-9.289009,3.766313,-0.068582,1.095883,0.238437,0.021973,0.404297,-0.39624,0.637023,-9.605338,3.704915,0.039439,0.134329,0.166309,0.104492,0.454346,-0.352295,-6.856515,-7.064325,-3.099564,-0.002308,0.151071,-0.445439,0.635498,0.353027,0.091553
-5.088764,-8.21007,2.566229,-0.149442,-0.107588,-0.388165,0.503906,0.612305,-0.225342,-0.472348,7.083642,7.525687,0.048305,0.150798,1.142648,0.066162,-0.438477,-0.234375,1.346412,-9.163669,3.82518,0.218401,1.347365,0.237757,0.036865,0.402832,-0.402588,-0.17272,-9.432179,3.879846,0.133727,0.321613,0.085416,0.104248,0.448975,-0.358154,-5.971606,-7.160679,-3.228214,0.067539,-0.003087,-0.410133,0.625732,0.358398,0.084473
-5.03797,-8.266593,2.545962,-0.274494,-0.160102,-0.451261,0.497559,0.617676,-0.222168,-0.514979,6.91425,7.451635,-0.153292,0.003605,1.087875,0.046143,-0.440186,-0.235107,0.754937,-8.493941,3.895742,0.154937,1.194468,0.149936,0.04834,0.402832,-0.400146,-0.754595,-9.384958,3.926707,0.093216,-0.042431,0.076483,0.104492,0.451904,-0.356934,-6.092404,-7.486739,-2.589506,0.052444,0.03675,-0.373569,0.624268,0.362793,0.083496
-5.073636,-8.71861,2.441384,-0.125077,-0.284655,-0.4978,0.492676,0.626221,-0.216309,0.090151,6.761764,7.240566,0.097018,0.111733,1.022369,0.03418,-0.434326,-0.237061,1.291315,-8.690303,3.992661,-0.077673,1.270391,0.229333,0.067871,0.412354,-0.39624,0.165925,-9.144201,3.941649,0.107935,-0.192971,-0.038104,0.105713,0.456055,-0.357666,-6.000792,-7.861958,-2.511202,0.194333,-0.184408,-0.35271,0.621826,0.375244,0.081543
-4.770131,-8.362221,2.373364,-0.062596,-0.471498,-0.530944,0.474854,0.630127,-0.226562,0.024066,7.532223,7.438821,0.077131,0.12458,0.936591,0.031494,-0.442139,-0.231934,0.707976,-9.11035,3.842167,0.047023,1.33616,0.180897,0.077637,0.410645,-0.399414,-0.117559,-8.968921,4.149986,0.079477,-0.11214,0.023649,0.101318,0.456055,-0.363525,-5.249675,-7.721369,-3.069856,0.379059,-0.252793,-0.388111,0.608398,0.380859,0.065918
-4.494612,-8.733214,2.581729,-0.21909,-0.599589,-0.559903,0.463623,0.627197,-0.218262,0.438238,6.940175,7.453776,-0.312952,0.100457,0.877473,0.033447,-0.437744,-0.239258,0.708522,-8.557617,4.096816,0.136308,1.252385,0.144744,0.092529,0.404541,-0.387451,-0.073333,-9.213843,4.289905,-0.110293,-0.420091,-0.050107,0.099365,0.448975,-0.352783,-5.576219,-7.639582,-2.742472,0.17084,-0.141921,-0.339208,0.608398,0.379639,0.071533
-4.4633,-9.235784,2.669209,0.016181,-0.682178,-0.590632,0.449219,0.637451,-0.232666,0.236473,6.250109,7.237444,0.014646,0.248213,0.772722,0.014648,-0.441895,-0.241455,0.30538,-8.635957,3.914773,-0.104081,1.271117,0.142734,0.107178,0.414795,-0.393799,0.553419,-9.876181,3.740739,-0.044551,-0.276949,-0.02582,0.093506,0.456787,-0.362549,-6.457849,-8.252346,-1.821781,0.121919,-0.360562,-0.258533,0.602051,0.390381,0.055664
-4.196645,-8.289902,2.789176,0.043473,-0.815992,-0.575621,0.436523,0.640137,-0.235596,0.176822,7.277868,7.369898,0.168133,0.159576,0.642291,0.013184,-0.441406,-0.233398,0.293397,-9.116698,3.919242,-0.088683,1.132916,0.086462,0.119141,0.418213,-0.389648,-0.41198,-9.515673,4.215417,0.089394,-0.238655,-0.193834,0.090332,0.455322,-0.364258,-5.376677,-8.201717,-1.960406,0.463932,-0.678082,-0.381884,0.598145,0.395752,0.040527
-4.022945,-8.879386,2.60931,-0.175148,-0.916115,-0.624317,0.419189,0.639404,-0.232666,0.556178,7.10901,7.524845,-0.284896,0.226548,0.646362,0.0,-0.437012,-0.236572,0.542259,-9.01512,3.665151,0.124635,1.260016,0.047772,0.131836,0.413574,-0.381592,-0.219627,-9.213852,4.263933,-0.001345,-0.719299,-0.175569,0.07959,0.450195,-0.358887,-4.853149,-7.702541,-1.765466,0.393871,-0.369598,-0.289434,0.594727,0.393066,0.0354
-3.805389,-9.202078,3.094519,0.149181,-1.042832,-0.65942,0.397461,0.635742,-0.240723,0.388824,6.239795,7.220292,-0.009169,0.243854,0.491301,0.005127,-0.437988,-0.246338,0.076043,-8.517477,3.826199,0.085041,1.273047,0.031061,0.139893,0.407959,-0.376709,0.311403,-9.431729,3.990967,-0.110174,-0.758011,-0.324154,0.064209,0.447998,-0.361328,-5.931737,-8.069306,-0.760358,0.156184,-0.313451,-0.167628,0.585449,0.390625,0.028564
-3.180351,-8.694587,3.349817,0.114543,-1.111279,-0.683643,0.373291,0.647949,-0.253174,0.506901,6.96056,7.612598,0.156656,0.306995,0.418291,-0.002686,-0.446289,-0.246338,0.078632,-9.010558,3.964521,-0.140682,1.28708,0.044142,0.144531,0.423096,-0.378174,-0.114467,-9.807139,4.316181,0.0011,-0.977303,-0.261299,0.043945,0.46167,-0.368896,-6.185091,-8.680516,-1.327221,0.347502,-0.506045,-0.181584,0.573486,0.404297,0.008789
-3.166479,-9.033311,3.101611,0.097007,-1.12375,-0.676012,0.368408,0.653809,-0.256592,0.171711,6.820953,7.391435,-0.130086,0.254474,0.355661,-0.007568,-0.449951,-0.250488,-0.514041,-9.618064,4.000231,0.085297,1.21209,-0.017068,0.167969,0.42627,-0.375,1.205452,-9.731386,4.248739,-0.004559,-1.234744,-0.467841,0.039307,0.461914,-0.368652,-5.827884,-8.148703,-2.110321,0.769699,-0.727204,-0.190678,0.581299,0.407471,-0.00708
-2.946902,-8.834622,3.473686,0.130343,-1.185123,-0.644205,0.343994,0.639893,-0.259766,0.280532,6.006127,7.33517,-0.136995,0.283478,0.256328,0.01001,-0.450439,-0.248535,-0.422299,-8.862694,3.916991,0.322542,1.068137,-0.140895,0.169678,0.409912,-0.371094,1.419675,-9.739294,4.316663,-0.024008,-0.86645,-0.357287,0.017822,0.44751,-0.36499,-5.75959,-7.227983,-1.007894,0.515078,-0.715973,-0.241603,0.570068,0.398438,-0.021973
-3.126144,-9.137864,3.69671,0.14666,-1.220833,-0.697217,0.324463,0.638672,-0.264648,-0.106062,6.150775,7.292425,0.270373,0.328554,0.078169,0.001465,-0.444824,-0.249023,-0.932277,-8.513084,4.132959,0.184633,0.957748,-0.136301,0.178955,0.408691,-0.366211,0.870951,-10.016555,4.713627,0.029443,-1.161627,-0.581092,-0.000732,0.446777,-0.362061,-6.252883,-7.99057,0.01931,-0.063849,-0.805931,-0.035868,0.571045,0.394775,-0.029785
-2.581482,-8.911398,3.754054,0.3955,-1.297384,-0.710691,0.30835,0.645264,-0.270508,-0.026142,6.971518,7.070943,0.251667,0.337512,-0.083691,0.007568,-0.436279,-0.248535,-1.031384,-8.91901,4.702363,0.126606,0.676468,-0.249787,0.184326,0.422119,-0.36377,2.7766,-9.621969,4.498508,0.08962,-1.204693,-0.603733,-0.019043,0.459229,-0.360107,-5.735633,-9.249529,-0.72256,0.324636,-0.968903,-0.019152,0.569336,0.404053,-0.046387
-2.07319,-8.356303,4.023817,0.345448,-1.384734,-0.653854,0.285156,0.647705,-0.281982,-0.297681,6.666968,7.014818,0.002489,0.327707,-0.146666,0.008545,-0.444092,-0.241211,-0.859145,-9.38067,4.455352,0.259509,0.452977,-0.299163,0.183594,0.425049,-0.372559,2.773952,-9.838593,4.311329,-0.020265,-0.767762,-0.634473,-0.039062,0.459473,-0.36792,-5.638208,-8.307042,-0.635406,1.035128,-0.816654,-0.04159,0.561035,0.405518,-0.075439
-1.427344,-8.850901,4.235493,0.267976,-1.342791,-0.601354,0.263672,0.638672,-0.283936,-0.364012,5.528355,6.896735,0.087143,0.191346,-0.255731,0.023193,-0.44873,-0.23877,-0.424778,-9.067885,4.115484,0.502116,0.261215,-0.39357,0.177979,0.417725,-0.373291,2.325309,-9.498134,4.446326,0.287831,-0.88519,-0.69816,-0.060547,0.450195,-0.365479,-6.678573,-7.148539,0.176581,0.506358,-0.913456,0.100145,0.557129,0.394287,-0.089111
-1.719027,-8.988915,4.463494,0.50084,-1.281911,-0.503928,0.245605,0.632812,-0.292969,-0.635855,5.883149,6.97113,0.644446,0.212592,-0.373692,0.015381,-0.457275,-0.236572,-0.738094,-8.636971,4.244594,0.49893,0.166623,-0.330592,0.177734,0.413574,-0.381348,2.640725,-8.55821,4.613736,0.312277,-0.989217,-0.7076,-0.07959,0.445557,-0.370117,-6.826777,-8.081021,0.202901,-0.045533,-1.273822,0.241045,0.55542,0.389893,-0.109863
-1.4868,-8.412424,4.491591,0.44425,-1.312295,-0.483088,0.226318,0.625977,-0.305176,-0.786106,7.273798,7.159508,0.542486,0.05764,-0.519176,0.031982,-0.46167,-0.230957,-0.82735,-8.246339,4.350216,0.474955,-0.134902,-0.373818,0.168945,0.409912,-0.390137,2.822216,-8.163422,4.495803,0.037706,-1.077784,-0.686788,-0.10498,0.4375,-0.375732,-6.022976,-8.409829,-0.346156,0.609421,-1.491075,0.123004,0.547119,0.382324,-0.137939
-1.218015,-8.594632,4.502766,0.255506,-1.35466,-0.466278,0.211914,0.625977,-0.306641,-0.447085,6.90659,7.006272,-0.021014,0.142728,-0.648351,0.044922,-0.451904,-0.233154,-0.533857,-7.754902,4.524329,0.21953,-0.292976,-0.408922,0.166016,0.415527,-0.394287,3.568829,-8.300723,4.194139,-0.245478,-1.129303,-0.552481,-0.120361,0.443848,-0.366943,-5.503927,-6.541803,0.796866,0.961309,-1.409488,-0.018811,0.54126,0.38208,-0.166992
-0.920005,-8.707486,4.805623,0.225902,-1.379503,-0.443916,0.193115,0.624268,-0.312012,-1.152602,6.055051,6.700729,0.173304,0.137659,-0.816548,0.055908,-0.457764,-0.226562,-0.963673,-8.344041,4.522717,-0.086658,-0.513364,-0.437125,0.156006,0.417236,-0.397705,3.650442,-9.122995,3.664828,-0.341781,-0.901059,-0.48216,-0.13501,0.446533,-0.361084,-5.978581,-6.07862,2.063273,-0.107722,-1.378868,0.066321,0.53418,0.380371,-0.185791
-0.814344,-8.822265,5.086046,0.183456,-1.359983,-0.433435,0.171143,0.619385,-0.307861,-1.109181,6.770075,6.96553,0.408436,0.160707,-0.99987,0.074707,-0.467041,-0.220459,-0.797964,-8.817051,4.344972,0.075029,-0.783647,-0.537011,0.137451,0.418701,-0.402344,3.592737,-8.924643,3.499978,-0.107213,-0.76646,-0.552009,-0.156006,0.443604,-0.357666,-6.287199,-8.164181,1.330865,-0.534921,-1.467036,0.070028,0.521729,0.379883,-0.195068
-0.160487,-8.719028,5.002652,0.317129,-1.388322,-0.431957,0.149658,0.615723,-0.306885,-1.575287,6.73146,7.010747,0.074577,0.104292,-1.103203,0.081543,-0.452393,-0.220215,-0.811004,-8.320013,4.437841,0.198806,-1.00455,-0.56919,0.121094,0.419434,-0.402832,3.870954,-8.138583,3.265419,-0.16786,-0.48825,-0.463822,-0.168701,0.445068,-0.345703,-6.412169,-8.956728,1.361779,0.31955,-1.533004,-0.021349,0.510254,0.376709,-0.212646
0.354769,-8.523208,5.072947,0.380115,-1.231152,-0.442569,0.141113,0.60791,-0.306152,-0.995703,5.477415,6.529156,0.203077,0.083174,-1.190249,0.093262,-0.459961,-0.220459,0.16335,-8.136045,4.288645,0.030512,-1.253202,-0.552723,0.111084,0.41748,-0.401123,3.441516,-8.421511,3.134636,-0.296668,-0.250829,-0.370808,-0.170166,0.446289,-0.338867,-5.973033,-7.638842,2.892425,0.75874,-1.734881,0.083077,0.506104,0.37085,-0.240234
0.585232,-8.479654,5.16673,0.52139,-1.170188,-0.359623,0.123535,0.604492,-0.313477,-1.922666,5.92946,6.196446,0.824251,0.116422,-1.26838,0.11499,-0.453369,-0.21167,0.079874,-8.702844,4.365209,0.015458,-1.250294,-0.480582,0.0896,0.422607,-0.410645,3.653887,-8.564656,2.850222,-0.068311,-0.168424,-0.389929,-0.180176,0.447754,-0.343018,-5.704071,-7.282228,2.919658,0.123499,-1.592025,0.234309,0.493652,0.36499,-0.264404
0.412188,-8.110317,5.458564,0.652438,-1.094024,-0.286035,0.101807,0.593262,-0.314209,-2.180591,7.437084,6.28422,0.850942,-0.112708,-1.349413,0.125732,-0.456055,-0.196289,-0.013505,-8.838298,4.676476,0.215805,-1.463077,-0.493318,0.062744,0.416748,-0.412109,3.776788,-8.15195,2.946628,0.005854,0.219059,-0.337396,-0.190674,0.440674,-0.3396,-5.926313,-8.227697,2.204128,0.039425,-1.757944,0.409834,0.474854,0.358887,-0.277344
0.790972,-8.328821,5.555804,0.771548,-1.204071,-0.317963,0.097412,0.585693,-0.318359,-2.382529,7.118618,6.699452,0.600409,-0.191003,-1.370949,0.139893,-0.454346,-0.19043,0.202501,-8.79216,4.823768,0.278112,-1.59196,-0.413378,0.050293,0.415771,-0.416992,3.342092,-8.465463,2.797228,0.056652,0.562193,-0.178418,-0.180664,0.442139,-0.343994,-5.462901,-8.333565,2.10776,0.529572,-1.935422,0.435888,0.472168,0.350342,-0.302734
1.458585,-8.874515,5.684989,1.026955,-1.010387,-0.43095,0.074951,0.571533,-0.331055,-1.499197,6.156209,6.754996,0.954441,-0.252124,-1.412719,0.155029,-0.455322,-0.182373,1.339122,-8.746498,4.404108,0.506315,-1.755047,-0.392788,0.024414,0.408447,-0.431396,3.01501,-8.697197,2.604254,0.344103,0.80161,-0.227375,-0.184326,0.432129,-0.359375,-6.043672,-7.479303,2.832979,1.114186,-1.931344,0.73184,0.450928,0.327637,-0.341797
1.463099,-8.513153,5.787213,1.394636,-0.886034,-0.527679,0.074951,0.550537,-0.337891,-2.267989,7.032235,6.309249,1.616578,0.046335,-1.391849,0.174316,-0.449707,-0.155518,1.918221,-8.67543,4.439719,0.732337,-1.514431,-0.275243,0.016846,0.39624,-0.435303,2.384638,-8.489644,2.890282,0.690597,0.941684,-0.228421,-0.166504,0.423096,-0.369141,-5.970585,-6.227079,3.92574,1.228314,-2.455904,0.632532,0.444824,0.305664,-0.374756
1.36417,-7.459133,6.117587,1.467735,-0.76503,-0.539902,0.054688,0.540039,-0.347168,-3.010597,8.382508,5.662618,1.449047,-0.179464,-1.366204,0.1875,-0.449463,-0.147705,1.974103,-8.392111,4.719711,0.900157,-1.486257,-0.261569,-0.006348,0.391602,-0.447266,1.906036,-8.027138,3.335786,0.791737,0.708757,-0.236144,-0.171631,0.423584,-0.382568,-4.384399,-6.178062,4.177878,0.836908,-2.495363,0.809212,0.419678,0.297119,-0.404541
1.176939,-7.606418,6.337508,1.221303,-0.766819,-0.418657,0.049072,0.521973,-0.352051,-3.045172,7.889134,5.130688,0.997371,-0.173113,-1.192526,0.203125,-0.434814,-0.13916,2.832526,-7.954736,4.778827,0.817348,-1.218193,-0.197537,-0.020264,0.379639,-0.450195,2.311038,-8.00459,3.707894,0.638274,0.439234,-0.142117,-0.164062,0.41626,-0.390869,-5.232763,-6.904155,4.638114,0.849946,-2.124031,0.828001,0.40332,0.276611,-0.428223
1.84748,-7.382388,6.75054,1.042192,-0.670865,-0.282894,0.036377,0.508545,-0.355469,-3.216904,8.240701,5.678041,1.127866,-0.284859,-1.2129,0.208984,-0.445068,-0.123047,2.219722,-7.139537,5.234239,0.625925,-1.00449,-0.19972,-0.035156,0.368164,-0.454834,2.655661,-7.279257,4.276553,0.596818,0.23028,-0.158932,-0.16626,0.404541,-0.395508,-5.440892,-5.135621,6.267747,1.748141,-2.576316,0.372978,0.372803,0.249512,-0.457031
1.259375,-7.271601,7.092902,0.399315,-0.570317,-0.244106,0.021484,0.501953,-0.35791,-3.397021,9.710611,5.798933,0.491025,-0.083286,-1.142843,0.230225,-0.43042,-0.116943,2.996073,-6.724455,5.42586,-0.199871,-1.078207,-0.15003,-0.052979,0.370117,-0.452148,2.976062,-6.672302,3.691526,-0.185307,0.112482,0.046898,-0.170166,0.404785,-0.396484,-3.916222,-2.762574,7.020067,0.710305,-2.268632,0.063034,0.335449,0.238525,-0.481689
1.090753,-7.694937,6.747221,0.150908,-0.577754,-0.127852,0.021484,0.504883,-0.358154,-4.802446,8.411271,5.613919,-0.399671,-0.228349,-1.035351,0.234619,-0.421143,-0.124512,3.153796,-8.495347,5.21461,-0.858412,-0.657857,0.001822,-0.054443,0.381348,-0.442139,3.095867,-8.303553,3.098417,-0.711365,0.05386,0.209049,-0.16333,0.419678,-0.38623,-5.281015,-4.722707,5.84834,-1.101219,-1.897672,0.223273,0.315674,0.258057,-0.487549
1.344472,-6.758242,6.480027,-0.110494,-0.589438,-0.016094,0.012451,0.508301,-0.356689,-3.804677,7.426781,5.62293,-0.297567,-0.34516,-1.006203,0.246582,-0.411133,-0.130127,2.278972,-9.18625,5.029347,-0.583619,-0.725345,-0.096537,-0.065918,0.388184,-0.436768,3.875256,-8.339616,2.928434,-0.478171,0.26399,0.151255,-0.1604,0.42627,-0.385986,-4.507604,-7.379928,6.139504,-0.838523,-2.654937,-0.342565,0.270752,0.270996,-0.499268
0.985385,-7.628561,6.272975,-0.495992,-0.592982,-0.135599,0.011963,0.51123,-0.35498,-4.177593,7.059729,6.433994,-0.38326,-0.214649,-0.916285,0.258789,-0.41333,-0.129883,3.173592,-8.433937,4.86103,-0.547795,-0.767182,-0.028616,-0.066406,0.393311,-0.43335,3.649965,-7.927238,2.529478,-0.679224,0.700717,0.341188,-0.144287,0.432129,-0.38208,-1.586946,-6.90685,6.223131,0.249771,-2.132063,-0.398448,0.242676,0.266113,-0.514404
2.236711,-9.213325,6.233471,0.179967,-0.604398,-0.336119,0.000977,0.508301,-0.349854,-4.17736,6.31385,6.019142,0.138062,-0.154138,-0.909469,0.273926,-0.408447,-0.136719,2.839719,-9.590107,4.386049,-0.50494,-0.610503,0.173235,-0.073486,0.398193,-0.425049,2.967828,-9.113252,2.05552,-0.193405,0.942818,0.405333,-0.129639,0.437256,-0.380615,-3.770181,-6.383401,7.108582,0.088488,-1.400565,-0.043097,0.22168,0.267578,-0.515869
0.776265,-6.971227,7.082247,0.763031,-0.447031,-0.317195,-0.010254,0.498779,-0.354004,-5.300376,7.199161,5.600508,0.573926,-0.037631,-0.841966,0.274414,-0.394287,-0.135986,3.358849,-10.346989,4.108835,0.372984,-0.60804,0.17618,-0.080811,0.389648,-0.424316,2.688768,-8.224406,2.47231,0.627988,1.054769,0.328416,-0.116455,0.430176,-0.392334,-4.704316,-7.07304,6.601597,0.264866,-2.073315,-0.133455,0.188232,0.261963,-0.523682
1.856174,-5.628187,6.721364,0.100668,-0.557852,-0.320772,-0.015381,0.49707,-0.352051,-4.891046,7.651418,5.601169,0.148039,-0.401433,-0.738753,0.28418,-0.392334,-0.137695,3.403371,-8.191315,4.499014,0.893949,-0.279539,0.21065,-0.078125,0.380859,-0.434326,2.598096,-7.099117,3.387869,0.366096,1.059048,0.536777,-0.096191,0.431152,-0.400391,-2.570685,-5.379933,6.947082,1.29545,-2.280795,-0.295951,0.152832,0.24707,-0.539307
1.509128,-7.257758,5.742129,-0.290042,-0.51292,-0.355217,-0.023438,0.509277,-0.340576,-4.179141,7.006341,5.475942,-0.068246,-0.179148,-0.623481,0.290283,-0.399658,-0.143066,3.2536,-6.809841,4.648262,0.091026,-0.315479,0.385901,-0.077637,0.39209,-0.42749,2.59174,-7.689771,3.210823,0.006311,1.063937,0.640955,-0.074707,0.4375,-0.396973,-1.071814,-2.985955,7.866475,0.438319,-1.819475,-0.460409,0.123779,0.248291,-0.539551
2.076912,-6.878652,5.644723,0.024617,-0.598701,-0.281979,-0.041504,0.486084,-0.331055,-5.161334,6.874586,4.960183,0.028373,-0.274011,-0.575285,0.290771,-0.39917,-0.134766,3.760289,-8.749975,4.037888,-0.298694,-0.072494,0.561962,-0.083008,0.372803,-0.420166,1.986028,-8.349588,3.24192,0.188438,1.089227,0.66638,-0.064941,0.416748,-0.394531,-0.983633,-5.06425,8.063529,-1.552853,-1.481649,-0.100506,0.089111,0.250488,-0.522461
1.509159,-6.051039,6.10333,-0.336518,-0.74039,-0.228612,-0.050537,0.492432,-0.336426,-4.941747,7.03679,5.011114,-0.15005,-0.334458,-0.454425,0.286133,-0.394531,-0.144043,3.019424,-9.223335,4.07989,0.429184,0.22739,0.475164,-0.075684,0.368408,-0.437012,1.234111,-7.867869,3.924078,0.299745,0.749827,0.594464,-0.046631,0.417969,-0.411377,-1.284368,-8.954967,6.446431,-1.196387,-1.183918,-0.231859,0.068359,0.268799,-0.524902
2.859878,-7.479417,5.872212,-0.551605,-0.854888,-0.211044,-0.056152,0.509766,-0.324463,-4.96299,6.748229,5.491344,-0.173879,-0.435891,-0.404682,0.291016,-0.386719,-0.148682,3.175849,-7.419331,4.444757,0.515469,0.351353,0.502775,-0.061768,0.377686,-0.439209,1.460827,-7.9944,4.026929,0.023526,0.368047,0.68097,-0.030518,0.428223,-0.409668,-1.623994,-8.004684,5.953663,0.831708,-1.200683,-0.477695,0.052002,0.270264,-0.529053
3.283316,-7.849474,5.844303,0.011119,-0.764619,-0.25739,-0.05835,0.504883,-0.316895,-3.872882,6.726538,5.634977,-0.095391,-0.387251,-0.408337,0.295166,-0.383301,-0.155762,2.640858,-7.723818,4.410214,-0.096738,0.598647,0.66063,-0.043945,0.374023,-0.432861,1.493433,-9.041364,3.779879,0.0947,0.297524,0.64727,-0.010742,0.424316,-0.402588,-1.157569,-4.655991,7.287573,0.737228,-1.455687,-0.442833,0.031738,0.253662,-0.525391
2.835984,-6.767169,6.275065,0.136908,-0.679232,-0.298645,-0.068604,0.505859,-0.315186,-4.349272,5.936389,5.636282,-0.073283,-0.266601,-0.331668,0.306152,-0.390381,-0.163818,2.582051,-9.575278,4.153221,0.143517,0.523087,0.598338,-0.032959,0.376221,-0.4375,1.471747,-9.23934,3.643235,0.471876,0.182146,0.578219,0.000732,0.421631,-0.412842,-0.923665,-5.605554,8.336822,-0.935475,-1.364434,-0.001534,0.01123,0.269287,-0.515137
3.504971,-7.556737,5.906032,-0.14704,-0.624726,-0.280718,-0.086426,0.506592,-0.30249,-4.686716,6.763254,5.527697,0.471966,-0.314748,-0.34967,0.295898,-0.398926,-0.153809,2.702596,-8.773237,4.469474,0.908301,0.789452,0.495306,-0.027832,0.36499,-0.447754,1.401267,-8.644937,3.999844,0.563372,0.228089,0.521688,0.004883,0.415039,-0.416504,-0.633956,-8.484502,7.85976,-0.577204,-1.497633,-0.038751,-0.018311,0.279297,-0.504395
3.282568,-7.290131,6.001094,-0.024984,-0.711851,-0.209117,-0.088867,0.506104,-0.297119,-4.417238,7.884996,6.185447,-0.048964,-0.38334,-0.270507,0.299072,-0.383789,-0.172607,1.99207,-6.785717,5.03967,0.528216,0.860837,0.493073,-0.00415,0.356689,-0.450195,0.607554,-8.567963,4.520505,0.247033,0.105198,0.518796,0.02002,0.408691,-0.418945,0.327869,-7.412823,7.017409,0.730391,-1.231014,-0.518251,-0.033203,0.268066,-0.506348
4.513344,-7.787926,5.963007,-0.575011,-0.572794,-0.219483,-0.10498,0.509033,-0.291992,-3.752771,6.988478,5.932873,-0.347541,-0.281842,-0.302336,0.310547,-0.38623,-0.178711,2.589688,-7.212629,4.823651,-0.239063,0.905593,0.559771,0.001465,0.355469,-0.451172,1.025331,-8.754249,4.437684,0.052824,-0.296872,0.370931,0.015625,0.405273,-0.418701,-0.362261,-5.336055,7.70384,0.064442,-1.207765,-0.230445,-0.062012,0.26416,-0.503662
3.697706,-9.009638,5.553668,-0.133133,-0.49928,-0.175534,-0.106934,0.516357,-0.289795,-3.851975,6.52096,5.678147,-0.210844,-0.13252,-0.253014,0.302002,-0.38501,-0.186523,2.203553,-8.550371,4.816317,-0.235118,1.191266,0.505099,0.02417,0.365723,-0.447021,1.379716,-9.054388,4.582656,-0.140453,-0.274425,0.312232,0.02124,0.413086,-0.419189,-0.071522,-7.282817,8.095827,-1.546209,-1.550061,-0.196139,-0.080566,0.286865,-0.484619
3.81618,-6.636554,5.937626,0.159164,-0.302276,-0.004628,-0.107422,0.503662,-0.289062,-3.918407,6.269589,5.298719,-0.165623,-0.125332,-0.176513,0.305908,-0.389893,-0.184082,1.753869,-8.491009,5.111096,0.172325,1.150764,0.35327,0.044678,0.348877,-0.449219,1.0473,-9.723403,4.517141,0.03333,-0.483925,0.223478,0.022461,0.401855,-0.422119,0.308653,-10.003002,7.165466,-0.591265,-1.403138,-0.066436,-0.099365,0.281494,-0.474854
3.82715,-6.857969,5.921143,-0.565917,-0.340348,-0.065861,-0.110596,0.514893,-0.28125,-4.025396,6.573327,5.980227,0.043748,-0.108302,-0.084123,0.306641,-0.386963,-0.194336,1.856978,-7.431338,5.274427,0.098877,1.225373,0.324568,0.060791,0.351807,-0.446777,1.627496,-8.553019,4.376123,0.258806,-0.460509,0.014815,0.020508,0.401367,-0.419434,0.486361,-7.788334,7.282105,1.046732,-1.424575,-0.474112,-0.120117,0.268799,-0.475342
4.112678,-9.515476,5.304486,-0.329354,-0.054169,-0.066527,-0.109375,0.528809,-0.292725,-3.462697,7.069111,6.323287,-0.020656,-0.031672,0.0028,0.306396,-0.384766,-0.188721,2.348688,-8.038528,5.002781,-0.291671,1.314509,0.34513,0.07959,0.364258,-0.451416,0.971583,-8.623084,4.689982,-0.178249,-0.613749,0.177721,0.018066,0.408203,-0.431396,0.893843,-5.098369,7.791153,0.288307,-1.4554,-0.120987,-0.137939,0.277832,-0.482178
4.367433,-7.809824,6.058148,0.52474,-0.049698,-0.032093,-0.116211,0.524658,-0.29126,-3.951941,6.772727,6.301369,-0.002122,0.210861,0.174488,0.308594,-0.393555,-0.195068,2.009669,-9.19731,4.665596,-0.065992,1.750461,0.385669,0.094482,0.364746,-0.442139,0.751514,-9.622143,4.360868,0.066101,-0.988062,-0.11799,-0.003662,0.408936,-0.429688,0.571988,-6.674025,7.088217,-0.975862,-1.634309,-0.0393,-0.171387,0.28833,-0.458008
4.064316,-6.60154,6.104576,-0.310989,0.248314,-0.027445,-0.118896,0.525879,-0.290039,-4.473707,7.225761,5.672779,0.240695,0.019536,0.235442,0.304932,-0.394775,-0.188965,0.832506,-8.928216,5.515405,0.486286,1.822413,0.351046,0.115479,0.354492,-0.4375,0.57243,-8.933889,5.131468,0.489246,-1.331917,-0.158194,-0.020508,0.398438,-0.430176,1.708842,-8.583467,6.196183,-0.463757,-2.095215,-0.240951,-0.196533,0.290283,-0.439209
5.191212,-8.684834,5.061927,-0.140919,0.133578,0.003106,-0.110107,0.523682,-0.297119,-2.95137,7.419665,6.044408,-0.083152,0.018702,0.318114,0.30542,-0.396973,-0.185547,0.678981,-7.621848,4.952424,0.346231,1.910674,0.297035,0.146973,0.342773,-0.443359,1.558622,-8.347696,5.035994,0.043324,-1.579896,-0.252769,-0.032471,0.385742,-0.433838,3.189565,-7.965109,6.509451,0.377947,-2.155742,-0.23091,-0.218506,0.274902,-0.431885
4.529091,-7.404904,5.11037,0.314425,0.596642,0.131114,-0.10083,0.526123,-0.296631,-2.801292,6.224332,4.95764,-0.271928,0.116035,0.272441,0.308838,-0.402588,-0.192871,-0.207723,-7.184285,5.052337,0.131064,1.803375,0.262929,0.170654,0.344482,-0.425781,1.729562,-8.832979,4.419628,0.050382,-1.541218,-0.16779,-0.047607,0.388916,-0.421143,3.589887,-6.891751,6.657396,0.113147,-2.035092,-0.246185,-0.241455,0.276123,-0.40625
3.52065,-6.793537,5.224995,0.014994,0.5059,0.241147,-0.104004,0.526123,-0.305908,-3.371652,5.904755,5.481473,0.02226,0.239226,0.289879,0.300781,-0.39917,-0.188232,-0.177181,-7.101938,5.164345,-0.12956,1.860326,0.145963,0.183105,0.34082,-0.418701,1.581119,-8.647038,5.355032,-0.094069,-1.47355,-0.390862,-0.078125,0.387939,-0.421143,3.475584,-7.184977,7.407342,-0.225894,-2.081636,-0.046884,-0.274414,0.276855,-0.389404
4.537777,-7.14634,5.457072,-0.129962,0.604275,0.155079,-0.089844,0.535156,-0.318115,-3.727456,6.589773,5.578677,0.076725,0.193909,0.216328,0.297119,-0.409912,-0.184326,-2.405958,-7.713013,5.304808,-0.30706,1.786285,0.063659,0.209473,0.350342,-0.417969,2.385151,-8.20091,5.359581,-0.201286,-1.823944,-0.308831,-0.094238,0.392334,-0.42041,4.783234,-7.654518,7.091343,-0.163265,-2.102257,-0.082468,-0.291504,0.281982,-0.378662
3.591026,-8.139489,4.606397,0.053664,0.672821,0.309241,-0.087158,0.5354,-0.320557,-3.777833,6.523493,5.496945,-0.284198,0.255867,0.096481,0.301514,-0.411865,-0.191406,-1.814548,-8.184421,5.08802,-0.282805,1.207706,-0.056652,0.21582,0.347656,-0.400146,4.164202,-8.409593,4.773946,-0.486903,-1.380359,-0.28256,-0.116943,0.391602,-0.406738,5.126384,-7.583131,6.056742,0.121045,-1.677755,0.014301,-0.314941,0.274658,-0.360107
3.320518,-6.330558,4.029983,0.600743,0.5854,0.256734,-0.076416,0.523438,-0.328369,-4.142383,5.659887,5.545464,-0.163466,0.12013,0.011418,0.302979,-0.407471,-0.193115,-1.538124,-8.68563,5.137637,-0.332324,1.203058,-0.092927,0.230713,0.343506,-0.383789,3.38756,-9.584179,4.672247,-0.611086,-1.171944,-0.154031,-0.126221,0.389648,-0.386475,5.06294,-6.853872,6.887638,0.575307,-1.432393,-0.059072,-0.324951,0.260498,-0.3479
3.222393,-6.545939,4.575809,-0.116291,0.287538,0.222957,-0.072021,0.541504,-0.336426,-3.446376,5.997503,5.858726,0.19843,0.079886,-0.089188,0.306885,-0.404297,-0.189209,-2.229904,-9.10085,5.132153,-0.034971,0.8506,-0.162189,0.233887,0.360352,-0.385986,5.220497,-10.127001,4.522663,-0.222352,-1.347189,-0.45387,-0.148682,0.402344,-0.388184,5.895467,-6.2586,7.298819,0.323961,-0.914782,0.079131,-0.330811,0.272705,-0.346436
3.454858,-8.428283,5.247334,0.140526,0.349755,0.228448,-0.069092,0.538086,-0.343018,-4.239407,6.8129,6.492683,-0.038415,0.152661,-0.228057,0.306152,-0.4104,-0.186279,-2.29647,-8.15925,5.27987,0.046442,0.512611,-0.384255,0.233887,0.354248,-0.387207,5.649787,-8.59782,4.821652,-0.140016,-0.735906,-0.31152,-0.161621,0.395508,-0.384033,5.046653,-6.597173,7.065694,-0.01435,-0.081843,0.157159,-0.334473,0.269287,-0.35083
3.558051,-7.65297,5.980105,0.351009,0.342268,0.159502,-0.072754,0.531494,-0.35083,-3.566921,5.75283,5.898642,-0.38508,0.055574,-0.370001,0.314941,-0.400635,-0.196289,-2.265461,-7.820963,5.320907,-0.297211,0.060862,-0.398288,0.222656,0.361084,-0.383789,5.054653,-8.285141,4.565386,-0.626633,-0.842292,-0.19699,-0.180908,0.395752,-0.378174,3.705197,-7.297413,6.569203,0.018126,-0.234742,0.084866,-0.346191,0.27002,-0.348389
3.183741,-7.355687,6.079359,0.338872,0.590782,0.259352,-0.050293,0.523193,-0.352295,-3.623511,5.091913,5.533519,0.095395,0.245451,-0.445839,0.323242,-0.395508,-0.190186,-1.334996,-8.341107,5.081636,-0.301892,-0.249348,-0.510777,0.229248,0.354492,-0.374756,5.999513,-9.015095,3.685282,-0.622267,-0.673028,-0.162612,-0.177979,0.394043,-0.360107,4.344945,-7.179731,6.556437,0.587513,-0.536884,-0.014233,-0.333496,0.257568,-0.343994
3.141072,-6.984069,6.198986,0.289752,0.645907,0.210986,-0.041992,0.5271,-0.35791,-4.283938,6.324928,5.907714,0.234137,0.18529,-0.53471,0.330078,-0.389893,-0.190186,-1.829275,-8.243412,5.104797,-0.177808,-0.381631,-0.569442,0.215332,0.364502,-0.371094,5.094328,-8.714439,3.738426,-0.489386,-0.250711,-0.249648,-0.186768,0.405029,-0.349609,4.713435,-6.229412,6.687249,0.532448,-0.245449,-0.043677,-0.339355,0.256592,-0.347168
3.359735,-7.7309,6.551443,0.043001,0.776637,0.241362,-0.027588,0.532227,-0.370361,-3.944106,6.397221,6.026824,-0.142227,0.214297,-0.581768,0.328857,-0.390381,-0.190186,-1.401807,-7.994567,5.112981,-0.31906,-0.795211,-0.684644,0.20752,0.374512,-0.381592,4.717938,-8.273601,3.853122,-0.584431,-0.42796,-0.140275,-0.187744,0.410156,-0.345703,4.26741,-6.117274,6.174247,0.122166,-0.419266,0.082739,-0.339355,0.260254,-0.351074
2.530065,-8.392121,6.549182,0.420787,1.022888,0.295796,-0.014648,0.526123,-0.379639,-5.089143,5.492067,5.976143,-0.109134,0.289945,-0.626569,0.341309,-0.379883,-0.185303,-1.206546,-8.723401,5.153795,-0.579467,-0.840652,-0.603664,0.190674,0.376953,-0.373535,5.498895,-8.614188,3.208411,-0.81351,-0.209925,-0.078135,-0.194824,0.41748,-0.330566,4.299304,-7.17629,6.059444,-0.15887,-0.556794,-0.006028,-0.345947,0.260498,-0.340088
2.240271,-6.857592,6.439169,0.52029,0.997806,0.348431,-0.009766,0.523926,-0.392578,-5.299145,6.057098,5.671031,0.283119,0.093412,-0.622086,0.338135,-0.374756,-0.172852,-0.747258,-9.591544,5.005866,-0.426378,-1.200564,-0.652772,0.161865,0.384521,-0.375244,4.519487,-8.985902,2.676005,-0.508841,0.165757,-0.019374,-0.204834,0.424316,-0.324707,4.24465,-8.247435,6.009387,0.044393,-0.775275,0.085392,-0.364502,0.263184,-0.338379
2.525964,-7.22478,6.283941,0.196944,1.054408,0.457971,0.011475,0.519287,-0.398438,-4.441962,6.852048,6.01274,-0.030641,-0.07634,-0.529769,0.351074,-0.373535,-0.173096,0.799159,-8.935386,4.945643,-0.041534,-1.163438,-0.567347,0.147461,0.382324,-0.379395,4.86122,-7.84509,2.845129,-0.276885,-0.012785,-0.118964,-0.202637,0.417725,-0.320312,5.211941,-8.039299,5.910321,0.646403,-0.890159,0.002534,-0.36792,0.251709,-0.333496
2.593088,-8.083574,6.470119,0.259408,1.172124,0.45787,0.03833,0.525879,-0.413818,-4.747491,6.407935,6.190325,-0.172685,0.081468,-0.496268,0.353271,-0.358398,-0.177979,-0.081348,-7.887863,5.326957,-0.330358,-1.139771,-0.537011,0.138184,0.39502,-0.381348,5.379458,-7.625332,2.930146,-0.712928,0.351856,0.243237,-0.19165,0.435303,-0.315186,5.988113,-6.706645,6.207485,0.929431,-0.633025,0.069938,-0.366699,0.247803,-0.338623
1.466762,-7.961551,6.736623,0.573539,1.194779,0.520383,0.051514,0.5271,-0.43042,-5.493466,6.070942,5.600383,-0.161192,0.027822,-0.473524,0.349854,-0.364014,-0.178955,0.035466,-8.642494,4.941182,-0.832915,-1.3764,-0.47334,0.117188,0.408691,-0.383545,3.960923,-9.017041,2.876194,-0.805755,0.520889,0.286525,-0.192627,0.44873,-0.311768,4.964979,-5.973358,6.134336,0.548324,-0.338716,-0.061625,-0.375244,0.249268,-0.350098
1.4696,-6.873088,6.598001,0.670697,1.269968,0.607041,0.07373,0.515869,-0.441895,-5.596067,5.563929,5.6241,-0.206849,-0.078914,-0.459234,0.370117,-0.355957,-0.178467,0.011236,-10.09909,4.52979,-0.495546,-1.440902,-0.388891,0.099121,0.410645,-0.380615,4.537107,-9.3934,2.141983,-0.31465,0.522676,0.149879,-0.186768,0.449707,-0.3125,4.565804,-6.941831,5.897563,0.117784,-0.72048,0.130922,-0.381592,0.243896,-0.345459
1.213613,-6.837061,6.785999,0.458083,1.106896,0.604704,0.095459,0.518555,-0.439453,-5.319264,5.752036,5.751039,0.133805,-0.193105,-0.457024,0.368408,-0.348877,-0.181885,0.332579,-8.954373,4.361542,0.147271,-1.658303,-0.517376,0.081055,0.411621,-0.373779,4.251679,-7.946787,1.970913,-0.118612,1.229478,0.143219,-0.175293,0.458252,-0.302979,5.820676,-7.652673,5.851468,0.661887,-0.84323,0.005187,-0.386963,0.245117,-0.331299
1.347966,-7.371929,6.912576,0.582916,1.315082,0.682677,0.119141,0.502686,-0.461182,-5.084193,6.655941,5.855517,-0.062972,-0.152318,-0.45635,0.374512,-0.337646,-0.19043,1.728968,-7.676795,4.378305,-0.526295,-1.796957,-0.358062,0.057129,0.412109,-0.383301,3.20977,-8.098634,0.899803,-0.840019,1.308458,0.415468,-0.161133,0.462646,-0.312744,6.2163,-6.440689,5.355503,1.297564,-0.291191,-0.131563,-0.391846,0.225586,-0.355713
0.572492,-6.954719,6.938581,0.76559,1.270958,0.731914,0.143555,0.501709,-0.460693,-5.55761,5.774657,5.657325,-0.276869,-0.234661,-0.293321,0.37793,-0.333496,-0.188965,2.630795,-9.834667,3.40179,-0.782629,-1.510765,-0.282052,0.040283,0.425537,-0.366943,3.081614,-10.118296,0.6042,-0.315919,1.770563,0.405393,-0.144287,0.473145,-0.30249,4.924722,-5.357014,6.259574,1.106293,-0.400361,-0.032588,-0.395508,0.218262,-0.349365
-0.042866,-6.507899,6.942477,0.871507,1.335385,0.767318,0.184814,0.487061,-0.468994,-5.525156,5.645907,5.755986,0.056891,-0.316335,-0.271459,0.377686,-0.330078,-0.189453,2.075298,-9.960969,3.075383,0.135001,-1.333221,-0.264688,0.041504,0.424561,-0.367188,0.961799,-7.944395,1.908555,0.372169,1.707634,0.087055,-0.111084,0.470947,-0.312988,5.779952,-5.296318,7.258021,0.825504,-0.615401,-0.1793,-0.386475,0.208252,-0.352783
-0.479434,-6.004054,7.991471,0.711948,1.271875,0.735249,0.196533,0.469971,-0.483887,-5.482925,5.837018,5.946374,0.046173,-0.290529,-0.125859,0.365479,-0.330322,-0.189209,2.896871,-8.243227,3.360514,0.409992,-1.182512,-0.177107,0.011963,0.411377,-0.379639,1.750211,-7.232089,2.284257,-0.021224,0.989642,0.323248,-0.112793,0.463135,-0.32373,6.420825,-5.916578,7.019402,0.488073,-0.11227,-0.032705,-0.39917,0.193604,-0.362549
-0.778394,-6.315896,8.154236,0.416715,1.520588,0.769201,0.225342,0.45874,-0.482178,-5.647964,6.048782,5.975367,-0.034508,-0.244133,-0.070665,0.376709,-0.330078,-0.195557,2.372729,-7.531079,3.86574,0.031621,-0.824605,0.081902,0.006836,0.404053,-0.376221,2.343466,-7.675873,1.800676,0.128628,1.071232,0.260591,-0.101562,0.45752,-0.32251,5.538055,-6.674643,6.282719,0.582612,-0.148542,0.064876,-0.401367,0.179688,-0.363281
-1.670617,-6.09076,8.044363,0.425341,1.468463,0.775089,0.249268,0.4646,-0.486328,-6.237215,6.117548,6.156615,-0.281968,-0.168646,0.024912,0.368408,-0.32959,-0.199951,1.990904,-8.497954,4.033365,-0.437939,-0.74258,0.162909,-0.000977,0.424072,-0.369385,1.735927,-7.034868,1.978963,-0.005909,1.043326,0.430787,-0.088135,0.477295,-0.323975,5.632154,-5.980484,6.451785,1.073433,-0.418857,-0.068037,-0.410156,0.185791,-0.368164
-1.695151,-5.771905,7.347862,0.220932,1.521482,0.786922,0.279053,0.465088,-0.485352,-5.679421,5.538555,5.939647,-0.426642,-0.296715,0.030668,0.363037,-0.341797,-0.198975,1.765097,-9.546456,3.749344,-0.088316,-0.631,0.241414,-0.003906,0.42749,-0.366455,2.628425,-8.307479,1.6734,-0.329523,1.00569,0.595718,-0.071777,0.480713,-0.317627,5.751455,-4.931451,6.700528,0.673797,-0.205794,0.040644,-0.412109,0.18042,-0.371826
-1.694238,-5.950095,7.599574,0.106834,1.462495,0.821404,0.308594,0.448242,-0.491455,-5.319886,5.260546,6.102192,-0.292745,-0.150417,0.08351,0.364502,-0.332764,-0.206299,2.059199,-8.886683,3.524693,0.11667,-0.730525,0.199176,-0.00708,0.411621,-0.372559,2.694821,-8.850278,1.057717,0.204361,1.703671,0.624028,-0.045166,0.465576,-0.329102,5.644639,-5.897269,6.257306,-0.020481,-0.368848,0.372971,-0.410156,0.170898,-0.375244
-2.176243,-5.935507,7.656369,0.137326,1.613219,0.884031,0.335449,0.453125,-0.486816,-5.804543,5.576035,6.408153,-0.262274,-0.344217,0.105147,0.36377,-0.31958,-0.207275,2.214742,-9.229657,3.184914,-0.083778,-0.530262,0.424534,-0.012939,0.422119,-0.372314,0.799842,-8.387996,2.193901,0.100645,1.843475,0.685027,-0.026367,0.478271,-0.332764,6.534287,-6.403334,5.94218,0.728407,-0.50201,0.195111,-0.419922,0.17749,-0.378418
-3.323542,-5.187876,7.033898,0.104867,1.597691,0.787855,0.366699,0.45459,-0.486572,-5.293093,5.850325,6.588977,-0.263853,-0.136713,0.071007,0.357178,-0.328857,-0.219238,1.692068,-9.306926,3.143113,0.226516,-0.451298,0.294332,-0.008301,0.427734,-0.376221,0.458516,-9.107301,2.114838,0.014353,1.51269,0.776593,0.005127,0.483643,-0.335693,5.830393,-4.484067,6.953644,1.313629,0.292668,0.051206,-0.411621,0.165283,-0.394775
-3.423458,-4.876318,6.952687,-0.258898,1.284141,0.693516,0.388916,0.44043,-0.481934,-6.136983,6.242882,6.200902,-0.417822,-0.22204,0.05235,0.354736,-0.321533,-0.224854,2.428374,-8.074295,3.421724,0.116847,-0.250134,0.33252,-0.009277,0.41333,-0.37915,0.549982,-9.142186,2.535853,-0.013546,1.381941,0.585135,0.024902,0.473877,-0.340332,3.934898,-3.511288,7.375174,0.264318,0.125018,0.476126,-0.411377,0.155029,-0.404541
-3.359267,-6.090781,6.965507,-0.355722,1.28884,0.704012,0.421143,0.453613,-0.470947,-5.007197,5.725901,6.059743,-0.66804,-0.189048,0.007103,0.355957,-0.32666,-0.230469,1.787445,-8.119218,3.614664,-0.389122,0.033626,0.417044,0.007812,0.425049,-0.372559,0.407472,-8.748956,2.951184,-0.15181,1.169349,0.600625,0.053467,0.479736,-0.330322,5.744445,-5.001762,6.23928,-0.360047,-0.404705,0.5092,-0.402588,0.172607,-0.397949
-4.14379,-6.123204,6.55625,0.066604,1.218919,0.771574,0.435791,0.442627,-0.468018,-5.94317,4.803262,6.129157,-0.459712,-0.077219,0.042141,0.355469,-0.319336,-0.233643,1.777,-9.747102,3.291399,-0.477415,0.023885,0.390547,0.000244,0.422607,-0.366211,0.283776,-9.907496,2.704168,-0.415368,1.021743,0.597109,0.063721,0.479736,-0.323486,6.074881,-5.747676,6.169435,0.617506,0.571274,0.285971,-0.404053,0.164062,-0.414551
-4.672504,-5.715716,6.463445,0.085617,1.0344,0.752053,0.460205,0.441895,-0.463379,-5.267027,5.406985,6.578162,0.016204,-0.178103,-0.049691,0.35791,-0.318848,-0.234863,1.977168,-9.878946,2.975397,0.275446,0.325025,0.307539,0.013428,0.428955,-0.372314,-0.143935,-10.192719,2.782117,0.270743,0.764367,0.418006,0.080566,0.480957,-0.329834,3.180044,-4.554673,6.239803,1.08603,0.659262,0.0508,-0.390869,0.156738,-0.432129
-4.620339,-5.49736,6.548309,0.066977,0.978236,0.758012,0.489258,0.434082,-0.45166,-5.493738,6.191471,6.789457,-0.263695,0.029212,0.003274,0.352051,-0.313721,-0.240234,1.661962,-8.274425,3.525047,0.229791,0.443743,0.295799,0.029541,0.42334,-0.362793,0.252576,-8.548002,3.36945,0.175407,0.474465,0.321646,0.098877,0.476318,-0.32251,4.140862,-4.489152,6.316666,0.07056,-0.33606,0.295893,-0.388916,0.155029,-0.423828
-4.952269,-4.905084,6.496923,-0.085002,0.888079,0.833858,0.499023,0.429932,-0.445068,-5.666029,5.437386,6.74241,-0.712995,-0.235569,0.020162,0.349365,-0.314941,-0.245117,1.846131,-8.102467,3.333534,-0.532215,0.559509,0.405362,0.029053,0.42749,-0.35791,-0.018095,-8.758253,3.373962,-0.503579,0.252949,0.466784,0.098389,0.483887,-0.314697,5.729198,-6.701494,5.927392,-0.400672,0.002232,0.561368,-0.391113,0.16626,-0.42334
-4.613053,-5.329792,6.241358,-0.422315,0.91433,0.795022,0.518066,0.430664,-0.440186,-4.203742,5.096644,6.750132,-0.516636,-0.138763,0.025184,0.357666,-0.317871,-0.262695,1.737356,-9.538928,3.00023,-0.731282,0.690506,0.473707,0.040527,0.435059,-0.351562,0.325136,-10.004422,2.855724,-0.606951,-0.06559,0.319679,0.103516,0.489502,-0.307373,4.322197,-7.326565,6.052813,0.982568,0.276608,0.505677,-0.387695,0.161377,-0.438477
-5.648376,-5.855571,5.647084,-0.204942,0.868411,0.829426,0.536133,0.420898,-0.435059,-5.564485,5.36575,6.708769,-0.580444,0.044748,0.088158,0.36084,-0.313965,-0.257324,1.480133,-9.663494,3.114904,-0.329864,0.80993,0.348714,0.053711,0.436035,-0.34668,0.113545,-9.897579,2.667086,-0.329148,-0.03264,0.226649,0.108154,0.482422,-0.303223,4.515625,-4.064044,7.436496,1.950512,-0.000795,0.158941,-0.384277,0.133545,-0.452637
-5.590395,-5.629556,5.708369,-0.11883,0.699222,0.90079,0.550049,0.42041,-0.430908,-5.38915,4.616274,6.559615,-0.564477,-0.205249,0.108239,0.358643,-0.305664,-0.269775,1.297939,-9.327365,3.090093,-0.277801,0.997779,0.414696,0.064941,0.439941,-0.343018,-0.701988,-9.706595,2.799854,-0.285336,-0.353852,0.206104,0.106689,0.489258,-0.30249,4.69997,-2.626158,7.554812,0.55305,0.36578,0.348092,-0.380615,0.133057,-0.463623
-5.344773,-5.232467,5.168201,0.108436,0.672886,0.994461,0.571045,0.399414,-0.42041,-4.599405,4.812824,6.832254,-0.304353,-0.130844,0.152884,0.357666,-0.303467,-0.270508,0.956064,-9.299739,2.80154,-0.214676,1.081815,0.383516,0.087158,0.429932,-0.335205,-0.065958,-9.405579,2.741201,-0.207467,-0.726847,0.125899,0.112061,0.482178,-0.297119,3.626024,-5.316277,6.746328,-0.486249,0.326003,0.597737,-0.365234,0.135254,-0.460205
-6.367741,-3.978612,5.305218,-0.061147,0.717999,0.990134,0.584473,0.39502,-0.416016,-4.798799,4.88076,6.970351,-0.548479,-0.054882,0.253485,0.345947,-0.309814,-0.283691,1.315035,-8.642991,3.105215,-0.269897,1.183753,0.36007,0.095703,0.437744,-0.331055,-0.003513,-9.245519,2.45751,-0.451773,-0.678362,0.14854,0.106445,0.488037,-0.291504,3.686509,-7.268339,6.499403,0.528252,0.222782,0.415528,-0.363037,0.131836,-0.468262
-6.879228,-4.642768,5.734195,-0.62068,0.545353,0.92725,0.593018,0.406982,-0.405029,-4.952189,4.97127,7.361649,-0.392495,-0.04917,0.360296,0.348145,-0.307373,-0.289551,0.956697,-8.941643,2.922803,-0.617183,1.490288,0.406205,0.111084,0.451172,-0.313477,-1.09771,-10.149143,2.374349,-0.561708,-0.977862,0.094099,0.095215,0.504883,-0.28125,3.69631,-6.068753,6.994813,1.42237,0.259592,0.580684,-0.361816,0.131836,-0.477539
-6.274166,-5.874171,4.916969,-0.523122,0.486857,0.941444,0.609619,0.391357,-0.403809,-4.606143,5.737559,7.580882,-0.631682,0.031727,0.387515,0.345703,-0.303711,-0.289795,0.643958,-9.915281,2.587414,-0.728735,1.569296,0.398725,0.13208,0.447754,-0.304688,-0.637267,-9.843453,2.374961,-0.340838,-1.429268,-0.05877,0.087891,0.494873,-0.284424,4.184036,-4.281087,6.935123,1.157549,0.032566,0.631451,-0.355225,0.109619,-0.489502
-5.582539,-5.082875,4.048875,-0.173042,0.426688,1.100225,0.619141,0.381592,-0.400146,-4.797572,3.906434,6.826278,-1.098281,-0.092783,0.601453,0.334717,-0.307861,-0.308594,0.888247,-10.716984,2.517949,-0.519195,1.741431,0.455262,0.1521,0.445801,-0.295898,0.008426,-9.766643,2.200467,-0.533241,-1.555737,0.067952,0.075928,0.496094,-0.283936,3.575799,-4.184176,6.697643,0.755281,0.506949,0.636726,-0.345215,0.102539,-0.499268
-6.481988,-4.703413,4.649056,-0.280751,0.433971,1.180225,0.623291,0.377197,-0.399658,-3.954377,2.979066,7.168617,-0.038623,-0.322085,0.643794,0.331055,-0.309814,-0.30957,-0.16245,-10.843216,2.416063,0.064171,1.842054,0.449015,0.158691,0.450195,-0.294434,0.181444,-11.489609,1.565884,-0.325528,-1.540755,0.036863,0.058838,0.501221,-0.283447,2.194315,-4.880508,6.69086,0.773971,0.310909,0.534637,-0.346191,0.101318,-0.511475
-6.247701,-5.087149,4.608617,-0.234399,0.258224,1.131647,0.640381,0.365723,-0.385498,-3.641776,5.409306,7.70399,0.276657,-0.066286,0.689373,0.325684,-0.31543,-0.314453,-0.087438,-9.509833,2.760921,0.359984,1.703747,0.32531,0.182373,0.444336,-0.278564,0.515928,-10.993532,1.533727,0.457201,-1.363533,-0.281176,0.05127,0.495361,-0.28125,4.246601,-5.094053,7.729745,0.959697,-0.260946,0.547416,-0.341309,0.088623,-0.500732
-6.014127,-4.139387,4.800061,-0.101794,0.335815,1.225626,0.650146,0.353271,-0.390137,-4.196292,4.97909,7.401114,-0.486103,-0.395537,0.861455,0.323486,-0.317139,-0.311768,-0.190771,-9.223895,2.61439,0.021762,1.842892,0.42951,0.200684,0.444336,-0.279541,0.266257,-9.149351,2.610854,0.278554,-1.257344,-0.243856,0.038574,0.494629,-0.294434,5.485641,-4.60232,8.526473,1.36908,0.636922,0.523759,-0.332764,0.07251,-0.521729
-6.049004,-4.266157,4.229565,-0.279005,0.152264,1.086438,0.653076,0.342285,-0.384766,-2.266004,4.197489,7.00136,0.077581,-0.336161,0.691528,0.305176,-0.33374,-0.315186,-0.690884,-9.806147,2.58109,0.031569,1.733245,0.32564,0.215576,0.44043,-0.272461,1.219195,-9.943723,2.471198,-0.196144,-1.595763,-0.142506,0.026367,0.49292,-0.294678,3.539944,-2.950147,9.472532,1.89253,1.453151,0.377134,-0.310059,0.047852,-0.536377
-6.189947,-4.008328,3.566036,0.101546,0.009503,1.047256,0.659912,0.328857,-0.385498,-3.64801,5.178446,7.410802,0.208586,-0.32286,0.727541,0.300781,-0.332275,-0.319092,-0.805943,-9.634228,2.777084,0.287974,1.577278,0.293976,0.231689,0.439209,-0.269775,2.561963,-10.802302,2.106649,0.130221,-1.177738,-0.25662,0.012939,0.490723,-0.298828,2.928473,-1.205382,10.111043,1.564973,1.591374,0.257989,-0.282227,0.025146,-0.558594
-7.263645,-3.209848,3.687856,0.068024,-0.154408,0.910965,0.65918,0.316162,-0.381104,-2.393425,4.471606,7.503597,-0.024396,-0.526152,0.601577,0.294434,-0.342773,-0.324219,-1.039435,-9.521883,2.923792,0.246736,1.473592,0.213483,0.243164,0.439453,-0.256348,1.772697,-10.717278,2.381081,0.219096,-0.926567,-0.392629,-0.006104,0.488037,-0.296387,3.022843,-1.34708,9.849493,0.648643,2.356657,0.253179,-0.248535,0.012451,-0.574707
-7.89236,-2.26859,4.605562,0.2675,-0.476932,0.702259,0.647461,0.309814,-0.387695,-3.838735,4.498082,7.687012,0.696372,-0.228807,0.655478,0.282715,-0.343018,-0.314209,-1.887183,-10.242486,2.862114,0.330121,1.361755,0.210921,0.247314,0.439697,-0.253174,2.154591,-10.873912,2.357249,0.305148,-0.994572,-0.523926,-0.026123,0.48877,-0.301025,1.644453,-2.424495,8.593784,0.591245,2.7779,0.447276,-0.212891,0.010254,-0.597656
-7.737988,-2.211395,5.168456,-0.354594,-0.546973,0.455764,0.649658,0.307617,-0.393555,-3.372737,6.404224,8.290186,0.560616,-0.624378,0.402959,0.278564,-0.346924,-0.317383,-2.238635,-9.966395,2.886038,0.56909,1.073901,0.032931,0.266357,0.436523,-0.255615,3.212827,-9.926299,2.473836,0.442764,-0.668346,-0.562673,-0.031738,0.480713,-0.309814,1.824336,-1.512752,8.80965,1.250121,2.460588,0.311415,-0.161133,-0.011963,-0.616943
-7.94259,-4.288474,4.926649,-0.112667,-0.761851,0.285608,0.642334,0.298828,-0.398682,-2.419902,5.90815,8.37924,-0.314073,-0.391188,0.425651,0.267578,-0.359619,-0.324707,-1.505478,-8.755145,3.114693,0.241951,0.782524,-0.120898,0.265869,0.431641,-0.255371,2.872952,-9.124582,2.790241,-0.208193,-0.376642,-0.208524,-0.038086,0.473877,-0.302734,2.149249,0.362679,8.563823,1.109373,2.892488,0.03617,-0.117432,-0.037842,-0.632812
-7.99563,-2.048648,5.87616,0.375705,-0.604101,0.114522,0.634033,0.301514,-0.406982,-2.828372,4.330877,8.047864,-0.015209,-0.320327,0.28787,0.269043,-0.356445,-0.330566,-1.174763,-9.650895,2.825403,-0.374918,0.863178,-0.152257,0.271729,0.439697,-0.246094,1.872355,-11.502933,2.592724,-0.798333,-0.483973,-0.1051,-0.046143,0.487305,-0.294922,0.316015,0.920615,9.221473,0.161994,3.041548,0.12106,-0.059814,-0.032959,-0.647461
-7.794611,-2.611123,6.170829,-0.559884,-0.891473,-0.156957,0.615723,0.303711,-0.417969,-3.330386,5.393936,8.203063,0.44212,-0.219351,0.23452,0.263916,-0.364746,-0.325439,-2.563542,-11.360203,2.78834,0.038337,0.739038,-0.214999,0.266602,0.445801,-0.245361,2.567037,-12.631529,2.272127,-0.051849,-0.687931,-0.593548,-0.066406,0.482422,-0.298096,-0.119906,-0.275954,8.793236,-0.452788,2.423956,0.140204,-0.025879,-0.029297,-0.656006
-6.528801,-4.769887,5.949127,0.201671,-0.556023,-0.144343,0.614502,0.297363,-0.421387,-3.055603,4.810322,7.909122,-0.047098,-0.447427,0.258128,0.257568,-0.363281,-0.335205,-1.607176,-10.440531,2.80172,0.80774,0.362593,-0.44828,0.267578,0.439697,-0.256348,3.380546,-10.433115,2.44974,0.321203,-0.408512,-0.766042,-0.074951,0.473389,-0.298584,0.871823,-1.500537,8.388315,-0.194605,2.312637,-0.104952,0.019043,-0.031738,-0.659668
-7.449816,-1.52473,7.024213,0.486178,-0.40916,-0.204736,0.60376,0.301514,-0.420166,-2.599227,3.713289,7.489579,0.580768,-0.240744,0.240653,0.254639,-0.371338,-0.32251,-1.762059,-8.861722,3.4225,0.661139,0.51194,-0.413241,0.262207,0.447754,-0.255615,3.046084,-9.719475,2.865871,-0.234051,-0.445688,-0.733613,-0.098389,0.481934,-0.288574,-0.793101,-0.903258,9.257034,0.48499,2.633375,-0.230047,0.061279,-0.033691,-0.657959
