# sampling frequency: 40
# units are seconds/meters/radians/a.u.
seg1_acc_x,seg1_acc_y,seg1_acc_z,seg1_gyr_x,seg1_gyr_y,seg1_gyr_z,seg1_mag_x,seg1_mag_y,seg1_mag_z,seg2_acc_x,seg2_acc_y,seg2_acc_z,seg2_gyr_x,seg2_gyr_y,seg2_gyr_z,seg2_mag_x,seg2_mag_y,seg2_mag_z,seg3_acc_x,seg3_acc_y,seg3_acc_z,seg3_gyr_x,seg3_gyr_y,seg3_gyr_z,seg3_mag_x,seg3_mag_y,seg3_mag_z,seg4_acc_x,seg4_acc_y,seg4_acc_z,seg4_gyr_x,seg4_gyr_y,seg4_gyr_z,seg4_mag_x,seg4_mag_y,seg4_mag_z,seg5_acc_x,seg5_acc_y,seg5_acc_z,seg5_gyr_x,seg5_gyr_y,seg5_gyr_z,seg5_mag_x,seg5_mag_y,seg5_mag_z
0.524736,-0.904915,9.834621,0.008366,0.004071,0.002097,-0.084473,0.403809,-0.56958,-0.259901,3.207852,9.266914,0.024045,0.019202,0.005724,-0.653076,0.042236,-0.448975,-0.519933,3.725132,9.09643,0.012748,0.003529,-0.003403,-0.337891,0.527344,0.787109,-0.156048,3.634912,9.178164,0.008785,0.025874,0.012762,0.664795,-0.019531,-0.040283,-0.363837,3.12957,9.285385,0.004233,0.020713,-0.00671,0.363281,-0.17749,-0.570068
0.497759,-0.858422,9.786677,-0.000474,0.00491,-0.000968,-0.075928,0.400146,-0.574951,-0.327738,3.172051,9.283243,-0.04221,-0.003163,0.009385,-0.64502,0.036621,-0.451416,-0.663302,3.726308,9.11317,-0.020329,0.02316,0.000321,-0.33667,0.521729,0.788574,-0.293161,3.638577,9.191623,-0.010552,0.011465,0.010383,0.661621,-0.023682,-0.039795,-0.375772,3.110074,9.318726,-0.003174,-0.015254,-0.000312,0.364502,-0.179199,-0.571045
0.513281,-0.876687,9.759125,-0.00229,-0.001197,-0.000752,-0.077881,0.386719,-0.571777,-0.203643,3.098896,9.211038,0.001934,0.002436,0.006551,-0.647705,0.025391,-0.447266,-0.558476,3.71374,9.071154,0.010974,-0.02936,0.009781,-0.337402,0.530518,0.779541,-0.155374,3.626375,9.136774,-0.000826,-0.039717,0.007837,0.660156,-0.016357,-0.042236,-0.292315,3.157044,9.222826,0.019479,-0.010663,-0.00605,0.363281,-0.175537,-0.574951
0.51021,-0.909087,9.833546,-0.000672,0.00095,-0.000825,-0.085205,0.394775,-0.567139,-0.330617,3.234309,9.303985,0.009891,0.02163,0.006354,-0.655273,0.032959,-0.445557,-0.560282,3.747764,9.107346,-0.012479,0.039574,-0.009467,-0.334229,0.522705,0.783936,-0.108021,3.651124,9.171368,-0.011286,0.030936,0.010706,0.663086,-0.026123,-0.04541,-0.322364,3.147782,9.305661,-0.026472,0.018998,0.000113,0.366211,-0.182129,-0.574219
0.514615,-0.895179,9.806518,-0.000647,0.003868,-0.001374,-0.078613,0.399414,-0.565918,-0.254117,3.15161,9.280811,-0.046609,-0.013055,0.007834,-0.650879,0.039551,-0.442383,-0.715017,3.66284,9.098775,-0.011684,-0.015018,0.01054,-0.331543,0.522949,0.785156,-0.30974,3.604262,9.144018,-0.007305,0.023365,0.010392,0.668213,-0.021484,-0.043213,-0.413887,3.067994,9.303021,0.003515,-0.004328,-0.001072,0.369385,-0.180908,-0.574951
0.519423,-0.874282,9.74784,0.002113,0.002359,0.001694,-0.081787,0.401855,-0.566406,-0.239708,3.140968,9.235857,0.020821,0.019944,0.007054,-0.651367,0.038086,-0.443115,-0.462103,3.763103,9.067448,0.020749,-0.011601,-0.002048,-0.338379,0.526611,0.78418,-0.165252,3.649724,9.160809,0.011924,-0.056129,0.010654,0.661377,-0.019287,-0.043945,-0.279507,3.208768,9.2252,0.03276,-0.028397,-0.008625,0.362305,-0.179199,-0.570801
0.491667,-0.878607,9.821659,-0.000548,0.002618,-0.000737,-0.083496,0.397217,-0.562744,-0.350446,3.235512,9.299458,-0.013956,0.005896,0.007457,-0.653076,0.036377,-0.439697,-0.692503,3.729199,9.128478,-0.032657,0.053908,-0.004428,-0.334473,0.520264,0.785645,-0.081818,3.631925,9.177602,-0.028951,0.041418,0.007361,0.66333,-0.026611,-0.03833,-0.295033,3.12361,9.314965,-0.050185,0.033312,0.00567,0.364258,-0.18457,-0.56958
0.539397,-0.879343,9.777318,-0.000371,0.001456,-0.001679,-0.080566,0.401123,-0.569824,-0.206482,3.131582,9.228475,-0.027867,-0.005683,0.007524,-0.651367,0.04126,-0.446289,-0.636458,3.672844,9.070994,0.013461,-0.053802,0.014461,-0.334473,0.522949,0.786865,-0.345137,3.604296,9.140411,0.008134,0.024748,0.01471,0.664551,-0.021973,-0.041992,-0.486305,3.066034,9.275469,0.030571,-0.004727,-0.007877,0.367188,-0.180908,-0.570312
0.507092,-0.878668,9.80692,0.002389,-5.2e-05,0.001389,-0.08252,0.407959,-0.569824,-0.278845,3.185111,9.2697,0.016642,0.021493,0.007539,-0.652588,0.044189,-0.444336,-0.445667,3.806027,9.11325,0.003622,0.03608,-0.011425,-0.332031,0.52417,0.788574,-0.156136,3.685906,9.191747,0.002187,-0.064032,0.006118,0.668701,-0.022217,-0.036133,-0.209042,3.235241,9.247916,0.018413,-0.048413,-0.004026,0.369629,-0.182617,-0.567383
0.515101,-0.88161,9.803491,-0.002369,0.005175,-0.000592,-0.082031,0.397949,-0.567871,-0.294574,3.190518,9.285216,-0.029337,-0.003448,0.007793,-0.651123,0.035889,-0.445801,-0.77829,3.667934,9.129814,-0.033621,0.019943,0.006378,-0.337646,0.517578,0.783691,-0.0783,3.609826,9.150565,-0.032442,0.048189,0.006639,0.663574,-0.027832,-0.042236,-0.313784,3.087164,9.267787,-0.052428,0.062088,0.003373,0.366943,-0.185303,-0.56958
0.518807,-0.884609,9.763814,0.007822,0.004485,1.5e-05,-0.082275,0.401367,-0.57251,-0.239246,3.150412,9.24789,0.000927,0.009624,0.006674,-0.651855,0.04126,-0.453369,-0.497217,3.703255,9.091388,0.031115,-0.050659,0.008137,-0.337158,0.51001,0.786621,-0.354241,3.618836,9.150052,0.024584,0.022046,0.018453,0.660645,-0.036865,-0.037842,-0.533379,3.096333,9.288296,0.046628,-0.028135,-0.009597,0.36084,-0.194336,-0.570068
0.516834,-0.867636,9.800433,-0.005853,-0.002456,-0.000622,-0.080078,0.39917,-0.563965,-0.306444,3.202246,9.301415,-0.007674,0.008333,0.007157,-0.648193,0.036865,-0.438965,-0.557721,3.804254,9.114264,-0.016137,0.067529,-0.014003,-0.336914,0.525635,0.77832,-0.136794,3.697231,9.185824,-0.009167,-0.062348,0.002598,0.664307,-0.018799,-0.04541,-0.141523,3.226748,9.263911,-0.000199,-0.040089,0.000946,0.364502,-0.179199,-0.574219
0.533512,-0.899069,9.812337,-0.00381,0.001865,-0.001461,-0.072754,0.399902,-0.575195,-0.260253,3.133194,9.255716,-0.027403,-0.002547,0.008714,-0.643799,0.037109,-0.448242,-0.741566,3.651194,9.062999,-0.022638,-0.030986,0.01647,-0.334717,0.523682,0.789551,-0.080555,3.586061,9.144072,-0.03174,0.043879,0.009332,0.664062,-0.02124,-0.0354,-0.380281,3.067243,9.271622,-0.041528,0.073544,0.000274,0.364746,-0.181396,-0.567139
0.5204,-0.878729,9.792295,0.007121,0.004723,0.001086,-0.086426,0.401611,-0.569092,-0.255823,3.1726,9.261342,0.014827,0.01165,0.005807,-0.657959,0.040771,-0.44751,-0.430808,3.742404,9.088659,0.025593,-0.008913,-0.004416,-0.33252,0.525391,0.783447,-0.348209,3.634487,9.17327,0.02431,0.021744,0.015661,0.664795,-0.021973,-0.041016,-0.470533,3.108024,9.286663,0.040139,-0.05563,-0.007572,0.367188,-0.177002,-0.571777
0.497821,-0.879772,9.794656,-0.003287,0.00279,-0.001592,-0.073975,0.397461,-0.568115,-0.297984,3.201293,9.25398,-0.019878,0.004631,0.007133,-0.643066,0.034668,-0.445068,-0.69052,3.745705,9.128002,-0.020608,0.056772,-0.006357,-0.33252,0.518311,0.778809,-0.168376,3.677497,9.181176,-0.013676,-0.054341,0.002941,0.670166,-0.028076,-0.04834,-0.139295,3.199938,9.255121,-0.003363,-0.007135,-0.000702,0.369141,-0.187988,-0.574463
0.520404,-0.88457,9.800205,-0.002117,-0.000154,-0.000348,-0.086426,0.402588,-0.563965,-0.252708,3.132955,9.23915,-0.016176,0.005158,0.008381,-0.656982,0.040771,-0.442139,-0.623207,3.6939,9.081961,-0.003507,-0.053509,0.016354,-0.335693,0.524658,0.791748,-0.076246,3.60387,9.1395,-0.016686,0.031499,0.010242,0.662598,-0.023682,-0.036621,-0.465067,3.101736,9.266205,-0.023244,0.052578,-0.003524,0.364258,-0.182861,-0.563477
0.513687,-0.892374,9.819466,0.006899,0.004305,0.000363,-0.082275,0.395508,-0.571289,-0.277517,3.186671,9.274696,0.009495,0.010253,0.005594,-0.651855,0.033691,-0.449707,-0.469551,3.759478,9.091828,0.006264,0.034102,-0.008702,-0.338867,0.532471,0.793701,-0.302733,3.629541,9.185884,0.015918,0.025792,0.014906,0.660889,-0.015869,-0.031494,-0.376796,3.118448,9.296169,0.024961,-0.059914,-0.00431,0.363037,-0.175293,-0.562744
0.512458,-0.861894,9.792745,-0.00346,0.001746,-0.001998,-0.085938,0.402832,-0.572998,-0.283846,3.164952,9.266653,-0.03099,0.004593,0.009022,-0.656982,0.040039,-0.450439,-0.738128,3.698917,9.126723,-0.021036,0.013917,0.00204,-0.332031,0.52417,0.783936,-0.206586,3.655953,9.183687,-0.024001,-0.043997,0.003422,0.668945,-0.019775,-0.044434,-0.199651,3.161326,9.248112,-0.009628,0.01885,-0.002024,0.369141,-0.180664,-0.572266
0.507684,-0.887376,9.775325,0.000445,0.000837,0.001448,-0.083008,0.401123,-0.564941,-0.253235,3.146852,9.228306,0.005016,0.008107,0.006827,-0.650635,0.037842,-0.44043,-0.502379,3.718814,9.064878,0.012355,-0.037843,0.010351,-0.340576,0.517334,0.782959,-0.070525,3.60456,9.092483,0.001169,0.016665,0.009207,0.65625,-0.029541,-0.043945,-0.465645,3.115197,9.270602,-0.002619,0.021248,-0.004173,0.358887,-0.1875,-0.570801
0.500884,-0.87753,9.807341,0.00381,0.004596,4.4e-05,-0.08667,0.403809,-0.568115,-0.280037,3.212665,9.282014,-0.010027,0.008826,0.006734,-0.656738,0.04126,-0.445557,-0.578579,3.739992,9.106491,-0.012908,0.05228,-0.013852,-0.333984,0.516602,0.7771,-0.286495,3.667976,9.209546,0.00706,0.033888,0.015745,0.667969,-0.026367,-0.045166,-0.307051,3.12895,9.301,0.00921,-0.039851,-0.002225,0.367676,-0.187256,-0.577148
0.507666,-0.892959,9.783258,-0.007516,0.000275,-0.003635,-0.081299,0.395996,-0.563232,-0.267682,3.116172,9.261249,-0.027507,-0.000641,0.007962,-0.650635,0.036621,-0.442139,-0.697057,3.692991,9.102235,-0.008815,-0.026362,0.01376,-0.345947,0.535889,0.785156,-0.223206,3.629719,9.177642,-0.026099,-0.039858,0.001968,0.652344,-0.011475,-0.044189,-0.284819,3.136323,9.240826,-0.010309,0.021521,-0.001423,0.354736,-0.16748,-0.573486
0.52852,-0.89819,9.812688,0.006603,0.001594,-0.000129,-0.079102,0.405029,-0.574707,-0.26616,3.178778,9.241323,0.022979,0.011804,0.006591,-0.646729,0.043213,-0.450684,-0.47165,3.737928,9.057065,0.016023,-0.000514,-0.00427,-0.335449,0.529541,0.779297,-0.076671,3.608428,9.11532,0.00859,0.004963,0.011595,0.662354,-0.016357,-0.044189,-0.408507,3.131946,9.27549,0.011024,0.000925,-0.00509,0.364014,-0.175293,-0.573975
0.501716,-0.870474,9.835964,0.003011,0.006084,0.000478,-0.080566,0.398438,-0.56958,-0.301079,3.204739,9.299183,-0.032817,0.007519,0.008566,-0.649658,0.036133,-0.443848,-0.687668,3.732025,9.149681,-0.024795,0.04068,-0.004339,-0.336426,0.513428,0.783203,-0.266845,3.679526,9.190162,-0.000682,0.042111,0.016109,0.664062,-0.031982,-0.044189,-0.306528,3.158511,9.323287,-0.003218,-0.016004,-0.001605,0.365723,-0.188965,-0.572998
0.513384,-0.889342,9.772111,-0.004678,-0.001146,-0.002144,-0.087891,0.395752,-0.56543,-0.232307,3.102081,9.245755,-0.015241,0.000513,0.008122,-0.655518,0.036377,-0.446777,-0.585715,3.68412,9.058818,0.003496,-0.045764,0.015275,-0.331787,0.523682,0.786865,-0.232745,3.637613,9.131758,-0.021288,-0.040943,0.002927,0.665527,-0.023682,-0.04248,-0.327578,3.103388,9.244717,-0.003406,0.010693,-0.002666,0.366699,-0.183594,-0.572754
0.522687,-0.904907,9.808178,0.002068,0.000779,3e-05,-0.080811,0.402344,-0.560791,-0.281754,3.222025,9.272765,0.021,0.0173,0.00664,-0.650879,0.041748,-0.437988,-0.51262,3.754384,9.09707,0.001619,0.039271,-0.01137,-0.335938,0.526611,0.784424,-0.066894,3.603708,9.151024,0.001421,0.004454,0.010981,0.664795,-0.020264,-0.041992,-0.360565,3.131867,9.284738,0.007044,-0.00538,-0.004771,0.365479,-0.182129,-0.571777
0.513773,-0.877259,9.792777,0.000524,0.007386,-0.001549,-0.089111,0.404785,-0.572266,-0.285367,3.200308,9.28612,-0.036053,-0.00445,0.008554,-0.6604,0.043457,-0.44751,-0.724567,3.691261,9.109325,-0.011267,0.002182,0.005777,-0.342041,0.526855,0.784668,-0.266041,3.636913,9.168785,0.001117,0.040516,0.014245,0.657227,-0.020508,-0.040527,-0.331639,3.140804,9.286993,0.000659,-0.004344,-0.001686,0.359619,-0.177979,-0.571777
0.521602,-0.880589,9.789332,-0.003884,-0.000428,-0.001232,-0.081787,0.404785,-0.57251,-0.219709,3.121281,9.238051,-0.006911,0.011313,0.006533,-0.650879,0.041992,-0.450195,-0.476164,3.744544,9.087497,0.002577,-0.026113,0.006601,-0.330078,0.525879,0.781982,-0.226168,3.65319,9.168424,-0.00868,-0.040593,0.005098,0.669434,-0.021973,-0.044434,-0.339303,3.140229,9.266715,0.001105,-0.002242,-0.004851,0.368896,-0.182861,-0.574707
0.395507,-0.892351,9.73936,0.00415,0.024021,0.00071,-0.082031,0.402832,-0.570068,-0.387657,3.197065,9.276794,0.006402,0.033236,0.008473,-0.6521,0.039551,-0.447998,-0.694478,3.68609,9.144268,-0.02517,0.086174,-0.010019,-0.333008,0.526611,0.776855,-0.137107,3.663444,9.129744,0.020988,0.041719,0.012029,0.666748,-0.020752,-0.048828,-0.448054,3.056873,9.111074,-0.069527,0.042798,-0.010994,0.368164,-0.179688,-0.578125
0.643513,-1.072872,9.588622,-0.061679,-0.138265,0.005153,-0.086182,0.409668,-0.567139,0.009337,3.183879,9.052167,-0.018864,-0.07768,0.000275,-0.652832,0.047852,-0.447021,-0.491202,3.649552,8.969258,0.053432,-0.153999,0.026557,-0.332031,0.521484,0.783203,-0.143325,3.45129,9.209548,-0.074207,-0.055127,0.008776,0.66626,-0.023438,-0.044678,-0.081989,2.626555,9.471548,0.038693,-0.094746,-0.065964,0.36792,-0.181885,-0.575439
0.645508,-1.394009,10.172374,0.200742,0.09152,0.041978,-0.080322,0.401855,-0.576172,-0.60438,3.170776,9.615616,-0.014018,0.084975,0.030503,-0.649414,0.040527,-0.455566,-0.528289,3.945552,9.236739,-0.01241,0.166162,-0.041525,-0.327881,0.524902,0.785156,-0.276657,3.887012,9.010771,0.14661,0.057839,0.017448,0.67041,-0.022949,-0.041992,-0.846,4.05039,9.452374,0.375482,0.099477,-0.037249,0.372803,-0.188232,-0.567627
0.79254,-0.919252,10.07956,0.246739,-0.010511,0.065735,-0.086914,0.39209,-0.573242,0.044115,3.124725,9.035028,-0.019645,-0.024547,-0.03464,-0.655518,0.037598,-0.447021,-0.866165,3.691107,9.088764,-0.089075,-0.039214,0.036434,-0.339355,0.525391,0.791504,-0.237839,3.835699,9.248994,-0.161601,-0.04385,0.026469,0.65918,-0.020996,-0.037354,0.03756,3.457965,9.56376,-0.512636,-0.182597,0.058591,0.359619,-0.176025,-0.566162
-0.088761,-0.248044,9.480075,0.361844,0.181846,0.006203,-0.077637,0.381348,-0.584229,-0.554686,3.201014,9.359803,0.0275,0.051546,0.052547,-0.648926,0.029785,-0.460449,-0.314447,3.700133,8.951905,-0.064665,-0.036914,0.000465,-0.32959,0.530762,0.787598,-0.063004,3.522124,9.173595,-0.115508,-0.013424,-0.017538,0.665283,-0.013672,-0.039307,-0.498122,2.494307,8.781909,-0.024923,0.124522,0.024212,0.368164,-0.166748,-0.570068
0.779916,0.564847,10.105689,0.042901,-0.052551,-0.172231,-0.086182,0.385498,-0.571045,-0.160425,3.105278,9.710303,-0.08093,-0.066785,-0.030689,-0.659668,0.038818,-0.444336,-0.550627,3.616642,9.00197,-0.187206,0.098444,-0.022764,-0.337402,0.514893,0.786133,-0.317757,3.228675,8.658734,-0.141675,0.004762,0.059009,0.66333,-0.025635,-0.044189,-0.35071,2.793293,8.970286,0.00303,-0.183309,-0.033416,0.361572,-0.181152,-0.573486
0.395526,-0.184571,10.331638,-0.665774,0.119036,-0.05837,-0.078613,0.40332,-0.57373,-0.159441,2.363766,8.589558,-0.143162,0.128597,0.10661,-0.651367,0.04834,-0.449219,-0.886119,3.477997,9.70166,-0.026501,0.016144,0.007998,-0.338623,0.513184,0.789795,-0.125151,3.648827,10.063429,0.048332,-0.035749,-0.003805,0.665039,-0.026855,-0.042969,-0.094062,3.379226,9.654779,0.132881,0.021927,-0.044711,0.362061,-0.18335,-0.574707
0.949384,-0.58247,10.365199,-0.397714,0.219493,-0.401004,-0.078613,0.404541,-0.570801,-0.497489,3.339367,9.940129,0.290156,-0.112081,-0.048049,-0.654053,0.037842,-0.445312,-0.517138,3.050486,8.400617,0.131564,-0.056255,0.072716,-0.337158,0.519775,0.794189,-0.022701,3.455955,8.537586,0.033689,-0.058816,0.048741,0.663086,-0.02417,-0.038086,-0.196434,2.966382,9.073754,-0.090734,0.039169,0.019294,0.361572,-0.178223,-0.567871
0.195784,-1.017995,9.363502,-0.988998,0.147143,-0.034662,-0.065674,0.413818,-0.562988,0.319786,3.41932,8.910302,-0.096772,0.169166,0.113111,-0.641602,0.03418,-0.443848,-0.30501,4.500136,9.658266,0.121728,0.124347,-0.140889,-0.338623,0.525391,0.794434,-0.050844,3.79222,9.754769,0.206223,0.081447,-0.028642,0.666016,-0.020508,-0.039307,-0.455838,3.020259,9.526554,0.163869,0.092565,-0.036898,0.36499,-0.178467,-0.568604
0.271524,-1.655898,8.985033,-0.576759,0.131572,-0.291501,-0.068359,0.428955,-0.566406,-1.244411,3.088896,9.192003,-0.11637,-0.033526,0.024295,-0.645752,0.040527,-0.448486,-1.293336,3.473488,9.064013,0.004959,-0.091619,0.189341,-0.336182,0.521729,0.788574,-0.398689,3.620368,8.965194,-0.143503,0.066776,0.057961,0.661133,-0.025879,-0.037842,-0.170163,3.154213,9.150556,-0.164268,-0.114666,-0.050119,0.360352,-0.176025,-0.569092
0.004333,-1.710032,9.557872,-0.646554,-0.032382,-0.016492,-0.07666,0.431885,-0.559814,0.603588,3.482709,9.128786,0.220308,-0.060071,-0.000131,-0.655518,0.030273,-0.447021,-0.040953,3.770215,8.949836,0.027083,-0.143214,-0.096902,-0.341064,0.519043,0.786865,-0.167577,3.510274,9.100711,0.121354,-0.040677,-0.06808,0.656494,-0.026855,-0.041504,-0.534828,2.845365,9.241552,0.253131,0.177233,-0.038615,0.361084,-0.183105,-0.573242
0.991916,-2.297759,10.04079,-0.069674,0.043282,-0.050489,-0.078857,0.435547,-0.560791,-0.849664,3.890177,9.65182,-0.169475,0.156484,0.04894,-0.65625,0.033936,-0.447021,-0.513573,3.935995,8.984256,0.062022,0.227247,0.032648,-0.341553,0.523438,0.791504,-0.058142,3.922541,9.089845,0.102744,0.015689,0.084257,0.662598,-0.025879,-0.036865,-0.422676,3.97292,9.409044,0.10493,-0.110913,-0.060789,0.362305,-0.182861,-0.566406
0.088485,-1.301845,9.898584,-0.035136,0.147705,-0.244831,-0.067627,0.436279,-0.565186,0.069192,2.284418,9.253766,-0.3568,-0.155356,0.006536,-0.64502,0.040039,-0.447266,-1.144608,3.634287,9.327362,-0.106859,-0.160446,-0.015813,-0.334229,0.518555,0.792725,-0.335387,3.762189,9.184777,-0.157837,0.052099,-0.052597,0.666016,-0.025391,-0.038086,-0.119025,3.163699,9.42893,-0.332625,0.019922,0.106148,0.365967,-0.179443,-0.571289
0.189974,-2.57488,8.871302,-0.267206,0.057167,-0.00016,-0.076172,0.439453,-0.557373,-0.423597,2.068515,8.724627,0.249919,0.213097,0.161124,-0.654053,0.036865,-0.444824,0.106061,3.643404,8.863568,-0.035912,-0.000557,0.044777,-0.329346,0.520996,0.796143,-0.221683,3.319752,9.109369,-0.116783,-0.058307,0.051084,0.668457,-0.027588,-0.038086,-0.589269,2.449083,8.995575,-0.038644,0.039326,-0.070691,0.370361,-0.18042,-0.563965
0.473247,-2.649623,9.595829,0.578198,0.067007,-0.234275,-0.082031,0.429199,-0.567627,-0.507426,3.872623,9.830363,0.266139,-0.139973,0.006042,-0.657959,0.033447,-0.448242,-1.086897,3.576722,9.289821,0.004151,0.187441,-0.06286,-0.336426,0.525879,0.788574,-0.12183,3.597047,9.091179,0.215426,0.008636,-0.004891,0.669434,-0.017578,-0.042236,-0.484009,3.593565,9.640391,0.467743,-0.060297,0.0476,0.367676,-0.179932,-0.569092
0.620455,-2.005874,10.723868,0.546324,0.084168,-0.015436,-0.072021,0.419189,-0.567871,0.273291,3.317133,9.148516,-0.432921,0.139599,0.177092,-0.651367,0.045166,-0.446533,-0.60682,3.896589,9.126065,0.070765,-0.15959,0.061337,-0.337158,0.515137,0.790039,-0.253721,4.094813,9.200036,-0.107245,0.007505,0.046633,0.659912,-0.029297,-0.04126,0.018573,3.61341,9.11781,-0.480899,-0.081734,-0.029067,0.36084,-0.183838,-0.570068
0.770568,-2.090618,10.246893,0.873681,0.359376,-0.149714,-0.073975,0.40332,-0.581299,-0.832678,2.120757,9.301624,-0.082791,-0.020046,0.166806,-0.657227,0.044434,-0.452393,-0.350493,3.917461,9.028647,-0.114041,0.064186,-0.017884,-0.340332,0.524658,0.794434,-0.160556,3.524358,9.291749,-0.186083,-0.016826,-0.030558,0.661621,-0.017822,-0.037354,-0.528054,2.300982,9.212981,-0.091333,0.13111,0.090566,0.359619,-0.171875,-0.566406
0.498302,-0.747024,10.658015,0.733073,0.49767,-0.312302,-0.066406,0.388916,-0.577637,0.250565,2.321109,9.009395,-0.172807,0.053919,0.316735,-0.652588,0.051758,-0.443115,-0.851941,3.179717,9.282176,-0.163347,0.018839,0.025865,-0.334717,0.515137,0.787109,-0.157613,3.039349,9.1457,-0.082139,0.040806,0.029858,0.66626,-0.023438,-0.041748,-0.383612,2.853039,9.165529,0.216212,-0.149143,-0.101717,0.363281,-0.18042,-0.570068
0.296992,-2.549557,8.829767,1.279215,0.829941,-0.519333,-0.055176,0.354248,-0.587158,-0.468122,1.866278,11.118849,0.035115,0.012546,0.49156,-0.654297,0.054199,-0.440674,-0.430276,3.44922,8.695709,0.201298,-0.044961,0.015959,-0.331055,0.528076,0.782715,-0.270063,3.497433,9.108673,0.328471,-0.027014,0.011527,0.669189,-0.015869,-0.046143,0.00747,3.523694,9.309127,0.15253,0.10007,0.045774,0.367676,-0.174316,-0.574951
-0.06963,-0.909264,10.359684,2.352836,0.417378,-0.057011,-0.044922,0.311035,-0.60083,0.731223,4.628223,7.687472,1.086205,0.287246,0.172213,-0.649658,0.040771,-0.445801,-0.431198,3.730941,9.384585,-0.009358,0.0438,-0.004632,-0.336426,0.517334,0.789062,-0.006932,4.142075,9.578298,0.026407,-0.096424,0.042003,0.665527,-0.023926,-0.043701,-0.677452,3.389951,9.344616,-0.13778,-0.046905,-0.056489,0.362549,-0.177002,-0.570068
-1.180832,0.951766,9.807775,2.543288,0.54337,0.007278,-0.03833,0.262451,-0.609131,-1.788211,6.928538,8.749465,-0.159402,0.167094,0.030265,-0.652588,0.040283,-0.444824,-0.538495,3.79689,9.178878,0.089323,0.047435,0.071114,-0.343262,0.5271,0.783447,0.285113,3.50455,8.441935,-0.277538,0.12826,0.018556,0.657471,-0.019287,-0.049316,0.404174,2.723849,9.06309,-0.114922,0.00471,0.048578,0.35791,-0.173828,-0.57959
-0.215195,3.203057,9.754248,1.5728,0.629218,0.403042,-0.036377,0.236328,-0.626465,0.289698,4.015625,9.040591,-1.022334,-0.432794,-0.167611,-0.66333,0.051025,-0.453613,-1.001884,4.442347,8.796093,0.166608,0.08131,-0.146606,-0.344238,0.512207,0.793701,-0.946377,3.402389,9.313766,0.213964,0.190322,0.007739,0.658447,-0.036133,-0.03418,-1.198649,2.933653,9.354645,0.198575,0.248017,-0.069674,0.363525,-0.192139,-0.566406
-0.779831,2.964626,9.600778,0.682561,0.352093,0.308703,-0.023193,0.233887,-0.619141,-0.624143,1.239051,8.40989,-0.05491,0.177212,-0.093698,-0.655273,0.061768,-0.44751,-0.518872,3.76935,9.318636,-0.400136,-0.132462,0.160795,-0.328369,0.520752,0.790771,-0.310517,3.934629,9.543483,0.080677,-0.304347,0.013868,0.670898,-0.021484,-0.040039,-0.285752,3.518767,9.533064,0.116684,-0.310361,0.010427,0.369873,-0.178467,-0.568848
-0.450709,3.462864,9.762377,-0.328515,0.586366,0.261178,-0.012939,0.239014,-0.620605,0.237492,3.327903,10.768703,0.325448,-0.450642,-0.337414,-0.661865,0.047607,-0.441162,-0.218077,2.997597,8.96456,0.014154,-0.014384,-0.078137,-0.33252,0.520752,0.788086,0.76404,3.875944,8.814619,-0.111624,-0.024528,-0.023031,0.67041,-0.021729,-0.045654,0.336587,3.340878,9.067331,-0.153039,0.11495,-0.000519,0.369873,-0.177246,-0.576416
-1.117097,-0.17087,8.577185,-1.000785,0.052543,-0.232,-0.010498,0.256592,-0.618896,0.161342,1.965483,9.021568,-0.586459,0.415058,0.257114,-0.655518,0.059082,-0.441895,-0.960296,3.699711,9.202733,0.239184,0.203126,-0.020401,-0.341064,0.523926,0.78418,-0.663034,3.30931,9.324831,-0.154356,0.359847,0.050507,0.660156,-0.024414,-0.043213,-0.986439,2.585124,9.310508,-0.15315,0.137881,-0.030827,0.364014,-0.176025,-0.573975
-1.35436,0.401938,8.260248,0.013386,0.28953,-0.01663,-0.008301,0.253662,-0.621338,-1.32584,2.493249,9.018384,0.734793,-0.294624,-0.190384,-0.660889,0.045166,-0.439209,-0.737569,4.247483,9.150742,0.023511,-0.175768,0.010123,-0.333008,0.524902,0.789795,-0.859761,3.447299,9.117035,0.197281,-0.238159,-0.023915,0.665283,-0.024414,-0.043457,-0.430601,2.995685,9.33207,0.309727,-0.213588,-0.033214,0.364746,-0.177979,-0.571777
-0.420887,0.620674,9.326981,0.198101,-0.324244,-0.204295,-0.007568,0.243896,-0.619141,1.14612,4.878888,9.907975,-0.070121,0.153975,0.142042,-0.653564,0.045166,-0.441406,-0.297897,3.693495,9.013498,-0.208807,0.07475,0.043376,-0.337891,0.518555,0.790039,0.624558,4.027198,9.12481,0.104253,-0.140654,0.022134,0.66333,-0.025391,-0.041748,0.094895,3.717844,9.258309,0.017823,0.106587,-0.073421,0.363281,-0.181396,-0.570557
-0.802378,-0.728633,9.843203,0.681361,0.145787,-0.276779,-0.00708,0.232666,-0.621094,-1.273138,2.203088,9.019243,-0.621409,0.003438,-0.011303,-0.650879,0.051758,-0.444092,-0.744042,3.2462,9.152449,0.020697,-0.014993,-0.019201,-0.334473,0.522949,0.796631,-0.097836,3.796577,9.224586,-0.208363,0.268737,0.005383,0.664795,-0.021484,-0.03125,-0.647973,3.150998,9.356405,-0.24622,-0.003775,0.040563,0.367188,-0.176025,-0.56543
-0.421933,-1.748195,9.328827,2.187373,-0.164784,-0.059427,-0.01001,0.194092,-0.618896,0.417133,2.428182,8.835994,0.526321,-0.055133,0.036474,-0.654053,0.050049,-0.436523,-0.587266,3.816279,9.017621,0.160686,0.027217,-0.015322,-0.325684,0.519287,0.789307,-0.88985,3.164875,9.083184,-0.095279,-0.010198,0.009557,0.672607,-0.026123,-0.035645,-0.239603,2.462925,9.066837,0.005221,-0.01562,-0.074715,0.376953,-0.177734,-0.568848
-0.417597,0.845216,10.59529,3.324367,0.329699,-0.078818,-0.004395,0.134766,-0.617676,-0.67236,4.54837,9.744752,0.143645,0.083971,-0.069346,-0.6521,0.047607,-0.440918,-0.677018,4.014924,9.2372,-0.051311,-0.006325,0.001789,-0.331299,0.5271,0.791504,0.181877,3.482593,9.192351,0.245166,-0.220381,-0.002564,0.67041,-0.019775,-0.045166,-0.424473,3.205672,9.405226,0.29194,0.031627,-0.059144,0.372803,-0.176025,-0.572021
-0.247607,3.768143,10.314704,3.444913,0.305792,0.036253,0.000244,0.06665,-0.61499,0.159592,2.895545,9.163035,-0.622273,-0.12843,0.079988,-0.653809,0.05127,-0.443604,-0.420037,3.57527,9.000249,-0.058906,-0.043328,0.03398,-0.333496,0.52832,0.79834,0.209786,4.168166,9.125332,0.12952,0.15774,0.026761,0.667725,-0.02002,-0.032471,-0.317165,3.892736,9.315026,0.044475,-0.042454,-0.059509,0.366699,-0.175049,-0.561768
-0.783073,7.058956,11.069616,2.260031,0.699705,-0.104606,0.018311,0.025879,-0.60498,-0.329334,2.11469,8.976668,0.228855,0.118756,-0.083542,-0.646729,0.050537,-0.439941,-0.616493,3.659689,9.066178,0.056311,0.078572,-0.036566,-0.334473,0.514648,0.792236,-0.63344,3.874617,9.259947,-0.261517,0.086148,0.007622,0.665771,-0.032227,-0.033691,-0.216981,3.231477,9.276898,-0.271852,0.040092,0.042676,0.367676,-0.184814,-0.567383
-0.970815,6.818541,10.431464,0.469081,0.666332,-0.209122,0.021729,0.019287,-0.610596,-0.546726,3.952779,9.581956,0.294932,-0.123354,0.017995,-0.656006,0.047852,-0.443604,-0.899596,3.823756,9.179411,0.005728,-0.011344,0.00326,-0.345215,0.52832,0.784668,-0.303946,3.127757,9.090347,-0.102882,-0.110152,-0.019548,0.656494,-0.017578,-0.044434,-0.764051,2.644798,9.278682,0.000166,0.048179,-0.01218,0.358887,-0.171631,-0.573486
-0.936751,5.628166,9.626985,-0.891661,0.907173,-0.248502,0.03418,0.022705,-0.620605,0.315351,3.491028,9.249563,-0.404048,0.01564,-0.075072,-0.6604,0.041748,-0.447021,-0.307734,3.694856,8.986278,-0.049396,-0.100602,0.042442,-0.334961,0.52124,0.793945,0.128487,3.481248,8.992361,0.252755,-0.033706,0.037014,0.6604,-0.0271,-0.03833,-0.150525,3.203921,9.276315,0.241106,-0.143979,-0.014831,0.366455,-0.181641,-0.568115
-1.503604,1.769863,8.321173,-0.855158,0.78002,-0.262913,0.054443,0.046387,-0.62085,-0.720019,2.330384,9.085585,-0.039928,-0.001136,0.023008,-0.655273,0.055176,-0.438232,-0.595167,3.743288,9.132716,0.031389,0.15752,-0.049392,-0.337402,0.530273,0.789307,-0.258889,4.331528,9.35013,0.085058,0.110009,0.011319,0.664551,-0.01709,-0.035156,-0.321602,3.828982,9.380071,-0.026469,0.108176,-0.005384,0.367432,-0.172119,-0.567383
-1.572577,2.207652,8.861704,0.370534,0.870112,-0.199195,0.068848,0.044678,-0.629639,0.247828,3.166303,9.57652,0.125462,-0.081324,-0.103679,-0.657227,0.052979,-0.44751,-0.899933,3.799092,9.14594,-0.036755,-0.078469,0.022926,-0.333984,0.523926,0.788818,-0.364088,3.708787,9.191366,-0.363626,-0.056369,0.001628,0.665771,-0.021973,-0.041504,-0.509341,2.922342,9.232016,-0.33918,-0.065496,0.061204,0.367188,-0.174072,-0.573242
-1.88889,3.224422,9.24996,0.752649,0.754124,-0.352301,0.083008,0.027588,-0.622559,-0.429658,3.024918,9.40166,-0.117454,0.101926,0.092815,-0.654541,0.059082,-0.445312,-0.336836,3.65432,9.105188,-0.063274,-0.018904,0.023093,-0.33374,0.526123,0.789307,0.010311,2.997632,8.987193,-0.038323,-0.005232,-0.0094,0.669189,-0.017334,-0.042969,-0.268891,2.54155,9.174362,0.128811,0.012202,-0.012189,0.369629,-0.17334,-0.57373
-1.89228,4.962045,9.577898,0.666796,0.938703,-0.261013,0.101318,0.013916,-0.624023,-0.278275,2.958215,8.995446,0.087649,-0.071247,-0.073711,-0.655273,0.051758,-0.444824,-0.834095,3.489664,9.026187,0.002736,0.091024,-0.026053,-0.330811,0.523926,0.786865,-0.379074,3.650427,9.148853,0.26705,0.073036,0.052907,0.671387,-0.023438,-0.041992,-0.558032,3.481142,9.390888,0.175207,0.001879,-0.035257,0.37207,-0.18042,-0.57373
-1.986695,5.177031,9.165555,-0.052997,0.883667,-0.406562,0.11499,0.01123,-0.62207,0.044952,3.488049,9.448791,0.04189,0.006915,0.00638,-0.657959,0.048096,-0.442871,-0.466369,3.932219,9.118125,0.103558,-0.122841,0.020014,-0.331543,0.518311,0.790771,-0.151741,4.18994,9.280868,-0.037662,-0.140931,-0.013018,0.66626,-0.030518,-0.041504,-0.071363,3.413888,9.22054,-0.156621,-0.124621,0.03688,0.365234,-0.182129,-0.571777
-2.777413,4.133188,8.635284,-0.379528,1.001649,-0.456282,0.136719,0.017578,-0.624756,-0.271407,2.998557,9.396804,-0.246707,0.015739,-0.012894,-0.656006,0.055664,-0.438232,-0.39151,3.892658,9.187193,-0.165669,0.111635,-0.013861,-0.331543,0.521729,0.787109,0.214276,3.545018,9.079924,-0.280055,0.061509,0.008846,0.667236,-0.022217,-0.042236,-0.289338,2.901061,9.20382,-0.113951,0.13901,-0.008211,0.374023,-0.175781,-0.574951
-2.335914,3.433587,8.837643,-0.334915,0.827156,-0.466475,0.151367,0.022461,-0.623291,-0.226783,2.51223,9.135513,0.086756,-0.01447,-0.009881,-0.657471,0.049561,-0.437744,-0.989294,3.210709,8.981963,-0.030826,-0.033733,0.038696,-0.331055,0.521729,0.789062,-0.520088,2.976214,9.089547,0.009984,0.130712,0.018221,0.668945,-0.021484,-0.03833,-0.543957,2.76956,9.22128,0.059829,-0.069466,0.013808,0.369873,-0.174561,-0.57251
-3.205186,3.77178,8.933131,-0.127324,1.050927,-0.528473,0.174316,0.020508,-0.635742,-0.258588,3.405762,9.326953,0.168453,0.030378,0.002063,-0.652588,0.04834,-0.449951,-0.31468,3.856843,9.081966,0.199788,-0.030525,-0.043005,-0.336914,0.521973,0.788818,-0.407868,3.78594,9.223218,0.317788,-0.136897,0.012922,0.664307,-0.023438,-0.041992,-0.292457,3.389444,9.285759,0.179322,0.005176,-0.038343,0.365234,-0.180908,-0.571289
-2.843522,4.322133,9.054236,-0.477513,0.944851,-0.482804,0.190674,0.027832,-0.631348,-0.18526,3.471921,9.474318,-0.115998,-0.033423,-0.040551,-0.654785,0.042236,-0.442383,-0.736074,3.993841,9.222338,-0.100572,0.092921,0.010047,-0.341797,0.522217,0.779785,0.222295,4.166461,9.273391,-0.106326,-0.052663,0.01574,0.660156,-0.026611,-0.050049,-0.269297,3.393974,9.373777,-0.138796,-0.007283,0.035147,0.361328,-0.176758,-0.579346
-3.585334,3.281454,7.645236,-0.817206,1.018057,-0.514553,0.203857,0.050293,-0.630615,-0.051588,2.817243,8.959345,-0.087069,0.038114,-0.022255,-0.657227,0.053711,-0.44043,-0.555286,3.46091,9.034632,-0.079426,-0.126135,0.04715,-0.336914,0.519531,0.789795,-0.147601,3.390053,9.060096,-0.228673,0.161501,-0.009043,0.660645,-0.023682,-0.038574,-0.351148,2.819909,9.197984,-0.072148,0.029583,0.014438,0.365234,-0.177979,-0.575195
-3.808119,2.929308,7.13611,-1.000745,0.885437,-0.375609,0.218018,0.064453,-0.633545,-0.410713,2.938984,9.490646,0.034508,-0.025424,-0.038891,-0.664062,0.048828,-0.439941,-0.41085,3.664021,9.078006,0.102672,0.115523,-0.045977,-0.340332,0.519043,0.789062,-0.525931,3.228798,9.152323,0.109234,-0.030709,0.037826,0.660889,-0.026611,-0.039795,-0.393052,3.030266,9.208337,0.113369,-0.007982,-0.024828,0.36377,-0.182617,-0.572021
-4.517203,1.570526,7.390433,-1.384588,0.584454,-0.365738,0.241211,0.092529,-0.639648,0.051318,2.932443,9.348994,-0.025624,-0.011214,0.033499,-0.650879,0.050293,-0.440186,-0.947779,3.879319,9.160185,0.033927,-0.003614,0.001413,-0.342773,0.52002,0.794922,0.023871,3.84513,9.199567,0.193246,-0.103885,-0.016319,0.655518,-0.027832,-0.035889,-0.28549,3.306493,9.280051,0.038248,-0.006376,0.012679,0.358398,-0.181641,-0.563721
-3.947543,0.032508,6.806769,-0.61442,0.414536,-0.185058,0.242188,0.093994,-0.63916,-0.437153,3.134449,9.213086,0.061541,0.045181,-0.022136,-0.656738,0.04126,-0.439941,-0.391326,3.762761,9.0389,-0.035555,-0.096232,0.039045,-0.340332,0.524414,0.78418,-0.094085,3.978198,9.20631,-0.064614,0.112432,0.033425,0.659424,-0.020508,-0.046387,-0.434931,3.139223,9.393194,-0.046575,0.05311,-0.014925,0.358398,-0.174561,-0.575195
-4.682248,1.579065,7.708486,-0.025011,0.394184,-0.08418,0.250977,0.098389,-0.634521,-0.099135,3.173408,9.285241,-0.061036,-0.039108,0.034725,-0.655273,0.043457,-0.436768,-0.558906,3.606889,9.09002,-0.031218,0.119441,-0.029324,-0.337402,0.521973,0.790527,-0.437884,3.485672,9.12947,-0.16989,0.016815,-0.01267,0.664795,-0.022949,-0.038818,-0.380279,3.062045,9.191113,0.001703,-0.03999,0.007337,0.366699,-0.17749,-0.571533
-4.515737,1.469884,7.898567,-0.031888,0.081244,-0.047126,0.243652,0.100342,-0.645996,-0.196048,2.901088,9.452125,-0.069495,0.019844,-0.008953,-0.666016,0.044922,-0.446045,-0.849608,3.648655,9.142299,0.053355,-0.07643,0.010982,-0.339355,0.520752,0.788574,-0.117679,3.315293,9.074041,0.091768,-0.079596,0.014853,0.6604,-0.025146,-0.038818,-0.312574,3.16283,9.290356,0.058125,0.01816,-0.008463,0.364258,-0.181641,-0.572021
-4.303269,1.550723,7.260271,0.270784,0.128387,0.063215,0.246094,0.103271,-0.63916,-0.205652,2.977143,9.033803,0.097867,0.012748,0.021638,-0.662598,0.051758,-0.44165,-0.235339,3.921027,9.056312,0.022767,-0.000384,0.003291,-0.334229,0.527588,0.783936,-0.040575,3.862167,9.179401,0.15146,0.029675,0.022942,0.665527,-0.018311,-0.04541,-0.395884,3.266485,9.326286,-0.013519,0.004126,0.008783,0.368408,-0.17041,-0.580078
-4.550004,3.080882,8.481814,0.383388,-0.05745,0.074113,0.250977,0.093262,-0.637939,-0.192383,3.357098,9.497045,-0.024078,-0.019184,-0.00094,-0.65625,0.048584,-0.442383,-0.815581,3.725183,9.132018,-0.053863,0.08802,-0.014382,-0.333008,0.515381,0.788574,-0.291681,3.944045,9.199449,-0.108093,0.045379,-0.001803,0.668213,-0.029541,-0.041748,-0.297323,3.060922,9.245832,-0.04465,-0.003341,0.011873,0.37207,-0.186035,-0.56958
-4.538002,2.788125,8.62716,-0.227732,-0.069821,0.030809,0.243408,0.088867,-0.639893,-0.197185,2.975524,9.255379,-0.106385,0.032091,0.018553,-0.658936,0.045166,-0.443359,-0.636452,3.658834,9.072368,0.009009,-0.088813,0.029319,-0.33374,0.525391,0.794678,-0.256246,3.432006,9.147452,-0.125329,-0.0186,0.011575,0.666504,-0.02002,-0.032227,-0.487359,3.120604,9.309804,0.041008,0.029098,-0.002513,0.369629,-0.172119,-0.563965
-3.74872,2.277344,8.943838,0.108174,-0.020578,0.073072,0.24585,0.092773,-0.647461,-0.277654,2.91206,9.239853,0.059412,-0.024902,-0.002161,-0.661377,0.048096,-0.450928,-0.437982,3.744471,9.065894,-0.000252,0.046675,-0.019582,-0.340332,0.524414,0.790771,-0.125151,3.421967,9.10224,0.082829,-0.023211,0.005327,0.658447,-0.023438,-0.040527,-0.337872,3.160807,9.272002,-0.018579,-0.060857,0.011746,0.362793,-0.175781,-0.569336
-4.608942,3.036037,8.992459,-0.075732,0.087695,-0.029978,0.247803,0.090576,-0.638428,0.012392,3.199181,9.33061,-0.00267,0.018589,0.003962,-0.659424,0.04541,-0.439941,-0.681615,3.734336,9.142,-0.012714,0.010975,0.008716,-0.334717,0.518799,0.791992,-0.113868,3.837967,9.26006,0.093476,0.009712,0.024687,0.664307,-0.031006,-0.03833,-0.205837,3.092199,9.237456,0.0026,0.035439,-0.006641,0.368164,-0.182129,-0.568115
-3.940693,2.245641,8.500402,-0.095719,0.075189,0.028359,0.250732,0.094238,-0.644775,-0.376733,3.113726,9.292475,-0.035384,0.027954,0.014489,-0.654541,0.048584,-0.448242,-0.529002,3.736724,9.088413,0.012206,-0.017842,0.004619,-0.334473,0.52124,0.791504,-0.204549,3.791655,9.143159,-0.103037,0.033069,0.000551,0.66626,-0.0271,-0.03833,-0.502151,3.181056,9.242112,0.005025,0.018246,-0.006318,0.367676,-0.180176,-0.568604
-4.978075,2.693556,8.874424,0.064129,0.115447,-0.044439,0.258789,0.098633,-0.628418,-0.161639,3.010642,9.388848,-0.015032,-0.02465,-0.005566,-0.649902,0.049561,-0.434326,-0.727783,3.697455,9.109735,-0.011735,0.051143,-0.008712,-0.340576,0.525879,0.800781,-0.331209,3.439784,9.08387,-0.066191,0.018232,0.008845,0.65918,-0.020996,-0.028076,-0.386509,3.091049,9.354804,-0.009329,-0.015371,0.004525,0.361084,-0.175781,-0.559326
-3.469367,3.242885,9.328904,-0.134758,0.10448,-0.040087,0.256104,0.096436,-0.644775,-0.225713,3.091671,9.148491,0.043473,0.033677,0.000648,-0.657227,0.047363,-0.447754,-0.595876,3.757438,9.070077,0.010039,-0.070504,0.016543,-0.33667,0.529297,0.789795,-0.195883,3.599171,9.143757,0.097724,-0.057076,0.016987,0.663574,-0.018066,-0.040527,-0.403974,3.185427,9.273701,0.027113,-0.01572,-0.012096,0.36499,-0.172607,-0.569336
-4.621228,2.961499,9.030245,-0.275454,0.404746,-0.143763,0.262695,0.109375,-0.637695,-0.062188,3.182246,9.405466,-0.040866,-0.03768,-0.006415,-0.654297,0.054932,-0.439453,-0.303718,3.812813,9.082376,-0.019425,0.030916,-0.004408,-0.331299,0.52002,0.783447,0.081499,3.8607,9.173193,0.003222,-0.022711,0.001593,0.667969,-0.022461,-0.045898,-0.137087,3.162618,9.20141,-0.028022,-0.028999,0.001741,0.369873,-0.176025,-0.575684
-4.379738,2.204375,8.441986,-0.505855,0.247596,-0.169369,0.265381,0.118408,-0.641602,-0.255553,2.826217,9.285327,-0.097227,0.06775,0.025296,-0.656982,0.057373,-0.442139,-0.874442,3.628617,9.149348,-0.053721,0.067689,-0.004271,-0.330566,0.52002,0.789795,-0.287035,3.640428,9.178397,-0.111928,0.126041,0.015709,0.669678,-0.025391,-0.037109,-0.495448,3.100785,9.315241,-0.022986,0.087073,-0.015573,0.371338,-0.17749,-0.572266
-4.865333,1.042826,8.134717,-0.08509,0.34782,-0.130145,0.265869,0.112305,-0.637695,-0.344012,2.964689,9.413405,0.092897,-0.041855,-0.023749,-0.662354,0.048096,-0.438721,-0.598796,3.614181,9.073199,0.016924,-0.09119,0.024788,-0.333496,0.521729,0.783203,-0.490041,3.39986,9.113388,-0.023172,-0.053055,0.003871,0.662354,-0.02124,-0.046631,-0.488929,3.054411,9.253261,-0.000531,-0.076045,0.000325,0.365234,-0.176758,-0.577148
-4.329736,1.471079,8.523119,0.360785,0.263949,-0.11085,0.278564,0.101074,-0.64209,0.027255,3.03792,9.345967,-0.033894,0.049044,0.008935,-0.65625,0.04541,-0.447754,-0.397102,3.729139,9.108458,0.004191,0.067261,0.002647,-0.33252,0.514893,0.785156,0.075707,3.646984,9.145883,0.116085,-0.080543,0.009685,0.668701,-0.034424,-0.042236,-0.175199,3.153583,9.278097,0.056378,0.01469,-0.021809,0.370605,-0.188965,-0.574463
-4.754082,2.215619,8.776412,0.779988,0.388131,-0.115499,0.284424,0.092285,-0.642334,-0.380836,3.122745,9.044919,0.138677,0.006547,-0.005268,-0.654785,0.046143,-0.450684,-0.765524,3.769266,9.03455,0.059307,0.018458,0.002068,-0.331787,0.523682,0.789551,-0.08928,3.858033,9.168727,-0.010849,0.093609,0.029545,0.668457,-0.026123,-0.040283,-0.450429,3.253274,9.348935,-0.014794,0.011164,-0.021984,0.371826,-0.178711,-0.572021
-4.793658,3.790329,9.119871,0.557475,0.441364,-0.14466,0.28833,0.084473,-0.637939,-0.11958,3.809754,9.594056,0.012001,0.01066,-0.014197,-0.661133,0.046875,-0.446045,-0.549526,4.071908,9.095326,-0.015026,-0.024593,-0.011627,-0.334717,0.522461,0.789307,-0.465831,3.729621,9.171628,-0.069211,0.013189,-0.007424,0.666016,-0.022461,-0.041504,-0.42234,3.200018,9.29346,0.004238,-0.022463,0.006464,0.37085,-0.177002,-0.572754
-5.174055,2.959484,8.549965,-0.093511,0.414793,-0.177533,0.296631,0.082031,-0.635254,-0.284591,2.864944,9.222335,-0.220653,0.035452,-0.018874,-0.654541,0.043945,-0.447266,-0.654393,3.719433,9.154325,-0.16059,0.025437,0.032405,-0.324707,0.512939,0.787842,-0.143656,3.677932,9.162646,-0.060922,-0.081752,0.019281,0.675293,-0.031982,-0.044678,-0.417966,3.312458,9.484029,-0.049134,-0.026298,-0.020842,0.377441,-0.187744,-0.573486
-4.611174,2.927847,8.533473,0.163057,0.571906,-0.18984,0.306641,0.078369,-0.631348,-0.194497,2.871335,9.15018,0.232473,0.024148,-0.095589,-0.654297,0.041504,-0.444336,-0.56347,3.515895,9.144719,-0.0446,-0.042408,0.000557,-0.326416,0.521729,0.789551,-0.048457,3.710801,9.140293,-0.059541,0.039878,0.000316,0.671143,-0.018555,-0.040771,-0.401128,3.179523,9.364083,-0.08746,-0.043402,0.019918,0.374023,-0.170166,-0.570557
-5.938813,3.350156,8.489637,-0.502959,0.470666,-0.103851,0.312744,0.093262,-0.627686,-0.107738,3.964855,9.72481,0.211892,0.04125,-0.147363,-0.655029,0.041748,-0.445312,-0.478136,3.614645,9.246045,-0.082153,0.015036,0.022422,-0.334961,0.511475,0.782471,-0.231695,3.719847,9.420571,-0.104254,0.014032,0.041187,0.662598,-0.028076,-0.047119,-0.433466,3.362483,9.496958,-0.00369,-0.077044,-0.039057,0.363525,-0.181641,-0.579346
-5.60788,1.346337,7.965768,-0.312833,0.403095,0.163226,0.314453,0.097656,-0.625,-0.309265,3.690208,9.808163,-0.223547,0.184001,-0.224586,-0.657715,0.037598,-0.445312,-0.971018,3.307712,9.287014,0.095181,0.034248,0.051992,-0.330322,0.520752,0.785889,-0.197906,3.21164,9.456064,-0.031263,0.057985,0.014335,0.66333,-0.025146,-0.041748,-0.717366,3.365342,9.616947,-0.000694,-0.130684,0.093271,0.364746,-0.174805,-0.57373
-6.013975,1.81471,8.425162,0.313123,0.468917,0.157125,0.325195,0.092041,-0.629883,-0.317357,2.803702,9.637615,0.096085,0.165609,-0.242768,-0.649902,0.034912,-0.453369,-0.788695,3.816097,9.456078,0.185852,-0.137676,0.021234,-0.338135,0.520264,0.778809,-0.468706,3.970809,9.6059,0.544531,0.035642,0.073419,0.652588,-0.025146,-0.047119,-0.052424,4.236626,9.138309,0.463053,-0.07358,0.142246,0.352295,-0.183105,-0.575439
-6.916362,2.003695,8.520357,0.132537,0.338754,-0.052709,0.326904,0.089355,-0.633545,0.188652,3.34875,10.788206,0.070713,0.34401,-0.335717,-0.647461,0.028076,-0.463867,-0.54106,3.335708,9.28028,0.087018,-0.214648,0.316403,-0.322998,0.523926,0.774658,0.036827,5.319889,10.042334,0.403831,-0.044808,0.225312,0.654053,-0.026611,-0.048828,-0.772845,5.072586,9.352879,0.185537,0.241973,0.062487,0.364502,-0.182617,-0.574219
-6.63032,1.793887,8.195356,0.481968,-0.054514,0.198252,0.333984,0.082764,-0.608154,0.071042,2.684475,9.743986,0.286709,0.681085,-0.201505,-0.625977,0.021973,-0.456055,-0.416427,3.647829,9.353066,0.3202,-0.174433,0.153739,-0.322266,0.520508,0.772461,0.17928,4.475549,10.422274,-0.38929,0.185062,0.17406,0.640625,-0.030518,-0.044922,-0.152804,3.671149,10.349694,-0.434696,-0.052075,0.239465,0.355957,-0.179688,-0.567139
-4.948462,2.372211,7.052059,0.674534,-0.190331,-0.017441,0.335938,0.064209,-0.618896,-1.23995,3.380295,9.791937,0.146459,0.760781,-0.34068,-0.613037,0.013428,-0.476807,-0.899171,4.358334,9.157953,0.566843,-0.203043,0.234465,-0.314941,0.525146,0.763428,-0.890038,2.116701,9.494366,-0.383878,0.326317,0.175874,0.631836,-0.036865,-0.041016,0.492855,1.942801,10.592782,-0.064344,0.27311,0.31924,0.360596,-0.18335,-0.561035
-5.085979,3.327721,7.938707,0.443757,0.132675,-0.039096,0.33252,0.063721,-0.61377,-2.175714,2.873732,7.912183,0.370925,0.558168,0.045287,-0.607666,0.015625,-0.483643,-0.999255,4.642451,9.078623,0.393861,-0.296757,0.040842,-0.313965,0.531738,0.748047,-1.744642,1.497934,8.91501,0.670614,-0.056353,0.006937,0.618652,-0.03418,-0.044922,-0.767141,1.492062,9.93744,0.585095,0.324522,0.607936,0.357178,-0.192139,-0.562012
-3.259596,3.378609,7.284792,0.239627,0.227329,-0.239387,0.343506,0.05249,-0.606201,-2.442327,3.080549,8.138333,0.643291,0.205706,0.246953,-0.596191,0.003418,-0.479492,-0.852997,5.319607,9.52352,1.276337,-0.138177,-0.157189,-0.314453,0.543213,0.719971,-1.134859,3.21546,9.365601,1.45225,-0.405802,-0.128684,0.614746,-0.039795,-0.048828,-0.371947,2.614631,9.151952,1.189212,0.005712,0.907245,0.354492,-0.214844,-0.552979
-4.739067,4.407483,7.404398,-0.242312,0.81614,-0.586878,0.351562,0.059814,-0.600586,-1.329302,4.065321,7.766881,0.984438,-0.340205,0.597044,-0.602051,0.001953,-0.477051,-0.398168,6.834195,9.371508,1.255319,-0.082184,-0.368309,-0.321045,0.555176,0.685547,-0.077554,5.578944,9.205845,1.83434,-0.396264,-0.304765,0.607422,-0.041016,-0.040039,-0.359225,4.202532,10.046135,1.610165,0.513316,1.108985,0.35498,-0.244629,-0.532471
-5.716816,2.862812,6.805712,-0.584051,0.855128,-0.005326,0.376709,0.071777,-0.608887,-0.111021,6.918352,7.317566,2.058849,-0.136273,0.290687,-0.59082,-0.016113,-0.484131,-0.268083,5.147389,8.088801,0.622673,-0.195555,0.025135,-0.328125,0.557129,0.639893,0.168862,7.093229,9.0206,1.448361,-0.24056,-0.101844,0.591553,-0.040527,-0.049805,-1.664907,5.974389,10.54586,1.503503,0.191849,0.694616,0.345215,-0.265869,-0.530518
-6.890777,1.738708,6.700344,0.287573,0.89614,0.600566,0.384277,0.063477,-0.598389,-1.768501,9.416247,9.489417,0.404448,-0.214927,-0.194262,-0.591064,-0.027344,-0.482178,-0.305411,3.993301,8.777488,0.664422,-0.230156,-0.189525,-0.32666,0.551514,0.617432,-0.403712,6.606879,8.899922,0.279682,-0.215874,-0.096119,0.579834,-0.044678,-0.042969,-0.538598,6.359202,9.740207,0.782163,-0.14935,0.790456,0.338379,-0.283447,-0.516846
-5.937776,3.263628,7.605903,0.517454,0.728195,0.823298,0.388916,0.05249,-0.588379,-1.253067,-0.330043,10.441857,-2.982809,-0.411935,-0.630742,-0.588379,0.00415,-0.483887,-0.506367,3.500574,11.714877,-1.438503,-0.147607,0.186822,-0.322266,0.519531,0.601074,-0.17682,5.500655,9.205305,-0.717978,-0.246337,0.059222,0.561523,-0.039795,-0.061279,-1.31329,7.114175,9.454776,0.19005,0.065701,0.612449,0.33374,-0.2854,-0.522949
-7.744438,2.701179,7.407195,-0.686503,0.692937,-0.19142,0.404297,0.062744,-0.593506,-1.084221,-6.146378,9.442024,1.514268,-0.194005,-0.756662,-0.581055,-0.029297,-0.48291,-0.344788,1.189102,8.740677,-0.563199,-0.465667,0.635166,-0.320801,0.49292,0.597412,0.085009,6.134638,10.555495,-1.21137,-0.161118,0.62837,0.529297,-0.043945,-0.052246,-1.514179,9.378243,10.033645,-1.566313,-0.846023,0.53744,0.299561,-0.255371,-0.520996
-5.94313,1.607211,6.922042,-0.384939,0.184283,-0.146748,0.416504,0.066406,-0.595947,-1.390247,5.916566,10.209824,4.340732,-0.229919,-0.124577,-0.571289,-0.095215,-0.475586,-0.327765,14.214277,10.32818,0.405322,0.360444,-1.246095,-0.337891,0.466553,0.556641,-0.04357,8.304182,10.596272,-3.653206,0.079855,-0.165837,0.506348,-0.031738,-0.056152,3.108696,5.725829,10.543353,-5.470003,-0.642079,1.569458,0.282959,-0.183838,-0.549561
-8.692716,1.776127,7.491313,-0.838234,0.56165,-0.88215,0.424805,0.09375,-0.584717,-0.608368,9.186623,8.60218,0.469871,-0.389657,0.761232,-0.576904,-0.087158,-0.467285,-3.457169,13.884536,10.663438,-6.98894,-0.265048,0.142407,-0.322266,0.344238,0.548828,-1.404966,3.944671,12.083394,-6.136675,0.410217,-0.72176,0.473877,-0.008789,-0.052002,-2.631774,-1.323349,10.893625,-5.125991,0.594985,1.882025,0.283447,-0.116943,-0.557617
-6.733601,0.090446,5.210114,0.126771,-0.404943,-0.199998,0.423584,0.087646,-0.595459,-0.098443,5.061649,7.257822,0.580046,0.345985,0.231689,-0.55835,-0.101074,-0.480713,-1.225154,-3.866725,6.711222,-9.009206,-2.814605,0.699561,-0.291016,0.235596,0.544189,-1.324708,-1.894599,10.318584,-3.888202,-0.609843,-0.290226,0.432373,0.01416,-0.058105,-0.906456,-1.294702,12.981915,-2.253909,-1.464107,0.753889,0.251221,-0.06958,-0.556152
-5.575433,3.504598,5.522144,0.77965,0.290208,0.310846,0.428711,0.068848,-0.581299,-4.071056,4.932989,8.734892,1.742354,-0.214384,0.116593,-0.554688,-0.12793,-0.467529,4.193511,-12.688484,8.98316,-0.91231,-0.390629,0.198154,-0.292725,0.206543,0.498047,0.093006,-1.752956,10.376858,-1.01888,-0.415318,-0.36877,0.391846,0.01416,-0.065186,2.322715,-0.268301,11.100287,-1.561906,0.02439,1.209028,0.236572,-0.049316,-0.548096
-4.857672,3.650348,6.528111,0.11868,0.180672,0.027923,0.423828,0.075684,-0.583008,-1.028746,3.237241,8.045907,1.333557,-1.440876,-0.227556,-0.566895,-0.146729,-0.450928,-1.000638,-2.474285,11.659971,3.362274,0.57232,-1.143934,-0.310059,0.2146,0.427246,-0.294108,-0.737181,10.439169,0.396237,-0.441938,0.409494,0.360596,0.008545,-0.083984,-2.359045,-1.57856,9.881926,0.070356,-0.201889,0.167329,0.230225,-0.039062,-0.550781
-8.7039,2.561292,7.908834,-0.023762,0.479115,0.197769,0.444092,0.069336,-0.576904,0.758053,4.815889,7.806588,3.691906,-0.870113,0.075275,-0.555908,-0.20166,-0.420654,0.481,6.339704,11.315873,1.970029,-0.662827,0.759801,-0.305664,0.205322,0.368896,0.668641,1.547945,11.81386,1.319963,-0.631902,0.405072,0.317383,-0.007568,-0.103027,2.526709,1.379952,10.486964,1.673464,-1.207389,0.271326,0.195557,-0.058594,-0.55249
-8.204073,1.478785,7.790546,-0.088039,-0.093206,-0.07564,0.444092,0.08252,-0.576172,-0.558276,10.047884,9.980015,3.186596,-0.807979,-0.014552,-0.557861,-0.23291,-0.393066,0.038287,4.076432,12.290638,-1.302994,-0.442025,-0.057994,-0.293213,0.17041,0.313721,0.127778,2.519642,12.294324,-0.045193,-0.012053,0.370304,0.295654,-0.011475,-0.118652,1.528044,2.559615,12.19679,-0.418299,0.495637,0.398843,0.202393,-0.041992,-0.549561
-9.67322,0.731068,7.564488,0.41165,-0.255592,-0.154869,0.443115,0.067139,-0.569824,2.466366,9.871578,9.000387,1.512697,-0.68491,0.677984,-0.550537,-0.256836,-0.374268,1.876006,2.00999,11.937303,0.468752,-0.722929,0.268165,-0.293213,0.152588,0.253174,0.408553,-0.06822,12.302945,-0.845528,-0.599744,-0.330874,0.253662,-0.012207,-0.131836,1.047437,-3.105268,11.749794,-1.731568,-0.636489,1.290461,0.17749,-0.016113,-0.54248
-9.098033,2.120856,7.70212,1.020378,-0.822178,-0.105419,0.431885,0.052002,-0.576416,0.495453,4.365163,7.006632,2.63209,0.216801,0.744321,-0.541748,-0.275146,-0.365234,1.165944,2.725176,11.019622,-0.146573,-0.25931,-0.537339,-0.298584,0.126953,0.175049,1.712783,0.106916,10.413176,1.117257,-0.256378,-0.24934,0.210693,-0.02417,-0.167969,1.904078,-3.046653,10.181148,2.090307,-0.057549,0.448794,0.159912,-0.04126,-0.553955
-8.762448,2.721007,7.774564,0.869586,-1.153929,-0.128379,0.421143,0.03418,-0.578613,-0.528979,7.270902,4.087919,6.149232,-0.280515,0.369979,-0.530518,-0.332275,-0.315186,0.479526,-2.266212,10.912612,0.241525,-0.67998,0.682799,-0.282471,0.109131,0.118164,-0.259787,1.874274,10.385761,1.654183,-0.039945,0.318816,0.187744,-0.042236,-0.181152,0.196107,4.426406,10.196864,2.672523,-0.125708,0.078944,0.154541,-0.071533,-0.547852
-6.299912,3.538935,7.418738,1.23264,-1.23854,0.193257,0.405518,0.02417,-0.566895,0.843289,15.632194,5.290136,6.291834,-0.182737,0.392125,-0.525635,-0.370361,-0.24292,2.389895,0.369284,9.697234,3.259182,-0.329331,-0.529838,-0.276123,0.090088,0.049561,0.543496,2.333279,9.349695,1.580459,-0.501046,-0.150011,0.158691,-0.054688,-0.208984,1.872018,3.416534,9.078139,0.325962,-0.516055,0.893148,0.13916,-0.071533,-0.551025
-6.196554,3.889667,8.052159,0.863267,-0.976992,0.083659,0.395996,0.002441,-0.578369,1.210066,21.151645,5.285026,1.379678,-0.066886,0.18627,-0.502686,-0.389648,-0.245117,1.914443,7.103046,11.755504,2.05565,0.352105,-0.125102,-0.280762,0.061279,-0.013184,2.13059,4.244758,9.711693,1.545473,-0.367575,0.356477,0.117676,-0.080078,-0.233154,2.133639,1.252069,9.467777,1.036638,0.130069,0.093949,0.118408,-0.085205,-0.556885
-6.865277,3.621938,8.823711,0.888162,-1.165747,0.087757,0.374023,-0.00415,-0.563477,0.561121,14.653133,2.560074,-3.227929,-0.293847,0.438587,-0.483887,-0.37085,-0.266602,1.38254,7.281157,10.850709,-1.041272,-0.368858,0.284497,-0.269287,0.041992,-0.064209,1.538714,5.87276,11.117916,-0.3885,0.070739,-0.044514,0.099609,-0.083008,-0.252197,1.812934,4.518141,10.985432,0.320086,-0.292495,0.602326,0.109863,-0.089355,-0.55249
-5.281232,4.587677,8.161947,1.324475,-1.550534,0.594794,0.343018,-0.030029,-0.555908,2.377942,10.705373,5.526845,-3.092186,-0.283488,-0.161487,-0.459229,-0.358398,-0.296143,2.136313,1.929527,9.081116,-2.037388,-0.062175,0.073349,-0.262939,0.025146,-0.114746,0.856969,2.641137,9.951828,-1.684757,-0.111642,-0.182913,0.075928,-0.077637,-0.274658,2.668559,2.502384,9.084492,-1.544594,-0.028459,0.661145,0.099854,-0.062256,-0.555908
-4.945923,7.409686,10.486004,1.029952,-1.27856,0.279213,0.332275,-0.034668,-0.551025,0.967224,6.705608,6.020101,-3.84767,0.360879,0.143507,-0.428467,-0.322754,-0.333008,1.953226,-0.327021,10.713145,-0.619112,-0.341801,0.291335,-0.262695,0.028564,-0.164795,2.067123,1.259467,8.89867,-0.635541,-0.42107,0.023317,0.046387,-0.064209,-0.302979,1.805272,0.8158,8.696701,-0.628235,0.078221,0.388108,0.081299,-0.037842,-0.562256
-4.111534,5.774957,10.03111,-0.079816,-1.221451,-0.143505,0.32251,-0.040527,-0.553223,-0.254126,3.274317,4.97198,-0.103144,-0.419602,0.010726,-0.401611,-0.338623,-0.331787,3.146979,1.687467,11.195454,0.17361,0.508894,-0.239582,-0.252686,0.008057,-0.211914,1.959888,1.619587,9.930385,-0.251049,0.29522,0.14494,0.031006,-0.067871,-0.327393,1.9978,1.016529,9.250816,-0.32947,-0.017586,0.157582,0.07251,-0.034912,-0.570068
-7.042681,5.795626,10.968073,-0.308269,-0.895958,-0.036419,0.306152,-0.035889,-0.562744,0.992684,12.187089,7.008791,1.612441,-0.102402,0.078083,-0.388672,-0.361572,-0.332031,-0.676662,2.439416,10.507181,0.205485,0.686278,0.320529,-0.241455,0.004639,-0.251953,-0.394655,2.774701,10.190328,0.665028,0.337576,0.235294,0.015381,-0.074951,-0.34082,0.969826,2.394244,9.077917,0.686214,0.131079,0.168005,0.064697,-0.040283,-0.567871
-5.01846,4.55087,10.178222,-1.041233,-1.207797,-0.145212,0.280518,-0.013672,-0.563721,1.464345,11.620881,7.109874,-1.540797,-0.160918,-0.057737,-0.37915,-0.35498,-0.343262,1.148414,4.240897,9.380509,0.396911,-0.340986,0.060943,-0.24585,-0.007568,-0.291016,0.962033,5.54376,10.23188,0.487666,-0.42035,0.336924,-0.008545,-0.078125,-0.362549,2.013555,4.781404,9.600002,0.125699,-0.115808,-0.276499,0.046631,-0.032227,-0.570068
-5.107518,3.171865,9.286679,-0.806245,-1.337284,-0.343888,0.264648,0.003906,-0.57373,1.902412,7.797928,5.234791,-0.621021,0.671837,0.040382,-0.355225,-0.35376,-0.367188,2.156686,6.026038,10.425186,-0.348483,0.400657,0.317542,-0.237305,0.000244,-0.331055,2.451236,5.532046,8.725837,-1.100482,0.359247,0.156897,-0.016846,-0.056885,-0.386963,2.212802,3.661418,7.735105,-1.188103,0.386581,0.165725,0.043945,-0.00293,-0.577148
-2.37931,3.543172,8.638361,-0.574596,-1.246612,-0.335526,0.258057,0.010742,-0.573975,-0.47557,11.388201,6.611554,-0.578903,0.45326,0.062946,-0.32251,-0.361816,-0.380127,0.521231,5.606254,11.562185,-2.198212,0.473976,-0.018209,-0.220215,0.001221,-0.364502,0.388164,3.883981,9.537332,-2.255556,0.776302,0.228206,-0.01416,-0.04541,-0.399658,1.118076,2.522948,7.420544,-1.759527,0.388807,-0.274889,0.048584,0.014648,-0.580078
-2.780934,3.744209,8.48128,-0.518729,-1.026585,-0.412533,0.251465,0.028809,-0.575928,1.319566,7.237139,4.242471,-2.497589,-0.007826,0.41438,-0.302979,-0.334229,-0.410645,1.21528,0.837957,10.017858,-3.671817,-0.19831,0.804539,-0.216797,0.043213,-0.386719,1.133708,1.464044,10.674897,-2.709286,0.175244,0.05425,-0.020996,-0.009033,-0.4104,2.622103,1.819258,7.876194,-2.260742,0.415114,0.113742,0.05249,0.056396,-0.572998
-2.38338,3.88618,8.602174,-0.803905,-0.796584,-0.012739,0.235352,0.040527,-0.576416,1.323195,5.496945,5.013555,0.225231,0.124505,-0.095108,-0.294678,-0.344482,-0.410889,2.164828,-3.791141,9.754031,-2.20076,0.030349,0.299232,-0.214844,0.060059,-0.41333,2.896742,-1.906942,10.102095,-2.617995,0.827935,0.350051,-0.02417,0.015625,-0.426758,2.067057,-1.449318,7.614822,-2.670183,1.055692,-0.036683,0.057373,0.092529,-0.575684
-3.198016,1.745788,8.7122,-0.780679,-0.979661,0.170125,0.220215,0.062744,-0.578369,0.67959,10.499799,5.898483,-0.048686,-0.117678,0.113848,-0.281494,-0.344238,-0.417969,1.546691,-1.908966,10.046422,0.368395,0.270691,0.183835,-0.205322,0.073242,-0.437744,0.75609,-4.556283,8.986248,-1.362995,1.565908,0.133049,-0.012451,0.053711,-0.4375,1.354357,-5.084951,5.405743,-1.417535,1.177211,0.644095,0.073486,0.133057,-0.566406
-1.551324,2.295329,9.270004,0.202996,-0.612665,-0.022,0.213623,0.059082,-0.575684,1.608685,8.449206,6.712343,-1.545269,-0.234966,0.364658,-0.280029,-0.331299,-0.436035,0.998533,1.852141,12.407064,0.727944,0.150007,-0.105884,-0.208252,0.066162,-0.4646,-0.119636,-3.81759,8.967343,0.945637,1.185209,-0.070184,-0.009521,0.043213,-0.458008,0.266155,-4.132378,4.907465,1.193334,1.419914,0.679802,0.090088,0.118896,-0.575928
-3.080761,4.439643,9.198911,-0.056953,-1.0509,-0.094789,0.198975,0.064453,-0.581543,2.201589,6.602161,4.495858,-0.149057,0.121986,0.798221,-0.273926,-0.327637,-0.449219,1.835113,0.65231,9.843427,0.406674,0.08297,0.216511,-0.202637,0.057861,-0.476318,1.333175,-0.541268,10.376387,2.07545,1.53637,-0.086587,0.006104,0.014404,-0.467773,0.598232,-0.232524,6.826982,1.932826,1.849503,0.746969,0.120361,0.081543,-0.573486
-1.605537,3.448582,8.708359,-0.411759,-0.689477,-0.089891,0.186035,0.073242,-0.583008,1.703774,10.368138,4.575324,-0.275559,0.143674,0.306526,-0.269043,-0.321533,-0.463867,0.955592,0.305548,8.727894,1.450466,-0.147835,-0.320562,-0.204346,0.042969,-0.500977,-0.007259,2.70707,8.939282,1.75546,2.410404,-0.389506,0.03125,-0.010498,-0.489502,-1.153023,2.613093,7.466805,1.878612,2.171238,1.079758,0.152344,0.053711,-0.581787
-2.479604,3.295742,8.658325,0.135588,-0.79398,0.360124,0.175293,0.073975,-0.580566,0.537635,10.738872,7.95737,-2.879777,0.026809,0.281091,-0.258789,-0.289551,-0.493164,2.106698,0.963621,9.523518,0.731828,-0.116018,0.018016,-0.20166,0.04126,-0.52124,-1.488569,1.841854,9.090202,0.336374,2.22032,-0.079537,0.062988,-0.006836,-0.501465,-1.204775,2.386398,6.271277,0.847467,2.215592,0.806961,0.189697,0.044678,-0.579834
-2.942389,5.239172,11.000417,-0.17658,-0.419424,0.661025,0.159912,0.076172,-0.571777,2.204845,5.628526,5.227181,-3.282243,-0.578511,-0.740357,-0.263428,-0.260498,-0.508545,1.438099,-1.895952,9.316255,0.088516,-0.659618,0.529041,-0.217529,0.038086,-0.532715,-0.840219,1.804924,6.787416,0.697043,2.094637,-0.153179,0.078125,-0.02124,-0.510498,-2.223079,3.767429,7.229099,1.429243,2.338977,0.832443,0.217529,0.014893,-0.573486
-2.620157,2.763742,8.923252,-0.42818,-1.431113,0.599277,0.141602,0.091309,-0.575195,2.798865,9.08955,8.271684,-0.807425,0.170745,-0.392903,-0.245605,-0.247559,-0.528076,3.530442,2.568053,7.014729,2.617865,0.464705,-0.459774,-0.207275,0.006592,-0.552734,-0.942476,-0.172013,8.016217,-0.458973,2.805076,0.102297,0.118408,-0.006592,-0.515137,-2.512355,0.357702,6.805781,-0.997576,2.914446,0.916545,0.263428,0.030762,-0.5625
-1.236822,5.02071,9.803002,-0.090207,-0.746231,0.445366,0.123779,0.099609,-0.582275,1.281281,13.042392,7.101456,-4.09047,0.475631,-0.296172,-0.235352,-0.188721,-0.569824,-0.860968,4.815144,9.370141,1.417037,0.457319,-0.519177,-0.193604,-0.021973,-0.564941,-3.831988,-2.821148,6.291475,1.873258,2.950014,-0.175104,0.164307,-0.040771,-0.516846,-5.986273,-3.728932,6.389588,2.784768,2.141605,1.27287,0.301514,-0.025146,-0.548828
-0.77354,5.031301,8.424168,-1.200207,-1.219183,0.241956,0.109863,0.11377,-0.580566,0.33281,6.31833,5.733057,-6.978529,0.246372,-0.195614,-0.221436,-0.093018,-0.601807,2.39706,1.215458,8.616319,0.203776,-0.755686,0.165022,-0.204834,-0.009033,-0.573242,-3.646563,2.439719,6.955126,3.233877,1.877811,0.295255,0.188721,-0.07251,-0.515869,-2.768735,5.352324,8.206816,4.406837,1.778213,0.050464,0.327881,-0.072998,-0.532227
-2.529041,1.383438,7.354034,-1.28694,-0.678604,0.64332,0.094482,0.147949,-0.575195,0.451855,1.35655,7.997514,-4.730845,-0.022186,-0.437113,-0.22168,-0.013672,-0.609131,2.46715,0.032533,9.30561,1.601726,1.264738,-1.065294,-0.193848,-0.036865,-0.590332,-2.909555,3.562527,7.361037,0.420713,2.542979,-0.575481,0.22168,-0.078369,-0.510742,-4.792128,7.43153,8.409478,0.769606,2.90521,1.682769,0.361084,-0.095459,-0.510986
-1.067434,0.553824,7.945484,-0.486047,-1.854297,1.124698,0.065918,0.168213,-0.57666,2.275979,0.938602,9.563298,-3.391189,-0.067757,-0.721935,-0.214844,0.043945,-0.62085,0.080438,4.360457,8.386679,1.848302,0.711567,-0.73697,-0.171875,-0.068359,-0.594482,-4.628848,-0.221918,6.412015,-0.127646,2.605257,-0.300319,0.261475,-0.076904,-0.494141,-6.317775,1.25574,7.355731,-0.20123,1.948986,1.792397,0.387939,-0.107178,-0.484131
-1.304132,1.007619,7.864493,0.541794,-1.860454,0.975265,0.042969,0.16333,-0.557373,1.720096,0.465708,9.965891,-1.406611,0.687721,-0.552194,-0.193359,0.061768,-0.614502,0.935038,4.494967,8.030776,0.042151,0.661412,-0.833054,-0.166016,-0.079346,-0.605957,-5.24444,-0.981762,5.361476,1.754437,1.991311,-0.459692,0.285645,-0.107666,-0.490479,-4.791198,0.030454,6.145244,2.803977,1.87819,1.923228,0.400146,-0.164062,-0.46167
2.448156,0.077061,5.881041,1.615548,-2.89818,1.581148,-0.019043,0.144775,-0.548828,0.563352,2.980125,9.277233,-1.233449,0.651643,-0.753135,-0.19458,0.07959,-0.630127,0.751746,-0.506002,7.785301,0.332869,0.97402,-0.921184,-0.148193,-0.081055,-0.619629,-3.805972,2.101962,4.837241,2.549546,1.970506,-0.19746,0.314209,-0.131836,-0.47583,-5.037635,6.02477,7.403905,3.859075,1.512147,1.278269,0.412598,-0.210693,-0.430908
3.292719,3.55277,6.077755,3.164961,-2.284906,1.299622,-0.043457,0.104492,-0.530029,0.811333,1.960776,8.505635,-1.924909,0.522309,-0.757586,-0.176514,0.113281,-0.626465,0.058231,0.146625,7.062407,2.629322,1.21464,-1.505412,-0.125488,-0.12793,-0.614502,-5.483179,2.542572,5.403708,1.685467,2.70025,-0.061844,0.352539,-0.155762,-0.445557,-4.655599,6.05169,7.387999,1.70103,1.529408,1.562099,0.425537,-0.249512,-0.397705
3.314005,7.06893,8.602429,1.821064,-2.395159,1.417091,-0.085205,0.089355,-0.513916,0.663619,-0.723609,6.082023,-3.395073,0.505741,-0.668404,-0.168457,0.16748,-0.623535,-0.814597,3.635901,6.658782,2.111248,1.275575,-1.448715,-0.100586,-0.163574,-0.622314,-7.133135,1.814109,5.147405,2.10184,2.091809,-0.181621,0.379395,-0.180908,-0.428955,-5.979359,3.235124,5.881285,2.818683,1.117208,1.164542,0.427002,-0.283936,-0.369873
2.240343,9.796448,8.535785,-0.101394,-2.2793,0.636262,-0.11792,0.101318,-0.491211,1.175263,-6.538418,7.321478,-1.781298,0.889188,-0.489693,-0.151123,0.197998,-0.616455,-2.151955,2.889978,5.917574,1.12054,0.757411,-0.990016,-0.088135,-0.175537,-0.625488,-6.522298,3.036454,4.15075,2.2276,1.71255,0.082935,0.395752,-0.198975,-0.408691,-4.76015,8.124096,7.173505,4.230353,0.902629,1.133574,0.422119,-0.320557,-0.332764
3.599194,6.30019,5.865004,-2.39511,-2.862232,-0.105163,-0.165527,0.126953,-0.468994,-0.313105,-3.328473,5.528907,1.64802,1.134889,-0.386,-0.14502,0.164062,-0.625732,-0.573765,2.529231,5.429111,1.619039,0.357614,-1.343541,-0.069824,-0.214355,-0.622559,-6.147168,4.179804,4.94536,2.138183,1.632459,-0.247919,0.41748,-0.229736,-0.38623,-4.581616,10.224122,8.291673,2.083127,0.789451,1.553844,0.42041,-0.360107,-0.309814
4.468392,1.980835,4.622582,-1.26985,-2.319994,0.066636,-0.193848,0.157227,-0.451416,0.357343,3.259543,7.951899,0.91782,1.047341,-0.86082,-0.126221,0.160156,-0.64209,-0.662666,4.237237,6.873944,0.989905,0.975851,-0.926697,-0.047119,-0.228516,-0.629639,-6.594167,5.342232,4.887324,1.483492,1.311154,-0.177058,0.437988,-0.245605,-0.374268,-3.550558,7.212034,8.90737,0.826251,0.595292,1.770889,0.41333,-0.377441,-0.30542
3.208652,3.610583,7.661526,0.043772,-2.211772,-0.488271,-0.221924,0.148193,-0.426758,-1.262238,-0.059336,5.357953,-1.092139,1.171446,-0.660514,-0.110107,0.168701,-0.639404,-1.742663,3.006016,6.698332,0.231955,0.623254,-0.737943,-0.041748,-0.231934,-0.625732,-6.606295,5.340903,4.635979,0.600103,0.786175,-0.176858,0.439209,-0.250977,-0.355713,-2.777071,6.522175,8.837683,1.538154,0.240394,1.467573,0.394287,-0.401611,-0.283447
4.804892,7.096917,8.524871,-0.855975,-2.026432,-1.194066,-0.245117,0.147949,-0.4021,-0.69424,-2.745864,7.301173,-0.201482,0.567791,-0.803423,-0.105225,0.174805,-0.640381,-1.907541,3.126501,4.488665,1.502153,0.803209,-0.795693,-0.024902,-0.253662,-0.621094,-7.028616,3.899061,3.881854,0.94832,0.652497,0.219457,0.445068,-0.257568,-0.353271,-2.937191,7.973205,8.55762,1.567833,-0.103611,0.857515,0.383789,-0.415283,-0.275146
5.777854,4.408158,7.470058,-2.998583,-1.797523,-1.989304,-0.269287,0.171631,-0.378662,0.707288,0.29785,6.547922,-0.535043,1.280431,-0.043289,-0.086182,0.188965,-0.638184,-2.064708,5.694191,5.093565,1.620328,0.546947,-0.902123,-0.016357,-0.279297,-0.605225,-6.897058,5.330851,4.262372,2.103212,-0.066575,0.333636,0.438477,-0.284424,-0.335693,-1.863612,8.478118,9.098146,1.10347,-0.829,0.845193,0.364502,-0.434814,-0.268799
4.501137,0.816097,7.858169,-3.342285,-0.966313,-2.073805,-0.282959,0.194092,-0.371826,-2.299035,-1.665474,4.200899,-0.761682,1.030637,-0.308234,-0.07373,0.206299,-0.641357,-0.986056,6.62357,5.824951,0.231225,0.373509,-0.118494,-0.008057,-0.275391,-0.613281,-6.061901,9.334248,5.171421,1.374327,-0.569583,0.257794,0.432373,-0.296631,-0.344971,-1.406407,8.834922,8.116439,0.096512,-0.248235,0.49555,0.359375,-0.43042,-0.277344
4.489517,0.799287,10.241291,-2.613836,-0.093899,-2.144209,-0.278076,0.194092,-0.370361,-1.188271,-1.339893,4.391511,0.019316,0.630578,-0.202538,-0.061035,0.202881,-0.643555,-2.003499,5.826816,5.714062,-0.177004,0.778282,-0.226704,0.009033,-0.285645,-0.617676,-6.909831,8.615699,5.10793,-1.253567,-0.498771,-0.040819,0.432373,-0.295654,-0.358643,-2.615226,9.383706,7.074775,-0.53338,-0.491271,0.678306,0.351074,-0.450195,-0.293945
5.696541,1.007964,11.090063,-3.216494,1.282805,-2.175623,-0.256836,0.210205,-0.377686,-2.994605,-0.220057,6.085833,0.466189,0.252332,0.135294,-0.051758,0.196289,-0.641846,-3.288675,6.635847,5.788457,0.129778,0.366173,-0.101555,0.013916,-0.279785,-0.608887,-7.846241,4.132172,3.703929,-1.113288,-0.936076,0.053435,0.423584,-0.275391,-0.369629,-1.808828,8.447979,5.940677,-1.132721,-0.777664,0.26946,0.342285,-0.438965,-0.307129
7.110209,2.235854,10.051375,-3.905628,2.374406,-2.508033,-0.239258,0.23584,-0.409424,-0.961887,0.990269,5.267695,-0.498528,-0.13413,0.339499,-0.057373,0.209717,-0.644531,-2.13801,6.672669,5.51301,-0.55347,-0.011338,0.117164,0.008789,-0.272949,-0.619385,-6.555128,5.206561,4.327678,0.860838,-1.568501,0.209759,0.405762,-0.286133,-0.384277,-1.166365,8.007761,6.419877,-0.888092,-0.696207,-0.001548,0.333252,-0.437988,-0.331543
7.241181,2.255916,7.582165,-6.108682,3.521834,-2.05011,-0.19165,0.282227,-0.426758,-1.342662,-4.044588,4.717779,-0.803324,-0.033875,0.656895,-0.050781,0.212402,-0.636963,-1.660292,4.234304,5.529,-1.48567,-0.051776,0.408015,0.012695,-0.251465,-0.618408,-5.338745,9.252272,5.681671,0.175589,-1.420284,0.319442,0.394287,-0.293945,-0.391602,-1.5161,8.623576,6.274484,-1.162879,-0.785022,-0.352115,0.337158,-0.431396,-0.345703
5.829163,-4.344608,5.452437,-7.330699,4.118413,-0.741693,-0.138672,0.37085,-0.443604,-1.36313,-5.612038,4.710859,2.366856,-0.068031,0.209514,-0.043945,0.172607,-0.651367,-2.698097,2.524671,6.150798,-1.193274,-0.109477,0.766304,0.002686,-0.231934,-0.629883,-7.437137,8.218018,5.981231,-2.635389,-1.082009,0.10574,0.382812,-0.261475,-0.42334,-2.062903,9.79674,6.483864,-1.766174,-0.318272,-0.503435,0.336182,-0.4104,-0.374512
5.962936,-8.082421,4.582252,-4.934242,4.55098,-0.380587,-0.085449,0.439941,-0.458252,-1.756067,-0.90676,5.226237,4.215231,-0.107201,0.300049,-0.053711,0.105957,-0.67041,-1.830172,5.078546,7.21231,-0.95625,-0.44404,0.687042,-0.011963,-0.219238,-0.633789,-7.293799,3.123398,5.16075,-3.294206,-2.175156,-0.050893,0.351318,-0.228027,-0.461426,-2.744387,9.581554,6.900763,-3.064669,-0.417737,-0.465174,0.333984,-0.385986,-0.414307
4.658543,-7.008641,4.478167,-2.259031,4.894976,0.947393,-0.012695,0.486084,-0.461914,-1.254557,2.916637,5.940005,3.901731,-0.506816,0.377523,-0.05957,0.043945,-0.665283,-1.847852,4.773521,8.389524,-2.193303,-0.380631,0.931819,-0.021484,-0.184082,-0.643799,-4.751032,1.279579,5.143003,-1.324068,-2.06579,0.203825,0.326172,-0.213623,-0.484863,-2.736487,6.101629,6.044664,-3.390937,-0.563032,-0.516797,0.33252,-0.345947,-0.455566
3.403194,-5.27315,5.373375,-1.247513,5.099713,1.138168,0.06665,0.501953,-0.484375,-2.077879,6.673846,8.02981,2.652827,-0.527882,0.330754,-0.071289,-0.005859,-0.667725,-2.469891,1.483428,7.435703,-1.650097,-0.488151,0.799969,-0.029297,-0.163086,-0.644043,-6.005679,3.951837,6.075331,-0.440165,-1.21268,0.476835,0.311035,-0.212402,-0.492432,-3.591276,4.86838,5.680419,-1.669598,-0.681616,-0.901873,0.333984,-0.329346,-0.4729
0.411294,-3.035504,6.538338,-2.128708,4.750652,1.577794,0.141113,0.541992,-0.473633,-0.765189,4.81171,9.690299,-0.039163,-0.643438,0.395098,-0.086426,-0.001709,-0.662598,-3.29321,0.90037,6.079678,-0.037738,-0.59797,0.625041,-0.041992,-0.158447,-0.641357,-7.420262,3.976033,6.485788,-1.321869,-1.571122,0.593936,0.285645,-0.197021,-0.513916,-4.096386,7.546136,6.891461,-0.796255,-1.232618,-1.162242,0.323486,-0.306885,-0.493652
-1.433035,-6.485464,5.545344,-2.826931,4.281073,1.89706,0.221436,0.569336,-0.448486,0.01881,0.906523,9.490455,1.494639,0.102366,0.396478,-0.081543,-0.0354,-0.656982,-1.174477,4.48683,8.239828,1.152727,-1.390751,0.572238,-0.05835,-0.167969,-0.630859,-4.350843,1.108956,5.807423,-0.588243,-2.074748,0.643975,0.264404,-0.18457,-0.5271,-3.099878,5.959917,7.295011,-1.885392,-1.634473,-1.038553,0.316895,-0.269043,-0.519287
-4.606973,-10.689967,4.312701,-1.445282,3.05634,2.28431,0.288086,0.591553,-0.429688,-0.891291,6.540727,10.758187,2.783931,0.21361,0.118027,-0.075684,-0.079102,-0.650635,0.872802,6.498329,9.946028,0.514224,-0.56868,0.464245,-0.069824,-0.185547,-0.632324,-3.170331,2.059541,6.975942,1.088566,-1.12975,0.83289,0.245361,-0.216553,-0.536621,-3.484805,2.34162,6.813149,-0.936414,-1.356087,-1.23847,0.303711,-0.261719,-0.545654
-0.226548,-8.274386,3.861408,1.312223,2.834403,3.192324,0.355713,0.565918,-0.439209,-1.231157,6.204991,8.445033,0.878987,-0.029622,0.550022,-0.081299,-0.095215,-0.649658,-1.161841,5.371519,9.286963,0.392401,-0.391721,0.292048,-0.085693,-0.177246,-0.623535,-5.155969,5.219283,8.141863,1.184776,-1.142197,0.773333,0.218262,-0.224609,-0.536133,-3.751199,4.628032,7.015269,1.066952,-1.895053,-1.17083,0.272461,-0.258789,-0.549561
-3.563552,-0.721142,6.256336,1.290255,3.154186,3.051097,0.428711,0.531982,-0.441406,-1.259545,6.325018,9.19259,1.740607,-0.340443,0.249783,-0.086426,-0.126709,-0.642578,0.113169,6.346242,9.56521,0.393239,-0.6302,0.156223,-0.090088,-0.187988,-0.617188,-3.886183,5.842278,7.470445,-0.244943,-1.773382,0.5049,0.19751,-0.226807,-0.542969,-1.759301,8.094841,8.291536,-0.31576,-1.616904,-0.839764,0.26001,-0.255615,-0.564453
-8.047018,-0.496521,7.116684,-1.000866,2.996095,2.825732,0.491455,0.54248,-0.405762,-0.515142,10.01795,13.695703,-0.597672,-0.22036,0.172762,-0.089844,-0.102295,-0.635986,-0.121482,5.945436,8.60207,-0.900716,0.020319,0.324894,-0.090332,-0.180176,-0.626465,-3.257314,4.483681,7.619617,-0.853701,-1.184264,0.32504,0.175537,-0.219971,-0.557861,-3.235947,4.494658,8.910164,-2.576769,-0.948739,-0.763976,0.246094,-0.21875,-0.596436
-7.767856,-0.27556,6.446351,-1.580325,1.808486,3.284633,0.538818,0.527832,-0.378418,-0.397533,5.321305,9.133436,-2.54779,-0.020612,-0.023863,-0.094971,-0.071289,-0.641846,-1.206556,4.87092,8.561001,-1.069886,-0.29359,0.16944,-0.093506,-0.155029,-0.624268,-4.728167,4.169744,8.267555,-1.16271,-1.614168,0.159816,0.156982,-0.19873,-0.565186,-3.622113,1.53893,7.721848,-1.554502,-1.56544,-1.126782,0.231689,-0.187256,-0.60791
-6.496325,-3.279955,2.831036,-3.022448,1.973185,2.605713,0.574219,0.537842,-0.34375,-0.643085,1.554632,9.298834,-1.330092,0.358539,0.298249,-0.096191,-0.047852,-0.6521,0.419461,6.19948,9.301044,-0.97805,-0.031913,-0.053374,-0.095215,-0.139648,-0.624756,-2.635756,3.138592,8.014869,-1.728927,-2.152037,-0.200621,0.123779,-0.170166,-0.577148,-1.949725,4.771361,8.498171,-0.583733,-1.276122,-0.832706,0.208252,-0.171631,-0.616943
-10.284557,-7.21618,1.073183,-0.650596,1.133816,3.306843,0.62207,0.513672,-0.329102,-2.326812,4.168395,10.210969,1.063493,0.058489,0.22217,-0.093018,-0.060791,-0.64502,-1.291728,5.345358,10.271774,-1.712754,0.178494,-0.241285,-0.095459,-0.111572,-0.624756,-2.462137,2.700608,8.239092,-0.808273,-1.277861,-0.133706,0.094971,-0.156006,-0.577637,-2.84831,6.623268,8.96904,-1.707783,-1.307832,-0.596498,0.18335,-0.144775,-0.63208
-9.914792,-4.85167,1.514768,-0.216542,0.465912,3.389147,0.65625,0.484619,-0.318604,-0.566438,11.123507,13.39368,0.233399,-0.034595,0.083677,-0.089844,-0.057373,-0.641602,0.162555,4.791921,10.207379,-1.526022,-0.123008,-0.269149,-0.09375,-0.089111,-0.633545,-3.889975,5.080516,8.802776,-0.971281,-1.829745,-0.162082,0.074219,-0.141113,-0.592773,-1.219912,3.421362,8.727825,-3.356716,-1.37449,-0.675521,0.162354,-0.086182,-0.654785
-6.631624,-2.91754,0.621153,2.491287,-0.258777,3.567397,0.679688,0.41626,-0.340576,-0.969707,7.364486,11.466106,-4.167213,-0.226032,0.611436,-0.093506,0.006348,-0.647949,1.449057,4.211844,11.826015,-1.925584,0.737871,-0.540143,-0.085205,-0.059814,-0.628418,-0.148373,3.613259,8.390957,-2.406778,-2.347251,-0.447068,0.031982,-0.103516,-0.590088,-1.002479,-1.341675,7.2577,-2.4211,-1.117462,-1.134751,0.137451,-0.046143,-0.652588
-10.407384,7.82884,4.821178,1.262778,-0.003559,3.225394,0.697266,0.35791,-0.341064,0.975312,-0.11966,10.247883,-3.568723,-0.247583,-0.032245,-0.097168,0.064209,-0.638672,-0.004339,1.505981,10.796901,-1.552939,0.878889,-0.443469,-0.060547,-0.031006,-0.635498,0.6869,0.281601,8.428066,-1.387106,-0.969535,-0.133143,0.029297,-0.078613,-0.597656,-0.819075,1.000142,8.949172,0.10542,-1.417062,-1.780241,0.123291,-0.040527,-0.664795
-11.243483,3.656584,1.985883,-2.767838,-1.783142,3.208869,0.693848,0.354004,-0.356689,-0.205094,-1.247204,11.526008,-1.587234,0.121369,0.437499,-0.0896,0.097656,-0.641357,0.34473,0.326649,9.644122,-0.701239,1.253724,-0.437066,-0.045166,-0.023193,-0.62915,-2.442577,1.964878,9.850523,0.711902,-1.016955,-0.098229,0.009033,-0.089844,-0.591309,-0.413184,5.005535,9.515437,-0.232471,-1.4983,-1.724858,0.091309,-0.036865,-0.662109
-12.914553,-2.363572,-1.110405,-1.94822,-2.325889,3.159059,0.67749,0.335693,-0.374023,0.61383,4.658367,14.725103,-0.059979,0.275873,-0.967438,-0.088379,0.094482,-0.637207,-2.019149,0.148286,10.157184,-0.425611,1.387334,-0.23495,-0.021484,-0.017334,-0.636475,-0.285356,5.822076,9.289673,0.337399,-1.925255,0.278242,-0.019775,-0.095947,-0.594727,0.013485,3.761638,9.142199,-1.336047,-1.449482,-2.251083,0.061523,-0.012207,-0.670166
-8.060665,-2.764388,0.478347,0.812505,-5.107138,3.752621,0.622559,0.279297,-0.437988,0.666066,1.627832,13.583285,-2.93933,1.108062,-0.227484,-0.078857,0.135742,-0.631104,-2.173255,2.387809,9.391352,-0.193287,0.635284,-0.077281,-0.015137,-0.004883,-0.642334,0.61587,5.962569,10.018718,-1.574465,-0.748384,0.666597,-0.037598,-0.062988,-0.601562,-1.574018,3.291733,8.105514,-0.922814,-1.134992,-3.036471,0.035156,0.008057,-0.678955
-5.133761,3.51789,5.108117,3.155753,-4.645084,3.195149,0.564697,0.206543,-0.487549,-0.012341,-4.127413,10.918983,-2.229177,1.550042,-0.902988,-0.05249,0.178467,-0.627686,-1.651201,4.029972,8.995355,-1.277321,1.247975,0.00217,0.002686,0.013428,-0.634277,-0.912314,1.90318,8.974222,-2.657486,-0.502411,0.553438,-0.046143,-0.020508,-0.591797,-1.014392,3.18357,8.096123,-1.528216,-1.571473,-3.082467,0.000732,0.029297,-0.670654
-4.189647,8.106004,6.738866,0.961299,-5.689494,2.390257,0.48584,0.165039,-0.532959,-1.498195,-3.850575,9.389116,-1.376112,2.00714,0.757794,-0.008545,0.192383,-0.624512,-3.836343,2.57509,10.541599,-2.116797,0.811575,-0.006865,0.025391,0.040283,-0.624756,-0.725545,0.086064,8.759337,-1.095337,-0.935695,0.669092,-0.052246,-0.01001,-0.581299,-0.941425,1.283238,7.771016,-1.809507,-1.074867,-3.241358,-0.019775,0.047119,-0.658691
-2.130879,8.431047,5.987181,-1.138557,-5.410712,0.448724,0.404297,0.189209,-0.563965,-3.970642,-5.360772,7.827565,-2.653631,1.358258,0.926812,0.018799,0.243652,-0.608887,-2.706701,0.315803,10.093061,-1.887481,0.518564,0.23772,0.02417,0.074219,-0.62207,0.263051,2.127372,9.726772,-1.032551,-0.414679,0.618318,-0.066162,0.013428,-0.581787,-1.870466,0.409481,8.753689,-1.522975,-1.179097,-3.275587,-0.060303,0.069336,-0.655273
2.824878,2.610932,4.139493,-2.878202,-6.044001,-0.277915,0.289551,0.227051,-0.592529,-2.888491,-7.426399,8.327119,-0.140206,0.984986,1.919543,0.032227,0.23877,-0.621582,-3.005449,2.602879,11.706208,-1.226297,1.349328,-0.577004,0.040039,0.09668,-0.624023,-0.692026,1.349472,10.839186,-2.46696,0.004127,0.505639,-0.066895,0.056641,-0.582031,0.398602,-0.119347,8.871223,-1.57974,-1.489847,-3.178664,-0.097412,0.085693,-0.652344
3.99324,0.920554,4.753344,-0.748828,-4.95659,-0.762916,0.208984,0.241699,-0.584717,-4.519614,-1.592574,4.753645,2.278584,0.791045,1.244713,0.055176,0.203857,-0.615479,-3.600199,-5.464464,8.118562,-4.388831,0.666314,1.051289,0.060059,0.160889,-0.600098,-0.693461,-3.852522,10.413317,-2.315501,-0.328562,0.283488,-0.06543,0.090576,-0.564697,0.337224,-1.866683,8.691138,-0.997893,-0.715067,-2.884797,-0.113037,0.091309,-0.638428
5.712472,4.457944,4.664389,1.209873,-4.884795,-0.705477,0.12793,0.220215,-0.594971,-3.298257,1.017003,7.462134,0.485986,-0.257642,0.217155,0.056396,0.197021,-0.635498,-2.507356,-12.153098,7.391657,0.381868,0.692358,1.152141,0.082275,0.153076,-0.604736,-0.238097,-4.683208,8.790239,1.559535,-0.289121,1.01433,-0.060303,0.071045,-0.575195,-1.754486,-1.345981,10.425676,1.165709,-0.144662,-3.41713,-0.122314,0.056152,-0.647461
3.134473,8.827046,9.713206,1.633907,-4.376111,-0.602765,0.048828,0.199463,-0.573242,-2.225271,-2.465839,8.857936,0.835869,0.481517,-0.069124,0.057617,0.189697,-0.631836,-2.414267,-1.325966,8.178605,3.978464,1.474626,0.021033,0.0979,0.095459,-0.614502,-0.326844,2.200145,10.055145,2.696397,-0.678642,1.343664,-0.073486,0.034424,-0.584473,-1.139811,2.429963,9.185403,1.886025,-1.116192,-3.444439,-0.155273,0.005859,-0.641846
2.051414,9.223561,10.239688,-0.745091,-4.616769,-1.936109,-0.029541,0.194824,-0.550293,-4.241674,0.579486,6.883004,1.174799,0.359826,0.17893,0.066162,0.168213,-0.637451,-6.737057,7.519831,6.746202,1.38927,1.507723,1.243418,0.129639,0.066406,-0.614746,0.148443,3.483928,10.718097,-0.466763,-0.079829,1.027512,-0.067383,0.037598,-0.581055,1.905981,2.495326,8.028317,-0.067967,-0.47128,-2.894988,-0.161133,-0.010498,-0.638184
4.493424,4.182092,8.535435,-1.948601,-4.936494,-3.293504,-0.101074,0.202881,-0.51123,-4.135257,-1.922585,5.874953,-1.118932,0.604003,1.325449,0.085938,0.182129,-0.634521,-7.405768,5.881273,9.249059,-2.141485,0.023572,0.229887,0.134521,0.102295,-0.616943,-1.558314,-1.232381,8.730237,-1.703839,0.426246,0.839016,-0.05249,0.072266,-0.583252,0.229303,0.055816,7.442753,-0.559083,-0.278813,-2.327585,-0.166748,-0.011963,-0.641113
6.86265,2.246145,8.582214,-1.213072,-3.713258,-4.012005,-0.150879,0.182617,-0.473877,-5.884257,-2.355844,4.475951,2.165383,0.003344,1.262734,0.092773,0.140869,-0.639893,-4.672981,-2.129772,7.373871,-3.32189,-0.493635,1.321369,0.124756,0.143311,-0.604004,-0.604305,-2.113448,10.075823,0.125818,-0.219392,0.603026,-0.061768,0.068848,-0.582031,0.960207,0.761694,7.78291,0.095583,-0.937382,-2.018708,-0.187988,-0.024658,-0.633057
4.532682,0.325462,9.845817,-0.123419,-3.162647,-3.032878,-0.200928,0.155762,-0.446533,-3.300266,7.514567,7.987995,2.248335,0.195433,0.443733,0.088623,0.10083,-0.652832,-5.402746,-7.565532,5.691877,-0.369428,0.28844,0.511995,0.139648,0.150879,-0.594482,0.217205,0.161237,12.54946,0.071233,0.768561,0.842353,-0.036621,0.070801,-0.57373,5.105589,2.23782,11.211285,-0.120391,-0.766596,-1.805329,-0.194824,-0.032959,-0.619385
3.10732,0.193039,12.338506,0.792663,-2.708986,-2.3947,-0.228516,0.122803,-0.410156,-7.204706,4.322071,6.355333,-0.293775,0.153084,0.741448,0.097656,0.107178,-0.645752,-6.241142,-1.812671,8.824705,2.982804,-0.068358,0.283907,0.128418,0.111816,-0.609375,-6.811581,-7.079117,10.887377,-2.420691,1.218682,-0.037308,-0.031982,0.115234,-0.567871,13.444566,-1.483953,9.2515,-0.481676,0.089367,0.793777,-0.202637,-0.015625,-0.625732
4.848287,1.382929,11.564186,1.295046,-1.74442,-1.748041,-0.23999,0.087646,-0.388916,-2.438152,5.102786,8.604766,0.974652,-0.771187,-0.490125,0.090576,0.09375,-0.648682,-3.538556,1.878257,8.166813,2.065692,-0.378611,0.503864,0.140381,0.062012,-0.616943,-1.304739,-9.000805,5.287853,4.204677,-3.077147,-0.417755,-0.067627,0.037109,-0.584229,-0.749483,-2.036182,3.254737,2.553525,4.506181,0.783514,-0.108398,-0.068604,-0.648682
4.438872,5.775466,12.856521,1.03846,-1.494736,-0.779695,-0.26416,0.064941,-0.375732,-2.681633,2.748548,7.998917,-0.110954,0.338328,0.44171,0.088379,0.089844,-0.655273,-4.387719,5.891887,9.449717,1.777219,0.178339,-0.051534,0.143555,0.03418,-0.623779,9.074843,8.979956,6.902392,7.266237,-0.547424,0.205168,-0.070557,-0.07959,-0.594971,-7.295787,7.416875,6.999455,2.247015,-0.55005,-0.207373,-0.117676,-0.105957,-0.648193
6.6973,3.629252,11.842953,-1.497833,-0.348069,-0.892607,-0.257812,0.064697,-0.366455,-4.771715,3.864334,9.629648,0.917981,-0.488576,-0.461504,0.083984,0.069336,-0.653076,-4.993927,6.874671,11.270879,-1.096404,-0.518605,0.009294,0.134277,0.059326,-0.619141,0.503128,15.291791,11.350434,-2.637728,3.860227,-0.26123,-0.011719,-0.031006,-0.591797,4.285381,7.834183,6.776418,-2.546645,-0.565574,1.295143,-0.128418,-0.046631,-0.641113
3.964111,0.148707,10.623539,-0.550451,-0.289866,-0.11681,-0.264648,0.070068,-0.369629,-1.256538,4.890943,9.522588,-0.398927,-0.356934,0.425605,0.07666,0.075684,-0.65625,-3.297559,2.954573,10.17381,-3.124662,-0.939057,0.068562,0.108643,0.106934,-0.625244,-2.672105,0.413629,7.935374,-7.643848,0.771111,-0.330582,-0.010498,0.09082,-0.584229,-2.723907,1.077469,7.213852,-4.16389,1.630983,0.299971,-0.106201,0.028564,-0.657227
5.983711,1.530481,9.298452,0.238298,0.665154,0.362387,-0.25415,0.083008,-0.378906,-3.14316,1.738127,8.495354,-0.292112,-0.330121,-0.57523,0.075684,0.093506,-0.657715,-2.241875,-1.719008,9.175681,-2.732196,-0.685734,0.02324,0.097168,0.141602,-0.60791,4.764236,-8.491198,7.610148,-1.423063,1.146775,0.102533,0.007324,0.105957,-0.570557,-1.03122,-2.064105,8.193082,-2.488968,-1.784159,0.644016,-0.138672,0.069336,-0.633301
4.313363,4.504232,8.244995,0.823018,0.604365,0.63362,-0.249512,0.073486,-0.383789,-1.264205,2.515475,8.872259,0.58185,-0.561888,-0.082156,0.064209,0.073975,-0.658691,-2.617803,-1.613009,8.794217,-0.92075,-0.636829,-0.119929,0.0896,0.156738,-0.608643,-0.787859,1.190631,10.460303,2.748769,3.598373,0.788184,0.06958,0.062012,-0.583496,6.330641,-0.43873,9.796735,-1.639911,0.183186,0.121549,-0.128662,0.095459,-0.631592
4.578835,5.04929,7.676972,0.379215,0.912134,0.660856,-0.244873,0.076172,-0.394043,-2.591825,3.587593,9.754672,0.031748,-0.164154,-0.853918,0.057129,0.078857,-0.662109,-3.646746,1.549743,10.52126,-0.307461,-0.493927,-0.052037,0.080322,0.16333,-0.607178,-5.227321,7.126212,13.696942,-1.786296,1.538379,-0.512782,0.091553,0.092041,-0.570801,0.779944,0.61147,10.187776,-2.362434,1.23891,0.716757,-0.103027,0.140625,-0.625488
5.118003,5.950689,7.266224,0.769992,0.431594,0.41374,-0.242676,0.071289,-0.403809,-3.625097,1.360565,10.010314,-0.839574,-0.161785,-0.267847,0.048096,0.09082,-0.668701,-4.538919,1.781017,11.02547,-1.780679,-1.224638,0.143423,0.068848,0.188965,-0.604004,-0.594769,-2.036185,9.410547,-5.023936,1.473126,-0.559709,0.113525,0.166748,-0.54541,0.532573,-1.824827,9.745349,-3.117569,0.007636,1.401087,-0.088623,0.19873,-0.61084
3.808848,5.392296,7.273863,-0.251848,0.725895,0.007533,-0.23291,0.078369,-0.404785,-3.383718,-0.747441,8.955132,-0.183331,-0.519002,-0.161729,0.04248,0.098877,-0.660156,-2.400217,-0.747073,10.391685,-1.571561,-1.233997,0.076193,0.051514,0.212158,-0.599609,-3.375708,-7.472175,8.440301,-0.744294,3.017372,-0.084785,0.159668,0.17749,-0.52832,1.270989,-4.163002,8.258607,-2.484339,0.966357,1.661212,-0.058594,0.242432,-0.596924
3.971343,3.906598,8.254875,-0.445163,0.288676,-0.346836,-0.220215,0.078857,-0.409668,-1.765039,0.928431,9.218864,1.074322,-0.59846,0.291179,0.040527,0.078125,-0.662354,-1.485201,-2.109889,9.803548,-1.182741,-0.851259,-0.049659,0.031738,0.231689,-0.587646,-6.007374,-0.987165,11.231156,1.487191,1.589046,-0.53392,0.171875,0.16333,-0.528564,0.14013,-4.104036,10.518395,-1.801136,0.881685,1.867701,-0.032715,0.282959,-0.580566
3.941119,3.755934,7.536961,-0.436677,0.58583,-0.442683,-0.22168,0.080322,-0.415283,-3.110043,3.906241,10.634189,0.2165,-0.494659,0.407672,0.024658,0.077148,-0.663574,-2.319221,-3.960617,9.421399,-0.023632,-0.627759,-0.048674,0.02124,0.231201,-0.584229,-3.539138,-0.281968,10.272905,-1.035579,1.010683,-0.51865,0.183105,0.174805,-0.517334,0.750435,-4.867639,10.552152,-0.956101,1.689911,2.200267,0.01416,0.298096,-0.573242
4.381328,4.430075,7.704524,-0.475575,0.137018,-0.620659,-0.214355,0.08374,-0.416748,-2.436277,2.90976,10.129272,-0.619902,-0.972553,0.533299,0.014404,0.086914,-0.661133,-1.889977,-2.351805,9.758398,1.143566,-0.575426,-0.402728,0.012939,0.219482,-0.604492,-3.94,-5.355207,7.432371,-0.610472,1.676095,-0.462829,0.203613,0.191162,-0.514404,-3.509066,-3.625738,9.220022,0.196562,1.962936,2.46215,0.070557,0.300781,-0.581055
3.814703,3.259116,7.464058,-0.402994,0.124856,-0.293586,-0.212891,0.06665,-0.416992,-1.092713,3.858464,10.322284,-0.711377,-0.429591,0.289569,0.005615,0.083008,-0.656494,-1.953775,0.171555,8.799403,0.647098,-0.257845,-0.268307,0.010742,0.210205,-0.61084,-5.312772,-3.142094,7.714136,2.075883,1.084142,-0.207839,0.22168,0.166016,-0.525391,-2.748667,-2.260744,8.75563,-0.555562,0.925037,2.321495,0.110352,0.309082,-0.574707
4.378123,3.08638,8.003968,0.08875,-0.273387,-0.084626,-0.21167,0.078613,-0.417725,-1.61233,2.900984,9.964497,-1.87682,-0.264952,0.125596,0.005615,0.128174,-0.657959,-2.465231,-0.857342,8.520842,-0.092358,-0.674531,-0.181161,-0.004639,0.209473,-0.60498,-3.83863,1.669195,8.970253,1.363337,0.722609,-0.428925,0.223145,0.147949,-0.525635,-2.025779,-4.6828,7.358973,-0.826269,1.898241,2.5418,0.157471,0.319824,-0.559326
3.040894,3.011724,8.302645,0.413573,-0.284347,0.203504,-0.216797,0.070312,-0.412109,-2.076917,-0.535153,9.386455,-1.540988,0.159529,0.04888,0.008789,0.145264,-0.649658,-1.498831,-3.295504,9.521553,0.36182,-0.606331,-0.107512,-0.016602,0.20459,-0.611328,-4.07977,-0.269567,7.867927,-0.505944,1.681081,-0.295464,0.246338,0.1521,-0.519287,-6.366119,-4.931149,7.77247,0.760496,2.063174,1.866589,0.206055,0.299561,-0.560791
3.918504,3.589371,8.143529,0.549535,-0.461346,0.289181,-0.225586,0.071045,-0.405518,-2.905581,-0.691168,9.326706,-0.071459,-0.169867,-0.217991,-0.001953,0.153809,-0.651367,-1.900565,-2.008236,8.780517,1.849521,-0.342937,-0.368919,-0.017334,0.184814,-0.618164,-6.370373,-3.428553,7.418926,0.689999,1.347731,0.032648,0.272461,0.147705,-0.507324,-4.343187,-1.82865,8.978108,1.120598,0.895138,1.676762,0.241211,0.279053,-0.55835
3.733821,4.146966,8.016986,0.726053,-0.325372,0.307273,-0.231445,0.064697,-0.396484,-1.009321,1.191156,9.41999,0.006585,-0.114953,-0.138531,-0.000732,0.150391,-0.651611,-0.999771,0.491809,10.19075,1.311676,-0.563098,-0.211394,-0.032959,0.157471,-0.623291,-4.663551,-1.265275,7.385644,2.481804,0.495539,0.009485,0.271484,0.106201,-0.518066,-3.198762,-2.069229,8.085121,0.399024,2.037386,1.480065,0.278076,0.260742,-0.54541
4.196138,5.041623,7.953451,0.379961,-0.164264,0.199654,-0.232666,0.065674,-0.391357,-2.428378,0.007797,8.766235,-0.508248,-0.20949,-0.278941,-0.003418,0.162842,-0.642334,-0.497877,-1.18585,9.054669,0.801535,-0.386667,0.09937,-0.039551,0.138428,-0.637695,-3.247401,2.386027,7.997826,1.916425,1.25323,0.309314,0.288086,0.070801,-0.528076,-6.351854,-2.964942,7.7204,0.625643,1.670392,1.006311,0.30957,0.236084,-0.545898
4.16811,4.615568,8.424197,-0.013444,-0.074748,0.063033,-0.234863,0.0625,-0.393799,-0.897503,0.263296,8.661165,0.068745,-0.465551,-0.221708,-0.012695,0.159424,-0.649414,-0.98742,-0.673038,8.968639,1.90175,-0.217368,-0.304086,-0.038086,0.120605,-0.640625,-5.545838,1.529668,7.675461,0.332351,1.78335,0.169241,0.321777,0.078613,-0.508301,-4.041174,-2.639536,7.095997,1.125056,1.209008,0.526378,0.338135,0.229736,-0.537354
4.597899,5.218803,10.573431,0.091448,0.406291,-0.24395,-0.228027,0.061035,-0.400391,-1.935931,0.236194,8.455243,-0.236088,-0.353913,-0.080754,-0.021973,0.165527,-0.647461,-0.78263,2.200542,9.730497,1.896062,-0.361374,-0.062087,-0.043701,0.093018,-0.64624,-5.979634,-0.855028,7.319835,0.953395,1.157898,0.355526,0.342041,0.065186,-0.502686,-5.447272,-0.806178,8.26872,1.27604,2.150288,0.104527,0.369873,0.210449,-0.527588
4.880303,6.430661,12.534026,-0.305525,1.159607,-0.515558,-0.212891,0.064453,-0.412354,-1.318139,-1.036693,7.691908,0.540298,-0.973623,-0.000236,-0.038818,0.1604,-0.646973,-0.264258,1.302277,9.417491,0.945981,-0.391126,-0.025441,-0.042969,0.071533,-0.658203,-4.874425,0.621638,7.341127,2.359376,1.127449,0.55623,0.363037,0.021729,-0.508545,-6.710069,-0.262285,9.097779,1.015176,1.353544,-0.08371,0.395752,0.192139,-0.525879
5.078334,7.39962,13.274547,-0.992498,2.39443,-0.727409,-0.183105,0.065674,-0.44165,-1.14156,-0.886707,7.391766,1.786059,-0.933936,0.013469,-0.054688,0.125977,-0.655029,-0.497595,0.059278,8.875557,1.867347,-0.152762,-0.092635,-0.055176,0.039062,-0.662598,-5.750193,3.18271,7.646926,1.858378,1.558972,0.634396,0.376221,-0.010498,-0.498047,-4.779784,-0.773645,8.57107,0.956159,1.517415,-0.344814,0.404541,0.178955,-0.510498
4.928876,9.125703,13.105483,-2.340316,3.297169,-0.879553,-0.133789,0.090088,-0.480225,-1.973098,-1.314114,6.986698,3.359979,-1.464373,-0.021161,-0.078613,0.068359,-0.65918,-1.011149,2.734434,10.646544,2.017865,0.053359,-0.31913,-0.057617,0.004883,-0.650635,-7.408119,2.645133,6.910649,0.783881,1.386928,0.538978,0.394287,-0.028076,-0.473145,-7.379893,-0.646836,8.21718,0.89266,1.874542,-0.349088,0.426025,0.168213,-0.483398
6.225825,8.362023,10.083554,-4.246602,4.034212,-0.377068,-0.072754,0.147461,-0.522949,-0.708992,0.880624,7.532736,5.147358,-1.310196,-0.592567,-0.098145,-0.018311,-0.65918,-2.27717,3.000867,8.203094,0.70463,0.003555,0.316815,-0.058838,0.000977,-0.660156,-7.355693,1.720919,6.562528,0.375923,1.151474,0.360489,0.408447,-0.0271,-0.469238,-7.512931,-0.286478,8.604054,0.083961,0.920886,-0.350342,0.432373,0.178711,-0.479736
5.276276,5.07245,10.545029,-5.913612,3.927819,-0.001626,-0.014648,0.241455,-0.543945,0.346891,6.129666,9.026955,5.633819,-1.175902,0.051087,-0.12207,-0.112061,-0.638672,-2.655382,0.853828,5.673041,0.645715,-0.704992,0.023804,-0.055176,-0.011475,-0.669189,-7.366935,0.523143,6.520354,0.491219,1.110731,0.480572,0.436523,-0.040283,-0.4646,-5.834146,-2.307366,8.347264,-0.09014,1.26777,-0.202485,0.461426,0.177979,-0.465332
3.504258,-5.622812,10.524393,-4.944597,4.14461,-0.784507,0.053223,0.324951,-0.546875,2.553244,8.029682,10.197989,2.934332,0.147322,0.014515,-0.115479,-0.15332,-0.625977,0.295191,3.093417,7.152386,2.279679,-0.783899,-0.150198,-0.076172,-0.04834,-0.665527,-6.543065,0.789226,5.676141,1.611865,0.590452,0.492822,0.437256,-0.067627,-0.45752,-6.554592,-2.669585,8.408283,0.995228,1.097064,-0.455248,0.463135,0.167725,-0.457275
1.491126,-0.817056,8.920698,-0.459486,4.378595,-0.104861,0.111572,0.328857,-0.560547,-2.911661,3.059922,6.614163,2.71144,0.236333,0.719911,-0.12793,-0.199463,-0.611816,-1.485415,5.88512,10.071197,1.021893,-0.19832,-0.344819,-0.078857,-0.068848,-0.65625,-6.665865,4.083815,5.53852,1.662135,0.844042,0.400781,0.447998,-0.09375,-0.44043,-6.38805,0.028828,8.596325,1.079415,0.861893,-0.475144,0.47168,0.158936,-0.444336
1.33576,3.731892,9.652733,-1.746336,4.234944,-0.569929,0.192871,0.358887,-0.558838,0.01308,7.161952,6.846549,4.402197,-0.567151,-0.482557,-0.116699,-0.269775,-0.582275,-0.36056,3.86142,10.956354,-0.488257,-1.091271,0.434776,-0.106689,-0.063965,-0.657471,-7.639875,4.574605,7.001919,-0.212455,0.75994,0.032076,0.447266,-0.093506,-0.43335,-6.175536,0.353267,9.031545,-0.346769,0.641017,-0.112894,0.469727,0.161621,-0.437012
0.12788,3.59965,7.909623,-2.869335,4.517219,0.153075,0.260498,0.410645,-0.541504,-0.452037,11.226839,7.534833,3.110195,-0.219103,0.547969,-0.128662,-0.307861,-0.55835,1.429044,2.007515,8.81728,0.12072,-0.014449,-0.114371,-0.102783,-0.066895,-0.654541,-6.764076,1.382801,5.807116,-0.727235,0.326605,-0.081563,0.452881,-0.087402,-0.429199,-6.438425,-2.241949,7.878677,-0.573555,0.587062,-0.162785,0.478271,0.169434,-0.421631
-1.383967,0.777434,6.389594,-5.178121,4.280248,-0.08835,0.319824,0.489502,-0.496826,0.367744,8.198706,7.515362,0.386747,-0.654916,-0.14257,-0.138184,-0.317139,-0.549316,-1.148271,3.383144,8.672291,0.763456,0.350202,-0.212132,-0.090088,-0.078369,-0.645508,-6.556624,1.091929,5.606813,0.702945,0.426139,0.121999,0.463135,-0.095459,-0.412842,-6.814137,-1.517419,8.55248,0.655803,0.328872,-0.303981,0.483154,0.165527,-0.412109
-3.318369,-2.906971,4.496758,-4.479258,3.938348,0.374326,0.379883,0.553467,-0.448486,0.670945,0.666984,5.101944,2.215604,0.020133,0.648837,-0.145752,-0.342041,-0.53125,-1.114577,4.454139,8.241513,0.272681,-0.392526,-0.022177,-0.093262,-0.083496,-0.65625,-8.094831,3.407198,6.36748,0.710759,0.436818,0.125401,0.474609,-0.101807,-0.423096,-6.544471,0.166582,8.590564,0.172787,0.247,-0.237606,0.490479,0.165283,-0.420898
-5.268583,-3.108653,4.281183,-4.825902,3.584706,0.293373,0.435547,0.611084,-0.373291,-0.660602,7.416667,3.09996,7.273662,0.094661,-0.20925,-0.132568,-0.43457,-0.446045,-0.163029,3.719564,9.081415,-0.083414,-0.107215,-0.249033,-0.098877,-0.083984,-0.658447,-7.946102,2.915809,5.912299,-0.063562,-0.152341,-0.019804,0.469238,-0.107422,-0.425781,-6.759715,-1.720666,7.867009,-0.308814,0.231466,-0.009883,0.492676,0.165771,-0.418213
-5.368136,-3.262933,2.841665,-3.901712,3.055827,0.806724,0.473633,0.656982,-0.314941,0.119305,17.816789,6.208065,3.929987,-0.001342,0.133221,-0.135254,-0.468262,-0.408203,-0.364249,3.376134,9.58078,-0.138641,-0.119944,0.006123,-0.102539,-0.075684,-0.652344,-6.724658,2.718764,5.634022,0.17523,-0.163403,-0.181613,0.465088,-0.101562,-0.420654,-6.832253,-1.568182,7.587719,0.434085,-0.098017,-0.052014,0.489258,0.166748,-0.415039
-7.155799,-0.438406,2.117208,-5.236278,2.862272,1.119345,0.511475,0.697266,-0.231934,-0.646865,11.498758,3.850649,-1.219173,-0.154568,-0.095745,-0.135254,-0.455811,-0.423096,-0.113389,3.01734,8.606742,-0.552539,-0.043184,-0.004215,-0.100586,-0.060059,-0.65918,-7.216195,3.280288,5.778326,-0.212802,0.091149,-0.186124,0.467529,-0.087402,-0.425293,-6.33969,0.171799,7.601806,-0.029829,-0.197519,0.057396,0.488037,0.172363,-0.425293
-8.096599,-6.523107,-0.603649,-5.246046,1.985429,1.253281,0.530762,0.721924,-0.149902,0.065044,6.176357,2.803801,0.46598,-0.447162,-0.394492,-0.144043,-0.463379,-0.410645,-0.55402,2.094088,8.773838,-0.480325,-0.17327,0.205041,-0.102539,-0.057373,-0.656982,-7.463195,2.658279,6.388449,-0.66658,-0.207846,-0.298234,0.464355,-0.080322,-0.425293,-6.91358,-0.562113,7.8715,-0.680055,-0.150875,0.114435,0.483887,0.174072,-0.419434
-6.951691,-7.935242,-2.013775,-3.426415,1.143824,1.515603,0.560547,0.723145,-0.095703,0.970127,10.95319,4.754273,1.13965,-0.042571,-0.471239,-0.138184,-0.481689,-0.400635,1.02862,3.638128,9.522668,0.141311,-0.029621,-0.05389,-0.105225,-0.057617,-0.655518,-6.458581,1.795928,5.963768,-0.519149,-0.349591,-0.238459,0.462646,-0.072754,-0.43042,-6.277673,-1.718287,8.072239,-0.355266,-0.441857,0.058299,0.486816,0.178223,-0.424316
-4.236865,-9.898483,-3.640997,-1.249751,0.903727,1.352782,0.577393,0.71167,-0.073242,-0.779655,9.450052,3.874718,-0.641099,-0.09377,0.334562,-0.144531,-0.478271,-0.407715,-1.008779,4.315381,9.29545,-0.216494,0.638501,-0.259235,-0.093994,-0.063477,-0.653564,-7.324347,1.362393,5.565036,0.03014,-0.117235,-0.038061,0.457764,-0.078125,-0.42627,-6.597815,-1.535213,8.317702,0.295698,-0.187083,-0.046219,0.482422,0.168945,-0.426514
-7.01597,-4.787848,-0.499496,1.321193,1.036529,1.334547,0.611816,0.703857,-0.077148,1.032129,5.818848,4.206844,-0.422662,-0.079441,0.353269,-0.139648,-0.462158,-0.411377,-0.534948,3.727487,9.150755,-0.321665,-0.22999,-0.100112,-0.097656,-0.053223,-0.647705,-7.859924,2.821407,6.499232,0.531585,-0.759401,-0.135163,0.451172,-0.078613,-0.432617,-6.928473,-0.664929,9.032925,0.251234,-0.696303,0.002095,0.474854,0.173828,-0.43042
-8.792229,-2.535463,1.154928,0.550365,0.878898,0.911486,0.615967,0.684326,-0.07959,0.216042,6.623329,3.30434,1.938715,0.309958,0.595753,-0.154297,-0.486572,-0.389404,1.261576,3.872706,8.868713,-0.494732,0.584696,-0.247464,-0.088379,-0.044922,-0.653076,-6.274776,3.736174,6.567082,-0.247977,-0.931971,-0.30004,0.4375,-0.075928,-0.44165,-5.329288,-1.201549,8.47141,-0.177039,-0.763884,0.063883,0.465576,0.172363,-0.443848
-10.281702,-4.395444,-0.361648,0.903848,0.119145,0.462029,0.622803,0.676758,-0.08667,-0.173885,16.123939,5.466123,1.273284,0.074251,-0.028208,-0.151855,-0.498047,-0.371582,-1.945636,2.444321,8.525747,-1.592574,0.65259,-0.033338,-0.076904,-0.020752,-0.659424,-6.90243,3.173542,6.41208,-1.005095,-0.450743,-0.48883,0.434082,-0.055664,-0.455322,-7.184358,-0.900162,8.730294,-0.202608,-0.612432,0.131442,0.463135,0.172852,-0.45752
-8.831226,-4.203123,-0.884077,2.03796,-0.272023,0.666497,0.632324,0.654297,-0.116699,1.339853,18.078537,4.573095,-4.713565,0.180392,0.041407,-0.150146,-0.456543,-0.435547,-0.351727,2.061377,8.672148,-0.912183,-0.379364,0.281109,-0.086426,-0.006592,-0.65918,-7.75454,1.713103,7.141094,-1.658812,-0.917457,-0.683504,0.419434,-0.030273,-0.463867,-6.241899,-0.608358,9.714591,-0.922604,-1.557262,0.217766,0.442627,0.179688,-0.473877
-7.435885,-5.22153,-2.316193,2.808024,-0.926281,0.005715,0.624512,0.647217,-0.160156,0.005019,12.920634,1.705182,-8.792229,0.501375,0.156032,-0.145264,-0.34375,-0.528564,0.645242,3.144308,9.257415,-1.223724,0.705237,-0.327277,-0.077148,0.01416,-0.647217,-6.321599,0.105603,6.971489,-0.972016,-1.300965,-0.647376,0.39917,-0.009033,-0.463379,-5.612003,-1.833193,8.874017,-0.577614,-0.893252,0.306631,0.433594,0.190674,-0.469482
-8.7907,-4.179586,-1.585024,4.476886,-0.782085,0.276409,0.624512,0.615479,-0.209961,1.464622,2.70157,1.676756,-9.071955,0.211168,0.089101,-0.140625,-0.213135,-0.588135,-1.472135,2.17317,8.859388,-1.294069,-0.044516,0.11155,-0.074707,0.032715,-0.648193,-5.945382,1.942151,7.146543,0.114424,-1.11709,-0.436525,0.387695,-0.011475,-0.478027,-7.135795,-0.860839,9.096017,-0.054994,-1.331029,0.026304,0.421387,0.184326,-0.491455
-9.625244,-2.842906,-1.362529,2.807711,-2.051474,0.414448,0.61792,0.580322,-0.268555,0.400814,4.098271,6.88176,-4.82366,0.805669,0.103703,-0.128174,-0.146973,-0.620361,0.784602,1.774841,8.693701,-1.160434,-0.090644,-0.093506,-0.077393,0.053955,-0.648438,-6.584361,3.901284,8.253238,-0.886639,-1.131343,-0.506471,0.370605,0.010498,-0.488525,-5.503238,0.229059,8.737022,-0.479847,-1.551757,0.024567,0.397705,0.19458,-0.506592
-11.148489,-5.128303,-0.611551,3.888895,-2.542561,0.768299,0.605957,0.531982,-0.332275,-1.008969,7.547632,9.714261,-6.486942,0.394077,-0.019484,-0.116211,-0.043945,-0.637695,-1.419369,0.954947,10.321218,-1.523434,0.856266,-0.045871,-0.0625,0.081055,-0.643555,-6.698571,1.3533,6.898507,-2.056839,-1.133363,-0.494225,0.35498,0.04248,-0.493164,-7.036131,-1.10792,8.474796,-0.986977,-0.960488,-0.143812,0.38501,0.215576,-0.515137
-7.628474,-1.761356,0.292575,4.076176,-3.807452,0.899109,0.56543,0.478271,-0.404785,0.525744,-0.184166,7.671146,-6.982419,0.552365,0.10817,-0.110352,0.071289,-0.640137,-1.82411,-0.546663,9.620889,-1.735325,-0.386515,0.212467,-0.060547,0.099121,-0.639648,-6.48903,-0.670677,7.0672,-1.243177,-1.354297,-0.414377,0.343994,0.055908,-0.500488,-6.82187,-1.614934,8.698276,-0.560463,-1.945847,-0.297635,0.361816,0.214844,-0.531494
-4.14611,-3.873486,0.748308,5.429013,-4.101285,1.365889,0.526367,0.397217,-0.465332,-0.997786,-3.815662,7.837313,-3.74607,0.735217,-0.231038,-0.096436,0.130371,-0.624756,0.761927,-1.816493,9.475678,-1.313758,0.353414,0.278472,-0.052002,0.126465,-0.634766,-5.566945,-0.060785,7.862866,-0.791698,-1.454045,-0.153964,0.32251,0.077637,-0.517578,-4.582556,-0.64161,8.964613,-0.362509,-1.62877,-0.399383,0.340332,0.235107,-0.548096
-1.345743,-0.745092,2.833845,6.175884,-4.087661,2.20047,0.465576,0.289307,-0.525635,-0.243558,0.398257,10.442505,-0.847417,0.314706,-0.178898,-0.105713,0.147217,-0.630371,-1.282424,-1.286524,10.21776,0.045522,0.673852,-0.102345,-0.05127,0.117188,-0.638672,-5.222014,-0.127722,7.77532,-0.754532,-1.385795,0.135327,0.297852,0.074707,-0.524902,-5.856628,-1.515572,9.168576,-0.597434,-1.404945,-0.546976,0.306152,0.237549,-0.560791
-3.580046,4.307806,4.41046,4.690008,-4.428171,3.234245,0.408936,0.187744,-0.55957,0.120737,7.086679,11.683481,-2.590283,0.746733,-0.206465,-0.084961,0.180908,-0.622559,-1.3568,2.330463,8.854419,0.401019,0.633832,-0.154495,-0.040039,0.125732,-0.630127,-6.126011,-0.849146,8.360254,-0.528301,-1.23829,0.18108,0.28418,0.098633,-0.521729,-4.7686,-3.569306,8.557813,-0.168821,-1.841599,-0.563464,0.275146,0.261475,-0.565186
2.901098,2.990165,4.661788,1.850424,-5.26459,3.627061,0.32251,0.14624,-0.580322,-1.107556,-0.111834,7.939317,-5.874694,1.04885,-0.131934,-0.068359,0.279541,-0.594238,-2.861279,0.696538,9.231944,-1.740623,0.479605,0.089281,-0.026855,0.148193,-0.621094,-6.394161,-0.645579,7.98012,-0.28261,-1.67131,0.042248,0.264893,0.096924,-0.529053,-4.383658,-2.585013,8.469276,0.869859,-1.406719,-0.384206,0.25415,0.24707,-0.581299
5.994323,2.188278,3.461599,2.585239,-4.521027,4.215176,0.235596,0.093506,-0.577881,-1.946185,-7.233225,3.904469,-3.427847,1.039686,-0.125418,-0.057861,0.328613,-0.570068,-1.925106,-3.351627,7.869957,-1.115616,-0.284054,0.321164,-0.023682,0.158203,-0.616699,-4.588485,-0.232687,8.705413,-0.769883,-1.797759,0.04923,0.241699,0.101807,-0.539307,-4.77755,-0.297039,10.136351,-0.043324,-1.898611,-0.1866,0.227295,0.241699,-0.596191
4.261385,2.396823,4.777369,2.730024,-4.029832,3.445694,0.157715,0.044434,-0.572998,-2.927513,-5.414205,6.405876,-1.524512,0.272151,-0.133659,-0.054443,0.350098,-0.560547,-0.213588,-1.011337,11.07743,0.474341,0.409676,-0.380322,-0.025391,0.153564,-0.621582,-4.597768,-1.546395,7.974373,-0.79014,-1.459843,0.114556,0.217529,0.117676,-0.551025,-2.865942,-3.05678,9.022257,-0.549113,-1.728768,0.081133,0.192627,0.255371,-0.606201
5.354863,1.162669,4.497732,4.384207,-3.893107,3.664338,0.071777,-0.025146,-0.537598,-2.830758,-5.382434,5.654214,0.248692,-0.017127,0.046488,-0.060791,0.341064,-0.562012,-2.754937,-0.217919,9.612997,-0.688699,0.83515,0.165084,-0.013184,0.156006,-0.618408,-5.434003,-1.61303,8.853117,-0.129696,-1.566385,0.291682,0.192871,0.109619,-0.558105,-5.271811,-2.931309,9.859172,0.990486,-1.299638,-0.133648,0.16333,0.233643,-0.620117
4.587653,10.306239,6.150939,5.086544,-3.0398,3.438182,0.004395,-0.090576,-0.482422,-2.060669,-2.168197,9.380369,0.327503,-0.753922,-0.022573,-0.06958,0.333496,-0.556152,-3.233261,-1.999095,7.869498,0.227688,-0.011122,-0.043218,-0.017334,0.157715,-0.61377,-5.154517,-1.42706,9.841822,0.217351,-2.045396,0.404378,0.161133,0.109863,-0.557861,-3.216571,-1.633712,10.384726,0.720919,-2.381371,0.290968,0.120117,0.226074,-0.62915
6.251948,9.005268,3.357846,2.324683,-4.022213,3.592592,-0.077637,-0.102539,-0.443848,1.377037,-3.073387,8.218337,0.3477,0.202009,0.507978,-0.061523,0.330566,-0.561523,-1.678311,0.494095,7.938865,0.916719,0.035544,-0.205295,-0.015381,0.144043,-0.617188,-3.29848,-0.342278,8.930207,0.737863,-2.193434,0.116405,0.130615,0.096191,-0.575928,-1.328682,-2.539752,9.160779,0.956449,-1.255262,0.563494,0.104004,0.210205,-0.643555
9.017987,5.247049,0.960419,3.400258,-3.756037,3.957247,-0.152344,-0.105469,-0.379639,-2.906018,0.102882,8.111568,0.797758,0.368952,0.156474,-0.052979,0.326416,-0.569824,-1.710991,2.069634,10.083327,-0.120201,-0.455682,0.04644,-0.016846,0.146973,-0.623047,-1.950079,1.622887,9.831537,0.312791,-2.050719,0.386811,0.104492,0.097168,-0.589844,-3.957102,-0.24606,10.189494,1.202117,-1.805295,0.430128,0.075684,0.197998,-0.659912
8.483831,7.514451,0.680482,3.735914,-3.396012,3.358133,-0.224121,-0.119385,-0.310547,-0.027807,-2.395726,7.588488,-0.397025,-0.504434,0.242074,-0.063721,0.325684,-0.565186,0.256563,0.206612,10.542267,-0.92309,-0.284379,0.072114,-0.027344,0.1521,-0.603027,-1.270428,0.596477,9.69469,-1.007427,-1.752187,0.071664,0.071289,0.100342,-0.579834,0.735351,-0.207915,9.438809,0.040374,-2.314722,0.767662,0.03125,0.186768,-0.64917
8.85482,4.907844,-1.626084,5.616015,-2.860068,3.69485,-0.272705,-0.121826,-0.227539,-2.528342,-4.075453,6.888752,2.517515,-0.154208,-0.104609,-0.061279,0.288818,-0.580078,-1.967564,-1.291282,9.927388,-0.755614,0.162747,-0.143729,-0.025146,0.161621,-0.606689,-2.225437,-1.196595,9.652956,-1.044421,-1.452782,0.167631,0.049561,0.118652,-0.581055,-2.111648,-0.568991,10.442225,0.170618,-0.87284,0.723736,0.016357,0.187012,-0.658691
10.598282,12.166368,0.202954,6.218143,-2.528593,3.36832,-0.323975,-0.110352,-0.138916,-0.912487,3.238001,9.039056,2.127385,-1.16586,-0.324328,-0.084717,0.261963,-0.588379,-1.871444,-2.197108,7.838777,-0.269,-0.534355,0.043041,-0.02417,0.166748,-0.601562,-2.71307,-2.474318,10.144332,-0.304858,-2.107985,0.22824,0.025879,0.119873,-0.581299,-2.1901,-0.918528,10.657706,0.132368,-2.524404,1.249547,-0.018066,0.188477,-0.655518
9.799783,17.318952,2.185242,3.157589,-1.657648,3.340669,-0.35791,-0.078857,-0.097656,0.891699,-2.586043,7.178155,-0.349932,-0.131064,-0.119667,-0.094238,0.256836,-0.591309,-1.190648,-2.497236,7.643351,0.546999,-0.417397,0.054318,-0.032715,0.154785,-0.603516,-0.38188,-2.048107,9.148942,0.811904,-2.309753,0.09948,-0.015381,0.11084,-0.58374,1.593985,-2.879485,8.933154,0.734376,-1.516601,1.318508,-0.044678,0.179199,-0.657959
5.739413,9.854127,-0.175434,-0.383251,-1.80622,2.635856,-0.376953,-0.033691,-0.067627,-2.195673,-7.673382,4.812114,3.658003,-0.626203,-0.257937,-0.099121,0.201172,-0.608887,-1.022416,-0.232091,9.305519,1.374735,-0.791271,-0.049349,-0.037842,0.137207,-0.60498,0.175799,-0.095266,9.296346,1.123738,-1.969411,0.411863,-0.037109,0.095459,-0.588379,-1.647354,-1.489135,9.046935,1.734095,-1.349008,1.292081,-0.059814,0.158447,-0.664795
6.48848,8.575658,-0.327963,-0.08641,-2.138464,2.100904,-0.389893,0.004639,-0.032471,0.184445,2.303281,6.499985,6.594825,-0.890039,-0.258327,-0.114014,0.095215,-0.619385,-0.680237,2.515836,9.835512,1.062105,-0.495694,-0.029813,-0.049316,0.112061,-0.600586,-0.290689,-0.03073,10.135395,0.059174,-1.752325,-0.005044,-0.068115,0.087402,-0.578369,1.273077,1.003436,9.579415,1.379483,-2.167813,1.856855,-0.092773,0.134033,-0.655762
8.787277,4.013112,0.194788,0.438956,-2.100903,1.350643,-0.407227,0.038574,0.005371,-0.948947,5.530161,8.749598,3.302222,-0.997644,0.444193,-0.135742,0.048828,-0.616699,-2.301448,1.351135,9.311307,-0.40575,-0.730836,-0.232674,-0.062744,0.124268,-0.590332,-0.439761,-2.190938,9.583541,-0.255032,-1.936184,-0.134673,-0.100098,0.095459,-0.569336,0.704732,0.997493,9.437918,0.301167,-0.82338,2.875758,-0.102539,0.14917,-0.650879
9.41669,6.055598,-0.961468,2.975498,-2.079061,1.276735,-0.413818,0.056641,0.050049,2.177299,2.391684,7.698803,2.620186,-1.003867,0.075611,-0.149902,-0.000244,-0.606201,-0.022137,-3.199092,7.670056,0.112551,-1.57754,0.304535,-0.081299,0.115967,-0.588867,1.497069,-2.674392,8.488368,1.25243,-2.348537,-0.289074,-0.135986,0.073242,-0.568115,-1.370417,-1.763497,8.062586,0.217129,-1.687028,3.291009,-0.11499,0.158203,-0.646973
8.405478,12.240383,1.111138,2.116352,-1.810506,0.722105,-0.412842,0.077148,0.084717,0.525177,-0.500838,5.96487,1.834186,-0.351117,0.662743,-0.155273,-0.026123,-0.599609,0.583209,-1.049629,7.559544,2.392425,-0.865332,-0.583116,-0.094238,0.088135,-0.590088,3.259603,0.455326,9.226,2.038799,-1.811418,-0.187393,-0.16333,0.050293,-0.570312,2.593003,-2.381686,6.9618,1.385788,-1.722178,3.19854,-0.130371,0.160156,-0.645264
6.424717,15.951716,2.511331,-0.043166,-1.343914,-0.32903,-0.41748,0.08374,0.107666,1.166667,-3.53049,4.76329,6.24221,-1.205383,0.160432,-0.182129,-0.114502,-0.568848,-0.82072,1.679475,9.130003,1.712173,-1.538812,0.222782,-0.110596,0.057617,-0.585449,2.779236,0.607545,9.087207,0.894739,-1.262716,-0.329769,-0.177979,0.026611,-0.565918,1.235287,-0.644859,6.610421,1.788463,-0.674901,3.515045,-0.123047,0.143311,-0.648926
8.99162,10.745016,-1.100069,-3.042595,-1.283226,-1.291985,-0.419189,0.061035,0.112549,1.574989,11.136239,6.019345,9.031647,0.029058,0.487295,-0.189453,-0.239258,-0.52124,1.253353,1.433184,12.929322,1.910417,-1.772046,0.220701,-0.14209,0.02002,-0.578613,1.745917,-0.761694,8.398364,1.796364,-0.853856,-0.348838,-0.19873,-0.01001,-0.561768,-0.448692,1.306062,6.778561,2.046822,-1.141054,3.668479,-0.136963,0.119629,-0.651123
5.92612,4.682883,-1.135388,-1.624112,-0.6043,-1.968281,-0.417725,0.035645,0.129639,-2.012333,17.696384,7.547341,2.484489,-1.501429,1.22079,-0.220947,-0.26123,-0.481445,1.085787,3.592503,10.683284,2.074717,-0.620011,-0.396007,-0.154297,-0.003174,-0.575684,2.015771,2.346221,9.357306,2.472248,-1.413655,-0.142688,-0.224854,-0.04248,-0.562256,2.721899,2.427023,7.618356,0.667596,-1.118897,3.967687,-0.143066,0.137939,-0.647217
9.936006,6.865572,-1.563718,0.543378,-0.743025,-2.519785,-0.404785,0.000244,0.140137,5.183705,5.754231,5.779861,-1.796275,-1.468691,1.153278,-0.24292,-0.230713,-0.482178,-0.611353,4.183017,10.401141,1.222499,-1.449477,0.269251,-0.17334,-0.018555,-0.566162,4.803131,4.080623,9.417071,1.146045,-0.962984,-0.536242,-0.237549,-0.063721,-0.562012,1.641763,-1.650043,6.614635,-0.351527,-0.098419,4.108754,-0.125732,0.166016,-0.646729
8.299767,15.554426,0.746509,1.039496,0.242671,-3.37018,-0.402344,-0.047852,0.144287,-0.647375,-1.698756,4.204459,3.385437,-0.720572,1.327609,-0.272461,-0.254395,-0.445557,2.198007,2.908434,11.128896,0.603148,-1.483615,-0.123266,-0.191895,-0.031982,-0.560303,3.637931,2.041755,9.105181,0.38894,0.340623,-0.351029,-0.230713,-0.076172,-0.564209,0.815222,-3.504656,6.141978,1.262863,-0.748724,3.60733,-0.120605,0.160889,-0.649902
9.297599,19.398247,2.17516,-2.961433,0.19726,-4.243977,-0.365479,-0.121338,0.121826,2.745376,9.818499,5.16984,5.732863,-2.017234,1.086758,-0.295166,-0.300049,-0.376709,-0.70343,-1.13133,9.794338,0.916536,-0.932456,0.462365,-0.197021,-0.045654,-0.55127,0.913315,0.7029,8.279966,1.610229,0.427157,-0.379422,-0.215576,-0.104736,-0.563477,3.732329,0.567111,6.205503,2.702093,-0.745267,3.277629,-0.106934,0.125244,-0.656738
11.92503,12.617488,-2.126558,-5.378708,0.468784,-5.218865,-0.328369,-0.203369,0.074219,1.829026,11.780754,5.391387,1.130026,-1.000258,2.066428,-0.328857,-0.289062,-0.345703,0.232854,2.142398,10.652956,3.126838,-1.685329,-0.149,-0.221436,-0.080078,-0.527344,1.501198,3.692313,9.567849,2.550105,0.151066,-0.003837,-0.216064,-0.135986,-0.552979,2.234802,2.08564,7.590599,0.828636,0.410763,2.802706,-0.090576,0.131348,-0.652588
15.216965,11.636122,-0.768209,-3.293173,2.226907,-5.67862,-0.26416,-0.270508,0.006592,2.641149,5.571699,3.95205,2.251038,-2.424332,1.762674,-0.369141,-0.275146,-0.297852,2.245607,6.138533,10.118333,1.459473,-1.136662,0.371706,-0.235107,-0.10498,-0.52417,2.764427,4.839143,8.915539,1.103836,0.68266,-0.302838,-0.203125,-0.165283,-0.5625,0.780075,-2.921521,6.539309,0.270301,-0.318017,2.753772,-0.083984,0.126709,-0.6604
9.226082,16.842898,3.024863,-2.615748,2.618136,-5.027144,-0.187988,-0.323242,-0.057373,7.398448,14.048053,5.984991,5.683759,-0.927896,0.890612,-0.378418,-0.294434,-0.23877,-0.518188,1.958798,6.924309,0.619253,-1.406021,0.657011,-0.255859,-0.111328,-0.503418,1.592349,2.444406,7.066063,0.721592,1.82858,-0.162685,-0.179199,-0.178711,-0.5625,3.48327,-3.038798,5.957835,3.100599,-0.492542,1.847623,-0.087402,0.077148,-0.657959
4.77048,17.50678,6.158638,-3.97372,2.413557,-4.32331,-0.125244,-0.355957,-0.134277,3.352701,23.032811,7.266146,3.289993,-0.035084,0.342744,-0.39502,-0.307129,-0.205566,3.944362,3.666748,7.723902,2.780241,-2.32546,0.019729,-0.281494,-0.143799,-0.476562,-0.44404,2.468713,7.492192,1.935359,1.090695,0.097734,-0.156494,-0.205811,-0.560303,2.929641,2.641893,8.761632,2.714144,0.266246,1.208465,-0.073975,0.03418,-0.664307
4.962384,15.861836,5.774096,-5.216163,2.456506,-3.503771,-0.049316,-0.34375,-0.223877,5.86326,20.459167,5.447076,-2.12823,-0.257665,-0.101654,-0.393066,-0.290039,-0.2229,5.196798,7.625734,10.575536,1.704238,-0.587842,0.009032,-0.287598,-0.162598,-0.466309,2.692643,4.381554,6.912552,1.812136,0.627493,-0.390226,-0.144043,-0.235107,-0.558838,1.31491,-0.364583,8.487846,0.290321,-0.400467,1.50368,-0.07666,0.03418,-0.661621
4.795653,11.315547,4.717724,-6.038332,3.153402,-3.424548,0.020996,-0.304443,-0.313232,3.819411,9.318129,3.380857,-3.870897,0.623097,0.103634,-0.396729,-0.263184,-0.249512,3.753766,5.058617,9.454441,0.911351,-0.845869,0.101404,-0.293701,-0.170898,-0.448975,3.215715,3.822089,7.346652,1.042804,1.649939,-0.062123,-0.113281,-0.251709,-0.555664,3.85955,-3.896556,6.832739,2.076163,-0.587578,0.734068,-0.081787,-0.001465,-0.657471
1.491038,7.98522,5.509542,-3.638783,3.847391,-2.755954,0.104004,-0.278564,-0.372314,3.434704,6.840573,4.142082,0.979504,-0.294014,-0.335381,-0.397461,-0.2771,-0.242676,5.771466,4.948275,9.489271,1.778068,-0.163138,-0.531614,-0.296875,-0.196289,-0.43457,0.593059,2.94661,7.025332,1.736401,1.691871,-0.330869,-0.089844,-0.282715,-0.543701,3.225059,1.066803,8.311983,3.707488,-0.464409,0.667274,-0.091553,-0.069336,-0.64917
-1.040874,18.62238,9.706288,-2.700445,3.992127,-2.956635,0.191162,-0.247314,-0.406006,4.508335,17.339519,6.830953,2.111992,0.200839,-0.171954,-0.398193,-0.292725,-0.226074,3.676571,6.905426,9.090102,2.405769,0.891553,-0.702486,-0.28418,-0.223633,-0.42041,0.526328,5.902922,7.948143,3.050946,1.228089,-0.122979,-0.067871,-0.32251,-0.518799,4.665969,3.805529,9.690094,2.05632,-0.994474,0.4307,-0.108154,-0.101562,-0.635498
-4.619231,21.179185,8.855873,-7.797092,4.226139,-3.162655,0.287598,-0.13623,-0.479736,4.324165,20.762737,7.769141,-1.688091,-0.150055,-0.511997,-0.39209,-0.297119,-0.243896,2.894166,9.967496,9.506692,2.090268,0.245477,-0.814709,-0.287598,-0.257568,-0.425537,-0.073566,9.156503,9.821804,1.912136,1.31299,-0.348435,-0.055176,-0.353271,-0.518555,4.064262,1.234287,9.10339,1.079176,0.109604,0.159733,-0.114014,-0.126465,-0.641846
-2.641626,13.660804,3.592432,-11.009883,3.91278,-2.640089,0.360596,0.041504,-0.535156,6.331939,15.893367,4.652192,-5.35862,0.837743,-0.69366,-0.383789,-0.279541,-0.303955,4.591559,10.040624,8.186804,-0.037877,0.664532,-0.693436,-0.27832,-0.256592,-0.422363,-0.221518,8.042882,9.124007,-0.013189,1.163182,-0.781963,-0.030273,-0.353271,-0.509521,1.858379,1.423666,8.720832,2.066229,-0.212857,-0.011694,-0.115234,-0.160156,-0.623779
-3.329168,8.972356,1.118861,-11.286828,4.485165,-1.832965,0.433105,0.242432,-0.520264,2.5077,5.394643,4.280951,-4.941777,0.801107,-1.15743,-0.371826,-0.249268,-0.355713,1.858603,5.585484,8.757659,-1.000166,0.667971,-0.633605,-0.254639,-0.259277,-0.431152,-0.805994,5.455577,7.751003,-0.062148,1.057666,-0.662694,0.002197,-0.356445,-0.508057,5.352295,4.037993,9.335808,1.845312,-0.457937,-0.400092,-0.10376,-0.203125,-0.611084
-5.440592,3.424237,1.00437,-10.714882,4.319425,-1.045407,0.502686,0.395996,-0.450195,4.46593,6.055475,6.699197,0.660428,0.325912,-1.460782,-0.349365,-0.288574,-0.361084,4.872898,4.126446,8.049608,0.626614,0.208447,-0.625587,-0.259521,-0.265137,-0.435547,-0.080418,5.584056,7.912361,1.014242,0.737849,-0.660629,0.009521,-0.363525,-0.504883,5.642184,4.168003,8.410178,0.731114,0.476449,-0.48067,-0.101562,-0.210205,-0.61792
-9.090762,-1.954138,0.894241,-8.652515,4.082484,-0.610826,0.548584,0.510742,-0.350586,4.161653,17.901103,10.846844,0.199907,0.850473,-1.884597,-0.323242,-0.314209,-0.369629,3.43167,8.580166,8.932805,2.149139,1.975588,-1.432619,-0.230957,-0.302734,-0.439453,0.009441,7.377838,7.396984,1.192332,1.204928,-0.527682,0.029541,-0.383545,-0.494141,2.47864,1.856011,6.710215,0.860154,0.221495,-0.643953,-0.094238,-0.233154,-0.610596
-7.107388,-0.552168,1.872006,-7.16288,3.475172,-0.470702,0.581299,0.593506,-0.249756,4.826418,15.313692,8.081861,-5.50959,0.612349,-0.947952,-0.304688,-0.269287,-0.433594,0.75017,12.416852,9.039893,1.532425,1.167459,-1.327677,-0.213135,-0.332275,-0.430176,-1.442736,7.646187,7.615851,1.059,1.665988,-0.948493,0.060303,-0.398193,-0.474121,3.430966,2.78726,6.526277,2.817277,-0.615749,-0.829491,-0.098633,-0.285889,-0.580078
-10.161616,-3.774824,0.639346,-7.284639,3.414951,-0.901976,0.594482,0.652588,-0.123779,4.417662,6.75614,6.694969,-4.820284,1.306845,-1.210855,-0.271729,-0.230957,-0.47876,3.302855,10.912207,8.64124,-0.190712,0.636184,-1.063417,-0.200439,-0.325439,-0.443115,-2.011475,7.493529,7.556309,1.268216,1.412371,-0.926089,0.08252,-0.402344,-0.458008,4.792892,6.702344,8.355164,2.803381,-0.350616,-0.988049,-0.09668,-0.32251,-0.558594
-8.792363,-5.165662,0.075373,-5.81911,2.546211,-0.313979,0.601562,0.68457,-0.028564,3.068617,8.232376,8.395994,-2.342446,0.953919,-1.044993,-0.253906,-0.210693,-0.510742,3.10773,7.345791,7.957042,0.199067,1.71378,-1.63883,-0.161865,-0.344238,-0.456543,-1.748878,8.280057,7.22382,1.785509,1.448917,-1.085918,0.119873,-0.424316,-0.44165,4.185067,5.839749,7.860387,1.263197,-0.285082,-1.100791,-0.079346,-0.352539,-0.547852
-10.298603,-8.940349,-1.394219,-4.043048,2.464951,-0.797475,0.588623,0.703857,0.051514,4.208553,9.737895,9.885588,-4.10296,0.908141,-1.345716,-0.237549,-0.160645,-0.547363,0.361059,7.5589,6.655418,1.645276,1.460403,-1.58992,-0.145508,-0.371338,-0.442139,-2.670235,9.71658,6.98473,1.742591,1.757297,-1.086463,0.138428,-0.439453,-0.408691,4.630808,3.923823,7.276579,2.223077,-0.561042,-1.555886,-0.088379,-0.388672,-0.512451
-11.404202,-8.428653,-0.800358,-0.664361,1.641493,-0.573716,0.584229,0.706299,0.079102,4.580486,5.112779,8.607726,-4.328448,1.194001,-0.972345,-0.211426,-0.107422,-0.57959,2.132837,11.895899,6.832116,1.918439,1.156711,-1.785554,-0.11084,-0.408691,-0.428955,-3.426564,10.058959,7.207994,1.164114,1.253911,-1.135192,0.169922,-0.456299,-0.389893,3.85299,6.581075,7.494186,2.695781,-0.024897,-2.201136,-0.056396,-0.442383,-0.480225
-9.294005,-3.823086,-1.42412,-1.542914,1.098098,-1.24637,0.571045,0.721436,0.116211,3.20139,4.377966,9.771326,-2.567213,1.634496,-1.37196,-0.175781,-0.070801,-0.602051,0.574489,11.544038,6.292143,-0.623041,1.67699,-1.599603,-0.082275,-0.406982,-0.458496,-2.664255,9.558077,6.229695,0.628831,1.109622,-1.425941,0.190186,-0.452148,-0.387451,3.165528,8.007086,7.673972,1.746195,-0.515648,-2.28096,-0.04248,-0.467041,-0.463135
-9.555747,-11.11979,-4.383871,-1.750235,0.470563,-1.418236,0.556396,0.742432,0.138184,3.879624,6.139109,9.646852,-2.69911,1.49207,-0.984175,-0.141357,-0.02417,-0.628418,-0.270871,7.252973,4.45099,-0.46231,0.795569,-1.314631,-0.059814,-0.406006,-0.472168,-3.02668,9.229147,5.333556,0.923391,1.098263,-1.129529,0.212158,-0.455078,-0.380127,5.147704,8.192017,5.341435,1.573169,-0.226036,-2.606789,-0.010986,-0.494873,-0.443115
-8.049279,-12.758665,-5.69374,2.560834,-0.442583,-1.560415,0.531738,0.753418,0.11084,2.703222,4.662324,9.105408,-4.279334,2.253177,-0.933265,-0.110107,0.034912,-0.631592,0.619105,7.830149,5.193808,1.009031,1.255617,-1.699664,-0.019775,-0.42627,-0.475342,-3.726105,9.358088,5.864669,0.778987,1.181377,-1.359611,0.244873,-0.460693,-0.370117,2.162901,9.366966,5.870821,1.835881,0.390835,-2.529137,0.031494,-0.52417,-0.422607
-6.630404,-5.70618,-4.11562,5.099974,-1.718159,-1.816429,0.510986,0.780273,0.017822,1.060436,-0.764036,7.976686,-3.646936,1.67202,-0.433064,-0.07373,0.105957,-0.64624,-1.229082,10.712,5.581354,1.064501,1.182951,-1.74462,0.001953,-0.447266,-0.46582,-3.76106,8.361873,5.547077,0.395578,0.853161,-1.276898,0.258057,-0.463867,-0.363037,1.286189,9.231854,6.111771,0.919931,-0.393909,-2.325015,0.047607,-0.54248,-0.407471
-4.756594,-1.981471,-2.598135,4.707693,-2.537246,-1.699255,0.477783,0.780029,-0.063721,2.666073,-0.064525,8.608213,-0.931477,1.874536,-0.684109,-0.044434,0.122314,-0.649902,-0.017484,10.980057,5.689379,-0.618955,0.621135,-1.500667,0.031738,-0.432617,-0.481689,-3.139329,8.059619,4.990454,0.733995,0.796013,-1.522846,0.282959,-0.449463,-0.35083,2.863164,7.496531,5.005963,1.048553,0.069699,-2.282649,0.086914,-0.539795,-0.38501
-3.979844,-3.259176,-1.278633,2.556202,-3.496905,-2.010989,0.440674,0.786377,-0.114502,-0.728331,3.933388,9.773719,-2.221719,2.074034,-0.228442,-0.004395,0.162842,-0.64209,-1.934647,6.408241,4.190634,-1.504997,1.233516,-1.388889,0.053955,-0.424316,-0.494629,-5.218174,9.319862,4.854125,0.608607,1.21183,-1.386872,0.301514,-0.456299,-0.327393,0.483828,10.634832,5.267174,2.130387,0.445623,-2.434529,0.119629,-0.572021,-0.347412
-3.452985,-7.771277,-0.616225,3.049208,-4.208421,-1.79427,0.38916,0.777832,-0.180908,-0.531127,-0.300616,8.318946,-3.700676,2.067741,-0.37261,0.0271,0.2229,-0.627441,-3.487693,5.78561,4.745035,-0.044182,0.881542,-1.48432,0.084961,-0.415283,-0.500488,-7.128486,9.348144,5.201594,-0.523693,0.4757,-1.406835,0.321045,-0.435547,-0.341064,0.435007,13.521376,6.099748,0.553857,0.132558,-2.080394,0.149902,-0.56543,-0.347412
2.11882,-6.877602,-0.280752,5.331717,-5.35226,-1.404984,0.335205,0.744141,-0.279541,-2.300247,-0.405914,5.900155,-1.479465,2.192228,-0.14473,0.068604,0.248047,-0.623779,-3.117666,8.708928,5.507761,-0.462932,0.854441,-1.377719,0.11084,-0.398438,-0.507324,-5.215198,7.421064,3.758712,-0.982691,-0.11052,-1.490085,0.334717,-0.408691,-0.352783,0.905586,9.977244,4.950814,-1.604206,0.385033,-2.091461,0.181152,-0.53833,-0.362061
2.033078,-3.768712,0.284262,6.339937,-5.26489,-0.278269,0.271973,0.688232,-0.367188,-2.090409,1.252172,6.892623,-2.922641,1.783685,-0.325036,0.08667,0.298828,-0.591309,-3.378733,6.445179,6.036258,-1.714818,0.691486,-0.877629,0.135742,-0.386963,-0.52417,-4.71156,6.678219,4.170567,-0.230452,0.673912,-1.007527,0.357178,-0.412354,-0.348145,-0.020457,6.675101,4.366502,0.081209,0.622466,-2.495793,0.229492,-0.542969,-0.353516
