# sampling frequency: 40
# units are seconds/meters/radians/a.u.
seg1_acc_x,seg1_acc_y,seg1_acc_z,seg1_gyr_x,seg1_gyr_y,seg1_gyr_z,seg1_mag_x,seg1_mag_y,seg1_mag_z,seg2_acc_x,seg2_acc_y,seg2_acc_z,seg2_gyr_x,seg2_gyr_y,seg2_gyr_z,seg2_mag_x,seg2_mag_y,seg2_mag_z,seg3_acc_x,seg3_acc_y,seg3_acc_z,seg3_gyr_x,seg3_gyr_y,seg3_gyr_z,seg3_mag_x,seg3_mag_y,seg3_mag_z,seg4_acc_x,seg4_acc_y,seg4_acc_z,seg4_gyr_x,seg4_gyr_y,seg4_gyr_z,seg4_mag_x,seg4_mag_y,seg4_mag_z,seg5_acc_x,seg5_acc_y,seg5_acc_z,seg5_gyr_x,seg5_gyr_y,seg5_gyr_z,seg5_mag_x,seg5_mag_y,seg5_mag_z
0.492925,-0.8661,9.776608,0.00632,0.003982,0.000149,-0.085938,0.400146,-0.573975,-0.285219,3.182848,9.290876,-0.015998,0.00796,0.006933,-0.655029,0.037354,-0.45166,-0.57919,3.729884,9.119097,-0.00456,0.010246,-0.002074,-0.332031,0.524902,0.785156,-0.183219,3.606079,9.173406,-0.000897,-0.011032,0.010378,0.665771,-0.019531,-0.043457,-0.311544,3.13348,9.278591,0.003852,-0.007054,-0.004192,0.367676,-0.17749,-0.571045
0.509842,-0.871397,9.769551,-0.00132,-0.001635,-0.000778,-0.085693,0.399658,-0.580078,-0.250282,3.151459,9.256323,-0.011368,0.003375,0.008013,-0.654053,0.038574,-0.457031,-0.618184,3.701991,9.094882,-0.002123,0.000855,0.004237,-0.325439,0.529541,0.782471,-0.169609,3.641334,9.152482,0.011875,0.005754,0.009897,0.672852,-0.018799,-0.045166,-0.323669,3.140944,9.278222,0.001725,0.005613,-0.003448,0.374268,-0.175293,-0.574219
0.516635,-0.881105,9.82161,0.009064,0.00161,-0.000365,-0.084961,0.399658,-0.570312,-0.274226,3.192791,9.272359,0.000898,0.011097,0.007535,-0.652588,0.037598,-0.448242,-0.590385,3.73466,9.100379,0.001732,0.006162,-0.000666,-0.34082,0.522461,0.790771,-0.22033,3.679124,9.183869,-0.00469,0.009861,0.011888,0.657959,-0.025391,-0.035156,-0.3671,3.150864,9.308694,0.003801,-0.002609,-0.003738,0.361328,-0.182373,-0.565918
0.511919,-0.86265,9.798256,0.002552,0.005225,-0.00097,-0.084229,0.393066,-0.566895,-0.261486,3.174729,9.280371,-0.023068,0.001156,0.00755,-0.652344,0.030518,-0.443359,-0.597808,3.722013,9.095748,-0.015117,0.004745,0.003311,-0.338867,0.523926,0.782227,-0.196555,3.631868,9.155058,-0.029568,-0.008325,0.006686,0.6604,-0.025879,-0.04248,-0.324929,3.151496,9.269261,-0.007293,-0.010303,-0.001537,0.362549,-0.185303,-0.57373
0.49253,-0.862607,9.753078,-0.006912,0.002158,-0.001735,-0.080566,0.399658,-0.574707,-0.254117,3.133218,9.250313,-0.00907,0.012423,0.008359,-0.64917,0.037109,-0.452148,-0.58773,3.696177,9.079581,-0.005132,-0.000392,0.002388,-0.336182,0.530273,0.784668,-0.155193,3.57778,9.138947,-0.005951,-0.000836,0.009721,0.664062,-0.016113,-0.04248,-0.306649,3.096764,9.236062,-0.004792,0.003528,-0.00407,0.36499,-0.174072,-0.574707
0.507784,-0.878296,9.801314,-0.010246,-0.000873,-0.002218,-0.079834,0.395996,-0.569092,-0.301948,3.174252,9.26982,0.000946,0.004095,0.006793,-0.651855,0.03418,-0.447998,-0.600255,3.702814,9.097074,0.004612,0.013216,-0.001296,-0.338379,0.52417,0.785889,-0.214624,3.623567,9.177898,0.015971,0.0181,0.012717,0.656982,-0.025146,-0.041992,-0.37153,3.112377,9.288707,0.00803,0.005687,-0.00343,0.361084,-0.182129,-0.570312
0.517434,-0.905927,9.792701,-0.000399,0.000742,0.000221,-0.080811,0.400146,-0.571045,-0.234248,3.209098,9.272383,-0.009294,0.003545,0.007074,-0.653076,0.035889,-0.447021,-0.601284,3.743779,9.103096,0.006408,-0.004524,0.000128,-0.340088,0.523682,0.787109,-0.228696,3.683477,9.165682,0.005564,-0.011661,0.00945,0.660156,-0.025635,-0.038086,-0.337089,3.189165,9.290981,0.019949,-0.012948,-0.006302,0.36084,-0.181152,-0.566895
0.518285,-0.893644,9.813376,0.002483,0.005138,0.000609,-0.083252,0.398193,-0.572266,-0.267497,3.176019,9.270222,-0.02231,0.011739,0.007537,-0.650879,0.033203,-0.451172,-0.555048,3.751451,9.118817,-0.022612,0.008159,0.002512,-0.338135,0.523438,0.786133,-0.138303,3.640507,9.167663,-0.036377,-0.004535,0.008806,0.661621,-0.020752,-0.037354,-0.288779,3.158416,9.278418,-0.026007,-0.003315,0.000769,0.363525,-0.177246,-0.567627
0.496259,-0.869836,9.797102,0.004653,0.002468,-9.1e-05,-0.085449,0.400635,-0.572021,-0.275778,3.122497,9.269104,-0.006952,0.002455,0.0069,-0.655518,0.037598,-0.450195,-0.622621,3.64831,9.083527,-0.009598,0.005584,0.003054,-0.335938,0.532715,0.779053,-0.198207,3.572814,9.129718,-0.011804,0.026044,0.008893,0.660889,-0.013184,-0.048096,-0.359525,3.059713,9.248705,-0.007859,0.013597,-0.000712,0.364014,-0.174561,-0.579346
0.505881,-0.870516,9.769835,0.005626,0.002023,-0.000126,-0.083252,0.396973,-0.565918,-0.253032,3.195941,9.250659,0.006713,0.010502,0.006005,-0.648926,0.036621,-0.446777,-0.559915,3.726011,9.099353,0.020205,-0.001172,-0.002333,-0.335205,0.520264,0.78418,-0.247036,3.63258,9.154329,0.028752,-0.010796,0.013041,0.664062,-0.028076,-0.042725,-0.365103,3.151135,9.266196,0.033574,-0.015567,-0.009125,0.365479,-0.184082,-0.57251
0.518629,-0.872365,9.802609,-0.00224,-0.001813,-0.000427,-0.085938,0.396729,-0.570557,-0.28103,3.186871,9.286339,-0.023239,0.004426,0.008542,-0.655518,0.0354,-0.448242,-0.586813,3.75692,9.120291,-0.012698,0.014426,0.001059,-0.34082,0.525146,0.782715,-0.139187,3.678642,9.176437,-0.009115,-0.011179,0.006309,0.657959,-0.020752,-0.044678,-0.294734,3.190996,9.293614,-0.00947,-0.003509,0.000953,0.36084,-0.181641,-0.573486
0.51687,-0.891505,9.813646,-0.001093,0.000981,0.001296,-0.086426,0.400879,-0.572021,-0.240192,3.153294,9.264451,-0.010983,0.006941,0.005928,-0.656738,0.041016,-0.447266,-0.598551,3.686059,9.096862,-0.013336,-0.005977,0.004078,-0.333984,0.523438,0.779053,-0.191495,3.622568,9.172438,-0.02526,0.023377,0.013218,0.662354,-0.022949,-0.044922,-0.366848,3.119451,9.272682,-0.01447,0.015196,-0.002178,0.36377,-0.181885,-0.575684
0.516404,-0.867033,9.794786,0.001702,0.007333,-0.000843,-0.077393,0.395264,-0.575684,-0.282318,3.158051,9.261962,-0.000433,0.008954,0.009381,-0.647949,0.034912,-0.453125,-0.568429,3.711199,9.095528,-0.000928,0.006897,-0.000129,-0.339844,0.528564,0.785645,-0.254406,3.605434,9.156138,-0.004988,-0.002614,0.010121,0.657959,-0.018311,-0.042236,-0.331522,3.124262,9.282528,0.008475,-0.021311,-0.003143,0.359863,-0.175781,-0.571777
0.497951,-0.872717,9.757456,-0.006459,0.002992,-0.000291,-0.083496,0.396484,-0.57251,-0.263289,3.180031,9.263517,-0.014997,0.002686,0.006213,-0.655518,0.034912,-0.448242,-0.627957,3.708085,9.098068,-0.001799,0.009409,-0.00038,-0.334961,0.516846,0.789795,-0.160871,3.61616,9.171973,0.005571,-0.015293,0.00798,0.664795,-0.030518,-0.037598,-0.274409,3.125239,9.269578,0.003909,0.005695,-0.003101,0.366699,-0.187988,-0.565918
0.491339,-0.888947,9.808298,-0.00297,-0.000242,-0.001562,-0.085205,0.398682,-0.57666,-0.275432,3.18268,9.270343,-0.00717,0.009577,0.00888,-0.651855,0.035889,-0.453125,-0.589394,3.72934,9.114921,0.002522,-0.001613,0.001134,-0.337891,0.522949,0.789307,-0.178597,3.663572,9.167104,0.005433,0.018764,0.013369,0.660889,-0.020508,-0.039062,-0.389232,3.16606,9.307946,0.004029,0.008797,-0.004213,0.363525,-0.179932,-0.566406
0.519739,-0.891263,9.826112,0.004375,0.002674,-0.00113,-0.081299,0.390869,-0.574951,-0.286301,3.164447,9.281706,-0.011436,0.00205,0.006835,-0.650146,0.026855,-0.45166,-0.606033,3.722768,9.09115,-0.011433,0.010715,0.000333,-0.34082,0.52832,0.783691,-0.249556,3.655702,9.171464,-0.018364,0.004794,0.010161,0.658936,-0.01709,-0.042236,-0.326248,3.134789,9.279684,-0.004289,-0.018442,-0.000523,0.361816,-0.175293,-0.570557
0.519256,-0.883322,9.794577,0.005748,0.003687,-3.5e-05,-0.08252,0.398926,-0.566406,-0.230375,3.168427,9.256353,-0.009255,0.007352,0.007442,-0.651611,0.03833,-0.447754,-0.600354,3.692196,9.090478,-0.006381,-0.003697,0.003763,-0.340576,0.521973,0.786865,-0.172296,3.600268,9.146294,-0.016715,-0.019057,0.007667,0.656738,-0.025879,-0.041504,-0.286857,3.116454,9.251369,-0.002397,0.005619,-0.003117,0.358887,-0.184814,-0.570312
0.481968,-0.852743,9.761519,0.000174,0.00104,0.000407,-0.08374,0.400391,-0.573486,-0.299018,3.173642,9.266852,-0.010136,0.01011,0.008365,-0.649902,0.040771,-0.451904,-0.578785,3.712858,9.091224,-0.001447,0.009743,-0.001105,-0.335205,0.518311,0.786133,-0.140673,3.595091,9.172518,0.006463,0.018105,0.010884,0.662109,-0.029541,-0.039307,-0.364549,3.122515,9.286068,-0.000185,0.004778,-0.002559,0.364258,-0.188477,-0.569092
0.532683,-0.883778,9.803591,0.00026,0.001836,-0.003064,-0.083252,0.397705,-0.565674,-0.259426,3.163272,9.239637,-0.00758,0.001897,0.006208,-0.655762,0.036377,-0.442139,-0.614321,3.725879,9.086375,0.00352,0.003772,-0.000925,-0.337158,0.523193,0.783936,-0.258242,3.661414,9.152757,0.012246,0.007167,0.00977,0.662842,-0.019775,-0.042969,-0.355069,3.141048,9.281191,0.017534,-0.007232,-0.004635,0.365479,-0.178955,-0.574219
0.519693,-0.863993,9.783629,-0.001892,0.002465,0.001738,-0.080078,0.392578,-0.567383,-0.264371,3.177825,9.298054,-0.012807,0.01113,0.0066,-0.649658,0.035645,-0.443359,-0.581553,3.735003,9.098496,-0.011543,-3.2e-05,0.002775,-0.34668,0.519287,0.783691,-0.193223,3.673466,9.184678,-0.022387,-0.022525,0.008844,0.654053,-0.0271,-0.047119,-0.323503,3.180931,9.27732,-0.012191,-0.005607,-0.00253,0.355469,-0.183838,-0.571045
0.501767,-0.876918,9.777891,-0.007363,0.001325,-0.003185,-0.084473,0.401123,-0.563721,-0.2705,3.152679,9.26051,-0.013601,0.001947,0.008383,-0.652588,0.039795,-0.439697,-0.601854,3.681893,9.084458,-0.013772,0.007948,0.004153,-0.33667,0.523926,0.783691,-0.140139,3.591792,9.146647,-0.023884,0.015988,0.008109,0.660645,-0.020996,-0.041992,-0.337704,3.069025,9.272967,-0.016422,0.005887,-0.000416,0.361816,-0.181152,-0.572754
0.525191,-0.893986,9.822745,0.003265,0.002945,0.00206,-0.084473,0.400146,-0.566406,-0.247965,3.18428,9.261188,0.003928,0.010901,0.004284,-0.655518,0.036865,-0.443848,-0.603181,3.722013,9.090867,0.017335,0.004271,-0.003246,-0.340088,0.520996,0.783936,-0.251127,3.605451,9.174042,0.024578,0.016014,0.015214,0.658691,-0.027832,-0.041992,-0.369758,3.127767,9.292571,0.027723,-0.000534,-0.007933,0.361084,-0.182861,-0.570801
0.509077,-0.87947,9.77444,0.004046,0.003504,-0.002486,-0.084961,0.397461,-0.573486,-0.298968,3.18293,9.278074,-0.023128,0.001916,0.008732,-0.654053,0.036865,-0.451904,-0.585364,3.756184,9.1061,-0.01057,0.005684,0.004213,-0.338867,0.526855,0.786133,-0.204161,3.688617,9.180024,-0.002021,-0.02245,0.005432,0.658936,-0.019043,-0.040283,-0.318653,3.190228,9.274865,-0.000912,-0.012995,-0.000885,0.359863,-0.176025,-0.569092
0.525458,-0.891377,9.799114,0.001441,0.001099,-0.000482,-0.078857,0.398682,-0.573486,-0.228639,3.146577,9.234166,-0.007275,0.00552,0.004741,-0.650391,0.038818,-0.448486,-0.567343,3.695359,9.081079,-0.014225,-0.000612,0.00369,-0.335205,0.527832,0.784668,-0.114063,3.637396,9.140104,-0.02683,0.004438,0.009297,0.661133,-0.017578,-0.042969,-0.328131,3.114233,9.234571,-0.016518,0.009572,-0.001258,0.365234,-0.17749,-0.572266
0.496434,-0.877358,9.825837,0.002587,0.001695,-0.00011,-0.071289,0.394043,-0.566895,-0.30833,3.192261,9.284946,-0.004904,0.011679,0.009111,-0.641846,0.031982,-0.446289,-0.589077,3.700888,9.109289,-0.002336,0.01094,-0.000966,-0.334473,0.526611,0.787354,-0.232206,3.585391,9.160582,-0.009297,0.026113,0.012193,0.663818,-0.019287,-0.039307,-0.371749,3.095368,9.299289,0.001389,0.000501,-0.002942,0.36499,-0.176758,-0.570557
0.52174,-0.878985,9.783583,0.001911,0.004842,0.000422,-0.078369,0.401611,-0.57251,-0.26641,3.171465,9.270871,-0.012459,-0.000988,0.005618,-0.649414,0.03833,-0.448975,-0.619882,3.719281,9.088701,0.007161,-0.002435,0.001142,-0.337891,0.526611,0.790527,-0.243728,3.634196,9.148742,0.016026,-0.021162,0.007738,0.6604,-0.019287,-0.034912,-0.32714,3.146478,9.270348,0.021723,-0.009996,-0.004338,0.363281,-0.177979,-0.563721
0.494149,-0.846844,9.799189,-0.002848,0.00142,-0.001473,-0.075684,0.39917,-0.559814,-0.256012,3.163418,9.265847,-0.012814,0.014584,0.010781,-0.642822,0.037354,-0.435059,-0.579799,3.756962,9.105397,-0.010331,0.00481,0.001654,-0.331299,0.52124,0.78418,-0.104579,3.666731,9.155325,-0.003642,-0.006733,0.011369,0.669434,-0.02417,-0.041748,-0.289543,3.185109,9.272978,-0.009339,0.0021,-0.004072,0.367188,-0.182129,-0.570068
0.523076,-0.89829,9.830894,-0.006754,0.000289,-0.000791,-0.077881,0.398438,-0.578125,-0.282944,3.171075,9.256961,-0.007648,0.000567,0.005028,-0.648438,0.037354,-0.453125,-0.622919,3.682835,9.090596,-0.010525,0.008319,0.003447,-0.331299,0.523193,0.781738,-0.216675,3.617977,9.154458,-0.024677,0.032127,0.009412,0.667236,-0.022217,-0.047119,-0.35639,3.10852,9.287984,-0.013928,0.004287,0.001379,0.369873,-0.179688,-0.574951
0.511237,-0.884037,9.818789,0.006425,0.004939,0.002137,-0.080078,0.399658,-0.572021,-0.251852,3.190384,9.283361,-0.004682,0.007696,0.006906,-0.648193,0.037842,-0.447754,-0.592593,3.726308,9.088272,0.009287,-0.003288,-0.003097,-0.33374,0.524658,0.785889,-0.246942,3.61864,9.157216,0.001902,-0.013174,0.012011,0.664795,-0.019287,-0.042969,-0.365356,3.134806,9.27654,0.021307,-0.008905,-0.008589,0.365723,-0.17627,-0.571777
0.501027,-0.861607,9.751203,-0.002951,0.002666,-0.002106,-0.080078,0.395508,-0.570557,-0.288401,3.157015,9.259337,-0.027644,0.008528,0.009427,-0.648682,0.035156,-0.445557,-0.58102,3.742618,9.127988,-0.018838,0.011509,0.005386,-0.326416,0.527832,0.785156,-0.13019,3.623719,9.165086,-0.007489,-0.014809,0.007823,0.672363,-0.018555,-0.041992,-0.292586,3.163004,9.270837,-0.011793,-0.008376,0.000637,0.372559,-0.17749,-0.569336
0.520203,-0.886201,9.791438,-0.002466,-3.2e-05,0.0002,-0.083008,0.400879,-0.576904,-0.246599,3.135198,9.245602,0.001592,0.003242,0.005713,-0.6521,0.040771,-0.452393,-0.630789,3.685191,9.086144,-0.001094,0.000535,0.002439,-0.341309,0.527344,0.783447,-0.189858,3.629524,9.155311,-0.002581,0.028767,0.010995,0.6604,-0.02002,-0.044678,-0.356444,3.09267,9.27002,-0.005866,0.018447,-0.002924,0.357666,-0.180908,-0.573486
0.513966,-0.894278,9.810713,0.005053,0.001727,-0.00031,-0.083496,0.40332,-0.565918,-0.314827,3.209518,9.293745,0.00044,0.011789,0.007458,-0.654053,0.042969,-0.443848,-0.573325,3.740822,9.11835,0.011182,0.006717,-0.002682,-0.332275,0.520996,0.786865,-0.257841,3.643335,9.180223,0.003245,-0.001354,0.011326,0.666748,-0.022461,-0.040527,-0.393502,3.144048,9.291397,0.025199,-0.010831,-0.004736,0.368896,-0.181396,-0.568848
0.498102,-0.86199,9.775172,0.002831,0.005022,7.1e-05,-0.075195,0.397217,-0.563721,-0.252523,3.187393,9.255127,-0.030172,2.8e-05,0.007078,-0.644287,0.034912,-0.438721,-0.595987,3.73545,9.11763,-0.017712,0.005272,0.0032,-0.331787,0.518311,0.78125,-0.169346,3.641477,9.176079,-0.01809,-0.022304,0.005947,0.66748,-0.028076,-0.044922,-0.287913,3.173001,9.268138,-0.01157,-0.011564,-0.000506,0.37085,-0.185547,-0.57666
0.521598,-0.871595,9.788437,-0.000677,0.000948,-0.000819,-0.078857,0.404785,-0.572754,-0.269487,3.136934,9.250577,-0.001954,0.013609,0.008841,-0.649658,0.04248,-0.447266,-0.578947,3.685166,9.071409,-0.00957,-0.004284,0.003821,-0.331787,0.523193,0.78125,-0.141443,3.606474,9.139955,-0.007474,0.020783,0.011402,0.666504,-0.022217,-0.043213,-0.33405,3.090287,9.261099,-0.013029,0.018114,-0.002734,0.370117,-0.182617,-0.575439
0.503869,-0.865737,9.795553,0.000244,0.003327,0.00018,-0.086426,0.398193,-0.566895,-0.297592,3.202273,9.271136,-0.001309,0.00511,0.006376,-0.656982,0.033447,-0.442871,-0.605623,3.71469,9.092929,0.005199,0.015531,-0.004679,-0.344727,0.513184,0.787354,-0.261318,3.627689,9.175152,0.004307,0.014174,0.010391,0.656982,-0.032715,-0.043457,-0.378632,3.112299,9.296441,0.011303,-0.010067,-0.004022,0.35498,-0.189697,-0.569824
0.524762,-0.882283,9.780302,-0.002795,0.000797,-0.001157,-0.081055,0.394775,-0.57373,-0.240941,3.17639,9.272798,-0.017669,0.002654,0.007036,-0.650635,0.031006,-0.453613,-0.613121,3.744606,9.093785,0.006522,-0.004531,0.005198,-0.340332,0.523926,0.784424,-0.190498,3.665544,9.151483,0.00328,-0.028172,0.008819,0.6604,-0.025879,-0.039307,-0.311682,3.17407,9.263123,0.019633,-0.008644,-0.006886,0.363525,-0.182373,-0.570557
0.508451,-0.88242,9.795225,-0.000277,0.002406,0.000311,-0.078613,0.404297,-0.570068,-0.27805,3.16679,9.274847,-0.012851,0.011869,0.00782,-0.648682,0.043457,-0.449463,-0.563536,3.740611,9.09439,-0.02053,0.007545,-0.001086,-0.33374,0.52417,0.783447,-0.112539,3.650124,9.175012,-0.017001,0.012875,0.010507,0.663818,-0.021729,-0.042969,-0.315718,3.180824,9.283498,-0.025086,0.00705,0.000793,0.367432,-0.181152,-0.571777
0.51175,-0.899421,9.818788,0.000417,0.002167,-0.000764,-0.080078,0.410645,-0.57373,-0.279835,3.15379,9.267045,-0.006489,0.000659,0.009626,-0.648193,0.047852,-0.450195,-0.631763,3.672678,9.094094,-0.009436,0.009431,0.004127,-0.33252,0.528564,0.786621,-0.259099,3.615292,9.148706,-0.012325,0.025535,0.009438,0.664307,-0.017822,-0.039551,-0.366952,3.060199,9.256251,-0.007451,0.003021,-0.000171,0.365967,-0.17627,-0.56958
0.495675,-0.885237,9.770436,0.004359,0.004166,0.002117,-0.08374,0.403564,-0.572754,-0.256937,3.185463,9.267881,-0.001994,0.010887,0.005872,-0.651855,0.040771,-0.449951,-0.563981,3.731854,9.087833,0.014113,-0.005976,-0.001769,-0.335938,0.523438,0.786865,-0.219068,3.633269,9.161171,0.008478,-0.027692,0.009657,0.666748,-0.022461,-0.040527,-0.324989,3.150235,9.283489,0.031608,-0.011916,-0.0078,0.367432,-0.181885,-0.571289
0.508357,-0.863055,9.784307,-0.003993,0.000825,-0.001846,-0.081787,0.398438,-0.57373,-0.300696,3.16926,9.279583,-0.023976,0.005368,0.010239,-0.651855,0.035156,-0.449951,-0.603426,3.739461,9.098731,-0.015686,0.019013,0.001833,-0.333252,0.525146,0.794189,-0.125529,3.643732,9.163407,-0.008948,0.003581,0.00902,0.668457,-0.020264,-0.032959,-0.30326,3.17461,9.283451,-0.017587,0.002184,0.001387,0.369629,-0.17749,-0.562256
0.527622,-0.887246,9.824585,0.001789,0.000981,-0.001019,-0.079834,0.395508,-0.570312,-0.258574,3.147545,9.265834,-0.000781,0.003669,0.005303,-0.651367,0.034668,-0.445557,-0.628252,3.681968,9.09988,-0.004064,-0.00762,0.004073,-0.334473,0.528076,0.783447,-0.227942,3.640502,9.141907,-0.004365,0.026137,0.01281,0.663818,-0.018311,-0.041992,-0.370812,3.098522,9.298276,-0.000813,0.01073,-0.00458,0.364746,-0.178711,-0.571289
0.509006,-0.868257,9.792226,0.00403,0.002795,-0.000591,-0.090576,0.402344,-0.569092,-0.288089,3.190799,9.269585,-0.006391,0.00935,0.007788,-0.659668,0.040527,-0.445557,-0.555906,3.740363,9.107342,0.000533,0.005492,-4.1e-05,-0.336914,0.522461,0.786377,-0.233544,3.645359,9.19148,-0.008007,-0.021965,0.009808,0.660889,-0.025879,-0.041504,-0.342135,3.162565,9.289758,0.012559,-0.022051,-0.004772,0.362305,-0.185303,-0.570312
0.512499,-0.878391,9.784125,-0.002447,0.002878,-0.000344,-0.092529,0.403809,-0.57959,-0.258506,3.163195,9.253366,-0.020584,0.001397,0.007906,-0.663086,0.040039,-0.455322,-0.616765,3.707565,9.082024,-0.011038,0.01117,0.002479,-0.337646,0.523926,0.783936,-0.123758,3.600066,9.129543,-0.013764,-0.002862,0.007541,0.660156,-0.024902,-0.041504,-0.271878,3.129574,9.26819,-0.010765,0.007713,0.000412,0.362549,-0.181396,-0.572266
0.50456,-0.863743,9.808294,-0.000432,0.004276,-0.00064,-0.087646,0.398926,-0.572754,-0.27168,3.154982,9.251659,-0.002256,0.011062,0.007719,-0.658691,0.035645,-0.44873,-0.574736,3.710928,9.113212,0.002337,-0.006775,0.000445,-0.340576,0.520752,0.775146,-0.21152,3.638558,9.156896,0.006708,0.028619,0.013634,0.660156,-0.025146,-0.049316,-0.405485,3.122325,9.311093,0.004091,0.011148,-0.006626,0.360596,-0.183594,-0.578125
0.509378,-0.879761,9.808016,0.000244,0.001127,-0.001171,-0.086914,0.400146,-0.574707,-0.281366,3.189348,9.252801,-0.008023,0.003281,0.006673,-0.655518,0.039795,-0.452637,-0.59742,3.733688,9.090625,-0.005355,0.014201,0.000183,-0.339844,0.523438,0.783936,-0.274634,3.664627,9.161196,-0.003688,-0.014375,0.007403,0.660889,-0.021484,-0.04248,-0.329965,3.156285,9.289727,0.00601,-0.023137,-0.00081,0.362305,-0.181152,-0.570801
0.501963,-0.875794,9.787735,-0.000277,0.002406,0.00031,-0.08374,0.400635,-0.570557,-0.239354,3.169874,9.269807,-0.015144,0.009114,0.007009,-0.65332,0.038818,-0.446045,-0.60119,3.721145,9.099198,-0.008672,-0.00131,0.003172,-0.330078,0.515381,0.787842,-0.117482,3.646424,9.173709,-0.017266,-0.013999,0.008732,0.668701,-0.030029,-0.037354,-0.29061,3.13889,9.261088,-0.005122,0.010393,-0.003767,0.370117,-0.187988,-0.567139
0.509702,-0.88567,9.81589,-0.0017,0.002016,-0.001102,-0.082031,0.401123,-0.568604,-0.290093,3.144195,9.260556,-0.013104,0.007526,0.008082,-0.652588,0.039795,-0.44458,-0.577487,3.695189,9.086147,-0.008018,0.003746,0.001853,-0.327637,0.533936,0.787842,-0.188447,3.607884,9.170521,-0.007313,0.030536,0.012099,0.670654,-0.012451,-0.037598,-0.368023,3.101944,9.269071,-0.007235,0.002431,-0.00044,0.371826,-0.171875,-0.567383
0.520809,-0.875599,9.809149,0.001442,0.0033,0.000869,-0.086426,0.39624,-0.571045,-0.25585,3.170447,9.255595,0.002986,0.003559,0.005299,-0.656982,0.032959,-0.450928,-0.625802,3.720467,9.106512,0.007094,0.010179,-0.002592,-0.34668,0.520264,0.790771,-0.27444,3.638822,9.183063,0.012058,-0.00739,0.010561,0.652588,-0.025635,-0.036377,-0.350538,3.133215,9.28936,0.016725,-0.009305,-0.004018,0.354492,-0.18457,-0.564453
0.517497,-0.881685,9.780743,0.000869,0.000802,-0.000668,-0.091064,0.395508,-0.569824,-0.270935,3.176077,9.271197,-0.015198,0.009841,0.008215,-0.661865,0.03418,-0.444824,-0.596707,3.747328,9.104609,-0.00578,-0.001277,0.003194,-0.336426,0.528076,0.787842,-0.150165,3.667608,9.163352,-0.007899,-0.020026,0.00895,0.662842,-0.020752,-0.040527,-0.316174,3.180179,9.269351,0.00072,0.000586,-0.003219,0.367432,-0.180664,-0.569336
0.518841,-0.869887,9.801344,-0.002865,0.00071,0.000419,-0.086914,0.400635,-0.574219,-0.262621,3.145349,9.249444,-0.019416,0.003663,0.007309,-0.654541,0.039307,-0.449463,-0.587981,3.699301,9.117831,-0.018162,0.007909,0.001588,-0.334961,0.523193,0.776123,-0.169076,3.620241,9.150419,-0.024506,0.026159,0.009602,0.661377,-0.017334,-0.049561,-0.340191,3.107493,9.258182,-0.022604,0.001171,0.000632,0.363281,-0.178711,-0.580566
0.514969,-0.900771,9.791821,0.00186,0.003268,-0.001245,-0.075684,0.398193,-0.574951,-0.256514,3.152764,9.271017,0.003397,0.00809,0.008221,-0.645752,0.035889,-0.451416,-0.608434,3.692743,9.080691,0.009555,0.001756,-0.00019,-0.334961,0.518555,0.783691,-0.25837,3.597915,9.162253,0.005929,0.002127,0.011863,0.663818,-0.030273,-0.044678,-0.351306,3.11644,9.271684,0.018234,0.001175,-0.005239,0.365234,-0.187256,-0.575928
0.516046,-0.88162,9.780826,0.001512,0.003387,-0.000708,-0.077148,0.396729,-0.579346,-0.27651,3.203563,9.28658,-0.009784,0.00675,0.006153,-0.647705,0.034912,-0.454102,-0.599517,3.739782,9.134393,-0.000297,0.006471,-0.000541,-0.329102,0.525391,0.789062,-0.175366,3.656516,9.180206,0.005396,-0.020489,0.008352,0.66626,-0.021484,-0.036377,-0.331275,3.168099,9.280326,0.006471,-0.00813,-0.004388,0.371094,-0.180908,-0.567139
0.493883,-0.865348,9.796096,-0.001249,0.002851,0.000344,-0.07666,0.394287,-0.57251,-0.251665,3.155646,9.262605,-0.021705,0.002959,0.008874,-0.644775,0.032959,-0.451904,-0.606936,3.720189,9.072331,-0.012943,0.002809,0.005168,-0.34082,0.522949,0.786865,-0.145271,3.644494,9.136917,-0.011794,0.017172,0.010412,0.657959,-0.020508,-0.04248,-0.346348,3.13996,9.273413,-0.011567,0.003014,0.000165,0.358643,-0.183838,-0.569336
0.508998,-0.872383,9.81288,0.000244,0.001127,-0.001171,-0.090332,0.402832,-0.568604,-0.261998,3.147871,9.282409,0.000598,0.010993,0.00568,-0.661377,0.041016,-0.443115,-0.587181,3.701148,9.103321,-0.003347,0.002597,-0.001636,-0.339355,0.525391,0.778076,-0.239871,3.619012,9.170104,-0.01459,0.008522,0.01029,0.659912,-0.020508,-0.046631,-0.35263,3.127711,9.262475,0.000535,-0.002347,-0.003613,0.360107,-0.179932,-0.576172
0.503044,-0.87432,9.800411,-0.002221,0.001095,-0.000972,-0.07959,0.391846,-0.569824,-0.264053,3.168,9.278312,-0.0115,0.002794,0.008031,-0.649658,0.029541,-0.446777,-0.610582,3.718727,9.109685,-0.00193,0.008535,0.001311,-0.334961,0.528564,0.788086,-0.179024,3.601271,9.153123,-0.003095,-0.013419,0.007968,0.663818,-0.017822,-0.038818,-0.302601,3.132422,9.298946,0.004295,-0.003939,-0.002775,0.365479,-0.175537,-0.567627
0.522616,-0.867066,9.790159,0.003058,0.005441,0.000795,-0.078613,0.395752,-0.571777,-0.264904,3.163572,9.248308,-0.009783,0.006752,0.006156,-0.648193,0.032471,-0.446533,-0.585829,3.728336,9.09507,0.0011,-0.001744,0.0008,-0.335449,0.52417,0.784912,-0.158822,3.646278,9.153495,0.009936,0.004872,0.011612,0.664307,-0.023193,-0.039551,-0.33809,3.141075,9.293542,0.006929,0.001762,-0.004925,0.366699,-0.180664,-0.571289
0.508814,-0.871016,9.789162,0.000869,0.000802,-0.000667,-0.077637,0.402588,-0.566895,-0.276499,3.177351,9.263558,-0.00956,0.00935,0.007915,-0.648193,0.038818,-0.445068,-0.596225,3.727976,9.105388,-0.010643,0.009973,0.0015,-0.341797,0.524902,0.78418,-0.225391,3.660197,9.178514,-0.01113,0.011123,0.011508,0.657471,-0.021484,-0.04126,-0.334689,3.146256,9.278092,-0.010432,-0.004363,-0.001637,0.358887,-0.180908,-0.571045
0.509965,-0.876651,9.797018,-0.000625,0.000325,-0.000503,-0.081055,0.402344,-0.562988,-0.261331,3.157224,9.262293,-0.012977,0.003614,0.006471,-0.651611,0.038574,-0.443848,-0.610683,3.686844,9.095999,-0.007563,0.001117,0.003465,-0.33374,0.524414,0.786377,-0.193274,3.604998,9.155352,-0.019679,-0.005393,0.009036,0.666992,-0.023438,-0.040527,-0.342648,3.102111,9.273732,-0.002541,0.000837,-0.00309,0.367188,-0.18335,-0.568848
0.503766,-0.885195,9.816239,-0.000676,0.000949,-0.00082,-0.089355,0.391357,-0.56958,-0.273364,3.160307,9.268954,-0.005712,0.008092,0.009894,-0.658936,0.028564,-0.449463,-0.565018,3.718735,9.1186,0.005102,0.000714,0.00112,-0.340576,0.529785,0.783447,-0.171903,3.608289,9.14815,0.005726,-0.000614,0.010692,0.661133,-0.014404,-0.04248,-0.338906,3.137391,9.280422,0.010986,-0.005778,-0.0046,0.358887,-0.173828,-0.572754
0.519212,-0.885286,9.801362,0.00179,0.003181,0.000332,-0.089844,0.397461,-0.574707,-0.28267,3.194404,9.270311,-0.007098,0.004329,0.006126,-0.657227,0.040039,-0.453125,-0.595988,3.736864,9.098102,-0.003529,0.010276,-0.000336,-0.337891,0.531494,0.782715,-0.202537,3.652675,9.15779,0.008145,0.01038,0.009987,0.661377,-0.015381,-0.046143,-0.323042,3.137509,9.264539,0.000406,-0.000251,-0.000751,0.36377,-0.172363,-0.575439
0.498576,-0.867608,9.79282,0.001738,0.003805,1.5e-05,-0.083984,0.400391,-0.563721,-0.277965,3.155591,9.248832,-0.020166,0.007045,0.008223,-0.654541,0.038086,-0.443359,-0.603097,3.723868,9.093548,-0.013334,-0.001801,0.003538,-0.328857,0.525879,0.787842,-0.203944,3.660393,9.172561,-0.019655,-0.001364,0.011544,0.672852,-0.019531,-0.041016,-0.355493,3.136163,9.282318,-0.00913,0.001503,-0.004337,0.374268,-0.179443,-0.566895
0.516584,-0.879329,9.793612,-0.003019,0.00038,-0.001883,-0.085693,0.397949,-0.56665,-0.264575,3.148453,9.265186,0.001431,0.006475,0.006756,-0.655518,0.036621,-0.445068,-0.585142,3.699234,9.103502,0.000953,0.004397,0.00184,-0.333252,0.510986,0.786133,-0.178552,3.604338,9.129102,-0.012244,-0.004065,0.007495,0.664795,-0.034912,-0.039795,-0.332919,3.103792,9.251233,0.005752,-0.008713,-0.001171,0.367432,-0.190918,-0.567627
0.501439,-0.884869,9.816387,0.002086,0.003686,-0.000522,-0.075195,0.402588,-0.57373,-0.269436,3.202832,9.274354,-0.009502,0.008631,0.006713,-0.647217,0.04126,-0.452148,-0.612114,3.734048,9.095976,-0.002175,0.011832,-0.0026,-0.333984,0.523682,0.781982,-0.205783,3.605939,9.158723,0.005162,0.010257,0.01416,0.667236,-0.02417,-0.044922,-0.323107,3.13673,9.307292,0.002545,0.004192,-0.004743,0.366211,-0.183105,-0.575195
0.516894,-0.884941,9.801515,-0.000901,0.000531,-0.001544,-0.080811,0.403809,-0.567627,-0.271354,3.156477,9.262775,-0.020903,0.003414,0.008338,-0.650635,0.041992,-0.441895,-0.594744,3.70994,9.105677,-0.005413,-0.005008,0.005823,-0.337646,0.531738,0.774414,-0.202848,3.657333,9.160261,0.00099,-0.001895,0.008811,0.660645,-0.016113,-0.051514,-0.34759,3.121974,9.284292,0.000888,-0.003268,-0.000869,0.362061,-0.173584,-0.580811
0.507932,-0.88152,9.805108,0.004655,0.002472,-8.6e-05,-0.082031,0.404297,-0.567871,-0.261547,3.17222,9.283986,0.000113,0.008564,0.005775,-0.654297,0.043945,-0.444336,-0.571161,3.724496,9.099122,-0.003991,0.008738,-0.001443,-0.344482,0.520264,0.781982,-0.173016,3.65326,9.145219,-0.011459,-0.004563,0.009209,0.656738,-0.025635,-0.041748,-0.327336,3.142233,9.271251,0.00035,-0.00528,-0.004007,0.355225,-0.181641,-0.571045
0.513238,-0.872932,9.785939,-0.003123,0.003827,-0.001167,-0.079346,0.398926,-0.570801,-0.288606,3.180728,9.27483,-0.01547,0.007981,0.00767,-0.650391,0.038086,-0.445801,-0.616655,3.696759,9.097983,-0.010552,0.009864,0.003722,-0.336182,0.519775,0.786133,-0.184598,3.60692,9.15243,-0.019055,0.014589,0.010674,0.658203,-0.025146,-0.040283,-0.33482,3.114302,9.284749,-0.008809,0.0041,-0.000929,0.365479,-0.181641,-0.565674
0.503923,-0.888258,9.776678,-0.001545,0.000146,-0.000153,-0.085938,0.393555,-0.56543,-0.257309,3.14085,9.240683,-0.008954,0.002242,0.007222,-0.656494,0.029297,-0.444336,-0.596945,3.711735,9.077942,0.005747,-0.005426,0.000929,-0.335205,0.529053,0.782959,-0.235542,3.605732,9.134821,0.010249,-0.001913,0.008934,0.663086,-0.016357,-0.04248,-0.341915,3.116633,9.277836,0.01136,-0.002505,-0.004689,0.363525,-0.17627,-0.570312
0.529263,-0.886242,9.810546,9.1e-05,0.002998,-0.002121,-0.078857,0.398193,-0.568115,-0.262678,3.185526,9.272436,-0.006604,0.011278,0.007654,-0.648438,0.034424,-0.44458,-0.590445,3.751457,9.111338,-0.007175,0.01518,-0.001999,-0.344727,0.531494,0.791992,-0.179538,3.657859,9.167755,0.005273,-0.006821,0.012254,0.655029,-0.012451,-0.0354,-0.327125,3.172447,9.293334,0.008131,-0.005776,-0.005223,0.357422,-0.171875,-0.563721
0.500004,-0.883773,9.792709,-0.000277,0.002407,0.00031,-0.085205,0.399414,-0.576416,-0.278854,3.146841,9.27571,-0.017975,0.002204,0.008265,-0.652832,0.039062,-0.452148,-0.614993,3.710712,9.111918,-0.013785,-0.00038,0.005162,-0.332275,0.524902,0.78125,-0.182857,3.635961,9.147276,-0.024676,0.012295,0.008958,0.665527,-0.018799,-0.044189,-0.328534,3.139754,9.25771,-0.019158,0.003838,0.000904,0.366455,-0.179688,-0.573975
0.510988,-0.87352,9.786004,0.001462,0.004012,-0.001025,-0.083984,0.398926,-0.572266,-0.261493,3.179126,9.264784,0.001746,0.009007,0.007916,-0.65332,0.035645,-0.450195,-0.572602,3.707318,9.085808,0.007381,-0.000465,-0.001541,-0.340088,0.522949,0.790039,-0.219712,3.604494,9.149473,-0.005329,0.001122,0.009934,0.658936,-0.023926,-0.037109,-0.358666,3.114775,9.27994,0.008283,0.000678,-0.004165,0.362061,-0.18042,-0.564941
0.507717,-0.861766,9.770384,0.001892,0.001935,0.000966,-0.080566,0.392822,-0.563232,-0.285313,3.188178,9.277123,-0.013848,0.006385,0.007411,-0.6521,0.030518,-0.443115,-0.607853,3.732291,9.109329,-0.005464,0.015858,-0.001749,-0.335205,0.522705,0.784912,-0.18959,3.640189,9.169951,0.008737,-0.007692,0.00951,0.666016,-0.023193,-0.039795,-0.343101,3.157341,9.290971,0.009159,-0.009377,-0.003078,0.365479,-0.181641,-0.568115
0.519819,-0.882446,9.790351,-0.007726,0.000732,-0.000766,-0.091553,0.398926,-0.574951,-0.258729,3.129114,9.266206,-0.022378,0.00425,0.006775,-0.660645,0.037598,-0.448486,-0.607823,3.707179,9.102989,-0.015262,-0.007313,0.006085,-0.333984,0.523438,0.782715,-0.168207,3.643786,9.17617,-0.014625,0.008157,0.009308,0.66626,-0.022461,-0.043701,-0.326485,3.142389,9.271228,-0.015537,0.002583,-0.001272,0.36377,-0.18042,-0.57251
0.535044,-0.889967,9.8071,0.002608,0.002408,-0.002002,-0.080566,0.400635,-0.568115,-0.294916,3.16314,9.249187,0.012702,0.009975,0.007769,-0.648438,0.035156,-0.446533,-0.565352,3.70392,9.076843,0.00992,0.006257,-0.001405,-0.337402,0.525879,0.781738,-0.216344,3.623681,9.130421,-0.003546,0.003184,0.009607,0.661621,-0.023926,-0.046143,-0.366094,3.11495,9.25941,0.011966,0.001856,-0.003962,0.364014,-0.178955,-0.574951
0.506292,-0.8621,9.770428,0.005402,0.003811,0.000508,-0.079102,0.395996,-0.570557,-0.270106,3.218956,9.298152,-0.012986,0.006105,0.005676,-0.652588,0.034424,-0.448486,-0.611504,3.7527,9.117353,-0.004976,0.012905,-0.003637,-0.334717,0.525635,0.7854,-0.189853,3.645738,9.18561,-0.003343,-0.001495,0.010279,0.663574,-0.019775,-0.041504,-0.323205,3.164806,9.315753,0.003858,-0.009633,-0.00507,0.36499,-0.177734,-0.569824
0.511353,-0.877914,9.770167,-0.003888,-0.000423,-0.001217,-0.083496,0.401123,-0.572266,-0.26585,3.111739,9.238071,-0.034809,0.005064,0.010355,-0.654541,0.040771,-0.448242,-0.593004,3.692347,9.092,-0.016702,-0.011184,0.012605,-0.328613,0.521973,0.78833,-0.183452,3.615886,9.171059,-0.013155,0.002167,0.010656,0.670654,-0.022949,-0.039062,-0.321577,3.122229,9.246439,-0.013115,0.003756,-0.00011,0.373047,-0.181885,-0.568848
0.506377,-0.892506,9.797198,-0.000502,0.00199,-0.000414,-0.082275,0.400391,-0.573486,-0.268358,3.154011,9.260912,0.014235,0.007472,0.003136,-0.650879,0.036621,-0.448975,-0.568191,3.695303,9.10702,0.001065,0.016272,-0.006644,-0.336182,0.520996,0.780029,-0.191111,3.61336,9.151449,-0.00372,0.004472,0.01094,0.663574,-0.024902,-0.046387,-0.357742,3.114764,9.279979,0.000386,0.000588,-0.005753,0.36377,-0.184326,-0.576172
0.519045,-0.870251,9.811099,0.001289,0.002971,-0.001432,-0.083984,0.400146,-0.566895,-0.282983,3.226144,9.284221,-0.006396,0.003732,0.008812,-0.655029,0.037354,-0.444824,-0.637721,3.739122,9.096447,0.009237,0.005691,0.00291,-0.343018,0.523193,0.790527,-0.210493,3.639076,9.153552,0.004412,0.000284,0.009017,0.657227,-0.023193,-0.037842,-0.347543,3.14922,9.293043,0.018638,-0.004167,-0.002959,0.359131,-0.182129,-0.564209
0.51362,-0.894913,9.793793,0.002291,0.003394,0.002096,-0.082031,0.39917,-0.575684,-0.244939,3.161737,9.267368,-0.030937,0.005991,0.007143,-0.650635,0.037842,-0.451904,-0.567973,3.74654,9.105561,-0.014642,-0.006529,0.002409,-0.326904,0.52124,0.783447,-0.183428,3.653334,9.166902,-0.010693,-0.00505,0.010934,0.671631,-0.023682,-0.041016,-0.33837,3.164683,9.274832,-0.00502,-0.007884,-0.003588,0.371826,-0.182129,-0.572754
0.502068,-0.880565,9.781648,-0.00177,-0.000271,-0.000877,-0.077393,0.393799,-0.569824,-0.283225,3.108675,9.256494,-0.007486,0.008419,0.0096,-0.646973,0.032959,-0.445801,-0.613866,3.688289,9.076968,-0.01562,0.017502,0.001615,-0.333008,0.51709,0.783691,-0.178479,3.622854,9.139027,-0.016338,0.010867,0.008249,0.666748,-0.02832,-0.041748,-0.319094,3.111457,9.255525,-0.017714,0.006765,0.000346,0.368164,-0.183838,-0.570557
0.506174,-0.873245,9.786279,0.001217,0.002884,0.000146,-0.085938,0.395264,-0.572021,-0.263506,3.198652,9.297276,0.011323,0.003729,0.004793,-0.657715,0.0354,-0.44751,-0.596075,3.693838,9.114374,0.016394,-0.004212,-0.001693,-0.343506,0.525146,0.789795,-0.21203,3.613362,9.161673,0.005646,0.005805,0.011658,0.657715,-0.021729,-0.036621,-0.367432,3.112652,9.288301,0.021274,-0.00106,-0.005986,0.358154,-0.181885,-0.566406
0.520186,-0.874501,9.795236,-0.001422,-0.00039,-0.001414,-0.081055,0.400146,-0.568115,-0.273142,3.198587,9.263761,-0.026318,0.009024,0.009607,-0.648438,0.038818,-0.446533,-0.562171,3.766649,9.103531,-0.004486,0.007524,0.000952,-0.333252,0.523438,0.787109,-0.209678,3.644006,9.16949,0.001412,-0.010693,0.008711,0.665527,-0.020508,-0.04126,-0.322012,3.180053,9.277112,0.005717,-0.012059,-0.003342,0.367188,-0.178955,-0.571045
0.516542,-0.887557,9.79849,0.001339,0.004549,0.000235,-0.080566,0.398193,-0.574951,-0.261983,3.134973,9.259516,-0.016654,0.003698,0.005857,-0.652344,0.040283,-0.454102,-0.61505,3.692947,9.098173,-0.020003,0.006367,0.003002,-0.333008,0.5271,0.782959,-0.164799,3.63282,9.15351,-0.015996,0.008128,0.008066,0.664795,-0.019287,-0.041992,-0.318863,3.113204,9.254946,-0.020481,0.010781,-0.001598,0.364258,-0.176025,-0.573242
0.504778,-0.8729,9.786382,0.001566,0.000564,-0.001741,-0.079346,0.398438,-0.571533,-0.263678,3.15538,9.255486,0.007794,0.008483,0.008967,-0.649414,0.037598,-0.44751,-0.588434,3.689841,9.105676,0.002987,-0.002939,0.002359,-0.33252,0.52002,0.787354,-0.208418,3.630795,9.156887,-0.007458,0.009227,0.010989,0.661865,-0.029785,-0.038086,-0.373906,3.114177,9.281681,0.004611,-0.00569,-0.006121,0.367188,-0.186768,-0.568359
0.509995,-0.888989,9.786091,-0.002344,0.001632,0.000286,-0.080078,0.397217,-0.567383,-0.283039,3.208288,9.302079,-0.011456,0.004567,0.00603,-0.651367,0.037354,-0.445312,-0.583521,3.741211,9.11757,0.002485,0.015183,-0.003064,-0.329834,0.51709,0.790527,-0.196322,3.612081,9.162789,-0.000374,-0.008963,0.008063,0.666504,-0.029297,-0.036377,-0.3117,3.139567,9.284451,0.009134,-0.008449,-0.003292,0.369873,-0.189209,-0.569336
0.51354,-0.888548,9.822403,0.000143,0.002375,-0.001805,-0.085693,0.404785,-0.570801,-0.273632,3.154432,9.253701,-0.023831,0.004667,0.008399,-0.654297,0.043457,-0.446777,-0.597643,3.718567,9.107022,-0.006638,-0.001615,0.00306,-0.341797,0.523682,0.783447,-0.153166,3.642443,9.141028,0.000431,0.005353,0.01082,0.656982,-0.022705,-0.041016,-0.347794,3.147816,9.279173,-0.000643,0.011061,-0.005064,0.359863,-0.180664,-0.568848
0.521982,-0.884215,9.787275,0.004655,0.002473,-8.4e-05,-0.089355,0.407959,-0.5625,-0.260253,3.146834,9.270186,0.002489,0.008104,0.006222,-0.659912,0.04248,-0.440918,-0.566304,3.720708,9.098947,-0.00921,0.000226,0.002572,-0.334961,0.522217,0.78125,-0.209872,3.647497,9.17245,-0.009454,0.004442,0.010134,0.661377,-0.024658,-0.043213,-0.332083,3.145993,9.263936,-0.00493,-0.015762,8.8e-05,0.363525,-0.182129,-0.573975
0.511757,-0.857699,9.795759,-0.003244,0.002163,-0.001259,-0.084717,0.396484,-0.573975,-0.274576,3.1938,9.267804,-0.011696,0.00788,0.007678,-0.655762,0.033691,-0.450439,-0.614505,3.709621,9.08412,-0.006991,0.016177,-0.000781,-0.337158,0.516846,0.783936,-0.190483,3.619296,9.157763,-0.018558,-0.000594,0.009666,0.663086,-0.028809,-0.044189,-0.311005,3.110011,9.262173,-0.004603,0.005524,-0.003461,0.364502,-0.186523,-0.574463
0.512038,-0.899252,9.778066,-0.000553,0.002614,-0.000732,-0.084229,0.407227,-0.573975,-0.278327,3.160263,9.273723,-0.016243,0.003707,0.007187,-0.654541,0.044922,-0.450928,-0.603764,3.714886,9.095054,0.006837,-0.007179,0.00172,-0.338867,0.520508,0.795166,-0.195649,3.607823,9.137426,0.006261,0.003127,0.010742,0.658447,-0.024902,-0.032959,-0.375711,3.139431,9.276706,0.01515,0.001787,-0.005605,0.362549,-0.184326,-0.561035
0.51499,-0.868293,9.787643,0.002067,0.000776,2.3e-05,-0.081543,0.4021,-0.568115,-0.249736,3.15496,9.2528,-0.002298,0.007239,0.007382,-0.651123,0.040283,-0.446533,-0.567529,3.752812,9.098766,-0.005336,0.008404,-0.002406,-0.333008,0.522949,0.787109,-0.190785,3.659321,9.152644,0.006318,-0.003316,0.009792,0.669189,-0.024414,-0.041748,-0.311267,3.154979,9.288228,0.002616,-0.01734,-0.001945,0.368896,-0.184326,-0.570801
0.526661,-0.906064,9.794923,-0.002845,0.003622,-0.000129,-0.084229,0.396484,-0.564941,-0.28195,3.168452,9.292976,-0.016736,0.008287,0.008084,-0.65332,0.035645,-0.442383,-0.629879,3.696639,9.102838,-0.019486,0.010546,0.003361,-0.335449,0.522949,0.781738,-0.177113,3.629592,9.158586,-0.026918,0.007899,0.009916,0.662354,-0.022949,-0.046143,-0.311045,3.124144,9.266372,-0.020707,0.013956,-0.000449,0.366211,-0.179443,-0.576416
0.511966,-0.887354,9.798748,0.000819,0.001427,-0.000984,-0.085693,0.405762,-0.571777,-0.268879,3.157044,9.247903,-0.007097,0.004334,0.006137,-0.655273,0.041992,-0.449707,-0.578135,3.692097,9.067101,0.008518,-0.007823,0.002346,-0.339355,0.529541,0.788818,-0.207306,3.591171,9.125618,-0.008181,0.006916,0.009839,0.661865,-0.018799,-0.038818,-0.382057,3.098198,9.285771,0.010716,-0.003331,-0.004759,0.361328,-0.174316,-0.567139
0.495725,-0.880995,9.781933,-0.005363,0.004213,-0.00025,-0.080322,0.398438,-0.567139,-0.271524,3.168972,9.297336,-0.012629,0.009319,0.007438,-0.651367,0.034668,-0.443604,-0.583007,3.738726,9.117958,-0.00607,0.017517,-0.004531,-0.332275,0.519043,0.783203,-0.198693,3.630142,9.168603,0.005164,-0.007819,0.012691,0.667236,-0.02832,-0.044189,-0.299204,3.16031,9.293239,0.010012,-0.015983,-0.006123,0.371338,-0.187744,-0.574463
0.522983,-0.896586,9.779116,-0.003609,-0.005032,-0.002877,-0.081055,0.399902,-0.569336,-0.271493,3.141977,9.240673,-0.006341,0.000531,0.008393,-0.6521,0.036377,-0.449463,-0.628434,3.699589,9.087966,-0.005021,-0.003259,0.007564,-0.342041,0.528564,0.786621,-0.177388,3.62766,9.118774,-0.000945,0.001684,0.008068,0.657227,-0.018311,-0.040283,-0.323602,3.116752,9.247705,-0.006606,0.015237,-0.000578,0.358887,-0.178711,-0.569092
0.531439,-0.886887,9.820198,0.01684,0.004666,0.003441,-0.084717,0.405029,-0.571777,-0.241849,3.239253,9.293628,0.012625,0.009045,0.003432,-0.652344,0.045654,-0.447266,-0.555977,3.771249,9.123989,0.015424,0.004125,-0.004374,-0.33252,0.525391,0.776611,-0.187617,3.683806,9.16297,0.00716,0.00777,0.012087,0.666016,-0.022461,-0.049072,-0.389762,3.158988,9.309323,0.017763,-0.006162,-0.008636,0.365479,-0.178955,-0.582275
0.506798,-0.849921,9.788285,0.005475,0.003901,-0.001068,-0.082031,0.397705,-0.578857,-0.304221,3.15327,9.281566,-0.057208,0.005329,0.012292,-0.655029,0.035889,-0.456543,-0.627882,3.721153,9.108895,-0.037176,0.017064,0.003319,-0.332764,0.524902,0.77832,-0.220245,3.633444,9.164014,-0.037605,0.003738,0.0085,0.666504,-0.018066,-0.048096,-0.29436,3.140738,9.268249,-0.024228,-0.01153,0.002783,0.368408,-0.180908,-0.579346
0.529462,-0.846882,9.762114,-0.001074,0.001692,-0.000602,-0.082764,0.398926,-0.56958,-0.215872,3.085691,9.218152,0.017943,0.001024,0.003548,-0.65332,0.034668,-0.446533,-0.570899,3.652443,9.072995,0.009929,-0.018805,0.00663,-0.335693,0.519287,0.782471,-0.167527,3.58193,9.133199,-0.000499,-0.010332,0.007466,0.664551,-0.027588,-0.047852,-0.327042,3.093673,9.245892,0.004897,0.009814,-0.003134,0.36499,-0.18457,-0.572754
0.497912,-0.87732,9.818604,-0.005832,0.000465,-0.001153,-0.081787,0.396729,-0.573242,-0.315608,3.264142,9.3098,0.009293,0.018209,0.008008,-0.653076,0.036377,-0.449707,-0.578866,3.757113,9.116573,0.006562,0.029746,-0.010546,-0.335693,0.525391,0.791748,-0.179568,3.649159,9.177353,0.020475,0.017847,0.012483,0.665527,-0.021484,-0.037598,-0.370162,3.149395,9.316551,0.014757,-0.00315,-0.006606,0.364746,-0.179443,-0.566895
0.537649,-0.899952,9.772451,-0.006813,0.005156,-0.003878,-0.083496,0.401611,-0.571777,-0.248668,3.164978,9.26658,-0.041496,-0.008898,0.006921,-0.651123,0.036377,-0.446777,-0.662403,3.743791,9.096411,-0.007519,-0.008563,0.009893,-0.339111,0.528076,0.775879,-0.236731,3.67949,9.160288,-0.007867,-0.003233,0.009126,0.659668,-0.019775,-0.048828,-0.313572,3.164491,9.265224,0.002119,-0.009128,-7.9e-05,0.359863,-0.177734,-0.578369
0.497789,-0.878525,9.794658,0.000991,0.004669,0.000772,-0.08667,0.394287,-0.570557,-0.24876,3.138441,9.272559,-0.003186,0.021295,0.007019,-0.657959,0.032471,-0.452881,-0.515204,3.733575,9.085179,-0.015796,-0.003341,-0.001,-0.335938,0.521973,0.775635,-0.148294,3.634345,9.148685,-0.029999,-0.010845,0.008059,0.663818,-0.024902,-0.047607,-0.316321,3.128314,9.258902,-0.017798,0.002643,-0.003113,0.364746,-0.182373,-0.578857
0.51002,-0.892185,9.782996,-0.004214,0.000406,-0.002577,-0.091553,0.400879,-0.561523,-0.327097,3.139161,9.269739,-6.5e-05,-0.003305,0.007775,-0.65918,0.037109,-0.441406,-0.644123,3.652363,9.0938,-0.011613,0.022825,0.001857,-0.338379,0.526855,0.796387,-0.200699,3.569911,9.129785,-0.010323,0.025263,0.010902,0.659912,-0.018066,-0.030518,-0.366423,3.065703,9.276775,-0.007617,0.001743,0.00053,0.363525,-0.176514,-0.560303
0.518642,-0.894667,9.779523,0.00795,-0.000313,0.001495,-0.084961,0.397217,-0.565186,-0.190809,3.229675,9.273629,0.000309,0.008434,0.004593,-0.654541,0.035645,-0.442627,-0.580029,3.752831,9.081331,0.03213,-0.019213,-0.001856,-0.333252,0.530518,0.779785,-0.234562,3.634257,9.15396,0.035109,-0.011928,0.012032,0.665527,-0.017822,-0.04541,-0.323807,3.144116,9.256396,0.039888,-0.009455,-0.010928,0.368408,-0.174805,-0.575684
0.511784,-0.890735,9.843338,0.002609,0.004611,-0.000652,-0.085938,0.398926,-0.572021,-0.32886,3.168437,9.306469,-0.040052,0.014483,0.011416,-0.65625,0.031738,-0.448975,-0.575273,3.770559,9.143998,-0.032823,0.032602,0.002104,-0.333984,0.519043,0.78833,-0.153384,3.709481,9.214625,-0.019153,-0.000939,0.007659,0.66748,-0.026855,-0.039795,-0.31193,3.196394,9.343613,-0.02408,0.004298,0.002759,0.368164,-0.185791,-0.571533
0.497997,-0.868391,9.739443,0.006252,0.001705,0.000389,-0.076172,0.395752,-0.572998,-0.231605,3.063235,9.21115,-0.00264,-0.014265,0.006112,-0.647217,0.0354,-0.449951,-0.662774,3.632622,9.041811,-0.010923,-0.021437,0.006971,-0.342041,0.524658,0.780273,-0.234158,3.593154,9.105376,-0.029992,0.014228,0.00912,0.657227,-0.02124,-0.044678,-0.390631,3.065487,9.215377,-0.008426,0.00216,-0.002759,0.360352,-0.178711,-0.574463
0.525503,-0.865559,9.833613,0.001319,0.001638,0.00078,-0.083252,0.405518,-0.569824,-0.226797,3.304582,9.302021,0.041703,0.029162,0.005173,-0.651855,0.039551,-0.448486,-0.466087,3.790627,9.114059,0.036301,0.009288,-0.008331,-0.341797,0.523193,0.793457,-0.178348,3.649909,9.181448,0.024685,-0.016205,0.012336,0.655029,-0.023193,-0.036133,-0.284331,3.184825,9.272656,0.030814,-0.021703,-0.009838,0.359375,-0.182129,-0.563965
0.488395,-0.890143,9.846019,-0.000828,0.00282,-0.001773,-0.084473,0.398682,-0.565674,-0.355033,3.192976,9.285114,-0.088531,-0.005309,0.012751,-0.654053,0.037354,-0.445312,-0.722652,3.711358,9.106698,-0.049902,0.03452,0.002121,-0.335449,0.524414,0.787354,-0.180208,3.621363,9.159222,-0.019979,0.02384,0.004958,0.664307,-0.02002,-0.039551,-0.339055,3.132104,9.309861,-0.034532,0.030744,0.003548,0.367676,-0.176758,-0.566406
0.538265,-0.840668,9.739773,0.003906,0.005539,0.002022,-0.085449,0.400391,-0.561035,-0.155354,3.039959,9.167999,0.024379,0.000909,0.00274,-0.655518,0.037598,-0.438965,-0.547112,3.704756,9.073712,0.024298,-0.055139,0.010122,-0.342773,0.533936,0.788086,-0.244158,3.648316,9.13652,0.011911,-0.012041,0.015469,0.657471,-0.010986,-0.036621,-0.451981,3.142854,9.241262,0.032871,-0.023791,-0.008589,0.361572,-0.172852,-0.567139
0.476041,-0.870295,9.802118,-0.016073,-0.000417,-0.003399,-0.081787,0.393799,-0.574951,-0.363261,3.270253,9.362652,0.001675,0.026889,0.011303,-0.650879,0.034424,-0.449463,-0.538785,3.744432,9.157381,-0.031981,0.061988,-0.011957,-0.338379,0.519531,0.789062,-0.143442,3.631507,9.208305,-0.043177,-0.004518,0.006866,0.662354,-0.025391,-0.038818,-0.192401,3.159915,9.289979,-0.04126,-0.016859,0.003634,0.363281,-0.182861,-0.568115
0.566149,-0.926724,9.821907,-0.011086,-0.003175,-0.004822,-0.082275,0.401123,-0.578369,-0.223495,3.123532,9.194524,-0.024326,-0.021914,0.005479,-0.654541,0.036621,-0.457275,-0.762238,3.644848,9.047583,0.018546,-0.02249,0.013549,-0.328125,0.527344,0.789307,-0.205759,3.553252,9.070936,0.013186,0.025658,0.010249,0.670166,-0.018555,-0.035645,-0.421726,3.037261,9.266845,0.02087,0.049566,-0.003697,0.370361,-0.177002,-0.565918
0.521657,-0.880624,9.812859,0.021768,0.00914,0.005756,-0.084473,0.405762,-0.571045,-0.237236,3.228711,9.316643,-0.000193,0.032689,0.006859,-0.653564,0.04541,-0.44751,-0.41024,3.835307,9.141325,0.010213,-0.009406,-0.012613,-0.34375,0.526367,0.779785,-0.234512,3.724171,9.216333,0.034712,-0.016974,0.016648,0.655029,-0.020996,-0.046875,-0.384621,3.251686,9.304336,0.038087,-0.05753,-0.012686,0.358398,-0.177979,-0.574463
0.496549,-0.881324,9.755204,-0.017668,0.000353,-0.003873,-0.079834,0.399902,-0.568604,-0.356092,3.088715,9.245338,-0.050191,-0.012661,0.008819,-0.651855,0.039551,-0.443604,-0.706045,3.645934,9.133093,-0.066667,0.050354,0.013339,-0.342285,0.526611,0.786621,-0.147025,3.649036,9.196507,-0.072559,0.000304,-0.001368,0.660889,-0.019775,-0.03833,-0.144292,3.101423,9.254424,-0.076982,0.016377,0.015332,0.36084,-0.177246,-0.568604
0.509756,-0.914576,9.814698,0.009792,4.6e-05,0.000798,-0.082031,0.401611,-0.574463,-0.165252,3.154857,9.229114,0.053101,0.012847,0.004298,-0.651611,0.037354,-0.451416,-0.57486,3.624742,9.039859,0.051748,-0.055603,-0.002041,-0.342041,0.521484,0.784424,-0.211635,3.515262,9.085932,0.009684,0.022568,0.016472,0.659424,-0.024414,-0.041748,-0.520005,3.031414,9.263946,0.039167,0.038482,-0.016823,0.360107,-0.182373,-0.569092
0.527285,-0.865637,9.84614,0.00401,0.00209,0.001309,-0.090332,0.406982,-0.574951,-0.360548,3.299932,9.329309,-0.029852,0.012252,0.008191,-0.660889,0.046631,-0.451416,-0.512123,3.872246,9.140623,0.002868,0.056292,-0.009818,-0.331055,0.518555,0.783447,-0.241286,3.686968,9.217586,0.040046,-0.011465,0.011128,0.667236,-0.029297,-0.042236,-0.296784,3.251451,9.359326,0.036919,-0.06951,-0.000431,0.36792,-0.188721,-0.574951
0.498058,-0.891336,9.771078,0.000891,0.003716,-0.001213,-0.091309,0.390381,-0.57251,-0.183355,3.04733,9.224395,-0.059873,-0.011372,0.007751,-0.660889,0.031006,-0.446045,-0.745756,3.651977,9.107389,-0.051577,-0.0166,0.014349,-0.339844,0.529297,0.785889,-0.145171,3.670574,9.149605,-0.038451,-0.013706,0.00526,0.659912,-0.02002,-0.037842,-0.205982,3.135329,9.239428,-0.050209,0.040485,0.002123,0.361816,-0.175049,-0.56958
0.540444,-0.877222,9.810791,-0.000226,0.001784,0.000625,-0.079346,0.395508,-0.564941,-0.284618,3.145044,9.237967,0.063543,0.031009,0.005614,-0.650391,0.031982,-0.443604,-0.435419,3.695044,9.065695,0.02738,-0.017864,0.002257,-0.340576,0.523193,0.786133,-0.174832,3.599539,9.136565,-0.012779,0.024936,0.012638,0.656738,-0.024902,-0.039307,-0.497227,3.088218,9.299628,0.0102,0.007405,-0.006813,0.361328,-0.185547,-0.570068
0.486865,-0.864121,9.779652,0.006644,0.005211,-0.002587,-0.076904,0.401367,-0.573242,-0.294028,3.304852,9.309164,-0.034114,-0.012192,0.007667,-0.645996,0.041016,-0.452637,-0.682445,3.744383,9.125166,-0.008823,0.060598,-0.014826,-0.330566,0.525635,0.781982,-0.278894,3.614825,9.170896,-0.001062,0.010779,0.011001,0.670166,-0.020752,-0.044922,-0.255332,3.121051,9.31099,0.015332,-0.041255,-1.5e-05,0.372314,-0.180664,-0.575684
0.529802,-0.879707,9.762045,-0.013774,-0.003472,0.000104,-0.07959,0.396484,-0.57251,-0.182856,3.073034,9.221262,-0.040304,0.011283,0.00904,-0.650635,0.033691,-0.44751,-0.603773,3.739009,9.096269,0.001071,-0.05883,0.020207,-0.335449,0.526855,0.792236,-0.170134,3.650185,9.138757,0.014658,-0.039354,0.010015,0.66333,-0.020508,-0.035156,-0.315067,3.184175,9.233435,0.009688,0.031779,-0.007997,0.367432,-0.18042,-0.566406
0.501233,-0.904444,9.846884,0.001566,0.002767,-0.000391,-0.077637,0.405762,-0.568604,-0.326333,3.167656,9.285208,0.022435,0.014225,0.007972,-0.648193,0.043457,-0.445801,-0.488465,3.730911,9.101566,-0.022649,0.041988,-0.008005,-0.330811,0.527588,0.787842,-0.105694,3.661169,9.170723,-0.017225,0.030795,0.009526,0.668213,-0.016113,-0.036621,-0.390388,3.137923,9.30696,-0.030951,-0.010479,0.003329,0.36792,-0.17627,-0.569824
0.518415,-0.878988,9.789338,0.000564,0.006749,-0.001222,-0.083496,0.397949,-0.569824,-0.224102,3.187696,9.271325,-0.010423,-0.005727,0.006181,-0.652588,0.038086,-0.449219,-0.758996,3.652027,9.09039,0.005872,0.006969,0.001687,-0.333984,0.528809,0.788574,-0.312074,3.605478,9.16646,-0.017838,0.023062,0.012953,0.667236,-0.015625,-0.035645,-0.321503,3.058616,9.287851,0.015483,-0.000791,-0.003957,0.369629,-0.174072,-0.56665
0.502206,-0.864483,9.740965,0.007049,0.002422,0.001303,-0.084717,0.403076,-0.572998,-0.260072,3.187755,9.250696,-0.019894,0.0192,0.010087,-0.656738,0.042725,-0.450928,-0.478035,3.798388,9.09016,0.016061,-0.032808,0.003621,-0.338135,0.524658,0.789795,-0.173719,3.633475,9.147546,0.006933,-0.050593,0.007335,0.663574,-0.023682,-0.036133,-0.348598,3.196495,9.255565,0.019546,-0.008397,-0.008427,0.362061,-0.178955,-0.564453
0.509892,-0.880996,9.800822,-0.008868,-0.00207,-0.002499,-0.080322,0.395508,-0.569092,-0.318084,3.122092,9.246034,-0.021679,-0.002172,0.005984,-0.649414,0.032471,-0.445312,-0.615527,3.712386,9.100461,-0.040308,0.057286,-0.002642,-0.344482,0.519287,0.7854,-0.087008,3.640811,9.157176,-0.0033,0.030758,0.008457,0.656738,-0.026611,-0.043457,-0.30293,3.107101,9.283142,-0.034862,0.007765,0.006027,0.358643,-0.185059,-0.570312
0.538066,-0.901325,9.806004,0.00752,0.003969,0.000855,-0.07666,0.397461,-0.573486,-0.235994,3.171322,9.26244,0.012302,0.007395,0.007318,-0.647461,0.0354,-0.449951,-0.671541,3.655666,9.080949,0.016096,-0.041285,0.00679,-0.334473,0.525635,0.785156,-0.307258,3.655755,9.155354,0.00022,0.023537,0.016709,0.663574,-0.023682,-0.040039,-0.421692,3.107927,9.259709,0.022285,0.004681,-0.009736,0.366943,-0.182617,-0.568848
0.51209,-0.867239,9.79771,-0.000501,0.001991,-0.000416,-0.082031,0.398193,-0.570312,-0.300238,3.221063,9.275352,-0.010251,0.008882,0.007882,-0.651123,0.039795,-0.44873,-0.447713,3.788086,9.103918,0.003735,0.020043,-0.004099,-0.344727,0.521973,0.781982,-0.173282,3.639982,9.16286,-0.022701,-0.04881,0.00286,0.653809,-0.023438,-0.044434,-0.265706,3.171971,9.252245,0.000159,-0.032834,-0.000483,0.356445,-0.182861,-0.57373
0.502791,-0.899953,9.775686,-0.001321,0.000563,0.000568,-0.087158,0.399902,-0.568604,-0.259919,3.15387,9.249242,-0.035722,0.002785,0.009032,-0.656738,0.035645,-0.444092,-0.741469,3.693235,9.099543,-0.024246,0.024478,0.000976,-0.325439,0.524658,0.788086,-0.097259,3.584193,9.136791,-0.001506,0.032634,0.010628,0.673584,-0.018799,-0.0354,-0.319303,3.105315,9.285251,-0.011318,0.039754,-0.002918,0.376221,-0.178711,-0.567139
0.518701,-0.864944,9.786355,-0.000328,0.003033,-1e-05,-0.085449,0.406982,-0.567627,-0.28935,3.132599,9.275866,0.008974,0.008629,0.006062,-0.654053,0.045166,-0.446533,-0.536867,3.709161,9.093921,0.007967,-0.039951,0.010034,-0.338379,0.525879,0.794678,-0.307844,3.661924,9.157311,0.016663,0.02083,0.016972,0.662354,-0.020508,-0.031494,-0.443978,3.141559,9.29038,0.016229,-0.024152,-0.006758,0.36377,-0.178955,-0.561768
0.509262,-0.88692,9.808748,-0.00406,-0.001466,-0.001628,-0.078857,0.402344,-0.571777,-0.257965,3.21556,9.280881,-0.002241,0.004026,0.00698,-0.646484,0.039551,-0.447754,-0.551236,3.732394,9.097901,-0.009493,0.043215,-0.006331,-0.334473,0.525391,0.776611,-0.165023,3.669878,9.151127,-0.028299,-0.046868,0.001181,0.665283,-0.020996,-0.048096,-0.187106,3.139394,9.250957,-0.013466,-0.018304,0.002162,0.368164,-0.179443,-0.579102
0.528758,-0.886781,9.830199,0.001215,0.005089,0.001495,-0.07373,0.397949,-0.566895,-0.256681,3.178497,9.268161,-0.02692,0.011054,0.008128,-0.644043,0.038574,-0.443848,-0.707903,3.710795,9.105069,-0.002353,-0.008499,0.004,-0.340088,0.529297,0.784668,-0.103131,3.57929,9.131701,-0.009387,0.032991,0.015317,0.657715,-0.017578,-0.043213,-0.404476,3.110071,9.300022,0.003084,0.046086,-0.008357,0.360107,-0.172119,-0.57251
0.503793,-0.869478,9.785319,0.0051,0.005358,-0.00274,-0.078369,0.395264,-0.568115,-0.284041,3.120712,9.2505,-0.011206,0.003324,0.006783,-0.648926,0.034912,-0.445557,-0.508357,3.73375,9.093357,-0.00303,-0.010707,0.005182,-0.333984,0.532471,0.789795,-0.303254,3.646275,9.186236,0.015082,0.021449,0.012516,0.665771,-0.012939,-0.034668,-0.396358,3.154008,9.261916,0.006112,-0.04538,0.000692,0.366211,-0.169434,-0.56543
0.517377,-0.888318,9.781573,-0.004459,-0.000723,-0.001409,-0.082764,0.397217,-0.569824,-0.249079,3.179729,9.250791,0.010967,0.00883,0.005759,-0.651855,0.0354,-0.447266,-0.625452,3.704288,9.09003,-0.009726,0.032562,-0.006189,-0.332275,0.527344,0.783203,-0.172506,3.674927,9.159984,-0.008258,-0.045254,0.004279,0.665527,-0.020508,-0.046143,-0.221087,3.149355,9.259538,-0.003821,0.010208,-0.003213,0.367432,-0.179932,-0.575439
0.512598,-0.902642,9.808604,0.002192,0.00024,-0.001235,-0.082764,0.397217,-0.56958,-0.286064,3.206478,9.286928,-0.022142,0.00694,0.008533,-0.65625,0.032471,-0.446289,-0.618194,3.725351,9.087846,0.00073,-0.018914,0.005652,-0.334717,0.527344,0.780029,-0.100612,3.607259,9.140718,-0.020258,0.026709,0.011236,0.663818,-0.019531,-0.044922,-0.449279,3.129448,9.27945,-0.008247,0.022927,-0.00432,0.366943,-0.178711,-0.574707
0.526601,-0.878557,9.79879,0.005299,0.007268,0.001227,-0.083008,0.398438,-0.56665,-0.262083,3.125571,9.258103,-0.018551,0.003501,0.00554,-0.654053,0.038574,-0.44458,-0.556881,3.738741,9.078347,-0.003537,0.01183,-1.8e-05,-0.337646,0.527588,0.789307,-0.297271,3.614761,9.158695,0.003325,0.024596,0.012118,0.659668,-0.019287,-0.038818,-0.314645,3.113348,9.283207,0.010647,-0.037152,-0.001277,0.36377,-0.179688,-0.567627
0.503,-0.867037,9.761739,0.000347,0.002084,0.000812,-0.080811,0.389648,-0.570557,-0.269032,3.18089,9.277567,0.00519,0.010135,0.007882,-0.648926,0.028564,-0.450439,-0.639674,3.720008,9.136892,-0.006985,0.01202,-0.000256,-0.337402,0.519043,0.786377,-0.181636,3.656503,9.189429,-0.000101,-0.042039,0.00885,0.664062,-0.031738,-0.041016,-0.2782,3.162929,9.276643,0.004534,0.019201,-0.006758,0.363525,-0.187744,-0.570068
0.524001,-0.872757,9.791021,-0.004808,-0.000604,-0.000873,-0.075684,0.398682,-0.569824,-0.280282,3.194452,9.261685,-0.012887,0.00362,0.00585,-0.64624,0.035889,-0.449219,-0.594165,3.704642,9.095901,-0.002649,-0.009052,0.004079,-0.32959,0.528076,0.788086,-0.09065,3.635179,9.156795,-0.01188,0.018751,0.009502,0.670166,-0.020264,-0.040283,-0.406295,3.120766,9.290982,-0.01686,0.000191,0.002115,0.370117,-0.177734,-0.567139
0.507003,-0.89753,9.824766,-0.000103,0.003451,0.000714,-0.085449,0.40332,-0.564209,-0.267999,3.17432,9.270002,-0.022513,0.007613,0.007802,-0.654541,0.041504,-0.443604,-0.582853,3.72604,9.106926,-0.003571,0.020306,-0.00319,-0.331299,0.520508,0.792725,-0.292198,3.632196,9.16759,-0.005198,0.030629,0.014725,0.667969,-0.024902,-0.032471,-0.31702,3.107404,9.298958,0.011772,-0.014696,-0.005248,0.367676,-0.184814,-0.563965
0.533024,-0.875903,9.763648,-0.004989,0.004806,-0.00269,-0.084229,0.39917,-0.569336,-0.275778,3.129862,9.245286,-0.010209,0.003204,0.008223,-0.656738,0.037354,-0.447266,-0.626104,3.692589,9.097664,-0.010622,-0.006827,0.005666,-0.335693,0.525635,0.79126,-0.223887,3.614598,9.157281,-0.011973,-0.040071,0.005346,0.663574,-0.019775,-0.034424,-0.314415,3.153811,9.253951,0.001263,0.004195,-0.003791,0.364014,-0.179688,-0.56665
0.502854,-0.904807,9.79629,0.002517,-0.00059,0.000124,-0.086426,0.395508,-0.568115,-0.245331,3.202595,9.241618,0.020801,0.009233,0.004239,-0.656982,0.038574,-0.447021,-0.535778,3.715866,9.087129,0.009113,0.00152,-0.001649,-0.347168,0.528809,0.781982,-0.082887,3.633468,9.137515,0.009437,0.005325,0.009254,0.654541,-0.02002,-0.043457,-0.327242,3.131353,9.273906,-0.002865,-0.00428,-0.002576,0.354004,-0.176025,-0.571045
0.517213,-0.887429,9.818126,0.004757,0.001229,0.000556,-0.084473,0.399414,-0.576416,-0.293885,3.234401,9.283737,-0.033456,0.008755,0.010322,-0.654541,0.038086,-0.451416,-0.641411,3.733114,9.101102,-0.00531,0.02117,-0.003172,-0.337891,0.515869,0.78418,-0.267971,3.664949,9.182377,0.001423,0.041487,0.014376,0.662354,-0.031006,-0.04126,-0.357243,3.136461,9.318302,0.004861,0.008146,-0.004225,0.364014,-0.187012,-0.57251
0.512964,-0.868901,9.794728,0.007696,0.00281,-8.5e-05,-0.080322,0.393799,-0.571777,-0.218848,3.097044,9.2394,-0.020725,-0.002927,0.0068,-0.649414,0.032471,-0.449219,-0.587175,3.734135,9.086734,-0.009101,-0.021111,0.008739,-0.333252,0.528564,0.787109,-0.246758,3.658973,9.147485,-0.02237,-0.040089,0.005715,0.666504,-0.019775,-0.041504,-0.33634,3.157636,9.262436,0.001428,-0.019173,-0.000567,0.366455,-0.178711,-0.569092
0.515417,-0.855059,9.791611,-0.001249,0.002854,0.000338,-0.081543,0.391357,-0.568115,-0.285243,3.179481,9.266684,0.013101,0.017994,0.00815,-0.651611,0.030029,-0.445068,-0.53963,3.718027,9.096145,-0.013087,0.019893,-0.0034,-0.344238,0.52417,0.789795,-0.047592,3.604393,9.150541,-0.014488,-2.3e-05,0.00858,0.656494,-0.021729,-0.039551,-0.273044,3.124758,9.277139,-0.018048,0.004124,-0.00304,0.358154,-0.182129,-0.568359
0.501254,-0.884785,9.809354,-0.006156,0.001294,-0.002519,-0.078125,0.399414,-0.57251,-0.305195,3.198517,9.278226,-0.016893,-0.00175,0.008008,-0.651123,0.039062,-0.452393,-0.676019,3.66771,9.104666,0.005216,0.008933,0.002404,-0.334473,0.527832,0.780518,-0.254656,3.623813,9.134289,0.011749,0.050773,0.014472,0.669189,-0.017334,-0.043457,-0.398182,3.088785,9.275674,0.011223,0.017466,-0.0038,0.367676,-0.17627,-0.573242
0.51833,-0.874009,9.815045,-0.002618,0.001838,-0.00076,-0.080811,0.394775,-0.56958,-0.231553,3.161549,9.256399,-0.014369,0.005846,0.006109,-0.649902,0.031494,-0.445068,-0.539462,3.769997,9.094721,0.014071,-0.015906,-0.001092,-0.332031,0.526611,0.788086,-0.255343,3.704501,9.164788,0.012752,-0.04129,0.007789,0.664795,-0.017822,-0.041016,-0.354722,3.183447,9.273084,0.024737,-0.029126,-0.008169,0.367676,-0.177002,-0.569336
0.505981,-0.902871,9.808926,-0.005931,0.001712,-0.001795,-0.079102,0.407715,-0.570557,-0.295347,3.154486,9.269825,-0.013546,0.008313,0.008009,-0.649414,0.047363,-0.44751,-0.604314,3.737447,9.14203,-0.03736,0.029095,0.001991,-0.331787,0.527832,0.786865,-0.056303,3.660041,9.181711,-0.037272,-0.008044,0.007963,0.668945,-0.018555,-0.042236,-0.259442,3.165098,9.274468,-0.032678,0.007743,0.001595,0.369385,-0.175537,-0.570801
0.532747,-0.917559,9.806291,0.004209,0.001642,-0.001526,-0.077881,0.394775,-0.570557,-0.241463,3.159171,9.223812,0.000791,0.000897,0.007675,-0.646484,0.0354,-0.447021,-0.632959,3.632279,9.065113,0.002918,-0.015392,0.006636,-0.326904,0.531006,0.792236,-0.241948,3.562862,9.105277,-0.008521,0.049922,0.014189,0.673828,-0.017822,-0.031738,-0.414604,3.057384,9.255504,-0.003732,0.015903,-0.003451,0.373779,-0.177246,-0.563477
0.508252,-0.863674,9.787016,0.011652,0.007729,0.002258,-0.080566,0.398926,-0.567627,-0.27229,3.216623,9.276994,-0.006329,0.01432,0.006359,-0.651611,0.038574,-0.44458,-0.528071,3.765156,9.099795,0.017374,0.009641,-0.006859,-0.340332,0.52832,0.781006,-0.277153,3.642428,9.186469,0.021973,-0.028526,0.00985,0.6604,-0.018066,-0.04541,-0.325806,3.147567,9.291784,0.033473,-0.030428,-0.007891,0.362061,-0.177002,-0.575195
0.499382,-0.853205,9.758932,-0.004632,-0.001766,-0.001817,-0.08252,0.405518,-0.566406,-0.280653,3.13919,9.247743,-0.035194,-0.002898,0.010046,-0.653076,0.041992,-0.444092,-0.653644,3.731202,9.098128,-0.024256,0.016237,0.004812,-0.334717,0.523926,0.785156,-0.08102,3.673326,9.16414,-0.01377,-0.014608,0.005238,0.665039,-0.021973,-0.042725,-0.277703,3.161876,9.262665,-0.016992,0.015842,0.001066,0.368164,-0.179932,-0.571533
0.532591,-0.903215,9.827205,0.000399,-0.000743,-0.000219,-0.079346,0.401123,-0.56543,-0.229543,3.14647,9.241938,0.019161,0.010161,0.003932,-0.64624,0.040771,-0.442871,-0.566832,3.712858,9.068073,0.004696,-0.02065,0.006452,-0.33374,0.520752,0.775635,-0.215173,3.62475,9.155658,-0.008413,0.041053,0.014773,0.664062,-0.026611,-0.051514,-0.422387,3.117193,9.27939,-0.002234,0.003346,-0.004472,0.365723,-0.18457,-0.580322
0.506526,-0.869329,9.81886,0.005025,0.007476,0.000186,-0.080078,0.39917,-0.564209,-0.306392,3.24574,9.283694,-0.018374,0.00682,0.008544,-0.648682,0.037842,-0.440186,-0.582482,3.730653,9.100939,-0.008017,0.029075,-0.005421,-0.326416,0.52417,0.784424,-0.283066,3.637826,9.181306,-0.01051,-0.01134,0.009269,0.672852,-0.022705,-0.041504,-0.295229,3.129032,9.28547,0.002136,-0.022769,-0.000957,0.373535,-0.180664,-0.569336
0.519284,-0.869526,9.743894,-0.007202,0.001651,-0.000912,-0.091309,0.398682,-0.571777,-0.22796,3.11797,9.238541,-0.029854,0.001487,0.006271,-0.659424,0.0354,-0.450684,-0.650866,3.704494,9.105528,-0.00509,-0.01163,0.008493,-0.34082,0.521484,0.776367,-0.119536,3.610457,9.145038,-0.005713,-0.022839,0.006703,0.657227,-0.02124,-0.048096,-0.321277,3.137606,9.258173,0.002483,0.014582,-0.001253,0.360352,-0.182617,-0.577393
0.499431,-0.890353,9.793535,-0.003662,-7e-06,-0.0005,-0.083252,0.394775,-0.564453,-0.283734,3.162159,9.255531,0.013319,0.016039,0.008325,-0.648926,0.030273,-0.441406,-0.54449,3.737936,9.090824,0.001557,0.006725,-0.001523,-0.330566,0.524414,0.783203,-0.177529,3.649265,9.142885,0.008209,0.037005,0.013673,0.667725,-0.021484,-0.041748,-0.381763,3.132474,9.286336,0.002826,-0.001742,-0.005262,0.370117,-0.17749,-0.570557
0.514519,-0.898019,9.810337,-0.002769,0.003711,-0.001713,-0.081055,0.398926,-0.575439,-0.266562,3.219258,9.271624,-0.011377,-0.004269,0.005907,-0.651123,0.038086,-0.454834,-0.652057,3.720114,9.105667,-0.009392,0.017622,-0.002486,-0.332764,0.521973,0.787109,-0.296528,3.672389,9.191614,-0.013086,0.000601,0.008399,0.665039,-0.027344,-0.039795,-0.329299,3.140311,9.293608,0.000318,-0.008539,-0.001385,0.368652,-0.18335,-0.568115
0.511381,-0.88655,9.794675,0.003785,0.001674,0.000589,-0.0896,0.401367,-0.569092,-0.244221,3.151113,9.260373,-0.025027,0.012732,0.010263,-0.658691,0.038574,-0.445557,-0.561698,3.714285,9.117162,-0.002064,-0.020609,0.007539,-0.329102,0.523926,0.783447,-0.133626,3.61273,9.161466,-0.018705,-0.034382,0.009171,0.669189,-0.02002,-0.046875,-0.303099,3.142669,9.269345,-0.001504,-0.001174,-0.004649,0.370605,-0.177246,-0.573242
0.517961,-0.889928,9.815087,0.000871,0.000804,-0.000666,-0.077637,0.396973,-0.570068,-0.297592,3.160755,9.26364,0.000502,0.005362,0.007385,-0.646729,0.036133,-0.449951,-0.563256,3.724183,9.096436,-0.008488,0.026316,-0.0033,-0.332275,0.516602,0.7854,-0.142568,3.620282,9.142361,0.003448,0.035389,0.010757,0.666504,-0.027832,-0.040283,-0.341275,3.117324,9.271273,-0.005165,0.006176,-0.000928,0.367676,-0.186279,-0.571289
0.509137,-0.861064,9.79983,0.011604,0.006152,0.000594,-0.085693,0.392334,-0.571777,-0.243188,3.201325,9.283852,-0.002038,0.00208,0.007136,-0.654297,0.030518,-0.446289,-0.661992,3.717321,9.080018,0.005192,-0.003912,0.000326,-0.328613,0.524902,0.785156,-0.307989,3.658108,9.16542,0.011877,0.008508,0.013058,0.669678,-0.020752,-0.042725,-0.374871,3.131022,9.292942,0.015756,-0.001599,-0.007524,0.372314,-0.178223,-0.572998
0.495963,-0.858124,9.767091,-0.00573,-0.000785,-0.000527,-0.084229,0.397461,-0.575195,-0.266351,3.153559,9.265134,-0.028688,0.008981,0.008584,-0.658691,0.035156,-0.455566,-0.536854,3.738462,9.103605,-0.013453,-0.007068,0.004979,-0.334961,0.520996,0.787598,-0.154365,3.647297,9.15129,-0.027262,-0.038603,0.005741,0.663818,-0.026367,-0.03833,-0.298813,3.164822,9.271479,-0.012003,-0.017973,0.00073,0.366699,-0.184326,-0.56665
0.522143,-0.905216,9.814949,-0.006925,-0.000759,-0.00122,-0.080078,0.40332,-0.56543,-0.268246,3.139689,9.257393,-0.000415,0.002949,0.006098,-0.649658,0.038574,-0.438721,-0.611764,3.688714,9.074473,-0.007753,0.024228,-0.00178,-0.327393,0.520508,0.786133,-0.108416,3.593699,9.127358,-0.009556,0.030074,0.010715,0.669922,-0.024414,-0.040771,-0.315466,3.090399,9.267118,-0.005887,0.019152,-0.001622,0.373291,-0.182861,-0.573486
0.528871,-0.902851,9.803606,0.00393,0.006255,0.00013,-0.085205,0.398438,-0.573975,-0.283533,3.199956,9.27341,-0.000798,0.011331,0.007477,-0.65332,0.036133,-0.449951,-0.615984,3.717461,9.089354,0.009438,-0.009268,0.001537,-0.335693,0.523438,0.783203,-0.298183,3.645422,9.159653,0.017414,0.01921,0.013201,0.662598,-0.022461,-0.042236,-0.410596,3.138121,9.288093,0.02062,-0.004423,-0.006959,0.366943,-0.180664,-0.573486
0.503064,-0.862401,9.763563,0.000645,0.00259,-4.2e-05,-0.079102,0.394043,-0.572266,-0.269734,3.168541,9.263295,-0.026092,0.001359,0.006271,-0.649414,0.033203,-0.44873,-0.554731,3.742575,9.108588,-0.011218,0.004726,0.002182,-0.33667,0.52832,0.790527,-0.167041,3.680563,9.175633,-0.011459,-0.04232,0.00538,0.662109,-0.016113,-0.034668,-0.28518,3.161975,9.284659,-0.006865,-0.019037,-0.001386,0.364502,-0.176025,-0.564209
0.520882,-0.898862,9.783324,-0.00493,-0.002272,-0.000964,-0.088379,0.394287,-0.565918,-0.240043,3.119225,9.250903,-0.001701,0.010947,0.008615,-0.657471,0.031494,-0.443604,-0.613872,3.703244,9.075018,-0.009831,0.013326,-0.000639,-0.344971,0.525146,0.790039,-0.09139,3.624091,9.136065,-0.020681,0.021157,0.011414,0.658203,-0.02124,-0.035645,-0.328418,3.111371,9.271144,-0.010163,0.022065,-0.003421,0.358154,-0.181152,-0.565674
0.515714,-0.895176,9.823163,0.005176,0.005605,0.001141,-0.086182,0.395752,-0.564697,-0.298743,3.187725,9.272774,-0.004863,0.003271,0.006595,-0.655273,0.031982,-0.442139,-0.604925,3.71335,9.094084,0.00182,-0.003845,0.002302,-0.335449,0.520508,0.793457,-0.303436,3.608172,9.174234,0.000304,0.030316,0.01287,0.662598,-0.024902,-0.034912,-0.400803,3.111565,9.299681,0.003963,-0.010697,-0.003359,0.364746,-0.180664,-0.565186
0.517086,-0.868844,9.780539,0.002489,0.002949,-0.000739,-0.079834,0.395752,-0.570557,-0.244152,3.171293,9.262049,-0.015505,0.002904,0.005447,-0.647949,0.03418,-0.450439,-0.58269,3.734932,9.095098,-0.000659,0.004826,0.000607,-0.334229,0.524414,0.787109,-0.209508,3.63904,9.143332,0.006103,-0.044582,0.006145,0.663086,-0.021973,-0.039795,-0.273392,3.138924,9.266964,0.01446,-0.013327,-0.003072,0.365234,-0.181396,-0.567627
0.511772,-0.882854,9.807618,-0.002168,0.000471,-0.000662,-0.082764,0.400391,-0.563477,-0.284613,3.165014,9.272102,-0.007217,0.01394,0.007524,-0.650391,0.037109,-0.439941,-0.60997,3.724101,9.10964,-0.008771,0.010252,0.000522,-0.338135,0.535156,0.782471,-0.06732,3.655732,9.151291,-0.007949,0.013106,0.009189,0.659424,-0.015137,-0.046875,-0.335836,3.156692,9.290938,-0.012671,0.019454,-0.002378,0.362305,-0.170898,-0.572754
0.519577,-0.892672,9.83582,0.000422,0.002172,-0.000766,-0.085938,0.394043,-0.574707,-0.271344,3.156099,9.257667,-0.010836,-0.001183,0.006456,-0.655518,0.03418,-0.45166,-0.611705,3.694313,9.081718,-0.002732,-0.003128,0.004503,-0.333252,0.528076,0.784912,-0.285609,3.623002,9.126446,-0.010496,0.038338,0.01137,0.664062,-0.019775,-0.041992,-0.396591,3.104684,9.279358,-0.002459,-0.008719,-0.000494,0.366455,-0.177246,-0.573242
0.511687,-0.851807,9.757064,0.001165,0.005717,0.001175,-0.086914,0.400635,-0.567871,-0.227682,3.177234,9.257682,-0.00675,0.009362,0.006585,-0.659424,0.03833,-0.442871,-0.556103,3.736662,9.124007,-0.000996,0.00286,-0.001802,-0.336426,0.523438,0.781738,-0.218987,3.621399,9.172363,-0.004471,-0.043284,0.007868,0.660889,-0.023438,-0.042725,-0.285852,3.158273,9.27155,0.013013,-0.016341,-0.007299,0.366211,-0.178467,-0.574951
0.508326,-0.884897,9.831447,-0.009515,-0.00246,-0.001118,-0.086914,0.404297,-0.577881,-0.296792,3.151373,9.262173,-0.017249,0.007314,0.009979,-0.655029,0.042725,-0.454346,-0.618556,3.709709,9.105395,-0.013883,0.014045,0.002418,-0.329834,0.527832,0.782715,-0.081184,3.618124,9.145468,-0.008286,0.009018,0.007373,0.669434,-0.019043,-0.044678,-0.318109,3.128522,9.266719,-0.016812,0.016163,0.000591,0.37207,-0.176514,-0.576904
0.51937,-0.910432,9.799224,0.007669,0.006352,-0.000945,-0.080566,0.404053,-0.573242,-0.25549,3.151758,9.244351,0.002352,0.00292,0.004675,-0.651123,0.041748,-0.451904,-0.60704,3.719701,9.087843,0.009787,-0.006077,0.000712,-0.337158,0.529297,0.784912,-0.282239,3.649191,9.149797,0.010297,0.041751,0.014643,0.664551,-0.016602,-0.039062,-0.396358,3.105081,9.279235,0.014299,0.000661,-0.005212,0.364502,-0.174072,-0.571289
0.497821,-0.861998,9.763867,0.001741,0.003812,1.5e-05,-0.07666,0.401367,-0.56958,-0.279791,3.183422,9.2836,-0.015828,0.01012,0.008805,-0.645752,0.039062,-0.44751,-0.563531,3.757336,9.118812,-0.009358,0.009149,0.000685,-0.330078,0.530762,0.780273,-0.256069,3.670967,9.19152,-0.015453,-0.040414,0.006706,0.669678,-0.019043,-0.04541,-0.303233,3.171098,9.27766,0.004905,-0.024254,-0.002932,0.371826,-0.176025,-0.574707
0.520056,-0.890834,9.788297,-0.004131,-0.003759,-0.001402,-0.081299,0.406006,-0.562988,-0.264477,3.139619,9.255444,-0.013312,0.005031,0.006337,-0.64917,0.044678,-0.441406,-0.616074,3.689194,9.083503,-0.014326,0.006887,0.004352,-0.333252,0.525879,0.781738,-0.071923,3.60568,9.13953,-0.022219,0.002709,0.007487,0.66748,-0.017578,-0.045654,-0.294917,3.112084,9.253561,-0.023953,0.021655,-0.000945,0.368164,-0.176025,-0.574463
0.51926,-0.897002,9.820047,0.008216,0.00594,0.001138,-0.088867,0.399902,-0.570801,-0.280712,3.188088,9.26316,0.001182,0.009035,0.007953,-0.657471,0.037109,-0.44751,-0.584781,3.70939,9.074991,0.008914,-0.000789,-0.002473,-0.338623,0.521484,0.790283,-0.270595,3.626637,9.143517,0.018202,0.044615,0.016478,0.658691,-0.026367,-0.035156,-0.423952,3.112325,9.29483,0.020101,-0.000479,-0.007056,0.362793,-0.186035,-0.565918
0.493516,-0.867162,9.735589,4.6e-05,0.005831,-0.001096,-0.078125,0.388916,-0.566895,-0.268557,3.16941,9.270858,-0.02285,0.002662,0.007375,-0.647217,0.028076,-0.445312,-0.592575,3.732427,9.105636,-0.011126,0.008693,0.001073,-0.341309,0.519043,0.792725,-0.256433,3.668771,9.165477,-0.010391,-0.038561,0.006399,0.6604,-0.027832,-0.033203,-0.270711,3.171336,9.260199,0.00075,-0.029215,-0.001051,0.360352,-0.184326,-0.565918
0.519913,-0.871509,9.777387,-0.007621,-0.002725,-0.001498,-0.085693,0.39624,-0.572754,-0.25919,3.150819,9.257001,-0.001919,0.010387,0.009258,-0.656494,0.03418,-0.449219,-0.584562,3.713082,9.096699,-0.005267,4.2e-05,0.003648,-0.336914,0.528076,0.780762,-0.065492,3.61413,9.134132,-0.01872,-0.007636,0.006722,0.663086,-0.015381,-0.04834,-0.307208,3.132564,9.257772,-0.010502,0.026327,-0.003993,0.363281,-0.174561,-0.575439
0.5231,-0.895606,9.832607,0.004034,0.002805,-0.000581,-0.083008,0.402832,-0.567139,-0.298026,3.188711,9.280308,-0.007004,0.008153,0.006612,-0.651367,0.041016,-0.443115,-0.609717,3.724788,9.082094,-0.00097,0.0099,-0.002363,-0.331543,0.530762,0.793457,-0.254377,3.624787,9.158325,0.005285,0.053356,0.015527,0.665039,-0.016113,-0.029541,-0.427615,3.120179,9.314852,0.004262,-0.002989,-0.002996,0.368652,-0.174561,-0.561279
0.530863,-0.879102,9.757967,-0.000403,0.002947,0.001566,-0.07666,0.395752,-0.569336,-0.221053,3.160682,9.258167,-0.021871,0.00051,0.006386,-0.647705,0.030762,-0.447754,-0.600241,3.735166,9.101103,-0.004345,-0.005553,0.003326,-0.331543,0.525391,0.793701,-0.27752,3.66984,9.175417,-9.8e-05,-0.036331,0.006932,0.66626,-0.022217,-0.037109,-0.281096,3.151793,9.251099,0.010599,-0.025897,-0.002789,0.368164,-0.18042,-0.564453
0.505586,-0.876035,9.776291,-0.000226,0.001786,0.000624,-0.08374,0.398926,-0.573486,-0.272119,3.138158,9.277952,-0.001603,0.014741,0.009089,-0.652832,0.037598,-0.44751,-0.568672,3.714766,9.085768,-0.009977,0.009583,0.001124,-0.347168,0.528076,0.790527,-0.047135,3.633922,9.14266,-0.018126,-0.01675,0.004762,0.654053,-0.017822,-0.036133,-0.302298,3.14133,9.255483,-0.014766,0.022451,-0.00383,0.353516,-0.173828,-0.566406
0.518515,-0.90137,9.804296,0.00244,0.003575,-0.001057,-0.08667,0.40332,-0.564453,-0.310526,3.174816,9.270449,-0.008297,0.0021,0.00671,-0.658691,0.038086,-0.443604,-0.647244,3.689339,9.099871,-0.002402,0.011409,0.000437,-0.337158,0.524902,0.778564,-0.242315,3.602948,9.16519,-0.00232,0.063457,0.015001,0.662109,-0.021484,-0.046875,-0.424027,3.08302,9.31496,-0.001901,0.003342,-0.001937,0.364258,-0.178467,-0.578125
0.494427,-0.86639,9.772072,0.003785,0.001675,0.00059,-0.082031,0.400879,-0.563721,-0.221159,3.174503,9.247115,-0.011836,0.002814,0.006071,-0.650635,0.038574,-0.44165,-0.571151,3.748451,9.121994,0.009106,-0.01401,0.002074,-0.33667,0.511475,0.789307,-0.304645,3.662051,9.163973,0.011311,-0.04021,0.009508,0.664551,-0.0354,-0.038086,-0.308526,3.1761,9.284247,0.030448,-0.026456,-0.006082,0.363037,-0.190918,-0.569824
0.524035,-0.874804,9.797944,-0.006352,-0.000461,-0.001036,-0.077393,0.395752,-0.563232,-0.289272,3.160143,9.29126,-0.014255,0.011708,0.008998,-0.647461,0.032471,-0.439941,-0.577521,3.741147,9.088309,-0.023146,0.021362,-0.000661,-0.342041,0.522217,0.782471,-0.035899,3.66108,9.172629,-0.023613,-0.023247,0.004694,0.657471,-0.023193,-0.043701,-0.267741,3.161605,9.268954,-0.030664,0.013316,0.000689,0.360107,-0.182129,-0.571533
0.505665,-0.911635,9.811034,0.001295,0.002977,-0.001432,-0.08667,0.398193,-0.5625,-0.279705,3.140774,9.246414,-0.007837,0.001376,0.006826,-0.657227,0.034912,-0.44043,-0.666644,3.646627,9.077139,-0.003917,-0.002483,0.004723,-0.338135,0.528076,0.777344,-0.211476,3.58758,9.123168,-0.008466,0.068111,0.014317,0.660156,-0.018311,-0.047363,-0.419646,3.045859,9.27259,-0.005834,0.014709,-0.002073,0.361816,-0.174316,-0.580078
0.515834,-0.870555,9.777688,0.006099,0.005787,0.000794,-0.084229,0.39502,-0.568848,-0.253885,3.193046,9.266586,0.001631,0.010134,0.00672,-0.655029,0.033691,-0.446289,-0.527992,3.754216,9.089222,0.020233,-0.004325,-0.002806,-0.33667,0.528076,0.786377,-0.339169,3.660824,9.174287,0.018141,-0.033688,0.010844,0.662109,-0.015381,-0.04126,-0.343505,3.169851,9.274981,0.040754,-0.03368,-0.007277,0.362061,-0.175293,-0.571777
0.499441,-0.870332,9.79252,-0.006076,-0.002872,-0.001342,-0.076172,0.398926,-0.567383,-0.292363,3.174491,9.258516,-0.026873,0.005486,0.008437,-0.642334,0.037842,-0.447266,-0.623419,3.741547,9.114917,-0.028425,0.024175,3.1e-05,-0.335693,0.522461,0.791992,-0.056422,3.655022,9.15404,-0.024136,-0.029263,0.003708,0.664551,-0.022949,-0.033936,-0.234184,3.178754,9.2691,-0.031411,0.011966,0.002617,0.366455,-0.179443,-0.565674
0.531491,-0.908479,9.821285,-0.002144,0.003387,-0.001211,-0.080078,0.394043,-0.56665,-0.262567,3.124568,9.246182,-0.005786,0.004718,0.006371,-0.651123,0.030029,-0.445068,-0.61978,3.664103,9.086204,-0.002916,-0.016781,0.006898,-0.332031,0.516602,0.789551,-0.197253,3.596105,9.138249,-0.006541,0.064891,0.016111,0.667725,-0.02832,-0.034424,-0.433871,3.076562,9.267928,-0.006402,0.017889,-0.003462,0.371826,-0.189209,-0.568604
0.50282,-0.881177,9.784401,0.006026,0.003496,0.001024,-0.086914,0.4021,-0.572266,-0.274976,3.183922,9.284307,0.001467,0.008869,0.006128,-0.657471,0.039062,-0.448975,-0.541032,3.745997,9.129138,0.011188,0.015189,-0.005706,-0.335693,0.522461,0.79126,-0.313767,3.641207,9.180817,0.005462,-0.021807,0.012139,0.661621,-0.024902,-0.034424,-0.318644,3.1557,9.27545,0.028722,-0.037091,-0.005883,0.364014,-0.181885,-0.568115
0.510808,-0.883844,9.780983,-0.003812,0.001865,-0.001457,-0.081787,0.393799,-0.566895,-0.265842,3.187117,9.266506,-0.023795,0.001646,0.007891,-0.651367,0.032471,-0.443115,-0.647867,3.734223,9.114504,-0.013145,0.009101,0.004034,-0.334961,0.524658,0.790039,-0.076825,3.646768,9.149791,-0.014948,-0.033611,0.003706,0.662354,-0.022217,-0.040039,-0.261684,3.157917,9.261939,-0.011358,0.021872,-0.000952,0.364258,-0.182617,-0.567383
0.516087,-0.882539,9.793462,0.00025,0.00113,-0.001172,-0.086182,0.401611,-0.56665,-0.267987,3.140494,9.253902,-0.012613,0.006895,0.008265,-0.657227,0.039795,-0.445068,-0.562001,3.69875,9.084977,-0.008599,-0.012861,0.005722,-0.340576,0.524658,0.790283,-0.178469,3.615834,9.146849,-0.001954,0.054261,0.013829,0.65918,-0.018799,-0.035645,-0.422382,3.11389,9.294377,-0.008045,0.004481,-0.002626,0.36084,-0.179199,-0.566406
0.529972,-0.883635,9.802516,0.000696,0.001966,0.000276,-0.080566,0.401367,-0.574219,-0.269413,3.182178,9.246688,0.000889,0.003299,0.006317,-0.64917,0.037354,-0.452393,-0.591431,3.705122,9.085881,0.001451,0.022685,-0.003915,-0.334961,0.520752,0.790527,-0.30706,3.648001,9.189603,-0.005822,-0.009932,0.008688,0.66626,-0.023926,-0.033936,-0.305641,3.120331,9.252992,0.011144,-0.028149,-0.001614,0.366699,-0.18335,-0.565186
0.503708,-0.885413,9.768575,0.002963,0.004499,-0.001187,-0.08667,0.395752,-0.571777,-0.259411,3.197845,9.268364,-0.01516,0.007478,0.009068,-0.657715,0.032959,-0.450684,-0.620145,3.718001,9.107366,-0.001758,-0.003226,0.003339,-0.335449,0.526123,0.784424,-0.116347,3.633383,9.166961,-0.010898,-0.037155,0.00597,0.664307,-0.02124,-0.043457,-0.302799,3.14018,9.28402,0.001312,0.019269,-0.005122,0.364014,-0.177002,-0.570801
0.507097,-0.884695,9.804929,-0.003186,-0.000665,-0.002299,-0.079834,0.402588,-0.571777,-0.26639,3.143092,9.25571,-0.014653,0.00788,0.006601,-0.649902,0.039062,-0.448975,-0.560044,3.71366,9.098755,-0.008091,-0.000195,0.002969,-0.333008,0.52417,0.790039,-0.145389,3.629657,9.126987,0.003509,0.044467,0.013878,0.66626,-0.021729,-0.036377,-0.388069,3.131419,9.294458,-0.005722,-0.005893,0.00052,0.368408,-0.181152,-0.568115
0.512381,-0.882756,9.817465,0.004831,0.003523,0.000331,-0.07666,0.39917,-0.55957,-0.262947,3.182231,9.261134,-0.00069,0.007408,0.005842,-0.648193,0.036133,-0.437988,-0.625084,3.715845,9.094863,-0.001925,0.016949,-0.004611,-0.333984,0.527344,0.786377,-0.316015,3.664196,9.185101,0.00103,0.003036,0.011057,0.664307,-0.016602,-0.041992,-0.312565,3.136502,9.250379,0.008205,-0.008486,-0.00461,0.366455,-0.176514,-0.570801
0.51086,-0.869974,9.778001,-0.001221,0.003567,-0.00156,-0.080566,0.404297,-0.572266,-0.282244,3.178452,9.277039,-0.014606,0.006704,0.008569,-0.648682,0.040527,-0.44873,-0.591149,3.718976,9.099977,-0.004496,-0.009219,0.007927,-0.338135,0.531006,0.786133,-0.145062,3.634935,9.169707,-0.023071,-0.035339,0.005723,0.663086,-0.016357,-0.041504,-0.334794,3.139868,9.259023,-0.005229,0.008009,-0.001348,0.36499,-0.174316,-0.571777
0.508588,-0.888851,9.78908,-2.7e-05,-0.000712,0.001896,-0.082031,0.400146,-0.575928,-0.256464,3.174234,9.265846,-0.008014,0.005804,0.00594,-0.64917,0.035889,-0.451904,-0.560619,3.705214,9.09203,-0.0027,0.007912,-0.002242,-0.334229,0.529053,0.779785,-0.116986,3.599305,9.146729,0.001176,0.029961,0.012208,0.665527,-0.018799,-0.045654,-0.331588,3.131852,9.28155,0.001925,-0.006932,-0.00352,0.366211,-0.177246,-0.575439
0.515184,-0.892869,9.809445,-0.000549,0.002617,-0.000736,-0.08374,0.400146,-0.570068,-0.309132,3.162886,9.27266,-0.015016,0.010107,0.011496,-0.653809,0.036865,-0.450928,-0.646654,3.719579,9.08664,-0.009151,0.014321,0.001445,-0.335205,0.525391,0.786377,-0.293704,3.656077,9.151127,0.001838,0.01558,0.012327,0.663574,-0.022461,-0.040039,-0.329262,3.121602,9.290466,-0.001098,0.002845,-0.003442,0.363525,-0.178467,-0.572266
0.519264,-0.878551,9.782467,0.002614,0.004619,-0.000651,-0.081787,0.39917,-0.568115,-0.253427,3.156168,9.240004,-0.001474,-7.9e-05,0.004819,-0.650391,0.038086,-0.446533,-0.576349,3.704133,9.089085,0.005229,-0.013947,0.003183,-0.333496,0.529297,0.781006,-0.182661,3.645241,9.166425,-0.007372,-0.034051,0.005737,0.665283,-0.016113,-0.043457,-0.37197,3.131177,9.27868,0.006341,-0.001798,-0.004377,0.366211,-0.174316,-0.572266
0.50146,-0.872577,9.789446,-0.001845,-0.00036,0.000696,-0.079834,0.399414,-0.568604,-0.269582,3.205767,9.27879,-0.009576,0.011937,0.007902,-0.650879,0.036621,-0.444336,-0.543915,3.75316,9.109032,-0.006937,0.018995,-0.003626,-0.343018,0.523926,0.785889,-0.101225,3.638526,9.169932,-0.006592,0.016203,0.013545,0.654297,-0.023926,-0.040283,-0.317107,3.158365,9.274595,0.001503,-0.008356,-0.003852,0.356689,-0.180908,-0.571045
0.510386,-0.90612,9.812729,-0.002666,0.002464,-0.001083,-0.084229,0.402832,-0.570312,-0.281659,3.131221,9.257494,-0.024316,0.003099,0.008989,-0.653809,0.040283,-0.445801,-0.657615,3.671482,9.082565,-0.01707,0.003672,0.005988,-0.336914,0.519775,0.784912,-0.257289,3.618562,9.149398,-0.014708,0.026535,0.009518,0.661865,-0.025146,-0.041016,-0.33515,3.110241,9.279262,-0.016694,0.009863,0.000569,0.364746,-0.182617,-0.569336
0.499062,-0.884615,9.768885,0.007248,0.004183,-0.000176,-0.077881,0.405273,-0.569824,-0.243344,3.154752,9.245246,0.010926,0.005569,0.006028,-0.647949,0.041016,-0.444092,-0.563402,3.722764,9.064729,0.016499,-0.010321,7.7e-05,-0.34375,0.52417,0.7854,-0.215958,3.626688,9.134375,0.00981,-0.031393,0.007636,0.653809,-0.025146,-0.039551,-0.375846,3.109397,9.276438,0.021102,-0.007398,-0.007094,0.354248,-0.183105,-0.568848
0.503829,-0.864484,9.794254,-0.001648,0.003599,0.000552,-0.081543,0.398682,-0.572021,-0.283659,3.205023,9.286682,-0.0169,0.01034,0.007997,-0.650146,0.034424,-0.449951,-0.601283,3.748075,9.124556,-0.014016,0.02575,-0.002363,-0.330566,0.523438,0.782959,-0.105439,3.664782,9.17286,-0.005784,0.006585,0.012285,0.668701,-0.021973,-0.044922,-0.29284,3.187634,9.301587,-0.002472,-0.010392,-0.001575,0.371094,-0.181396,-0.573242
0.507119,-0.900108,9.805008,-0.005875,-0.001118,-0.002834,-0.085693,0.393799,-0.565674,-0.271036,3.12895,9.23182,-0.021185,-0.001453,0.007215,-0.65332,0.030518,-0.446533,-0.640472,3.667972,9.063726,-0.00883,-0.010684,0.007913,-0.335938,0.523926,0.784668,-0.251925,3.635796,9.158496,-0.019583,0.030266,0.010531,0.664307,-0.021973,-0.040771,-0.352103,3.093326,9.26318,-0.015831,0.01598,-0.001387,0.367188,-0.18042,-0.57251
0.531452,-0.885353,9.799541,0.007344,0.005139,0.001808,-0.080322,0.400146,-0.566895,-0.25636,3.185727,9.258417,0.00997,0.012049,0.004915,-0.649902,0.036865,-0.446777,-0.521113,3.735435,9.089194,0.010483,0.003077,-0.003875,-0.32959,0.530273,0.782715,-0.229812,3.629259,9.150734,0.007935,-0.024334,0.010946,0.669189,-0.019043,-0.04541,-0.387808,3.145664,9.298625,0.023575,-0.012318,-0.007477,0.372314,-0.17749,-0.57666
0.497616,-0.872319,9.789665,-0.005155,0.003766,-0.003108,-0.081055,0.39624,-0.567871,-0.295116,3.169,9.280786,-0.029082,0.002945,0.010712,-0.651611,0.033691,-0.443115,-0.638231,3.717927,9.113402,-0.021736,0.020266,0.002929,-0.334473,0.524658,0.787109,-0.124378,3.655638,9.182437,-0.013931,-0.002198,0.00873,0.667236,-0.021729,-0.040283,-0.263161,3.153443,9.277222,-0.016062,-0.010479,0.000425,0.367676,-0.181152,-0.56958
0.522378,-0.905925,9.798183,0.001767,0.000273,0.000882,-0.079834,0.402588,-0.564453,-0.242695,3.130116,9.221568,0.005622,0.006648,0.005073,-0.651855,0.042236,-0.438965,-0.585292,3.690853,9.070724,0.010015,-0.016675,0.004493,-0.340332,0.520508,0.782471,-0.204322,3.612318,9.142681,0.000739,0.027733,0.010303,0.659912,-0.026855,-0.04126,-0.369635,3.104901,9.269715,0.00342,0.023801,-0.004331,0.362061,-0.185303,-0.56958
0.496593,-0.854136,9.80252,0.005304,0.005073,-0.000116,-0.085693,0.402344,-0.567383,-0.303505,3.211914,9.292719,-0.010837,0.010397,0.009671,-0.657715,0.041992,-0.445312,-0.575957,3.753429,9.125337,-0.004937,0.022995,-0.006388,-0.330322,0.525146,0.788818,-0.261934,3.658754,9.182675,-0.000514,-0.011423,0.009635,0.669434,-0.022705,-0.035889,-0.39055,3.15661,9.331966,0.00974,-0.019352,-0.004543,0.372314,-0.180176,-0.565186
0.537345,-0.905746,9.783485,-0.009264,-0.001334,-0.002299,-0.084229,0.395508,-0.567627,-0.242729,3.114266,9.235853,-0.026252,-0.003473,0.008341,-0.651855,0.03418,-0.445068,-0.630052,3.691702,9.097106,-0.014765,-0.008761,0.009401,-0.333984,0.526611,0.78125,-0.124653,3.614285,9.147164,-0.020392,-0.016535,0.006749,0.66626,-0.019775,-0.043701,-0.267556,3.129486,9.218854,-0.010626,-0.00802,0.001501,0.366211,-0.180176,-0.575439
