# sampling frequency: 40
# units are seconds/meters/radians/a.u.
seg1_acc_x,seg1_acc_y,seg1_acc_z,seg1_gyr_x,seg1_gyr_y,seg1_gyr_z,seg1_mag_x,seg1_mag_y,seg1_mag_z,seg2_acc_x,seg2_acc_y,seg2_acc_z,seg2_gyr_x,seg2_gyr_y,seg2_gyr_z,seg2_mag_x,seg2_mag_y,seg2_mag_z,seg3_acc_x,seg3_acc_y,seg3_acc_z,seg3_gyr_x,seg3_gyr_y,seg3_gyr_z,seg3_mag_x,seg3_mag_y,seg3_mag_z,seg4_acc_x,seg4_acc_y,seg4_acc_z,seg4_gyr_x,seg4_gyr_y,seg4_gyr_z,seg4_mag_x,seg4_mag_y,seg4_mag_z,seg5_acc_x,seg5_acc_y,seg5_acc_z,seg5_gyr_x,seg5_gyr_y,seg5_gyr_z,seg5_mag_x,seg5_mag_y,seg5_mag_z
0.148267,-0.971624,9.772143,0.000934,0.001241,-0.001577,-0.095703,0.431396,-0.57666,-0.351491,3.057577,9.308406,0.010878,0.007334,0.006245,-0.726807,0.11499,-0.362549,-0.540794,3.725045,9.120249,-0.00399,0.003676,-9.6e-05,-0.133545,0.596436,0.767578,-0.249865,3.878912,9.132244,-0.045222,0.008655,0.008668,0.581299,-0.0896,-0.198486,-0.372711,3.357421,9.27943,-0.01242,-0.004544,-0.004155,0.347656,-0.203369,-0.57959
0.179837,-0.973835,9.835893,-0.002365,-0.002698,-0.000703,-0.098877,0.434082,-0.573975,-0.359841,3.04025,9.323069,-0.030902,0.005709,0.009264,-0.729492,0.116699,-0.361328,-0.55511,3.65439,9.140026,-0.030647,0.007551,0.003255,-0.143555,0.590088,0.772705,-0.242929,3.623029,9.12159,-0.082958,-0.001035,0.006177,0.572998,-0.096436,-0.197998,-0.34631,3.19731,9.257987,-0.049326,-0.005857,0.008468,0.339111,-0.209229,-0.578857
0.194298,-0.984772,9.808871,-0.002239,0.004195,-0.000368,-0.104492,0.438721,-0.575439,-0.333258,2.971342,9.304857,-0.016737,0.002695,0.006145,-0.735107,0.122803,-0.360107,-0.552641,3.606466,9.085892,-0.002327,-0.005967,0.004923,-0.133789,0.586426,0.773438,-0.214257,3.552024,9.084353,0.024324,-0.003367,0.011592,0.581299,-0.098145,-0.19873,-0.325358,3.081447,9.205081,-0.005133,0.000183,-0.005365,0.346436,-0.211426,-0.580078
0.152444,-0.964911,9.775696,0.002961,0.005714,-0.001714,-0.096436,0.437012,-0.581055,-0.350767,3.029338,9.304157,0.016329,0.01311,0.006723,-0.727539,0.118164,-0.369141,-0.521654,3.683231,9.107694,0.024647,0.013939,-0.006762,-0.13916,0.587158,0.769043,-0.212478,3.768181,9.11684,0.066541,0.005878,0.013651,0.580322,-0.099365,-0.199463,-0.353182,3.224676,9.228251,0.066739,0.001496,-0.013667,0.345459,-0.212646,-0.582031
0.147151,-0.990382,9.783255,0.00265,-0.001155,9.9e-05,-0.097412,0.437744,-0.576416,-0.386565,3.077365,9.32427,-0.018523,0.003812,0.007238,-0.728271,0.117432,-0.363037,-0.606998,3.731863,9.124426,-0.00896,0.007148,0.001387,-0.131592,0.591797,0.779053,-0.253358,3.839667,9.16524,-0.030439,0.006949,0.007399,0.584473,-0.096191,-0.191406,-0.378064,3.35668,9.321406,-0.00633,0.001136,0.000895,0.350098,-0.207031,-0.571533
0.188127,-0.963348,9.826872,-0.001841,-0.000251,-0.000692,-0.104248,0.4375,-0.577148,-0.324917,3.017045,9.299007,-0.02412,0.00329,0.006717,-0.734619,0.118652,-0.362305,-0.517139,3.658985,9.114403,-0.023481,-0.013286,0.011023,-0.121338,0.587891,0.77002,-0.247853,3.658889,9.093702,-0.063898,-0.006823,0.007665,0.59375,-0.098633,-0.200439,-0.34739,3.172379,9.225168,-0.054788,-0.006845,0.002241,0.359131,-0.210449,-0.579102
0.176229,-0.983869,9.803278,-0.008578,0.005352,-0.000562,-0.096436,0.427734,-0.584229,-0.343936,3.004212,9.293005,-0.000375,0.008922,0.007357,-0.72998,0.109375,-0.369385,-0.527318,3.619423,9.133739,-0.00763,0.019982,-0.004877,-0.12915,0.590088,0.767822,-0.207069,3.58804,9.10832,0.011738,0.000903,0.010874,0.587402,-0.094971,-0.201416,-0.332698,3.119521,9.20883,0.01791,-0.004009,-0.001324,0.354248,-0.205078,-0.582275
0.166638,-0.985524,9.792358,0.008313,0.005483,-7e-05,-0.094971,0.434326,-0.572021,-0.356572,3.053625,9.306313,-0.001506,0.005619,0.006264,-0.728516,0.116943,-0.358643,-0.597109,3.662854,9.132907,0.021444,-0.001018,-0.000664,-0.130127,0.595459,0.763428,-0.25177,3.723935,9.124607,0.044336,0.011803,0.011998,0.585205,-0.090088,-0.208252,-0.349508,3.229937,9.282896,0.027552,0.011179,-0.011803,0.352051,-0.206299,-0.58667
0.150257,-0.936505,9.797272,0.000113,-0.000592,0.00028,-0.099365,0.432617,-0.587646,-0.377248,3.029273,9.30721,-0.020521,0.009217,0.008419,-0.732422,0.114258,-0.376465,-0.534564,3.728949,9.119695,-0.005225,0.001756,0.001186,-0.137939,0.586426,0.767822,-0.264929,3.79537,9.134026,-0.011714,-0.000951,0.009809,0.578125,-0.100342,-0.201416,-0.385824,3.302885,9.298877,0.014667,-0.007602,-0.003149,0.341797,-0.213135,-0.58374
0.185839,-1.010832,9.816434,-0.004318,-0.002358,-0.001677,-0.093262,0.435059,-0.580811,-0.323946,2.999814,9.30178,-0.007665,-0.000308,0.006093,-0.724609,0.115479,-0.368896,-0.551732,3.656097,9.115616,-0.023143,0.007146,0.004399,-0.128906,0.590332,0.768311,-0.209332,3.694281,9.120001,-0.049311,-0.011006,0.006003,0.584961,-0.09668,-0.201904,-0.313684,3.240525,9.230641,-0.040401,-0.014863,0.006138,0.352539,-0.208496,-0.582764
0.167697,-0.971601,9.841248,0.002543,0.007425,0.001165,-0.09668,0.431641,-0.572998,-0.365578,3.042808,9.329435,-0.009727,0.015245,0.007628,-0.727539,0.113281,-0.362305,-0.553032,3.624469,9.140844,-0.011073,0.004044,0.001909,-0.135986,0.592041,0.765137,-0.206857,3.610939,9.128565,-0.009935,0.017876,0.011572,0.57666,-0.092529,-0.202148,-0.330409,3.097717,9.217294,-0.016887,0.015265,-0.006015,0.344238,-0.207764,-0.583496
0.149727,-1.003566,9.745288,-0.004933,0.002768,-0.003205,-0.095947,0.427002,-0.574951,-0.376494,3.000873,9.289101,-0.013342,-0.002112,0.007189,-0.729004,0.109619,-0.362793,-0.56285,3.654507,9.081162,0.023693,0.003311,-0.000533,-0.134277,0.597412,0.764893,-0.293113,3.700953,9.097817,0.045069,0.007602,0.011411,0.582275,-0.091797,-0.205811,-0.422195,3.197389,9.283689,0.052758,0.000874,-0.006108,0.347412,-0.204102,-0.585205
0.164795,-0.913121,9.808219,0.024071,-0.003088,0.004095,-0.096191,0.432861,-0.577393,-0.309012,3.049101,9.302892,0.010355,0.010063,0.006179,-0.731201,0.115234,-0.364746,-0.528432,3.763062,9.134801,0.0067,0.004865,-0.004378,-0.132812,0.593506,0.775146,-0.211559,3.833569,9.13166,0.012313,-0.025391,0.011247,0.581543,-0.094482,-0.197021,-0.331938,3.364597,9.247668,0.026353,-0.022002,-0.01462,0.344238,-0.206787,-0.576416
0.187729,-0.964383,9.850585,-0.03145,0.003093,-0.004285,-0.092529,0.436523,-0.569824,-0.389836,3.048005,9.330866,-0.031371,0.006453,0.008376,-0.724365,0.117676,-0.355225,-0.571538,3.628887,9.126084,-0.052998,0.00796,0.011177,-0.137939,0.591309,0.772949,-0.167584,3.720357,9.143821,-0.073755,0.018538,0.007832,0.578857,-0.092285,-0.19873,-0.30076,3.25022,9.284429,-0.078331,0.012282,0.021584,0.344971,-0.203125,-0.579102
0.165058,-1.048021,9.756677,0.011412,0.006207,0.002471,-0.099365,0.428955,-0.571289,-0.317663,2.9824,9.284861,-0.009837,0.002206,0.003333,-0.732666,0.113037,-0.360352,-0.540888,3.578029,9.080643,0.020925,-0.008541,-0.000544,-0.130615,0.592529,0.767334,-0.281001,3.574357,9.073856,-0.00406,0.017317,0.009333,0.586426,-0.093994,-0.202881,-0.421547,2.989276,9.198096,-0.007353,0.007844,-0.014534,0.352539,-0.207031,-0.585205
0.144,-0.907092,9.795213,0.007956,0.000277,0.000327,-0.09375,0.429199,-0.575195,-0.387261,3.034189,9.318732,0.005855,0.016111,0.010265,-0.724121,0.11084,-0.362549,-0.552887,3.758896,9.139103,0.025996,0.023421,-0.011294,-0.133789,0.585938,0.766113,-0.259178,3.738846,9.145432,0.059609,-0.020445,0.013605,0.587646,-0.101562,-0.203125,-0.339515,3.293544,9.25511,0.110356,-0.021053,-0.012517,0.350342,-0.216309,-0.585205
0.181837,-0.991652,9.805455,-0.011877,-0.002834,-0.00101,-0.097656,0.438965,-0.573486,-0.328503,3.053892,9.326298,-0.020408,-0.007478,0.005383,-0.729248,0.12085,-0.361572,-0.595551,3.693657,9.116548,-0.038412,-0.008427,0.014174,-0.125977,0.585938,0.767334,-0.183775,3.816858,9.131596,-0.020272,0.002417,0.007301,0.591309,-0.099121,-0.203125,-0.309099,3.380709,9.314008,-0.065233,0.007877,0.006531,0.356445,-0.209961,-0.582275
0.187922,-0.975001,9.841651,0.01362,0.006916,0.000158,-0.101074,0.438965,-0.577148,-0.328278,3.005806,9.279407,-0.010516,0.017714,0.010096,-0.729492,0.119141,-0.364258,-0.486462,3.617642,9.080377,-0.001599,-0.003026,0.002824,-0.128662,0.58667,0.772949,-0.230324,3.671521,9.106722,-0.045375,0.016583,0.010478,0.587158,-0.097412,-0.196777,-0.390315,3.073391,9.160088,-0.03517,0.006315,-0.005235,0.351562,-0.212646,-0.578613
0.136276,-0.942256,9.770163,-0.010823,0.005805,-0.000963,-0.094482,0.431641,-0.577637,-0.408422,3.016988,9.314012,-0.007859,0.004303,0.004692,-0.727539,0.112793,-0.36377,-0.609476,3.669595,9.150602,0.006211,0.030777,-0.008969,-0.12915,0.593018,0.766602,-0.276617,3.630382,9.135338,-0.005153,0.00057,0.01106,0.586426,-0.093994,-0.200195,-0.352023,3.196241,9.285978,0.051715,-0.013977,0.001773,0.349609,-0.205322,-0.581543
0.175503,-1.019574,9.760261,-0.003756,-0.005316,-0.000276,-0.092529,0.435059,-0.573486,-0.311169,3.023598,9.308277,-0.010991,0.00249,0.00859,-0.724121,0.114746,-0.362549,-0.563635,3.673825,9.103132,-0.001817,-0.025957,0.01129,-0.126221,0.584229,0.769775,-0.22925,3.701714,9.108009,0.035352,-0.008809,0.009554,0.5896,-0.099365,-0.19751,-0.330161,3.234986,9.245356,-0.01036,0.007406,-0.016156,0.354248,-0.212158,-0.578125
0.187762,-0.965554,9.874276,0.018455,0.003733,0.000502,-0.098877,0.431885,-0.581543,-0.384456,3.037996,9.322186,-0.007234,0.014576,0.009089,-0.730713,0.113037,-0.369873,-0.506838,3.694369,9.129909,-0.008975,0.021295,-0.004453,-0.126221,0.591309,0.765625,-0.206264,3.805518,9.161075,0.002891,0.005048,0.010984,0.586182,-0.092285,-0.206055,-0.374669,3.275258,9.244705,0.022345,-0.00552,0.003633,0.352051,-0.207275,-0.586914
0.153367,-0.929078,9.772181,-0.007284,0.007554,-0.003858,-0.099365,0.430664,-0.576904,-0.323959,3.025035,9.302434,-0.008109,-0.00347,0.004681,-0.731201,0.113281,-0.36377,-0.62807,3.643719,9.128099,-0.008561,0.006005,0.003048,-0.135498,0.585938,0.775146,-0.264347,3.703427,9.127581,-0.052576,0.012217,0.006849,0.57959,-0.102783,-0.195557,-0.334136,3.208077,9.283214,-0.053481,-0.004439,0.002035,0.344482,-0.212646,-0.577393
0.168132,-0.983793,9.750907,-0.010679,-0.003937,0.000682,-0.100586,0.442627,-0.570801,-0.333987,3.039951,9.302978,-0.011486,0.013385,0.008081,-0.732666,0.123779,-0.358887,-0.509025,3.67341,9.124956,0.005612,-0.014429,0.003609,-0.124023,0.589844,0.773193,-0.242884,3.621156,9.0858,-0.001798,-0.008198,0.01053,0.593994,-0.097168,-0.197998,-0.363882,3.08805,9.157011,0.0217,0.007268,-0.012421,0.359619,-0.208008,-0.576172
0.180374,-1.025506,9.843878,0.006294,0.000507,-0.001222,-0.099854,0.43457,-0.581055,-0.380532,2.989469,9.324818,-0.020755,0.002386,0.008277,-0.732666,0.113525,-0.364502,-0.569455,3.676581,9.116263,-0.009076,0.029714,-0.004531,-0.133301,0.590576,0.768555,-0.206957,3.718708,9.138014,0.037912,0.001164,0.012512,0.581787,-0.097656,-0.202148,-0.347611,3.325574,9.321929,0.048125,-0.011857,0.00024,0.346436,-0.210938,-0.58374
0.172479,-0.926427,9.817769,0.0207,0.00753,0.002218,-0.09668,0.438721,-0.581299,-0.314362,3.024435,9.304731,0.009059,0.007766,0.006024,-0.727295,0.121094,-0.368652,-0.577133,3.660575,9.099054,-0.00072,-0.017457,0.007432,-0.129395,0.594482,0.77124,-0.246661,3.783909,9.133811,-0.011385,0.008582,0.009411,0.585449,-0.093506,-0.19751,-0.329789,3.235716,9.245114,-0.059488,0.006578,-0.004819,0.352051,-0.204346,-0.580811
0.152785,-0.943235,9.799585,-0.024548,-0.001026,-0.002696,-0.100342,0.435547,-0.578369,-0.383787,3.076638,9.338498,-0.00988,0.009377,0.007374,-0.730957,0.119629,-0.363525,-0.498728,3.681965,9.122782,-0.007714,0.012426,-0.001598,-0.128906,0.599365,0.769287,-0.246266,3.683943,9.125789,-0.040432,-0.004665,0.007471,0.584229,-0.091553,-0.201416,-0.379336,3.146715,9.194371,0.022399,-0.002872,0.001761,0.351074,-0.201904,-0.58374
0.183504,-1.04592,9.826039,0.002358,-0.001044,0.000678,-0.094482,0.433594,-0.572021,-0.340741,3.006521,9.306082,-0.030618,0.000684,0.00673,-0.724854,0.114258,-0.360352,-0.594484,3.65366,9.114731,-0.006694,0.011116,0.001025,-0.130127,0.584229,0.75415,-0.221086,3.635453,9.1249,0.003212,0.007017,0.010688,0.587158,-0.099854,-0.212891,-0.344463,3.226764,9.27518,-0.000968,-0.006712,-0.004296,0.352783,-0.210205,-0.593018
0.168956,-0.940641,9.821422,0.014421,0.006015,0.000859,-0.10083,0.428223,-0.581055,-0.342911,2.991199,9.286458,0.001211,0.012382,0.009234,-0.73291,0.109375,-0.367676,-0.525683,3.667227,9.099996,0.003874,-0.014596,0.005069,-0.135742,0.591553,0.772461,-0.250488,3.739868,9.113164,0.03101,0.001326,0.012126,0.582275,-0.0979,-0.198242,-0.359269,3.216521,9.193333,0.011612,0.006257,-0.011299,0.347412,-0.210449,-0.577637
0.160942,-0.961017,9.769048,-0.009445,0.000936,-0.001446,-0.100342,0.436279,-0.573486,-0.358737,3.062149,9.292587,0.006687,0.003155,0.004615,-0.729492,0.119141,-0.361572,-0.54181,3.681333,9.120574,-0.005699,0.023584,-0.002687,-0.125732,0.589844,0.770264,-0.218553,3.770631,9.124283,-0.016843,-0.007023,0.007287,0.587402,-0.096924,-0.197021,-0.346747,3.27589,9.284541,-0.000555,-0.010795,0.00793,0.353516,-0.211182,-0.579346
0.155527,-0.987508,9.829027,0.002238,5.1e-05,0.001688,-0.095703,0.432617,-0.576416,-0.36179,3.048186,9.341665,-0.026887,0.012439,0.008728,-0.727783,0.114014,-0.362549,-0.603409,3.646009,9.133156,-0.009838,-0.002573,0.001548,-0.128906,0.588379,0.763428,-0.22601,3.685142,9.130865,-0.035983,0.017024,0.009846,0.587158,-0.09668,-0.208008,-0.33834,3.162861,9.224895,-0.035911,0.007323,-0.008542,0.350342,-0.208496,-0.585693
0.164233,-0.982307,9.803643,-0.005681,0.00575,-0.002462,-0.094482,0.431641,-0.583008,-0.360209,2.965997,9.295361,-0.020548,0.002322,0.007218,-0.726074,0.111328,-0.368896,-0.509216,3.661896,9.107059,-0.001601,-0.006748,0.00403,-0.134033,0.588867,0.766357,-0.278842,3.656251,9.11971,0.009728,-0.001798,0.009719,0.582031,-0.098145,-0.202637,-0.386563,3.193782,9.246211,0.045356,-0.004536,-0.000405,0.347656,-0.212402,-0.579346
0.167665,-0.984383,9.774661,0.002821,-0.000171,0.000535,-0.101318,0.432129,-0.57251,-0.32535,3.029574,9.31625,0.015699,0.009959,0.006444,-0.732422,0.114746,-0.362061,-0.565978,3.686392,9.127757,-0.003732,0.01991,-0.005128,-0.134033,0.581543,0.765381,-0.209288,3.761409,9.146878,0.015776,-0.01219,0.010355,0.57959,-0.104492,-0.206299,-0.317961,3.282443,9.261246,-0.015774,-0.012028,-0.006463,0.346924,-0.216309,-0.587158
0.176168,-0.976962,9.802024,0.007394,0.003237,-0.001073,-0.101074,0.435303,-0.577148,-0.378874,3.067835,9.301838,-0.016083,0.007037,0.009206,-0.731934,0.116455,-0.365234,-0.564814,3.65134,9.107411,-0.000447,-0.006468,0.007799,-0.126221,0.587158,0.768066,-0.222194,3.723687,9.112822,-0.016099,0.014897,0.008221,0.586426,-0.0979,-0.200195,-0.350871,3.164722,9.218369,-0.013192,0.02016,0.001007,0.353027,-0.212158,-0.581543
0.151375,-0.952378,9.790817,0.005478,0.002417,0.000662,-0.098145,0.438232,-0.578125,-0.345462,3.015995,9.310353,-0.016106,0.002814,0.005819,-0.729492,0.120361,-0.367188,-0.532944,3.697209,9.122025,-0.002509,0.005482,-0.003564,-0.134521,0.60083,0.766602,-0.273931,3.708657,9.127378,-0.015009,0.003379,0.010886,0.581787,-0.086426,-0.203125,-0.401916,3.227067,9.26501,0.025681,-0.017051,-0.005043,0.348145,-0.201172,-0.587402
0.150439,-0.977357,9.837996,-0.023327,0.000608,-0.003564,-0.101807,0.436523,-0.575195,-0.350981,3.02166,9.297377,-0.009156,0.010144,0.008437,-0.733398,0.117676,-0.361328,-0.575248,3.668669,9.111129,-0.015638,0.010094,0.003837,-0.123779,0.598145,0.769043,-0.212466,3.688754,9.116209,-0.002168,-0.012958,0.008508,0.592285,-0.088867,-0.200195,-0.283161,3.251555,9.219921,-0.014538,-0.005381,-0.003662,0.356445,-0.201904,-0.584473
0.171767,-1.043337,9.778894,0.011412,0.001963,0.001158,-0.093506,0.435303,-0.575684,-0.351765,3.019281,9.284294,-0.011514,0.001959,0.004988,-0.726318,0.11792,-0.359375,-0.539013,3.63481,9.114851,0.000508,-0.004377,0.002519,-0.128662,0.58667,0.772949,-0.207984,3.712461,9.113917,0.003025,0.011973,0.010821,0.58252,-0.099609,-0.200684,-0.369698,3.177906,9.211595,-0.005559,0.016913,-0.000887,0.350586,-0.213867,-0.579102
0.160113,-0.918844,9.786961,0.018456,0.003737,0.000508,-0.093262,0.430664,-0.578125,-0.350153,3.04175,9.312283,-0.000713,0.011543,0.010603,-0.726074,0.113525,-0.367676,-0.542104,3.698247,9.111157,0.008597,0.011813,-0.003892,-0.128662,0.596191,0.768799,-0.284974,3.742497,9.138798,-0.001375,0.008064,0.011197,0.585938,-0.09082,-0.203369,-0.371226,3.212309,9.264111,0.015462,-0.015946,-0.007863,0.353027,-0.204102,-0.58374
0.174529,-0.947827,9.823663,-0.021434,-0.00131,-0.002743,-0.095703,0.440186,-0.582031,-0.360475,3.057457,9.312603,-0.012431,0.002194,0.004855,-0.72583,0.119629,-0.367676,-0.568428,3.693716,9.123358,-0.019384,0.002493,0.005173,-0.133057,0.596436,0.773926,-0.243177,3.713334,9.133853,-0.020023,-0.011725,0.010107,0.582031,-0.092041,-0.19751,-0.316947,3.25927,9.256077,0.002961,0.00053,-0.001675,0.350098,-0.20166,-0.578125
0.168971,-1.051479,9.798974,-0.00229,0.002116,-0.001816,-0.098633,0.438721,-0.573242,-0.331595,3.014112,9.321044,-0.020113,0.006096,0.009988,-0.72876,0.12085,-0.359863,-0.531885,3.630714,9.118884,-0.006196,-0.001803,0.004466,-0.128418,0.586426,0.77124,-0.196507,3.68095,9.107912,-0.005855,0.004849,0.01105,0.58667,-0.099121,-0.200928,-0.369426,3.20335,9.230117,-0.021943,0.003319,-0.001173,0.353271,-0.212891,-0.580811
0.162827,-0.963425,9.816383,0.018687,0.006297,0.001097,-0.093994,0.432861,-0.570068,-0.356969,2.998636,9.321558,-0.000406,0.008865,0.007398,-0.727783,0.115479,-0.358154,-0.55736,3.683458,9.115531,0.008583,0.014434,-0.006591,-0.135498,0.588135,0.769531,-0.250786,3.711003,9.124065,0.008104,0.011503,0.011064,0.581543,-0.098389,-0.198975,-0.339042,3.187537,9.229566,0.012933,-0.004599,-0.003679,0.345215,-0.21167,-0.581543
0.160785,-0.948186,9.789125,-0.010709,0.000965,-0.002006,-0.091553,0.429443,-0.578857,-0.362657,3.051359,9.300696,-0.000537,0.003029,0.007112,-0.723145,0.113037,-0.36499,-0.561634,3.699716,9.129969,-0.005582,-0.003069,0.003932,-0.12915,0.591797,0.758057,-0.242149,3.732013,9.10059,-0.007384,-0.008323,0.009531,0.586914,-0.097656,-0.209229,-0.350292,3.241496,9.273763,0.014372,-0.001519,-0.005118,0.351807,-0.208252,-0.59375
0.177727,-0.988351,9.816799,0.000292,-0.000111,-0.000577,-0.093506,0.438721,-0.579834,-0.340578,3.050503,9.294663,-0.01829,0.009223,0.007941,-0.724609,0.120117,-0.367188,-0.536967,3.663923,9.107315,-0.010802,0.002043,0.003409,-0.13501,0.594727,0.766602,-0.210445,3.694165,9.11239,-0.011104,-0.000732,0.009229,0.582031,-0.091064,-0.201172,-0.349384,3.2473,9.210683,-0.012815,-0.001517,-0.001984,0.349609,-0.205322,-0.581055
0.171913,-0.972261,9.818407,0.000471,0.004617,-0.000117,-0.098145,0.44043,-0.579834,-0.359664,2.992256,9.309685,-0.018304,0.005312,0.007399,-0.729736,0.121094,-0.36792,-0.556807,3.65521,9.131478,-0.003705,0.009851,-1e-06,-0.130859,0.581055,0.769775,-0.23329,3.692225,9.12193,-0.007343,0.013997,0.011129,0.585205,-0.105713,-0.198975,-0.35483,3.204965,9.263688,-0.004735,0.00027,-0.002524,0.35083,-0.220459,-0.581543
0.172381,-0.991964,9.776886,-0.00333,0.000962,-0.001812,-0.096436,0.43335,-0.578613,-0.335006,3.015615,9.317314,0.003484,0.00786,0.006879,-0.726074,0.115479,-0.365479,-0.551242,3.669666,9.116768,0.001009,-0.001681,0.002123,-0.131348,0.597656,0.772217,-0.252414,3.682539,9.12834,-0.001708,-0.00503,0.010391,0.584229,-0.0896,-0.198975,-0.365321,3.197828,9.23727,0.003233,-0.001815,-0.003556,0.346436,-0.202881,-0.578369
0.178644,-0.975084,9.813105,0.006863,0.001293,0.00021,-0.092773,0.432861,-0.566895,-0.359393,3.05821,9.317133,-0.007058,0.006659,0.006986,-0.728027,0.11499,-0.35498,-0.561134,3.688822,9.119799,-0.005831,0.010101,-0.001196,-0.130127,0.588135,0.770996,-0.199658,3.726339,9.115733,0.001197,-0.003088,0.008993,0.584717,-0.097412,-0.199707,-0.361777,3.233835,9.233401,0.018848,-0.001249,-0.006645,0.352783,-0.210938,-0.580322
0.175162,-0.944931,9.811069,0.00196,0.003403,0.001,-0.093994,0.430908,-0.576416,-0.335416,3.024181,9.297603,-0.018752,0.005745,0.008012,-0.725342,0.112061,-0.364258,-0.565426,3.675387,9.126232,-0.006575,-0.000289,0.003304,-0.134766,0.594971,0.765625,-0.236414,3.714198,9.109638,-0.009287,0.010555,0.011098,0.581299,-0.091553,-0.204102,-0.337903,3.241865,9.279511,-0.012289,-0.002118,0.000573,0.346436,-0.207275,-0.583496
0.168928,-0.976465,9.802201,-0.00874,0.003864,-0.002298,-0.101318,0.431396,-0.579102,-0.354698,3.011464,9.305223,-0.006527,0.007817,0.007608,-0.733643,0.114014,-0.366943,-0.525594,3.663442,9.126727,-0.003349,0.003148,0.000371,-0.126709,0.587891,0.766357,-0.247348,3.724081,9.093175,-0.01131,-0.003205,0.008826,0.589844,-0.096924,-0.203369,-0.350449,3.190066,9.222849,-0.009273,-0.0035,-0.003741,0.35498,-0.212646,-0.586182
0.158236,-1.011004,9.805975,0.000352,0.001465,-0.000424,-0.099609,0.436279,-0.567139,-0.35316,3.033389,9.333424,-0.009663,0.006017,0.007155,-0.730957,0.114014,-0.353027,-0.57037,3.661363,9.132854,-0.004439,0.010627,0.000882,-0.133301,0.588379,0.771484,-0.221914,3.68627,9.135162,-0.002845,0.002524,0.008991,0.580566,-0.097168,-0.196289,-0.3555,3.204941,9.249587,0.014456,0.003314,-0.00331,0.347656,-0.214111,-0.577881
0.1556,-0.976402,9.820211,0.007628,0.001551,-0.0018,-0.102051,0.432861,-0.58252,-0.36589,3.024333,9.306458,-0.012439,0.006394,0.008248,-0.732178,0.115479,-0.369141,-0.567686,3.663465,9.124233,-0.001234,-0.004911,0.003478,-0.13208,0.589355,0.77124,-0.258944,3.707386,9.129184,0.002147,0.010089,0.009855,0.583496,-0.097168,-0.200195,-0.347699,3.235671,9.266878,-0.000565,-0.001579,-0.006233,0.348145,-0.212158,-0.582275
0.164589,-0.970346,9.794916,-0.004138,0.002368,-0.001221,-0.088867,0.435303,-0.579834,-0.342341,3.035679,9.293454,-0.003377,0.006036,0.00603,-0.722412,0.118408,-0.362793,-0.527325,3.689398,9.103719,-0.002463,0.008053,-6.8e-05,-0.132812,0.593018,0.77124,-0.2324,3.730538,9.118382,-0.004983,-0.008058,0.01034,0.582275,-0.093506,-0.201416,-0.337521,3.231937,9.23171,0.004441,-0.006946,-0.000428,0.346191,-0.204346,-0.576904
0.170008,-0.982708,9.809529,-0.003338,0.001466,-0.000522,-0.098389,0.433594,-0.572998,-0.354186,3.039046,9.328468,-0.013687,0.005084,0.007931,-0.730225,0.116699,-0.358887,-0.575651,3.674725,9.148398,-0.011054,0.007406,0.000195,-0.133057,0.594482,0.766602,-0.213766,3.698459,9.1313,-0.015025,0.004394,0.008526,0.580322,-0.090576,-0.200684,-0.330468,3.203865,9.261727,-0.017496,0.004532,-0.001377,0.3479,-0.204346,-0.58252
0.174017,-0.979557,9.796903,0.006113,0.004276,0.000956,-0.101562,0.438477,-0.581055,-0.35798,3.012351,9.315525,-0.012295,0.008648,0.006507,-0.737061,0.119629,-0.369141,-0.532647,3.665398,9.107682,0.001132,-0.004546,0.003478,-0.129639,0.583008,0.772461,-0.253846,3.697509,9.118942,3.1e-05,0.010614,0.012314,0.587891,-0.102051,-0.197021,-0.378869,3.184305,9.245878,0.0142,0.001571,-0.007746,0.353271,-0.213379,-0.57666
0.159686,-0.964799,9.787583,-0.002874,0.002339,-0.000665,-0.095947,0.439697,-0.579102,-0.357389,3.022324,9.295424,-0.004828,0.005407,0.008129,-0.730225,0.119873,-0.366211,-0.542497,3.694155,9.113521,-0.003566,0.014433,-0.00105,-0.131592,0.591797,0.769043,-0.253875,3.724268,9.137739,0.004067,-0.009685,0.01002,0.584473,-0.094971,-0.199951,-0.333071,3.25369,9.270826,0.016889,-0.011037,-0.003371,0.349121,-0.209717,-0.581543
0.18347,-0.987924,9.798976,0.001841,0.000251,0.000695,-0.100098,0.442139,-0.578125,-0.350666,3.036282,9.309695,-0.005776,0.005012,0.006634,-0.732666,0.124756,-0.366211,-0.572058,3.677657,9.131564,-0.006574,-0.000289,0.003301,-0.131348,0.5896,0.766113,-0.203551,3.717237,9.108805,-0.012974,-9.7e-05,0.007324,0.583252,-0.096924,-0.202637,-0.325074,3.231599,9.237707,-0.026979,0.006871,-0.000493,0.349854,-0.206299,-0.585449
0.161983,-0.970325,9.794962,0.000816,0.002338,-0.000567,-0.099609,0.433105,-0.575195,-0.357388,3.030499,9.303511,-0.016443,0.005789,0.007534,-0.73291,0.112793,-0.359863,-0.528861,3.668475,9.123242,-0.00297,0.001633,0.00153,-0.139893,0.591064,0.772705,-0.251552,3.694712,9.120139,-0.008367,0.012529,0.011465,0.573975,-0.092529,-0.198486,-0.37881,3.184697,9.245745,0.010106,7.4e-05,-0.002449,0.3396,-0.205811,-0.577393
0.161347,-0.9937,9.789775,-0.001033,0.00259,3e-05,-0.097656,0.438965,-0.577637,-0.353432,3.019341,9.290547,-0.006396,0.006456,0.008177,-0.729736,0.120605,-0.361084,-0.570325,3.678876,9.123246,-0.000964,0.011326,-0.001536,-0.13501,0.585205,0.775879,-0.258388,3.708588,9.135097,0.001571,-0.005582,0.009251,0.581055,-0.099365,-0.194336,-0.336402,3.234205,9.245048,0.013309,-0.011232,-0.005291,0.345215,-0.215576,-0.574219
0.161463,-0.965924,9.811247,6e-05,0.001576,0.000153,-0.093506,0.435303,-0.577881,-0.364225,3.035018,9.332332,-0.006543,0.007802,0.007615,-0.726074,0.117676,-0.366699,-0.561897,3.686157,9.129462,-0.007698,-0.002087,0.003728,-0.129883,0.592285,0.765137,-0.202949,3.710947,9.119381,-0.002892,-0.001345,0.009635,0.585205,-0.094727,-0.202637,-0.339335,3.241297,9.251476,-0.008701,0.008997,-0.002447,0.35083,-0.208496,-0.587402
0.172769,-0.993731,9.771806,0.001504,0.002027,-0.000148,-0.095703,0.438721,-0.578125,-0.341906,3.033976,9.312606,-0.013765,0.004112,0.008056,-0.727783,0.119141,-0.363525,-0.52813,3.659217,9.112424,-0.003577,0.003266,0.002563,-0.133545,0.581787,0.770508,-0.233195,3.713241,9.108499,-0.008648,0.010751,0.010542,0.583008,-0.103271,-0.198486,-0.372991,3.197514,9.25085,-0.00538,-0.003476,-2.3e-05,0.350586,-0.216553,-0.579102
0.156298,-0.963369,9.840297,0.003629,0.002671,0.001262,-0.103027,0.431152,-0.578613,-0.357922,3.045308,9.306383,-0.009355,0.007546,0.007345,-0.735107,0.112305,-0.364746,-0.547827,3.679187,9.112576,-0.003458,0.010103,-0.001688,-0.126709,0.589844,0.773926,-0.242937,3.713676,9.160859,-0.007688,-0.002756,0.00974,0.586426,-0.094727,-0.195557,-0.32465,3.207111,9.218889,0.009089,-0.007,-0.00449,0.353516,-0.207275,-0.576172
0.15723,-1.003219,9.809732,-0.017383,0.003896,-0.003057,-0.094727,0.438477,-0.581787,-0.373111,3.023843,9.327805,-0.016983,0.008526,0.007462,-0.727783,0.120117,-0.367188,-0.589791,3.650898,9.133863,-0.013882,0.003553,0.005779,-0.13501,0.594971,0.772949,-0.232214,3.68834,9.14426,-0.009543,0.005211,0.008992,0.581787,-0.091309,-0.198486,-0.368065,3.21815,9.290378,-0.008158,0.012004,-0.000441,0.348633,-0.20459,-0.57666
0.181143,-1.007529,9.75752,0.020917,-0.00164,0.001456,-0.098145,0.424561,-0.570557,-0.330158,3.000871,9.301184,0.001706,-0.001513,0.009071,-0.732666,0.108154,-0.357666,-0.529864,3.666536,9.083622,0.020637,-0.008812,0.00117,-0.130371,0.601318,0.766113,-0.240563,3.710412,9.098943,0.014055,-0.001921,0.010606,0.587158,-0.08374,-0.202148,-0.374881,3.195719,9.22323,0.008191,-0.012488,-0.006424,0.352295,-0.199951,-0.583496
0.167956,-0.886385,9.854415,0.009512,0.004388,0.001631,-0.0979,0.432129,-0.580811,-0.362515,3.072705,9.335578,-0.00369,0.016186,0.007507,-0.728271,0.113281,-0.369141,-0.543118,3.730719,9.14202,-0.015507,0.022551,-0.005318,-0.128906,0.591309,0.768555,-0.205817,3.76535,9.170953,-0.00865,-0.00492,0.010593,0.586426,-0.092773,-0.20166,-0.301413,3.280239,9.259002,0.021691,-0.007319,-0.003653,0.352539,-0.206787,-0.578613
0.165614,-1.015473,9.795602,-0.035934,0.003988,-0.005127,-0.098877,0.43457,-0.57373,-0.380923,3.014832,9.295009,-0.031305,-0.004395,0.005489,-0.72998,0.114502,-0.361816,-0.610786,3.602984,9.082138,-0.027073,-0.010026,0.013486,-0.124756,0.592041,0.764404,-0.237034,3.664832,9.097469,-0.036108,0.019545,0.006438,0.5896,-0.094971,-0.205811,-0.368324,3.176831,9.287216,-0.061635,0.019728,0.008164,0.355957,-0.209229,-0.588867
0.163896,-0.978279,9.773396,0.032501,0.001311,0.003058,-0.082275,0.429443,-0.574707,-0.303803,2.998774,9.317381,0.010998,0.012723,0.008147,-0.714844,0.111816,-0.363281,-0.475331,3.685167,9.111294,0.038508,-0.001159,-0.009326,-0.133545,0.583252,0.769043,-0.259095,3.696715,9.106998,0.029483,-0.009233,0.012938,0.583008,-0.104492,-0.202148,-0.405064,3.135354,9.168216,0.05818,-0.017386,-0.021069,0.3479,-0.214355,-0.583008
0.161056,-0.941597,9.840345,-0.012092,-0.00216,-0.002875,-0.095215,0.437988,-0.575684,-0.408117,3.042643,9.344094,-0.01922,0.006783,0.009986,-0.730225,0.119629,-0.36499,-0.614659,3.723649,9.160362,-0.029875,0.030854,-0.001554,-0.12915,0.589355,0.780273,-0.203719,3.76521,9.163072,-0.007614,-0.003448,0.01026,0.585449,-0.100586,-0.188232,-0.278578,3.376883,9.318226,0.007229,-0.009304,0.011138,0.352051,-0.214844,-0.569336
0.182409,-1.007188,9.78135,0.003464,0.005432,0.000853,-0.103516,0.438232,-0.578125,-0.303657,3.00675,9.297968,-0.007851,-0.001948,0.004829,-0.736084,0.121826,-0.364746,-0.553554,3.606178,9.094916,-0.012096,-0.033022,0.015984,-0.129883,0.587891,0.773193,-0.221871,3.692371,9.088493,-0.025574,0.016105,0.007184,0.583252,-0.097168,-0.193115,-0.388475,3.098346,9.225944,-0.078113,0.024572,-0.008022,0.35083,-0.210693,-0.575928
0.145365,-0.93293,9.814594,-0.004189,0.004537,-0.001352,-0.096191,0.442627,-0.580322,-0.397089,3.044463,9.31817,-0.007684,0.019775,0.010207,-0.72876,0.124756,-0.36792,-0.487311,3.683036,9.109477,0.017075,0.031378,-0.014973,-0.138184,0.588379,0.768311,-0.273004,3.687342,9.146309,0.008231,-0.002137,0.013969,0.576904,-0.095703,-0.199951,-0.378939,3.199634,9.216634,0.085332,-0.020095,-0.006643,0.343506,-0.210449,-0.581787
0.175562,-1.015707,9.777644,-0.004618,-0.001746,0.000186,-0.092773,0.435547,-0.578857,-0.353207,2.987737,9.305646,-0.018998,-0.008539,0.005223,-0.726807,0.115234,-0.364502,-0.673815,3.689058,9.132112,-0.013262,0.002653,0.00574,-0.13916,0.591309,0.783691,-0.224943,3.725894,9.110889,-0.005213,-0.002199,0.008725,0.577393,-0.094238,-0.188965,-0.301508,3.315779,9.325243,-0.033481,0.000125,0.002728,0.343018,-0.205322,-0.571289
0.179297,-0.969073,9.811774,0.013675,0.000508,-0.001016,-0.093262,0.43457,-0.580566,-0.318767,3.037509,9.320838,0.000914,0.015612,0.009551,-0.726318,0.115723,-0.368164,-0.464133,3.656966,9.089483,-0.00364,-0.02353,0.009973,-0.135742,0.5896,0.762207,-0.226565,3.705075,9.103996,0.00142,-0.001522,0.011129,0.579834,-0.0979,-0.206787,-0.394208,3.133118,9.146647,-0.011732,0.01047,-0.013833,0.343994,-0.207764,-0.586914
0.165718,-0.948965,9.818797,-0.003906,0.004929,-0.000638,-0.091553,0.43457,-0.575928,-0.399532,3.038518,9.306213,-0.009828,0.004063,0.007409,-0.723877,0.113281,-0.362061,-0.577805,3.659535,9.115959,-0.005607,0.044476,-0.011841,-0.13208,0.594482,0.772705,-0.242254,3.723779,9.161559,-0.012279,0.006656,0.009042,0.585205,-0.091553,-0.195801,-0.339883,3.275808,9.303976,0.039277,-0.02068,0.00963,0.350342,-0.203369,-0.576904
0.160589,-0.976841,9.773595,-0.005522,0.003494,-0.000771,-0.101318,0.435791,-0.577637,-0.315813,3.025084,9.294457,-0.01637,0.003796,0.006727,-0.734131,0.115479,-0.365723,-0.617016,3.663506,9.104044,0.002939,-0.025501,0.009871,-0.134521,0.580566,0.769287,-0.230975,3.67413,9.117124,-0.01568,0.004136,0.009684,0.581299,-0.105469,-0.19873,-0.327366,3.174652,9.221566,-0.050878,0.014493,-0.014022,0.344971,-0.217285,-0.579834
0.172781,-0.996196,9.819183,-0.002759,-0.002502,-0.001701,-0.088867,0.437988,-0.57373,-0.369296,3.015868,9.329311,-0.014048,0.011313,0.008857,-0.723389,0.120605,-0.360107,-0.469268,3.699075,9.113539,-0.006428,0.011007,-0.001151,-0.13208,0.593994,0.772705,-0.219011,3.711983,9.110301,0.011813,-0.00816,0.011995,0.583008,-0.094238,-0.196533,-0.398401,3.1997,9.224225,0.054875,-0.004605,0.002361,0.351074,-0.207031,-0.573486
0.186153,-0.98581,9.833909,0.014078,0.004054,5e-06,-0.100098,0.429932,-0.576904,-0.333106,3.033917,9.302827,-0.000518,4.8e-05,0.006445,-0.730957,0.113525,-0.36377,-0.612515,3.657706,9.116539,-0.007891,0.019272,-0.002786,-0.132812,0.591064,0.772217,-0.230531,3.748405,9.120807,-0.003093,0.008182,0.008609,0.582275,-0.095215,-0.197021,-0.302133,3.290387,9.292618,-0.026588,-0.01253,-0.003082,0.346924,-0.208496,-0.577881
0.151744,-0.925659,9.789463,-0.00437,0.004056,-0.000496,-0.097168,0.43457,-0.572266,-0.364781,3.061238,9.302735,-0.005484,0.0137,0.006584,-0.726562,0.11792,-0.359131,-0.534546,3.679005,9.108272,0.000951,-0.02067,0.007622,-0.138428,0.586182,0.763916,-0.250232,3.707645,9.118111,-0.022682,0.004963,0.009368,0.577637,-0.101318,-0.205322,-0.354429,3.148241,9.163383,-0.015055,0.017425,-0.005934,0.344238,-0.213867,-0.587891
0.172553,-1.015343,9.777736,-0.015023,-0.001398,-0.003698,-0.093262,0.441895,-0.582031,-0.364228,3.025594,9.317374,-0.022585,-0.002103,0.006477,-0.727295,0.122559,-0.366211,-0.52894,3.684089,9.123144,-0.004758,0.027043,-0.005064,-0.132324,0.593506,0.77002,-0.230757,3.681568,9.112507,0.002038,-0.00501,0.009992,0.58252,-0.093018,-0.19873,-0.37707,3.239196,9.295652,0.03819,-0.015761,0.000675,0.348633,-0.206787,-0.579102
0.176655,-0.988082,9.822901,0.019377,0.001745,0.000216,-0.100098,0.432129,-0.570557,-0.338588,3.003111,9.304833,-0.005646,0.011432,0.008323,-0.731689,0.11377,-0.356445,-0.596583,3.662367,9.126259,-0.006847,-0.006095,0.00369,-0.134033,0.589844,0.766357,-0.219953,3.717658,9.114375,0.005924,0.005333,0.011866,0.580322,-0.094238,-0.202393,-0.29126,3.237382,9.234017,-0.0277,-0.000778,-0.010882,0.345947,-0.205566,-0.584229
0.156046,-0.94165,9.787904,-0.004473,0.004144,-0.002068,-0.09082,0.437744,-0.57959,-0.368725,3.042404,9.297931,-6.8e-05,0.00351,0.00639,-0.72168,0.121338,-0.365479,-0.496297,3.674626,9.112387,-0.002966,-0.001358,0.003728,-0.123535,0.586426,0.769775,-0.244531,3.729429,9.116745,-0.01026,0.002064,0.008445,0.591797,-0.100586,-0.19751,-0.384206,3.215254,9.214931,0.014623,0.007947,0.005074,0.357666,-0.216553,-0.581299
0.161574,-0.977492,9.797323,-0.004144,-0.001377,-0.001249,-0.0896,0.442383,-0.572998,-0.331471,3.072567,9.305966,-0.010128,0.006748,0.006292,-0.719727,0.120605,-0.362549,-0.563209,3.681664,9.124006,-0.001432,0.019437,-0.005231,-0.129883,0.591797,0.765137,-0.226839,3.696958,9.129665,-0.011812,-9e-05,0.008633,0.5896,-0.094238,-0.203613,-0.338132,3.228183,9.280002,-0.010761,-0.012372,-0.00542,0.352783,-0.209473,-0.584229
0.160219,-0.982218,9.833551,-0.001902,0.002421,0.000467,-0.09375,0.437012,-0.579102,-0.380116,3.010038,9.319935,-0.025863,0.00943,0.009983,-0.727051,0.120117,-0.369873,-0.573749,3.681914,9.121277,-0.005846,-0.00778,0.005809,-0.126221,0.591553,0.772949,-0.250522,3.71094,9.123178,-0.000492,0.006143,0.012214,0.592041,-0.092041,-0.193359,-0.332099,3.205019,9.219005,0.01119,0.006573,-0.003988,0.355713,-0.207764,-0.574463
0.183921,-0.986631,9.781355,0.004618,0.001747,-0.000185,-0.102783,0.427002,-0.577393,-0.324337,3.00412,9.328522,0.002057,5e-05,0.004921,-0.733398,0.109131,-0.364014,-0.526961,3.675485,9.10424,-0.003578,0.005892,-0.000133,-0.131104,0.599365,0.770996,-0.224462,3.731522,9.121446,0.003662,-0.003556,0.010324,0.58667,-0.087646,-0.197266,-0.373085,3.248851,9.259512,0.003487,-0.00823,0.000661,0.349854,-0.202393,-0.580078
0.160756,-0.953684,9.802572,0.002426,2.9e-05,-0.000457,-0.107178,0.432861,-0.57666,-0.355712,3.076735,9.307793,-0.000585,0.014327,0.010305,-0.739258,0.116455,-0.361572,-0.575516,3.670792,9.118962,-0.003177,0.012189,-0.000873,-0.128662,0.591797,0.769043,-0.211813,3.721447,9.129953,-0.011602,0.00239,0.009036,0.588379,-0.096436,-0.201416,-0.317069,3.196742,9.204764,-0.016234,0.00022,-0.006041,0.354492,-0.208252,-0.57959
0.168563,-0.999051,9.803137,-0.004937,0.003271,-0.001926,-0.093262,0.431152,-0.56958,-0.351732,3.020871,9.301517,-0.02658,-0.002072,0.007108,-0.724854,0.114746,-0.356934,-0.554568,3.66147,9.11337,-0.002247,-0.006224,0.003544,-0.131592,0.590088,0.770996,-0.260802,3.688057,9.106381,-0.010213,0.009507,0.008993,0.581299,-0.098877,-0.198486,-0.383419,3.201604,9.243636,0.018212,0.006343,0.00106,0.347412,-0.21167,-0.577637
0.177766,-0.965263,9.79932,0.007094,0.003857,0.000802,-0.100586,0.433838,-0.574707,-0.331031,3.006649,9.316633,-0.002663,0.010661,0.007679,-0.731689,0.113281,-0.365723,-0.532553,3.689733,9.11945,-9.7e-05,0.007323,-0.00155,-0.132568,0.595215,0.775635,-0.243223,3.716297,9.138101,0.007402,-0.007301,0.009971,0.583252,-0.091797,-0.19751,-0.337612,3.244772,9.25032,-0.003201,-0.014536,-0.009288,0.3479,-0.205078,-0.576416
0.161973,-0.983253,9.804714,-0.010878,-2.3e-05,-0.002451,-0.099365,0.428955,-0.577393,-0.384185,3.044384,9.316444,-0.006978,0.005257,0.007565,-0.730469,0.112061,-0.364258,-0.571665,3.664649,9.13156,-0.012875,0.007487,0.002997,-0.127441,0.588135,0.764893,-0.221758,3.727897,9.122994,-0.008502,0.002033,0.010428,0.589844,-0.096924,-0.207031,-0.32999,3.232208,9.251056,-0.001122,0.004918,0.003456,0.35498,-0.212158,-0.588623
0.166963,-0.999189,9.80315,0.0113,0.002562,0.000889,-0.097412,0.435303,-0.570312,-0.308219,3.016762,9.304219,-0.009857,0.004044,0.00741,-0.730957,0.118896,-0.356689,-0.553139,3.652136,9.102619,0.003343,-0.005778,0.002325,-0.13208,0.591064,0.764404,-0.232623,3.687713,9.130746,-0.009303,0.007806,0.008782,0.584473,-0.099854,-0.204834,-0.391057,3.1968,9.244695,-0.009742,0.000587,-0.003547,0.350586,-0.209717,-0.588623
0.179222,-0.923111,9.817193,0.001564,0.003605,5e-06,-0.100098,0.432617,-0.575684,-0.387431,3.028782,9.310573,-0.007228,0.012468,0.008381,-0.730225,0.115723,-0.363525,-0.544364,3.697621,9.120264,-0.003058,0.014943,-0.004414,-0.135742,0.587158,0.770996,-0.246466,3.707854,9.11656,-0.000496,-0.0011,0.010445,0.581299,-0.0979,-0.198242,-0.332888,3.214378,9.238812,0.021501,-0.007819,-0.005737,0.347412,-0.213867,-0.579346
0.176321,-1.007955,9.805202,-0.015549,0.000399,-0.002396,-0.095215,0.437256,-0.576416,-0.336439,3.031787,9.319097,-0.013247,-0.001881,0.004572,-0.725098,0.118652,-0.364502,-0.573894,3.662063,9.132457,-0.010675,-0.00418,0.006441,-0.130859,0.59375,0.764404,-0.212735,3.720814,9.144583,-0.004663,-0.002307,0.009988,0.586182,-0.095215,-0.204834,-0.33747,3.254555,9.284102,-0.00951,0.003284,0.002206,0.351318,-0.211914,-0.587158
0.165947,-0.994533,9.81947,0.017518,0.002503,0.002106,-0.096436,0.433105,-0.584473,-0.34274,3.026505,9.285192,-0.007677,0.012894,0.009001,-0.729492,0.114258,-0.371826,-0.511367,3.669444,9.103716,0.001998,0.002248,-0.000652,-0.124512,0.585693,0.768555,-0.225309,3.714944,9.111264,-0.004,0.005219,0.010592,0.592041,-0.101318,-0.200684,-0.362954,3.179239,9.202407,-0.009179,-0.002775,-0.008239,0.356201,-0.214111,-0.581543
0.172217,-0.9299,9.81366,-0.000894,0.004737,-0.00225,-0.093506,0.436279,-0.577148,-0.367049,3.023582,9.292237,-0.008259,0.003326,0.005874,-0.726807,0.116943,-0.364746,-0.587041,3.696237,9.118172,-0.005903,0.01371,-0.001532,-0.131836,0.596191,0.765137,-0.251528,3.719528,9.132506,-0.009364,0.003939,0.009419,0.581055,-0.0896,-0.205078,-0.348742,3.230887,9.27325,0.019245,-0.001588,0.001724,0.349609,-0.202393,-0.58252
0.178069,-0.989719,9.765319,-0.008179,0.000902,-0.000904,-0.095947,0.438965,-0.577148,-0.34196,3.046678,9.300323,-0.006173,0.0067,0.005656,-0.726807,0.119141,-0.361572,-0.544495,3.668362,9.136465,-0.004,-0.010483,0.005695,-0.128418,0.600586,0.770752,-0.227793,3.69154,9.105363,-0.00452,-0.002704,0.00868,0.5896,-0.087646,-0.198486,-0.356235,3.217893,9.239979,-0.013849,-0.001297,-0.008402,0.354248,-0.201904,-0.581787
0.172213,-0.992338,9.830533,0.005083,0.002621,-0.000327,-0.095215,0.435303,-0.584473,-0.373871,3.027818,9.307359,-0.017036,0.009107,0.008833,-0.725342,0.116943,-0.371826,-0.532269,3.66924,9.098555,-0.003293,0.014692,-0.002717,-0.136475,0.59668,0.765869,-0.217643,3.72328,9.117006,0.002079,0.002417,0.010539,0.583252,-0.091797,-0.201904,-0.33879,3.227414,9.237975,0.014807,-0.005099,0.00155,0.345459,-0.203125,-0.584717
0.167361,-0.971563,9.795898,0.001453,0.004198,-0.000277,-0.097412,0.430908,-0.579834,-0.342513,3.008673,9.30178,-0.009488,0.002642,0.006914,-0.730957,0.112549,-0.364746,-0.583944,3.661348,9.122223,-0.007429,0.002986,0.002323,-0.131104,0.598389,0.768555,-0.250001,3.716526,9.13377,-0.013637,0.006904,0.010239,0.587402,-0.091309,-0.198242,-0.352431,3.221113,9.281269,-0.017274,0.001787,-0.000993,0.352539,-0.204102,-0.584473
0.16632,-0.976205,9.779615,-0.002235,-5.3e-05,-0.001692,-0.098633,0.431641,-0.577637,-0.372207,3.04764,9.295107,5.5e-05,0.009309,0.006724,-0.730713,0.11377,-0.365234,-0.512325,3.668027,9.096348,0.002107,-0.003979,0.002395,-0.130371,0.593506,0.766357,-0.225758,3.691315,9.097526,-0.003228,-0.003228,0.009305,0.584229,-0.093018,-0.201416,-0.365105,3.186479,9.208816,0.010078,-0.000757,-0.007066,0.348877,-0.205811,-0.581543
0.164785,-0.980545,9.815884,-0.00074,0.00248,-0.000549,-0.095947,0.432861,-0.587891,-0.367326,3.048369,9.302903,-0.021504,0.005051,0.008154,-0.728271,0.11499,-0.373047,-0.566325,3.685836,9.137499,-0.008125,0.017564,-0.003078,-0.13208,0.588135,0.761719,-0.231284,3.71377,9.156343,0.002228,0.00102,0.011581,0.584473,-0.097412,-0.207031,-0.331111,3.267216,9.289261,0.014949,-0.004465,0.000336,0.348633,-0.214111,-0.587402
0.178478,-0.971874,9.777931,0.002667,0.002088,-0.001162,-0.09668,0.431641,-0.575684,-0.339035,3.004972,9.297182,-0.009484,0.006532,0.007484,-0.728271,0.114258,-0.360352,-0.570236,3.663134,9.108526,-0.004123,-0.01061,0.006537,-0.131104,0.588867,0.764648,-0.247518,3.717289,9.125551,-0.006663,0.006965,0.008817,0.586914,-0.094727,-0.205078,-0.353597,3.195487,9.248709,-0.032028,0.004971,-0.005179,0.35083,-0.207764,-0.583984
0.16072,-0.974512,9.808578,-0.002115,0.003101,-0.001388,-0.098145,0.434326,-0.575195,-0.375467,3.040355,9.311128,-0.001197,0.008003,0.006401,-0.728271,0.119141,-0.36499,-0.504854,3.682858,9.106226,-0.001695,0.010644,-0.002629,-0.127441,0.590332,0.766846,-0.248537,3.709462,9.144657,-0.007765,-0.002938,0.010937,0.588623,-0.099609,-0.201904,-0.383481,3.200578,9.215822,0.026566,-0.004634,-0.001974,0.354248,-0.210449,-0.58252
0.17849,-0.986297,9.805308,7e-05,0.001073,-0.001139,-0.089355,0.435547,-0.577881,-0.358081,3.048038,9.319063,-0.015761,0.003576,0.007901,-0.722412,0.118652,-0.366699,-0.609034,3.67504,9.100079,-0.008018,0.008343,0.002163,-0.137207,0.594238,0.766846,-0.212501,3.704446,9.126342,-0.007,0.004987,0.009108,0.579834,-0.094238,-0.199707,-0.327932,3.259894,9.282925,-0.009774,-0.004348,-0.002059,0.34668,-0.203613,-0.582764
0.172072,-0.950879,9.795855,0.005063,0.003629,0.002255,-0.101562,0.429199,-0.572754,-0.349513,3.027802,9.306205,-0.01171,0.008395,0.007714,-0.733154,0.111328,-0.36499,-0.522185,3.685622,9.124565,-0.001151,-0.008884,0.003311,-0.135742,0.584473,0.760254,-0.254061,3.717208,9.106966,0.002687,0.002498,0.010592,0.57959,-0.100098,-0.208496,-0.36763,3.194073,9.215087,0.00049,0.003589,-0.006832,0.346924,-0.215088,-0.590088
0.161309,-0.984966,9.799664,-0.009666,0.002115,-0.002027,-0.096436,0.435547,-0.578369,-0.358569,3.010721,9.32024,-0.004592,0.006255,0.00698,-0.729492,0.116211,-0.364502,-0.545052,3.684291,9.127617,-0.005488,0.020011,-0.00226,-0.121338,0.590088,0.764648,-0.235402,3.719087,9.119672,-0.006477,-0.002464,0.009214,0.594727,-0.0979,-0.204102,-0.348689,3.255905,9.277798,0.009433,-0.008578,0.001532,0.359863,-0.211182,-0.587402
0.165489,-0.982153,9.787013,0.009642,0.002792,-0.000661,-0.087891,0.439453,-0.579102,-0.359078,3.053569,9.314327,-0.008435,0.004939,0.008174,-0.718506,0.124023,-0.365967,-0.587405,3.647736,9.112865,-0.002739,-0.004469,0.003726,-0.134033,0.586914,0.77124,-0.235619,3.713969,9.12972,-0.011487,0.005481,0.009522,0.580078,-0.101562,-0.197021,-0.329785,3.19188,9.233499,-0.019304,0.003968,-0.004628,0.347656,-0.215332,-0.580322
0.160013,-0.96076,9.804958,-0.002701,0.003324,-0.000237,-0.090088,0.439941,-0.575195,-0.350435,3.033799,9.301316,-0.01511,0.006648,0.008291,-0.720459,0.121094,-0.361816,-0.521234,3.695304,9.119543,-0.00371,0.001676,0.001411,-0.129883,0.591309,0.772705,-0.250984,3.69846,9.124182,-0.000362,0.002065,0.010327,0.587646,-0.099609,-0.198486,-0.361876,3.230541,9.23929,0.02562,-0.002316,-0.001438,0.352783,-0.211914,-0.578125
0.174854,-0.990771,9.78909,-0.004196,0.000791,-0.00138,-0.098145,0.439209,-0.576416,-0.36978,3.021751,9.308469,-0.005311,0.006103,0.007284,-0.729004,0.119385,-0.362549,-0.575463,3.675472,9.116625,-0.006402,0.011014,-0.00114,-0.137451,0.58667,0.766357,-0.234691,3.712245,9.130445,-0.003871,-0.002416,0.007509,0.576904,-0.098877,-0.201416,-0.337675,3.238005,9.271511,-0.015378,-0.011007,-0.002281,0.343994,-0.212646,-0.583984
0.174406,-0.967121,9.794316,0.00663,0.002985,0.000947,-0.094238,0.439209,-0.581543,-0.344882,3.044629,9.31672,-0.010395,0.007378,0.00872,-0.727783,0.125244,-0.368652,-0.554201,3.666098,9.111097,0.00048,-0.007382,0.004698,-0.130859,0.591309,0.768311,-0.23946,3.73211,9.127147,-0.00512,0.00445,0.010397,0.584961,-0.095703,-0.199463,-0.364322,3.186514,9.19475,0.001281,0.011092,-0.005556,0.350342,-0.209961,-0.580322
0.149197,-0.971538,9.761436,-0.002468,0.001635,-0.000965,-0.095947,0.431885,-0.580078,-0.347179,3.030281,9.310439,-0.012385,0.00531,0.007324,-0.728271,0.116943,-0.36792,-0.529811,3.687111,9.138115,-0.008259,0.012985,-0.002031,-0.130859,0.591797,0.765137,-0.225627,3.709278,9.142359,-0.0089,0.004432,0.010775,0.585938,-0.095215,-0.202148,-0.35354,3.244944,9.272099,0.010161,-0.010455,0.000235,0.351562,-0.208008,-0.586426
0.179396,-0.9784,9.809063,-0.000405,0.000703,0.000295,-0.095459,0.431152,-0.570312,-0.341748,3.031296,9.304413,-0.007869,0.006427,0.007319,-0.727051,0.115723,-0.360596,-0.577785,3.672563,9.11765,-0.00396,0.000692,0.002103,-0.134521,0.590332,0.77832,-0.249829,3.712411,9.101074,-0.003629,-0.00084,0.009653,0.582031,-0.100098,-0.19043,-0.326593,3.209732,9.231653,-0.013539,-0.001472,-0.0066,0.347412,-0.209473,-0.57373
0.163043,-0.977179,9.803387,1.8e-05,0.003243,-0.001268,-0.100098,0.433594,-0.576172,-0.361217,3.019447,9.311479,-0.010872,0.007183,0.007971,-0.731201,0.117188,-0.363525,-0.5222,3.684046,9.109448,-0.001852,0.002336,-0.000391,-0.124512,0.5896,0.77124,-0.223468,3.710435,9.133974,-0.002094,0.001209,0.010078,0.588623,-0.097412,-0.195068,-0.361193,3.215496,9.254394,0.015428,0.003214,-0.000189,0.355225,-0.213623,-0.57959
0.167311,-0.97371,9.790802,0.005317,0.000934,-0.001054,-0.100098,0.43335,-0.580566,-0.349473,3.023988,9.298646,-0.007552,0.004073,0.006941,-0.731689,0.11499,-0.367188,-0.557693,3.681169,9.118224,-0.00366,0.010225,0.000525,-0.127686,0.592773,0.769043,-0.247172,3.725163,9.127277,-0.005291,0.005745,0.009964,0.588867,-0.092285,-0.199219,-0.346742,3.231895,9.258884,-0.012167,-0.00825,-0.005069,0.353516,-0.207031,-0.579102
0.1729,-0.961667,9.810722,-0.004307,0.001383,-0.001662,-0.093994,0.430908,-0.585693,-0.372013,3.032398,9.312888,-0.012404,0.008578,0.006533,-0.727051,0.111084,-0.374756,-0.555445,3.673462,9.106872,-0.006716,-0.002244,0.001632,-0.133057,0.592285,0.767334,-0.246306,3.697511,9.108752,-0.008802,0.000269,0.009492,0.583252,-0.092773,-0.201416,-0.335099,3.20518,9.232594,0.009312,0.004366,-0.004071,0.349365,-0.207031,-0.579346
0.164786,-1.00603,9.8056,-0.000345,0.002281,0.000447,-0.094727,0.432373,-0.57373,-0.363503,3.012589,9.299859,-0.011584,0.003757,0.009065,-0.724854,0.11499,-0.359375,-0.540298,3.667316,9.122159,-0.004052,0.005022,0.002756,-0.13623,0.586182,0.771484,-0.212162,3.712521,9.127954,-0.003631,-0.00084,0.009652,0.582031,-0.100342,-0.199707,-0.373193,3.241427,9.266854,-0.002693,-0.006487,0.000352,0.347656,-0.213135,-0.579834
0.163687,-0.963368,9.799752,0.004507,0.002341,-0.000464,-0.102539,0.435303,-0.580322,-0.367566,3.0311,9.307582,-0.005313,0.00998,0.007866,-0.733398,0.115234,-0.368896,-0.562901,3.684597,9.131121,-0.002684,0.007075,0.000645,-0.134521,0.600098,0.77002,-0.233316,3.715513,9.127625,-0.00168,0.006056,0.011501,0.581055,-0.087402,-0.198975,-0.320157,3.196775,9.21839,-0.00325,-0.000849,-0.006981,0.348633,-0.19873,-0.582031
0.166043,-0.968884,9.807141,-0.002872,0.002339,-0.000671,-0.099121,0.435059,-0.581055,-0.367033,3.041061,9.315242,-0.01069,0.0029,0.00783,-0.731934,0.117188,-0.365234,-0.560446,3.68662,9.122572,-0.003965,0.000326,0.001602,-0.129639,0.598389,0.768555,-0.249487,3.726904,9.140923,-0.003559,0.00303,0.009018,0.587646,-0.090088,-0.20166,-0.369484,3.236427,9.273816,0.013569,0.004602,-0.000816,0.35083,-0.204102,-0.581055
0.159899,-0.980934,9.787228,0.001739,0.000341,-0.000875,-0.098633,0.430176,-0.572266,-0.356398,3.033349,9.295493,-0.012135,0.005875,0.007641,-0.729736,0.111816,-0.360107,-0.542646,3.674085,9.126002,-0.005308,0.004997,0.000328,-0.122559,0.592285,0.766846,-0.253263,3.720523,9.11855,-0.006902,-0.00374,0.008976,0.592041,-0.094238,-0.204102,-0.364515,3.237045,9.217752,-0.009248,-0.01036,-0.004876,0.357178,-0.208496,-0.582764
0.180655,-0.975059,9.796521,-0.003571,0.003154,0.0002,-0.099121,0.437256,-0.577393,-0.359164,3.018599,9.303047,-0.012458,0.008225,0.008023,-0.72998,0.12085,-0.362305,-0.562253,3.674731,9.120541,-0.008395,0.006138,0.002203,-0.141113,0.592041,0.768799,-0.209949,3.708494,9.129642,-0.009193,0.002661,0.009845,0.572266,-0.095947,-0.201172,-0.322026,3.21971,9.2095,0.001622,0.003606,0.000634,0.338867,-0.20874,-0.581299
0.164728,-0.992727,9.801928,0.002486,0.001607,-0.000303,-0.104004,0.43335,-0.575439,-0.347773,3.022794,9.304086,-0.007114,0.003637,0.006325,-0.735107,0.11792,-0.360107,-0.550681,3.666096,9.112133,-0.00061,0.001266,0.000537,-0.131348,0.593018,0.774414,-0.249401,3.708568,9.117068,-0.002924,0.006783,0.009658,0.583008,-0.093018,-0.196289,-0.371828,3.217542,9.261967,-0.006213,0.000888,-0.004919,0.350098,-0.206787,-0.577637
0.157074,-0.961031,9.828789,0.004689,0.002822,-0.001321,-0.099365,0.433594,-0.574707,-0.35808,3.038565,9.31837,-0.004668,0.009158,0.007689,-0.730225,0.116699,-0.362549,-0.541901,3.693049,9.123956,0.001903,0.006213,-0.000491,-0.134521,0.59375,0.768799,-0.245671,3.72887,9.124309,0.001828,-0.003745,0.009545,0.582031,-0.091797,-0.198486,-0.352646,3.220446,9.239228,0.016686,-0.006944,-0.004693,0.34668,-0.206055,-0.579346
0.174406,-0.977468,9.809246,-0.007592,0.000678,-0.002062,-0.095947,0.437988,-0.580566,-0.370721,3.029975,9.29122,-0.018571,0.004269,0.007492,-0.727539,0.121094,-0.364014,-0.570873,3.676606,9.109372,-0.011895,0.003246,0.001611,-0.130127,0.584229,0.768799,-0.225983,3.73312,9.128097,-0.011439,0.001129,0.009452,0.584961,-0.104736,-0.200928,-0.330397,3.265628,9.247556,-0.007494,-0.002041,0.000855,0.350586,-0.2146,-0.58252
0.173964,-1.00108,9.804042,0.005466,0.002927,0.001963,-0.098633,0.432373,-0.582764,-0.339845,3.010424,9.313233,-0.00652,0.005745,0.006842,-0.72876,0.116455,-0.371094,-0.543734,3.66243,9.116038,-0.002216,0.00159,0.001647,-0.138184,0.594482,0.774902,-0.23546,3.699101,9.117331,-0.007874,0.006803,0.008711,0.577393,-0.093018,-0.194092,-0.358042,3.167209,9.230721,-0.017064,0.001817,-0.00577,0.342529,-0.205811,-0.574219
0.155068,-0.965542,9.812535,-0.000152,0.002258,-0.001702,-0.100098,0.435059,-0.579102,-0.381849,3.04242,9.320303,-0.007422,0.006597,0.008077,-0.731201,0.11792,-0.366211,-0.550903,3.684795,9.11014,0.001309,0.010841,-0.001644,-0.129639,0.587158,0.769287,-0.246309,3.689432,9.134392,0.000805,0.002024,0.011649,0.584473,-0.10083,-0.201172,-0.366465,3.228205,9.253699,0.027301,-0.002879,-0.003833,0.351562,-0.212646,-0.579834
0.180652,-0.98005,9.804008,-0.000405,0.000703,0.000295,-0.096924,0.432373,-0.575195,-0.348719,3.036023,9.307799,-0.011315,0.004051,0.006525,-0.728516,0.114014,-0.361084,-0.56755,3.679917,9.124838,-0.005208,-0.001235,0.003365,-0.135986,0.5896,0.76416,-0.242763,3.72809,9.116754,-0.001273,-0.003372,0.008148,0.579346,-0.095459,-0.204834,-0.334867,3.255817,9.255564,-0.009028,-0.004908,-0.004284,0.343994,-0.207764,-0.583496
0.170104,-0.9668,9.81824,0.000989,0.003325,-0.000134,-0.101318,0.435547,-0.577881,-0.354352,3.042119,9.308644,-0.011177,0.00986,0.006873,-0.734131,0.118164,-0.365723,-0.546207,3.669658,9.119694,-0.008533,0.004551,0.001047,-0.138672,0.589355,0.771973,-0.221279,3.720251,9.127004,-0.008876,0.004542,0.010162,0.578125,-0.097656,-0.197021,-0.351607,3.220567,9.239225,-0.00184,0.002709,-0.00156,0.34375,-0.210693,-0.578125
0.16279,-0.983703,9.782024,-0.004581,0.004737,-0.002357,-0.091797,0.435303,-0.575439,-0.358352,3.016292,9.295084,-0.009682,0.003958,0.006358,-0.723389,0.119385,-0.361572,-0.572171,3.664842,9.131785,-0.004427,0.005812,0.000603,-0.126221,0.59082,0.776123,-0.259419,3.704221,9.130487,-0.012289,0.00661,0.009641,0.585449,-0.094238,-0.193604,-0.358118,3.217321,9.267966,-0.005014,-0.003286,-0.000471,0.351074,-0.209961,-0.575928
0.162591,-0.979058,9.798327,0.005306,0.001439,0.000239,-0.096924,0.437988,-0.581787,-0.345789,3.032518,9.31692,-0.005009,0.00761,0.007496,-0.72583,0.117676,-0.369873,-0.544612,3.680205,9.114388,0.003744,0.000879,0.002093,-0.132324,0.595215,0.764648,-0.24639,3.697013,9.129799,0.003186,-0.004979,0.010689,0.582275,-0.091797,-0.203613,-0.35399,3.202595,9.227057,0.011734,-0.002646,-0.008522,0.3479,-0.203369,-0.585449
0.175606,-0.969335,9.81302,0.000524,0.002451,9e-06,-0.096191,0.430664,-0.580811,-0.373452,3.038843,9.296301,-0.0109,0.003885,0.008763,-0.727295,0.11377,-0.368164,-0.548613,3.695517,9.129291,-0.008375,0.009501,0.000512,-0.128906,0.593994,0.768555,-0.230879,3.726774,9.120105,0.000535,0.000347,0.010111,0.587646,-0.096924,-0.199707,-0.352488,3.270894,9.262255,0.010613,-0.001817,0.001028,0.351807,-0.206787,-0.57959
0.181512,-0.95811,9.78035,-0.001438,0.003295,0.00032,-0.096436,0.436768,-0.564941,-0.34237,3.019943,9.304361,-0.010192,0.007305,0.007678,-0.728271,0.118896,-0.351807,-0.558835,3.667088,9.11795,-0.00632,-0.001939,0.005282,-0.127197,0.5896,0.776123,-0.234549,3.731058,9.132682,-0.013629,0.006943,0.010231,0.59082,-0.0979,-0.192139,-0.356613,3.209938,9.233409,-0.025978,0.000288,-0.004021,0.354736,-0.207764,-0.572998
0.1549,-0.9909,9.778457,-0.002872,0.002339,-0.000672,-0.098877,0.441162,-0.574707,-0.35719,3.043456,9.30529,-0.011518,0.008317,0.006675,-0.72998,0.124023,-0.362061,-0.534194,3.678844,9.109714,-0.001811,0.00716,-7.7e-05,-0.130859,0.592529,0.769287,-0.241436,3.684874,9.128399,-0.007349,-0.001547,0.010541,0.584717,-0.096924,-0.199463,-0.374336,3.198511,9.221989,0.019325,-0.004422,-0.002244,0.348389,-0.209717,-0.579834
0.179095,-0.985689,9.811459,0.005124,0.000958,0.001097,-0.099854,0.436035,-0.575195,-0.359618,3.029608,9.298789,-0.007317,0.004623,0.007262,-0.731445,0.117676,-0.363525,-0.579118,3.677021,9.115408,-0.004167,0.007163,0.000413,-0.138672,0.597168,0.768066,-0.235709,3.711088,9.117406,0.003048,0.000983,0.0085,0.577148,-0.088867,-0.200684,-0.345494,3.242965,9.278169,0.000656,-0.003093,-0.003652,0.34375,-0.202637,-0.581299
0.175685,-0.955797,9.80937,0.001576,0.003103,-0.001286,-0.092285,0.438965,-0.580566,-0.360947,3.02769,9.313094,-0.00751,0.008894,0.007414,-0.724854,0.122559,-0.368408,-0.52427,3.669531,9.133843,-0.003717,-0.001321,0.0036,-0.128906,0.593262,0.770508,-0.250711,3.726522,9.121165,-0.000752,0.004443,0.01068,0.584961,-0.094238,-0.195312,-0.353096,3.204454,9.226445,-0.003648,0.002183,-0.004822,0.353027,-0.206543,-0.578369
0.164004,-0.975518,9.785801,-0.005187,0.001716,6.3e-05,-0.097656,0.424072,-0.578369,-0.366055,3.034378,9.300043,-0.012301,0.003931,0.007876,-0.727783,0.106689,-0.364258,-0.540421,3.664139,9.116412,-0.006008,0.009865,0.000524,-0.131348,0.588623,0.766357,-0.238069,3.718719,9.120704,-0.013445,0.001184,0.0112,0.583984,-0.095947,-0.204346,-0.352311,3.229892,9.259048,0.001964,-0.003401,0.001281,0.347656,-0.210693,-0.583252
0.169368,-0.987105,9.800519,0.003932,0.00206,-0.000601,-0.10376,0.433594,-0.577393,-0.350279,3.029241,9.315003,-0.010469,0.006723,0.007362,-0.733643,0.116699,-0.364746,-0.57207,3.682316,9.122439,-0.002472,0.00024,0.001837,-0.133057,0.592773,0.765869,-0.238477,3.68393,9.1209,-0.008369,0.001661,0.009106,0.584229,-0.093262,-0.20459,-0.343352,3.209535,9.239452,-0.007005,-0.000732,-0.006359,0.349854,-0.207275,-0.584229
0.171332,-0.973651,9.796829,-0.00091,0.001495,-0.000984,-0.096436,0.434082,-0.580566,-0.361315,3.032804,9.29488,-0.010068,0.005946,0.008231,-0.726807,0.114258,-0.368896,-0.532362,3.670553,9.123059,-0.004938,0.003113,0.000983,-0.125244,0.590332,0.770996,-0.236892,3.715863,9.121899,0.004096,0.001441,0.010522,0.589111,-0.09668,-0.200684,-0.347556,3.240554,9.25075,0.016738,-0.001157,-0.001574,0.355225,-0.208984,-0.581299
0.157767,-0.954635,9.803696,0.001859,0.003496,-0.000572,-0.094971,0.437988,-0.579834,-0.352068,3.024712,9.330135,-0.007124,0.004228,0.007698,-0.726807,0.117188,-0.365479,-0.573998,3.652604,9.114108,-0.003907,0.008513,0.000225,-0.129395,0.591553,0.766357,-0.240035,3.721658,9.133874,-0.003906,0.001053,0.009304,0.585205,-0.094482,-0.201904,-0.352883,3.229821,9.24496,-0.011368,-0.003037,-0.00417,0.350342,-0.208252,-0.583008
0.162184,-0.970095,9.802208,0.002435,0.003778,-0.000433,-0.100342,0.439941,-0.579834,-0.355191,3.043661,9.310387,-0.010458,0.00733,0.008734,-0.733643,0.12207,-0.366455,-0.561606,3.690959,9.120469,-0.000742,-0.001861,0.003573,-0.131348,0.594482,0.762939,-0.228746,3.729131,9.117731,-0.009197,0.002674,0.009838,0.583984,-0.092773,-0.207764,-0.356818,3.209997,9.219292,0.005081,0.002705,-0.003102,0.351318,-0.206543,-0.5896
0.169481,-0.97345,9.796881,-0.006105,-0.000536,-0.000943,-0.098145,0.43457,-0.576904,-0.347057,3.02362,9.311099,-0.013386,0.004903,0.005821,-0.730957,0.114746,-0.36499,-0.540289,3.690456,9.118137,-0.008887,0.006439,0.000393,-0.136475,0.590088,0.76709,-0.24622,3.703506,9.140078,-0.00959,0.001497,0.008997,0.57959,-0.098389,-0.201172,-0.365955,3.239359,9.272933,0.001307,-0.007989,-0.000825,0.343262,-0.210205,-0.581055
0.176795,-0.999957,9.786391,0.004091,0.00355,0.001123,-0.099854,0.439941,-0.575684,-0.353873,3.018498,9.30463,-0.005075,0.00724,0.008992,-0.72876,0.119629,-0.361328,-0.553935,3.66905,9.118322,-0.001327,0.003133,0.002923,-0.128418,0.589355,0.774658,-0.235083,3.682436,9.113636,0.002265,0.001187,0.01036,0.586182,-0.0979,-0.196533,-0.348901,3.198369,9.219716,-0.004025,0.000656,-0.003429,0.352295,-0.210693,-0.573242
0.163404,-0.952392,9.814788,0.002141,0.00389,0.000143,-0.093018,0.430176,-0.572754,-0.362428,3.045996,9.312422,-0.008825,0.007234,0.00857,-0.725098,0.11377,-0.358154,-0.557727,3.684481,9.133198,-0.002075,0.005081,-0.000887,-0.132812,0.588867,0.769775,-0.231118,3.731929,9.130951,-0.003217,0.004005,0.011074,0.58374,-0.099854,-0.198242,-0.365591,3.239609,9.27286,0.009253,0.000403,-0.001271,0.348877,-0.214111,-0.581787
0.176108,-0.971648,9.807917,-0.005112,-0.001462,-0.002389,-0.0979,0.43457,-0.575195,-0.355308,3.01478,9.292059,-0.012989,0.004124,0.006688,-0.729492,0.118164,-0.364014,-0.567904,3.666252,9.124443,-0.004681,0.002194,0.003984,-0.128906,0.591797,0.769531,-0.267812,3.719882,9.12492,-0.011911,0.00067,0.008083,0.585205,-0.094727,-0.199219,-0.351854,3.229662,9.245055,-0.012339,-0.005658,-0.002143,0.352295,-0.20752,-0.579834
0.166007,-0.982105,9.816912,0.002769,0.002001,0.000413,-0.101807,0.431152,-0.576904,-0.365675,3.029156,9.306839,-0.01054,0.009632,0.008072,-0.731689,0.112061,-0.365234,-0.543433,3.677688,9.116368,-0.006173,0.004186,5.5e-05,-0.128662,0.590332,0.774658,-0.233165,3.70798,9.125202,-0.005623,-0.000696,0.010787,0.587402,-0.098145,-0.195312,-0.345734,3.216441,9.231875,0.012108,0.000688,-0.00399,0.350586,-0.212646,-0.576904
0.17472,-0.975982,9.791673,0.001343,0.004793,-0.000559,-0.092529,0.440674,-0.578857,-0.362229,3.018394,9.307402,-0.008058,0.004458,0.007565,-0.72583,0.121338,-0.366455,-0.556971,3.665667,9.119498,-0.003177,0.005106,0.002033,-0.131348,0.592041,0.768066,-0.236571,3.712936,9.137513,-0.001502,0.005751,0.009589,0.582764,-0.093994,-0.201904,-0.332417,3.241728,9.2704,-0.009218,-0.003636,-0.000429,0.347168,-0.20459,-0.583496
0.156174,-0.95976,9.81119,-0.000234,0.001689,0.000727,-0.098389,0.432129,-0.581299,-0.353792,3.044014,9.301722,-0.0044,0.009435,0.005174,-0.729736,0.114746,-0.36499,-0.557485,3.684044,9.125529,0.001256,0.002292,-0.00076,-0.128906,0.58374,0.765625,-0.229849,3.697969,9.122884,-0.002416,0.002892,0.010948,0.587646,-0.103271,-0.203857,-0.360412,3.198926,9.213689,0.004341,-0.000818,-0.007181,0.354248,-0.216797,-0.583496
0.16304,-0.991008,9.784402,-0.003324,0.000961,-0.001822,-0.102539,0.432129,-0.575928,-0.367036,3.035097,9.302082,-0.018238,0.003465,0.008348,-0.734619,0.113525,-0.364014,-0.555218,3.686127,9.116968,-0.007509,0.00659,0.001977,-0.125977,0.585205,0.770508,-0.236416,3.729923,9.113262,-0.006724,-0.001357,0.00998,0.591064,-0.104736,-0.198975,-0.355759,3.245485,9.271501,0.011797,-0.003224,0.00031,0.356201,-0.216553,-0.581543
0.167933,-0.983477,9.788056,0.004707,0.002166,0.002684,-0.100098,0.441162,-0.572998,-0.345959,3.021474,9.289498,-0.007494,0.005345,0.005346,-0.73291,0.121582,-0.360596,-0.556294,3.66568,9.111672,-0.009039,0.001854,0.001423,-0.129395,0.588135,0.766846,-0.24057,3.701449,9.125169,-0.009784,0.002698,0.009173,0.588379,-0.099365,-0.203857,-0.331258,3.217558,9.25152,-0.019545,-0.002841,-0.004265,0.350098,-0.2146,-0.582275
0.162444,-0.986091,9.800739,-0.003094,0.003524,-0.001238,-0.094482,0.429688,-0.571045,-0.368635,3.03062,9.303478,-0.006397,0.00885,0.009367,-0.724854,0.111328,-0.361816,-0.547465,3.682485,9.120932,0.003026,0.005013,0.001294,-0.133057,0.593262,0.771484,-0.236726,3.694658,9.113613,-0.000262,0.005014,0.011433,0.581543,-0.095215,-0.200928,-0.353502,3.211634,9.232939,0.013661,0.004879,0.000212,0.349121,-0.205566,-0.580078
0.172068,-0.97588,9.79173,0.003396,0.000113,0.000683,-0.092773,0.432373,-0.572998,-0.34344,3.053122,9.312171,-0.010242,0.003397,0.007091,-0.722656,0.111572,-0.36377,-0.567204,3.675363,9.111819,-0.003556,0.005534,-0.000622,-0.135986,0.601807,0.767822,-0.246071,3.717926,9.131281,-0.001889,0.000106,0.009284,0.578125,-0.084717,-0.199707,-0.365177,3.239749,9.258737,0.001986,-0.006151,-0.005964,0.345703,-0.198486,-0.580811
0.169811,-0.960847,9.816954,-0.001719,0.002903,-0.000396,-0.099365,0.440918,-0.571533,-0.345559,3.038903,9.305762,-0.012126,0.007401,0.008903,-0.729736,0.120605,-0.359131,-0.539842,3.670945,9.121333,-0.00619,-0.001083,0.005432,-0.134521,0.59375,0.762207,-0.222523,3.716334,9.123109,-0.007661,-0.003313,0.009601,0.582764,-0.092773,-0.208496,-0.328598,3.226818,9.215446,0.000988,-0.001936,-0.002791,0.348389,-0.206787,-0.588867
0.162898,-0.977845,9.780718,-0.002577,0.002228,-0.00125,-0.089355,0.43457,-0.577881,-0.367279,3.014651,9.333065,-0.007953,0.005764,0.005966,-0.721436,0.119141,-0.36499,-0.56179,3.678268,9.095267,-0.00823,0.009999,0.000173,-0.138672,0.60083,0.763672,-0.219707,3.702094,9.130427,-0.012091,0.005441,0.009458,0.574951,-0.088135,-0.202637,-0.369046,3.229313,9.266994,-0.005722,-9e-05,-0.000107,0.341553,-0.199463,-0.584717
0.170494,-0.975626,9.791783,0.007217,0.002766,-0.000199,-0.098389,0.433105,-0.57373,-0.35827,3.040604,9.313639,-0.004389,0.006761,0.00733,-0.726318,0.110596,-0.361328,-0.569314,3.672438,9.112867,0.005963,1.4e-05,0.001454,-0.128906,0.588379,0.771729,-0.240022,3.711029,9.111892,0.001671,0.005665,0.009163,0.589111,-0.099854,-0.197021,-0.36425,3.190014,9.221417,0.001885,-0.000529,-0.007172,0.354248,-0.213135,-0.576416
0.151753,-0.963987,9.795002,-0.006339,0.001153,-0.000218,-0.097656,0.436035,-0.577881,-0.359171,3.038547,9.314275,-0.013855,0.00592,0.007809,-0.729248,0.119141,-0.365723,-0.535271,3.692972,9.110509,-0.008646,0.004063,0.001389,-0.133545,0.594971,0.77124,-0.236952,3.728245,9.128364,-0.001561,-0.002489,0.01014,0.582031,-0.092041,-0.198486,-0.350413,3.257278,9.262823,0.017186,-0.004284,-0.000445,0.3479,-0.202881,-0.577881
0.180734,-1.003883,9.804897,-0.001413,0.002287,-0.002263,-0.102295,0.428467,-0.581055,-0.35016,3.0192,9.287328,-0.009465,0.004502,0.006678,-0.733887,0.109131,-0.367188,-0.554985,3.674621,9.131501,-0.007399,0.003719,0.003319,-0.141602,0.592773,0.774414,-0.220547,3.711515,9.125118,-0.012482,-0.0002,0.009149,0.575928,-0.097168,-0.193848,-0.329433,3.220733,9.264573,-0.021542,-0.002098,-0.003672,0.339355,-0.20874,-0.57666
0.164508,-0.974105,9.820721,0.006395,0.004678,0.00168,-0.086914,0.438477,-0.575195,-0.36524,3.042925,9.315707,-0.005249,0.007958,0.007083,-0.717773,0.120605,-0.360107,-0.552699,3.667135,9.120062,-0.001452,0.004546,-0.00042,-0.133789,0.600342,0.774902,-0.241363,3.716483,9.116127,-0.005121,0.008923,0.009858,0.583008,-0.088135,-0.194824,-0.364866,3.188972,9.207668,0.008607,0.003027,-0.004483,0.351562,-0.199463,-0.576172
0.170061,-0.967197,9.771798,-0.005346,0.000226,-0.001664,-0.094238,0.42749,-0.573975,-0.354945,3.035704,9.295836,-0.014209,0.003777,0.006231,-0.72583,0.113525,-0.364258,-0.553857,3.676129,9.12311,-0.001176,0.00699,0.000896,-0.134033,0.592773,0.768066,-0.239969,3.700821,9.131911,0.000688,-0.000967,0.010536,0.582275,-0.09375,-0.20166,-0.364115,3.240874,9.258385,0.006689,-0.006771,-0.001196,0.3479,-0.205566,-0.583496
0.176967,-0.993319,9.813868,0.001668,-0.000732,0.000266,-0.101562,0.430908,-0.582764,-0.345694,3.026926,9.31755,-0.009979,0.007837,0.00801,-0.734375,0.114014,-0.368896,-0.548095,3.671577,9.102851,-0.006565,-0.000291,0.003274,-0.124756,0.596436,0.767578,-0.206565,3.731802,9.135184,-0.00269,-0.003252,0.009941,0.592773,-0.092529,-0.201904,-0.330356,3.234799,9.221602,-0.001523,-0.001539,-0.006072,0.356445,-0.203857,-0.584473
0.186749,-0.982889,9.804884,0.000414,0.003045,-0.000274,-0.100098,0.43457,-0.582764,-0.368983,3.024427,9.296903,-0.00966,0.005491,0.007618,-0.731201,0.115723,-0.369873,-0.551677,3.667366,9.112179,-0.006151,0.005282,0.001559,-0.129883,0.59375,0.77417,-0.220995,3.719509,9.120409,-0.010759,0.008581,0.010676,0.582764,-0.095215,-0.194092,-0.363573,3.240791,9.258435,-0.003872,0.000805,0.000901,0.348877,-0.209961,-0.574707
0.164502,-0.969888,9.784471,0.002094,0.001808,-0.001298,-0.100342,0.437744,-0.582764,-0.345152,3.035533,9.298343,-0.004011,0.005367,0.006829,-0.731445,0.119385,-0.370605,-0.559143,3.661076,9.129956,-8.3e-05,0.00433,0.000665,-0.134033,0.586914,0.763184,-0.2469,3.697759,9.12255,-0.007645,0.001261,0.008454,0.583008,-0.101807,-0.207031,-0.341094,3.196009,9.240008,-0.004782,-0.004194,-0.006569,0.348633,-0.212646,-0.585938
0.169992,-0.981302,9.799213,-0.001962,0.000844,0.00031,-0.096191,0.442383,-0.577148,-0.372218,3.052871,9.312581,-0.014193,0.008255,0.008202,-0.728271,0.124023,-0.362549,-0.550421,3.687458,9.14212,-0.003188,0.004013,0.000532,-0.13208,0.588135,0.780029,-0.233255,3.720255,9.131718,0.004022,-0.002354,0.010537,0.583984,-0.101318,-0.189453,-0.355747,3.245126,9.243442,0.020362,-0.000558,-0.001924,0.350098,-0.210205,-0.57251
0.172038,-0.968086,9.795499,0.003063,0.001891,-0.000162,-0.093018,0.439941,-0.583984,-0.33132,3.016906,9.279232,-0.0112,0.003019,0.005582,-0.72583,0.123047,-0.373047,-0.560134,3.669028,9.101118,-0.007534,0.002498,0.00266,-0.134766,0.589355,0.768799,-0.23188,3.723346,9.122567,-0.005281,0.005753,0.009963,0.578857,-0.099609,-0.200684,-0.35887,3.236776,9.265094,-0.014457,-0.004226,-0.001267,0.343994,-0.211914,-0.582764
0.166606,-0.970743,9.808173,-0.00183,0.003496,-0.000679,-0.098145,0.437256,-0.582275,-0.346355,3.040449,9.307692,-0.004737,0.008486,0.006357,-0.730957,0.11792,-0.366943,-0.536266,3.671141,9.122401,-0.001566,0.004783,0.000928,-0.134277,0.5896,0.763184,-0.246812,3.710664,9.107939,-0.011833,0.003558,0.009793,0.582764,-0.099365,-0.206543,-0.344006,3.202072,9.232704,-0.000872,-0.000554,-0.003415,0.346191,-0.211182,-0.587891
0.157651,-0.972825,9.79714,-0.001719,0.002903,-0.000397,-0.09375,0.438477,-0.576416,-0.363708,3.041316,9.294068,-0.011847,0.004433,0.007141,-0.724121,0.116699,-0.362061,-0.55252,3.675767,9.107643,-0.002294,0.00592,0.002313,-0.127686,0.595459,0.768066,-0.223756,3.68981,9.124865,-0.004715,0.002166,0.009423,0.58667,-0.090088,-0.19873,-0.371883,3.235309,9.245629,0.008201,-0.001146,-0.001222,0.352783,-0.202881,-0.582031
0.173078,-0.973592,9.80292,0.005712,0.000736,-5.1e-05,-0.091309,0.432129,-0.579346,-0.360242,3.029786,9.308552,-0.010126,0.005905,0.008238,-0.722412,0.115234,-0.365723,-0.546783,3.680418,9.122743,-0.00422,-0.001023,0.001783,-0.12793,0.591797,0.766602,-0.231176,3.719535,9.12414,0.003426,0.001126,0.011684,0.58667,-0.095703,-0.198242,-0.336205,3.207141,9.217456,-0.002329,-0.00448,-0.006578,0.352295,-0.209961,-0.580078
0.165394,-0.966057,9.824496,-0.005127,0.003294,0.000209,-0.097412,0.435303,-0.577393,-0.357904,3.051216,9.309961,-0.00974,0.007793,0.006961,-0.727539,0.114746,-0.362549,-0.550856,3.676456,9.131936,-0.006113,0.009378,0.000878,-0.137451,0.587646,0.758057,-0.235497,3.740266,9.12066,-0.005747,0.00081,0.009133,0.578369,-0.100342,-0.209229,-0.36465,3.248955,9.264558,0.00688,-0.000365,0.000707,0.345947,-0.212158,-0.590576
0.168996,-0.991722,9.790343,0.000525,0.002453,8e-06,-0.100586,0.436768,-0.580322,-0.361884,3.025602,9.296153,-0.010609,0.005117,0.006111,-0.733398,0.118408,-0.368408,-0.56748,3.661833,9.111409,-0.003695,0.002042,0.00191,-0.13623,0.591797,0.764893,-0.239378,3.714569,9.123459,-0.014223,0.003441,0.008357,0.578369,-0.095215,-0.203857,-0.34617,3.209514,9.239039,-0.016425,-0.000831,-0.002545,0.346191,-0.204346,-0.583252
0.157451,-0.963507,9.777237,0.005994,0.00113,0.000665,-0.094482,0.441406,-0.57666,-0.355235,3.038092,9.311236,-0.008221,0.006381,0.008397,-0.72583,0.122559,-0.366455,-0.55158,3.703091,9.109103,0.000271,0.002079,0.000816,-0.135498,0.595703,0.765137,-0.235946,3.704319,9.121218,0.001688,0.000282,0.01143,0.57959,-0.093262,-0.202148,-0.355407,3.204169,9.226151,0.021691,-0.00361,-0.00424,0.345215,-0.203857,-0.583984
0.166996,-0.971865,9.831878,-0.008642,2.5e-05,-0.000777,-0.093262,0.434082,-0.579834,-0.357,3.024741,9.29082,-0.010213,0.004336,0.006978,-0.724609,0.117432,-0.369141,-0.559219,3.686896,9.124098,-0.011829,0.007715,0.001419,-0.130859,0.590332,0.764404,-0.240255,3.725057,9.117746,-0.004011,0.001651,0.009386,0.589355,-0.096436,-0.207764,-0.330558,3.253714,9.275283,-0.005589,-0.003064,-0.000766,0.352539,-0.211182,-0.585693
0.191403,-0.995661,9.790836,0.006591,0.004656,-0.000467,-0.10083,0.436035,-0.585938,-0.345448,3.028877,9.292013,-0.008892,0.006587,0.007211,-0.73291,0.117188,-0.37207,-0.547574,3.659309,9.109857,-0.000759,-0.002594,0.002566,-0.133301,0.592285,0.767822,-0.239237,3.727121,9.109013,-0.006313,0.004396,0.009673,0.58252,-0.094238,-0.20459,-0.357819,3.186288,9.213962,-0.009746,0.00416,-0.004084,0.348145,-0.208984,-0.582764
0.142776,-0.944293,9.784114,0.000696,0.003438,0.000441,-0.09082,0.44043,-0.574463,-0.374043,3.034613,9.298972,-0.009083,0.007577,0.008152,-0.724609,0.120605,-0.362793,-0.547707,3.696052,9.122059,-0.002889,0.009459,-0.000333,-0.129883,0.598145,0.766357,-0.228357,3.712926,9.126902,-0.007117,0.001042,0.010328,0.584717,-0.092773,-0.202393,-0.372715,3.24481,9.265386,0.019541,-0.004816,-0.001498,0.350586,-0.202148,-0.585205
0.184481,-0.984113,9.776132,-0.007034,-0.002286,-0.000662,-0.104248,0.426758,-0.579834,-0.354351,3.020319,9.327633,-0.012398,0.003282,0.006498,-0.737549,0.108887,-0.367188,-0.561636,3.655917,9.116171,-0.008907,0.000441,0.004761,-0.126953,0.587158,0.767822,-0.232994,3.702842,9.113971,-0.009715,-0.001447,0.007871,0.587402,-0.098389,-0.20166,-0.326936,3.221997,9.250129,-0.018858,-0.005105,-0.003297,0.353027,-0.209961,-0.583252
0.177995,-0.990681,9.8251,0.008724,0.004798,-0.000343,-0.100586,0.437744,-0.580322,-0.365492,3.024149,9.307486,-0.007896,0.011176,0.007842,-0.732178,0.119141,-0.363525,-0.524258,3.66922,9.102429,-0.000234,0.002017,-0.001495,-0.136719,0.57959,0.76416,-0.225889,3.713645,9.118752,0.004019,0.002102,0.010005,0.579102,-0.104492,-0.204834,-0.363111,3.200338,9.226886,0.016767,0.005121,-0.004011,0.343994,-0.222412,-0.584961
0.152236,-0.947881,9.802561,-0.000213,0.004934,-0.000545,-0.092285,0.435303,-0.575195,-0.359289,3.037074,9.322427,-0.006931,0.004149,0.006653,-0.727295,0.118164,-0.363525,-0.571911,3.692814,9.125663,-0.002754,0.010317,-0.000174,-0.128906,0.58667,0.765137,-0.239217,3.734977,9.104412,-0.007043,0.004812,0.010316,0.586426,-0.100342,-0.206543,-0.368246,3.265203,9.290865,-0.003472,-0.008106,-0.001081,0.353271,-0.215088,-0.582275
0.158782,-0.979685,9.77574,-0.007883,0.000788,-0.001497,-0.10376,0.430908,-0.570068,-0.359996,3.034959,9.323088,-0.011736,0.006341,0.006917,-0.735107,0.111572,-0.357178,-0.545046,3.688255,9.135244,-0.0077,-0.002454,0.003179,-0.133301,0.585938,0.778564,-0.238039,3.714358,9.130084,-0.012515,-0.003743,0.007933,0.585693,-0.101074,-0.191162,-0.335732,3.191655,9.218632,-0.006223,0.000877,-0.004911,0.349365,-0.212891,-0.574463
0.175899,-0.991054,9.8251,0.004338,0.001358,-0.000892,-0.103271,0.42627,-0.577637,-0.368267,3.017439,9.309554,-0.014166,0.00592,0.008863,-0.734375,0.108887,-0.362305,-0.539361,3.673922,9.112181,-0.004629,0.008562,0.000118,-0.129883,0.586914,0.772949,-0.229475,3.70128,9.106776,-0.002817,0.001709,0.010102,0.586426,-0.101562,-0.196777,-0.357379,3.23725,9.250894,0.01238,0.000164,5.2e-05,0.352051,-0.212891,-0.579346
0.165746,-0.953539,9.792059,0.00849,0.006489,0.000384,-0.101318,0.435059,-0.574463,-0.355362,3.03353,9.317945,-0.002053,0.006784,0.006887,-0.734375,0.115234,-0.363037,-0.571531,3.683256,9.114944,-7.9e-05,0.00433,0.000669,-0.138428,0.595947,0.770264,-0.248384,3.721782,9.122902,-0.001562,0.006441,0.009076,0.577148,-0.090088,-0.200928,-0.347352,3.218903,9.244733,-0.010187,-0.004462,-0.004874,0.343262,-0.203369,-0.578857
0.164891,-0.953876,9.79204,-0.011278,0.000674,-0.002183,-0.105713,0.437744,-0.575195,-0.365662,3.04982,9.318493,-0.007972,0.010208,0.007957,-0.738037,0.119385,-0.361816,-0.535181,3.678035,9.127412,-0.006185,0.000825,0.001736,-0.137207,0.59082,0.765137,-0.235782,3.714598,9.122129,-0.006067,-0.001967,0.010537,0.578369,-0.095703,-0.207031,-0.351176,3.22464,9.237506,0.013233,0.001202,-0.002078,0.343018,-0.209961,-0.584473
0.171516,-1.003805,9.828901,0.003861,0.000988,0.000542,-0.093994,0.432617,-0.576416,-0.363871,3.026621,9.311965,-0.017286,0.004507,0.00687,-0.728271,0.111572,-0.363525,-0.545431,3.677782,9.124853,-0.006104,0.009379,0.000883,-0.130859,0.589844,0.760742,-0.22479,3.718695,9.115319,-0.008474,0.002284,0.009182,0.585938,-0.09375,-0.207275,-0.349868,3.22647,9.251009,-0.007291,-0.005608,-0.003367,0.353271,-0.208984,-0.588379
0.161689,-0.943323,9.800991,0.005832,0.003894,0.000253,-0.093506,0.443848,-0.580566,-0.354338,3.018237,9.319833,-0.005799,0.007981,0.009207,-0.726562,0.122559,-0.364746,-0.549295,3.674397,9.10152,-0.001599,0.000687,0.001609,-0.13501,0.583008,0.772705,-0.237459,3.694491,9.106841,-0.0046,0.005134,0.010535,0.57959,-0.104492,-0.19751,-0.354399,3.205288,9.211711,-0.000429,0.002186,-0.002452,0.346191,-0.21875,-0.577393
0.145896,-0.98466,9.801143,-0.009415,-0.000235,0.001229,-0.098877,0.436035,-0.567139,-0.366375,3.055714,9.300223,-0.003971,0.0063,0.006729,-0.729736,0.118896,-0.355713,-0.534783,3.677696,9.119748,-0.006496,0.007172,0.000911,-0.122314,0.596924,0.762451,-0.235604,3.725896,9.108227,-0.004157,-0.001419,0.008877,0.592041,-0.090088,-0.201416,-0.352736,3.232827,9.257694,0.006571,-0.002468,-0.001472,0.359131,-0.203369,-0.58374
0.170396,-0.98035,9.83411,0.004168,0.000372,-0.001324,-0.097168,0.441162,-0.577881,-0.358427,3.036277,9.300603,-0.014122,0.006274,0.007377,-0.729736,0.123535,-0.365479,-0.57615,3.678423,9.116605,-0.002304,0.004827,0.000813,-0.130615,0.5896,0.770264,-0.228811,3.71472,9.147083,-0.00416,0.002043,0.01069,0.585693,-0.095947,-0.199463,-0.346835,3.219647,9.244493,-0.006435,-0.000971,-0.00605,0.349854,-0.209229,-0.579102
0.176656,-0.968227,9.801539,0.002253,0.003299,0.000426,-0.102051,0.431396,-0.57959,-0.361044,3.021278,9.308028,-0.011889,0.00441,0.007139,-0.733398,0.112549,-0.364502,-0.53917,3.673628,9.096661,-0.002737,-0.001476,0.001517,-0.132324,0.591553,0.77832,-0.240867,3.712701,9.104461,-0.004533,0.004434,0.011052,0.583008,-0.093506,-0.192871,-0.368146,3.240809,9.257944,0.013478,-0.000178,-0.002638,0.350342,-0.210938,-0.574707
0.156664,-0.966202,9.77212,-0.005408,0.002901,-0.000509,-0.092041,0.43335,-0.579102,-0.352557,3.046169,9.316554,-0.003175,0.008004,0.007699,-0.725098,0.115723,-0.365723,-0.546313,3.675934,9.11772,-0.009203,0.009065,0.000748,-0.134277,0.591553,0.770264,-0.22238,3.71287,9.117753,-0.0102,-0.002918,0.008844,0.58374,-0.094482,-0.200928,-0.329592,3.229967,9.242163,-0.013247,-0.006601,-0.003291,0.3479,-0.208252,-0.581787
0.173059,-0.982001,9.805224,0.002892,0.000906,-0.000594,-0.103027,0.436523,-0.576904,-0.359623,3.041586,9.309871,-0.011749,0.006927,0.008293,-0.735352,0.115479,-0.364014,-0.557028,3.666552,9.11204,-0.00181,0.00416,0.002122,-0.131836,0.589844,0.770508,-0.239529,3.709668,9.105733,-0.00274,0.005476,0.010092,0.581543,-0.098633,-0.200195,-0.339567,3.182666,9.226396,0.002582,0.006228,-0.001398,0.349609,-0.208984,-0.577148
0.159549,-0.962477,9.812104,0.002253,0.003299,0.000426,-0.096191,0.433105,-0.580322,-0.357971,3.018224,9.317038,-0.011362,0.005546,0.007784,-0.730225,0.114258,-0.369141,-0.52305,3.696554,9.112796,0.001015,0.002034,0.000938,-0.136719,0.58667,0.773438,-0.26793,3.727726,9.120146,-0.001546,0.005533,0.010809,0.580811,-0.101074,-0.197754,-0.378708,3.244158,9.279169,0.011799,-0.003671,-0.006558,0.345459,-0.21582,-0.577393
0.171117,-0.990828,9.772706,-0.005063,0.000619,-0.000953,-0.094482,0.431641,-0.574219,-0.356516,3.028768,9.297356,-0.005819,0.007371,0.007837,-0.726318,0.112549,-0.364014,-0.542741,3.679401,9.100892,-0.008718,0.00767,0.001053,-0.128906,0.578613,0.770508,-0.224793,3.715618,9.130999,-0.00845,-0.006446,0.009015,0.588135,-0.108643,-0.199463,-0.315101,3.222319,9.227666,-0.008377,-0.00754,-0.001058,0.352783,-0.220947,-0.581543
0.171714,-0.981824,9.805265,0.004117,0.002544,-0.001455,-0.088135,0.444336,-0.570068,-0.35199,3.029096,9.319004,-0.013213,0.006025,0.007513,-0.720703,0.124756,-0.356445,-0.562709,3.670512,9.124688,-0.005184,0.001767,0.001167,-0.137939,0.582031,0.771484,-0.205235,3.718566,9.135271,-0.009671,0.005694,0.010277,0.575439,-0.102539,-0.19751,-0.358029,3.221946,9.251969,-0.000327,0.00965,-0.002523,0.342041,-0.216309,-0.57959
0.178868,-0.98419,9.80006,0.000244,0.00206,-0.000707,-0.098877,0.436035,-0.574951,-0.352137,3.026367,9.306214,-0.014542,0.003775,0.007273,-0.729492,0.118652,-0.363281,-0.550857,3.671437,9.119258,-0.001676,0.005017,0.002281,-0.13208,0.588867,0.771484,-0.247887,3.702395,9.105992,-0.002168,0.009819,0.010838,0.582275,-0.097656,-0.195068,-0.366924,3.217086,9.253018,-0.00014,-0.008304,-0.004537,0.347168,-0.212646,-0.577637
0.16229,-0.959659,9.799497,-0.000861,0.003579,0.000455,-0.096436,0.433105,-0.568848,-0.356961,3.033869,9.293059,-9.1e-05,0.007607,0.005575,-0.729248,0.116699,-0.357178,-0.557316,3.71227,9.119621,-0.000569,0.004998,-0.000636,-0.131348,0.593262,0.772949,-0.253767,3.716984,9.120857,0.001782,-0.008163,0.009439,0.585938,-0.094727,-0.196533,-0.327357,3.248185,9.240125,0.016235,-0.006019,-0.006225,0.350098,-0.20752,-0.576172
0.169933,-0.981762,9.805302,-0.002452,0.001131,-0.002262,-0.095459,0.428467,-0.573975,-0.369249,3.037085,9.314113,-0.015129,0.00614,0.008726,-0.726562,0.110107,-0.359619,-0.555423,3.676642,9.099194,-0.011237,0.003086,0.002556,-0.132568,0.592773,0.766602,-0.210742,3.723296,9.107004,-0.012021,0.004781,0.009965,0.584473,-0.096191,-0.202148,-0.345942,3.246554,9.262478,-0.014646,0.002907,0.002419,0.348633,-0.209961,-0.581787
0.154155,-0.952257,9.821056,0.005196,0.002034,-3.6e-05,-0.105713,0.4375,-0.573242,-0.343957,3.014632,9.301443,-0.011382,0.004941,0.00641,-0.736572,0.119141,-0.361328,-0.549789,3.680559,9.114598,-0.00122,0.001804,7.7e-05,-0.131348,0.589355,0.768066,-0.250214,3.704892,9.119345,-0.006933,0.00869,0.0097,0.584473,-0.096436,-0.204346,-0.366997,3.175724,9.235868,-0.003059,-0.002605,-0.005279,0.352051,-0.212158,-0.584961
0.160936,-0.983119,9.794331,-0.005579,0.001915,-0.000943,-0.103027,0.432861,-0.575439,-0.352227,3.041741,9.309652,-0.005562,0.00793,0.008165,-0.733887,0.115967,-0.362061,-0.547622,3.692356,9.10893,-0.001399,0.008645,-0.001086,-0.130371,0.593262,0.771484,-0.239439,3.709719,9.112242,-0.001063,-0.006194,0.010187,0.585205,-0.094238,-0.196289,-0.350445,3.250766,9.241662,0.020958,-0.00531,-0.002398,0.350342,-0.209473,-0.577393
0.158581,-0.991903,9.814325,0.003455,0.001692,0.000837,-0.102295,0.432129,-0.577393,-0.357855,3.048105,9.324181,-0.011255,0.003588,0.006951,-0.732666,0.111328,-0.364258,-0.56467,3.668082,9.117719,-0.009278,0.000874,0.002097,-0.136963,0.588867,0.766602,-0.203983,3.727841,9.122245,-0.004997,0.003963,0.00969,0.57959,-0.100098,-0.201172,-0.335604,3.228585,9.2562,-0.015362,0.002032,-0.003526,0.34375,-0.211426,-0.583496
0.167553,-0.96235,9.794292,0.001285,0.003217,-0.000711,-0.096924,0.440674,-0.569336,-0.350586,3.01719,9.289834,-0.013485,0.009314,0.007808,-0.727783,0.123779,-0.358643,-0.545875,3.674155,9.09501,-0.00207,0.002809,0.002308,-0.12793,0.584961,0.767334,-0.250446,3.73621,9.08015,-0.004515,0.008904,0.010528,0.585449,-0.102539,-0.203613,-0.379485,3.20248,9.248017,0.006572,0.001138,-0.002028,0.350098,-0.214844,-0.583252
0.17245,-0.978567,9.792741,-0.003211,0.000368,-0.001544,-0.096191,0.444092,-0.576904,-0.362458,3.020219,9.297292,-0.007166,0.004514,0.006225,-0.72583,0.125,-0.361572,-0.571858,3.67923,9.109695,-0.005365,0.008246,-0.000498,-0.128662,0.5979,0.768066,-0.245823,3.717972,9.13758,-0.008739,-0.004647,0.00928,0.587891,-0.089355,-0.20166,-0.32694,3.233234,9.255212,0.001463,-0.009621,-0.002416,0.352051,-0.205078,-0.580811
0.175051,-0.984379,9.80011,0.002377,0.002203,-0.000582,-0.100342,0.430176,-0.579834,-0.355653,3.032853,9.312421,-0.009266,0.006212,0.009758,-0.733643,0.111328,-0.369141,-0.55733,3.673183,9.124931,-0.002989,-0.0021,0.002702,-0.137939,0.592529,0.765137,-0.203248,3.695133,9.113496,-0.001232,-0.000529,0.009845,0.578125,-0.095947,-0.204102,-0.340041,3.208068,9.216677,-0.002009,0.006154,-0.006443,0.343262,-0.209229,-0.585449
0.169586,-0.963291,9.817991,0.002069,0.002818,0.001284,-0.090576,0.436523,-0.575195,-0.360797,3.039131,9.313336,-0.012313,0.00577,0.00765,-0.721191,0.118164,-0.362305,-0.554566,3.675058,9.116529,-0.005497,0.007389,-0.000656,-0.127441,0.597412,0.767578,-0.244597,3.735177,9.113448,-0.001394,0.008597,0.011321,0.588135,-0.091309,-0.203125,-0.367938,3.226575,9.258685,0.007284,-0.005658,-0.001832,0.351807,-0.20459,-0.582275
0.175571,-0.97514,9.780194,-0.000663,0.003556,-0.001694,-0.101562,0.438232,-0.577881,-0.345916,3.023382,9.293318,-0.006637,0.005647,0.006874,-0.733398,0.117432,-0.364014,-0.558454,3.681121,9.096169,-0.001064,0.004115,0.002245,-0.134033,0.587402,0.768799,-0.245925,3.727933,9.13216,-0.006363,-0.003629,0.008983,0.581787,-0.098145,-0.202148,-0.33583,3.227907,9.242333,-0.005761,-0.004543,-0.004153,0.345947,-0.211914,-0.583252
0.15019,-0.97525,9.815975,-0.001838,-0.000254,-0.000701,-0.094971,0.434814,-0.578857,-0.35611,3.038286,9.308051,-0.011522,0.006878,0.007246,-0.726074,0.115723,-0.369141,-0.547109,3.68135,9.123277,-0.008768,0.002485,0.000221,-0.129883,0.591553,0.767578,-0.197766,3.712338,9.122175,-0.011183,-0.001498,0.010873,0.587646,-0.096924,-0.204346,-0.341253,3.216453,9.236809,0.005154,0.001655,-0.001136,0.352295,-0.207764,-0.583984
0.183923,-0.987756,9.81861,0.003994,0.003642,-0.000446,-0.090332,0.437988,-0.587891,-0.358385,3.024287,9.301445,-0.009813,0.004474,0.007735,-0.723145,0.117432,-0.371582,-0.553951,3.665583,9.105791,-0.001807,0.00416,0.002125,-0.132812,0.590576,0.764893,-0.234852,3.701239,9.115809,-0.000699,0.008983,0.009555,0.582764,-0.096436,-0.205811,-0.370007,3.233516,9.265197,-0.002247,-0.001941,-0.005155,0.3479,-0.210693,-0.585205
0.148475,-0.955647,9.804968,0.000415,0.003046,-0.000275,-0.100342,0.43335,-0.57959,-0.345841,3.039626,9.323848,-0.007696,0.007236,0.006199,-0.729492,0.115723,-0.368408,-0.550984,3.695852,9.106304,-0.001818,0.003433,0.001121,-0.126465,0.592773,0.761719,-0.254808,3.73749,9.116311,-0.000505,-0.000947,0.0092,0.588379,-0.094238,-0.205566,-0.353711,3.217808,9.230476,0.006249,-0.002289,-0.003269,0.35498,-0.208008,-0.588135
0.171458,-0.98413,9.800198,-0.008398,0.002083,-0.001493,-0.095215,0.430908,-0.584229,-0.364611,3.028764,9.302909,-0.012324,0.005764,0.007651,-0.726318,0.111572,-0.371582,-0.549053,3.687957,9.127281,-0.007992,0.004622,0.003354,-0.133789,0.594971,0.768066,-0.221701,3.719282,9.134736,-0.011649,-0.001966,0.00951,0.581787,-0.094727,-0.200684,-0.34593,3.231192,9.263603,-0.008988,-0.000487,-0.000212,0.350098,-0.20459,-0.579102
0.17921,-0.982354,9.811238,0.009388,0.001245,0.001357,-0.098389,0.438965,-0.574219,-0.34071,3.039015,9.304859,-0.006908,0.005666,0.007929,-0.730713,0.118652,-0.362305,-0.561897,3.667156,9.094809,-0.000465,0.002486,0.001203,-0.136475,0.59082,0.769287,-0.22895,3.721295,9.115462,-0.006187,0.00737,0.010789,0.581787,-0.095947,-0.200928,-0.351455,3.194296,9.239613,0.000429,0.000948,-0.004963,0.346436,-0.209717,-0.581543
0.154567,-0.934897,9.804934,2.3e-05,0.003246,-0.001273,-0.095459,0.430908,-0.573486,-0.354045,3.031068,9.30475,-0.008621,0.008067,0.007441,-0.727051,0.111816,-0.362549,-0.544275,3.701039,9.145731,-0.004409,0.00473,-0.000892,-0.136475,0.589844,0.766602,-0.254824,3.72712,9.136331,-1.5e-05,-0.000376,0.009953,0.580322,-0.098145,-0.203125,-0.353729,3.242539,9.249182,0.013227,-0.005982,-0.000974,0.346436,-0.210205,-0.581299
0.175162,-1.003999,9.782473,-0.004915,-0.001641,0.000749,-0.095215,0.438477,-0.585205,-0.360968,3.026143,9.298167,-0.009754,0.005428,0.007628,-0.727051,0.118652,-0.372803,-0.566417,3.671757,9.107271,-0.00704,0.001104,0.002957,-0.129639,0.595703,0.76416,-0.215483,3.713361,9.114977,-0.007719,-0.002381,0.007836,0.584473,-0.09375,-0.206543,-0.340595,3.217135,9.236596,-0.015376,0.000701,-0.002587,0.348633,-0.208008,-0.585205
0.159868,-0.969951,9.814492,0.007574,0.004238,-0.000616,-0.097656,0.436768,-0.575684,-0.345629,3.020867,9.313146,-0.010342,0.007788,0.009086,-0.729492,0.119385,-0.363525,-0.539144,3.686013,9.12292,-0.000565,0.004999,-0.000631,-0.129883,0.588135,0.770508,-0.241289,3.718713,9.136042,-0.002639,0.008334,0.01182,0.587158,-0.097412,-0.199219,-0.369289,3.209272,9.246349,0.014903,0.000647,-0.004473,0.35376,-0.212891,-0.580566
0.163434,-0.971277,9.785628,-0.004132,0.002368,-0.001242,-0.096191,0.438232,-0.574707,-0.354228,3.037083,9.28658,-0.009366,0.004049,0.007115,-0.728027,0.119629,-0.36377,-0.574119,3.673714,9.096149,-0.009838,0.005875,0.001462,-0.137939,0.587402,0.769287,-0.243249,3.703681,9.110762,-0.008909,0.001027,0.008935,0.577881,-0.100342,-0.202881,-0.335228,3.253957,9.260598,-0.005943,-0.006874,0.000253,0.344238,-0.2146,-0.579834
0.173565,-0.9802,9.787722,0.001617,0.001439,0.000136,-0.098145,0.434326,-0.578125,-0.345174,3.029089,9.307931,-0.005126,0.007487,0.007557,-0.728271,0.115479,-0.368652,-0.550091,3.684861,9.120667,-0.000123,-0.00013,0.000845,-0.134521,0.596436,0.76709,-0.208654,3.717742,9.130282,-0.003197,-0.003732,0.008556,0.581543,-0.090576,-0.201172,-0.344117,3.197896,9.210756,-0.002963,0.004855,-0.00535,0.348145,-0.204346,-0.581543
0.173564,-0.97534,9.804041,0.00082,0.002343,-0.000568,-0.095703,0.4375,-0.575439,-0.384823,3.040176,9.321568,-0.014247,0.009142,0.00811,-0.727295,0.118896,-0.364258,-0.55092,3.69352,9.123915,-0.005233,0.008379,-0.001339,-0.136719,0.583984,0.774902,-0.228034,3.727687,9.111544,-0.001971,0.008618,0.010661,0.579834,-0.104736,-0.195068,-0.37777,3.230091,9.265795,0.012859,-0.003905,-0.000137,0.346924,-0.218994,-0.573242
0.166944,-0.963448,9.789349,0.003,0.004569,0.000998,-0.093506,0.441406,-0.579834,-0.347507,3.024438,9.309356,-0.007456,0.00393,0.005903,-0.724609,0.124756,-0.362793,-0.551837,3.683168,9.121245,-0.004336,-0.000791,0.00312,-0.123535,0.588379,0.76709,-0.255367,3.722585,9.097592,-0.007751,0.001886,0.008529,0.592529,-0.099609,-0.201904,-0.344009,3.223524,9.229153,-0.01274,-0.004453,-0.00589,0.354492,-0.208984,-0.585449
0.164452,-0.972515,9.809317,-0.007476,8.2e-05,-0.001798,-0.098633,0.441162,-0.588135,-0.346914,3.034082,9.317342,-0.009557,0.00889,0.008686,-0.72876,0.125244,-0.377441,-0.543313,3.671889,9.121578,-0.003497,0.007722,0.002404,-0.131592,0.59082,0.7771,-0.225375,3.712724,9.119046,-0.008446,-0.002869,0.010206,0.585449,-0.099121,-0.19458,-0.352385,3.218559,9.230265,0.011453,0.001535,-0.000737,0.351562,-0.213867,-0.575439
0.180166,-0.996974,9.809925,0.008605,0.001645,-0.000636,-0.097412,0.435791,-0.577881,-0.357559,3.038368,9.297148,-0.009181,0.00306,0.006168,-0.727539,0.119873,-0.361328,-0.572205,3.674794,9.112474,-0.001434,0.004551,-0.000408,-0.133301,0.58374,0.762207,-0.237411,3.718275,9.120547,-0.000144,0.009757,0.009099,0.58374,-0.102295,-0.204102,-0.362274,3.207733,9.280428,-0.00603,-0.002211,-0.002276,0.348877,-0.216064,-0.587402
0.151941,-0.948638,9.779924,-0.001377,0.004877,0.000463,-0.095703,0.441406,-0.569092,-0.341883,3.033724,9.298295,-0.009425,0.010215,0.007097,-0.726562,0.121582,-0.358154,-0.544636,3.698624,9.131096,-0.003341,-0.000211,0.002052,-0.137695,0.601318,0.768555,-0.24969,3.724232,9.121877,-0.004908,-0.001,0.009507,0.576416,-0.086182,-0.200684,-0.344642,3.222938,9.21524,0.007688,-0.003751,-0.00548,0.341553,-0.201904,-0.579102
0.170133,-1.003461,9.782617,-0.008066,0.000305,-0.000648,-0.094727,0.436279,-0.574463,-0.372575,3.027332,9.311595,-0.010306,0.004282,0.006978,-0.727539,0.118896,-0.366455,-0.573657,3.663589,9.110107,-0.009174,0.009434,0.001256,-0.135986,0.591797,0.770996,-0.239195,3.724969,9.124329,-0.010289,-0.002191,0.008307,0.580078,-0.097168,-0.197754,-0.360625,3.239377,9.249719,-0.004807,0.00082,0.001061,0.345215,-0.209961,-0.574463
0.168182,-0.983838,9.824116,0.009928,0.003196,7.7e-05,-0.100342,0.425049,-0.569824,-0.344336,3.02871,9.313478,-0.009637,0.007333,0.007417,-0.731934,0.106934,-0.35791,-0.571039,3.684101,9.107783,0.001362,-0.000221,0.001087,-0.136475,0.587402,0.760742,-0.230716,3.696912,9.116311,-0.002241,0.010409,0.010938,0.580078,-0.099609,-0.207031,-0.355502,3.185129,9.233352,-0.003362,0.000214,-0.008944,0.345215,-0.212402,-0.587891
0.155528,-0.964829,9.778406,-0.004035,0.00228,0.00033,-0.104736,0.434082,-0.58374,-0.370868,3.046609,9.313968,-0.008979,0.006523,0.007228,-0.737305,0.114014,-0.373047,-0.540549,3.692328,9.111499,-0.005254,0.005736,0.001341,-0.129395,0.590088,0.773682,-0.25884,3.733686,9.106107,-0.002221,-0.002589,0.010061,0.585205,-0.097412,-0.19751,-0.363509,3.246538,9.25612,0.017163,-0.00688,0.001409,0.351318,-0.209229,-0.575195
