# sampling frequency: 40
# units are seconds/meters/radians/a.u.
seg1_acc_x,seg1_acc_y,seg1_acc_z,seg1_gyr_x,seg1_gyr_y,seg1_gyr_z,seg1_mag_x,seg1_mag_y,seg1_mag_z,seg2_acc_x,seg2_acc_y,seg2_acc_z,seg2_gyr_x,seg2_gyr_y,seg2_gyr_z,seg2_mag_x,seg2_mag_y,seg2_mag_z,seg3_acc_x,seg3_acc_y,seg3_acc_z,seg3_gyr_x,seg3_gyr_y,seg3_gyr_z,seg3_mag_x,seg3_mag_y,seg3_mag_z,seg4_acc_x,seg4_acc_y,seg4_acc_z,seg4_gyr_x,seg4_gyr_y,seg4_gyr_z,seg4_mag_x,seg4_mag_y,seg4_mag_z,seg5_acc_x,seg5_acc_y,seg5_acc_z,seg5_gyr_x,seg5_gyr_y,seg5_gyr_z,seg5_mag_x,seg5_mag_y,seg5_mag_z
0.47253126994996636,0.16795743188954582,9.710424827183335,-0.0022025948883432176,0.00042460761451869496,0.01133008548650614,-0.3964804481428093,0.11380967422762586,-0.5595968850580557,0.029271130697201615,2.323479874927178,9.547051546991568,-0.009291206250179035,-0.00374783239936479,-0.010951098653692497,-0.9660412574507412,0.29887883186626346,-0.07180579732339458,-0.1125479506091671,1.9844232666495638,9.527487128182466,-0.005572338013971775,0.0034587958256612488,0.0034118362349962565,0.32682701316390084,0.5581932732663053,1.0361831167914344,0.18061382795862094,2.004618795037544,9.691348160507824,-0.004579476558252011,0.0033342232184870113,0.005950396203760085,0.4238629243675467,0.07814452221178228,-0.5571286389649015,-0.4757664948641581,2.106433640727969,9.620218542550848,-0.009481063914408273,0.004138665383555202,-0.006143824533128133,0.3122039450844054,-0.08904235047767894,-0.6758504975001081
0.4693181498372384,0.15582303569433784,9.766122463166552,-0.0027833227362558874,-0.0009503026057901035,0.010064297963756318,-0.3989022264733175,0.1153022914659616,-0.5600968185513363,0.02770869888761298,2.3071505080678696,9.531029418237418,-0.009673805385737061,-0.005546364582518787,-0.010240612983443217,-0.9682329040410443,0.3025830763099605,-0.06942445477673051,-0.11911237081825979,1.9414958364284542,9.5411463207622,-0.00932917715649244,0.002631377250892173,0.0035047402680179864,0.3187767850964551,0.5543590557579795,1.04161636104887,0.18618671223097105,1.9597485313116503,9.713311003744884,-0.007872462261830297,0.004332016489226362,0.0064950655942129405,0.4167545475682035,0.07380362041752409,-0.555640932041087,-0.4651231659168552,2.0489322349728267,9.577085851490565,-0.011755630568839081,0.002191511677390157,-0.0030250746266561237,0.3033650297780622,-0.09681723698414915,-0.6695272870798549
0.48205816654834516,0.1592436188657502,9.767818720802696,-0.00393158063245354,0.003387893664151321,0.01038358768687006,-0.403250602174427,0.12216490065881436,-0.5578900213635156,0.0366059507694271,2.3089782591793337,9.521376389032756,-0.008303342300341722,-0.003301197365441096,-0.0113147564091217,-0.9738445576305398,0.3062782704963046,-0.0672723876502886,-0.11091816121125737,1.9603196544627517,9.522279315103425,-0.0033117629114825953,0.004037420002840943,0.002823459427508774,0.32848764203629527,0.5496408808508659,1.0386316025930076,0.22239175257620883,1.9662286228143753,9.69635019852473,-0.0017535840805858259,0.003567327924320347,0.004398594702024756,0.4230945914796585,0.07253864012969329,-0.5551605841752418,-0.45028324193372865,2.021620513948564,9.552180230681842,-0.005965582576307269,0.004554544746971967,-0.0073886025521128955,0.3094910436816593,-0.09562153191121919,-0.6734046686746304
0.4718478750388073,0.15617653958367075,9.732637641882802,-0.003515607102935693,0.0030749902981362927,0.00942414279200797,-0.3980863311071966,0.11729857724961154,-0.5669107811885644,0.027444181567311664,2.315755349867823,9.527011469235127,-0.009348057876221963,-0.0030643312785794295,-0.011406755443943045,-0.9672881741942394,0.30244703370104875,-0.07675129106022399,-0.1380667148277852,1.966707511413631,9.532845192308164,-0.003734433100062881,0.0029906837758912207,0.0015155193742660545,0.32604279216558674,0.5518499631868188,1.0357130863016915,0.1892179573651911,1.9828494993822738,9.695666170446257,-0.0011972277115703523,0.005664306709875302,0.006804480311023734,0.42209927302936,0.07034509895332451,-0.5566184186274586,-0.4664280959323677,2.0948132277222653,9.559688051457783,-0.004414621996925928,0.005690135047492254,-0.0067257353327021445,0.3065573794489922,-0.09781228111599961,-0.6734137291229302
0.47983803848510653,0.1542294469842832,9.727784611024582,-0.0015493995346123341,0.0003754897926422694,0.011157901661950805,-0.39888586458930136,0.11579930376042563,-0.5613140679374126,0.018498978459158464,2.322296815124065,9.53270605391316,-0.010208314791114444,-0.0048582537505807615,-0.01014821612996501,-0.9670184667825943,0.30280573722451354,-0.07065504051629475,-0.13265435924967128,1.9768062219578735,9.512684646372112,-0.0048100719811636555,0.0016961707299421955,0.0034985614745080165,0.330277956281941,0.5550119906490333,1.0447121529330563,0.18527721852621515,1.9880217386627332,9.707963947612424,-0.0022481502999710215,0.0030308553167670417,0.007272826842264647,0.4272687650173093,0.07447567962834971,-0.5495579877005506,-0.47009022293045355,2.048425989038193,9.633030255604625,-0.00877422553985944,0.00303133016905724,-0.0050368944382269635,0.311894341871804,-0.09511585589027245,-0.6658253838422017
0.4826893803438612,0.15774750676434052,9.751136408621093,-0.004652787548809824,3.449692100265571e-05,0.010278888752588073,-0.4018107356205074,0.11655837455043933,-0.5610911554286576,0.040224408020239036,2.334131819972472,9.547310127030777,-0.010275809410257934,-0.002601207343660359,-0.009575140224526319,-0.9718948671506855,0.30257828280872145,-0.06940873199156368,-0.11552055221329413,1.9589259201640001,9.513939889057896,-0.009580796422203393,0.00379916022219469,0.004336913132907815,0.33704739896350927,0.5520160240897607,1.038081233678784,0.2162398448258348,1.9784460939717883,9.704676925345556,-0.007611518827893066,0.0005270928192390506,0.004874822590878152,0.4330886151877082,0.07051204104370816,-0.5561511518244331,-0.4655146345621518,2.0700123941086277,9.583052962358401,-0.010323190440213117,0.0018937356228870958,-0.005699745391304853,0.3185094161286287,-0.09807610594647459,-0.6713972148860733
0.4761228784340077,0.14990637842592464,9.76138778160467,-0.0034848574683662803,0.0016500674990986748,0.010824974857873343,-0.3976731586119579,0.10803013057072441,-0.568684686104225,0.039271153169504455,2.3050467918931083,9.536289483183332,-0.00817474232215947,-0.0046465025971582745,-0.010420916446306255,-0.9677650006656163,0.29365437257700294,-0.0768284135205603,-0.11600918821832859,1.9644990435699308,9.537064654318476,-0.005173026933121377,0.0027819029066555186,0.0021246017431844535,0.3341194730833826,0.5542303904552697,1.0358989528444762,0.18869752089367023,1.9525217282354674,9.685591793237416,-0.003710333833570883,0.004557616168574482,0.006172816108018095,0.43067743717865975,0.07516533387134024,-0.5573780061226237,-0.450186787303487,2.0404623027083404,9.530606878628063,-0.007025769412540446,0.005090763145762264,-0.004283660088704491,0.31729798421449096,-0.09661204542292424,-0.6726288262293101
0.4716630054950255,0.17422394422068577,9.728611356979863,-0.0008609705017795278,0.0014605166663953916,0.010132395859926063,-0.39430417181921806,0.11474037363958484,-0.5563951228920048,0.029490155204916955,2.324601433078993,9.536917709979997,-0.009821755197498802,-0.0030498305939505484,-0.010864905300489669,-0.9662625972893087,0.3014335085245181,-0.0657486311668795,-0.1313321011488965,1.9589490509772454,9.530450925979379,-0.0023948182368044506,0.0027586451512412735,0.0024610917378679402,0.329979282741378,0.5596226098221279,1.0312758309304821,0.20104048219356593,2.0008608075417995,9.713645609593936,9.959333815568602e-05,0.005261274538870677,0.006071057353840939,0.4262965877145408,0.07859969138819814,-0.5634822769569765,-0.47297657780412117,2.0570510228557937,9.605176675615896,-0.004034486170068136,0.006893534958456504,-0.008737255754529967,0.312700562979496,-0.09100343671903141,-0.6782842658580777
0.4707216307165165,0.15212538100184536,9.73275694767231,-0.003589102950746976,0.000805715793922562,0.01113275087605768,-0.4024683101165091,0.11347609621899664,-0.5723520494903974,0.03205520270585708,2.314458973355381,9.555258317360146,-0.010298418644353121,-0.003044238499796196,-0.0103178745089286,-0.9702315661438222,0.2969770205511574,-0.08176409576130175,-0.14085595783706878,1.9716782065359677,9.526282906240342,-0.006496249464309202,0.004744616983443763,0.0037712351528218736,0.3238138883687267,0.5469853435493243,1.0364715390997257,0.18199760995924902,1.9930735629056733,9.704420720486494,-0.0042292752476532245,0.002856178769281355,0.005729909136931771,0.42134508765413253,0.06741861535690148,-0.5573419144323254,-0.45812229008163374,2.1025255060473276,9.629499590978172,-0.007416769150360431,0.003239069302093081,-0.004464361816262213,0.30655156400328626,-0.10171966673161002,-0.6738904720636354
0.48921535427465623,0.17337962486109382,9.759007706993264,-0.0033443584511729397,-6.17438080853431e-05,0.009932555071693851,-0.3912832920343127,0.11744789175908259,-0.5631829077263776,0.03137772693287729,2.3247901487244502,9.550845690356812,-0.010776082081133611,-0.003038647714626343,-0.009770839423870767,-0.9619089156263827,0.3017532363595895,-0.07505192838288753,-0.12119796447189932,1.9742837926003016,9.520921742270055,-0.00866180584170586,0.004613838048869873,0.0028029684299668623,0.33287625897111467,0.5530154465636734,1.0339568457384365,0.21478744063969601,1.9862048310474048,9.684697662594603,-0.008341927867943287,0.0022606943569722254,0.006656968865060518,0.4304132915195301,0.07296419864743728,-0.5598141793095823,-0.4744268342311085,2.048693543176738,9.550819251479812,-0.011307375667211846,0.0019254280255155932,-0.005845003887005087,0.313881085605767,-0.09611677072122148,-0.6726481877259978
0.47907166435019705,0.1214643567096829,9.794292320870753,-0.005211842744693043,0.004615318817180968,0.009880510736817493,-0.3943072033520397,0.11255801593765043,-0.558364468892741,0.028835316672782163,2.2901916420267905,9.52716486263983,-0.01135808494838629,-0.004828914400269604,-0.012179234295312232,-0.9635781118981464,0.29726028842356456,-0.06714710253720947,-0.11906020394375823,1.9366262334819921,9.553752830816967,-0.003010454407095717,0.0029157023055940037,0.003091881842495245,0.32194219582038885,0.5577418031714657,1.0364607501359562,0.18923109429895907,1.949794823033838,9.710134547961417,-0.003123896202272982,0.005115722090035531,0.00587137343514675,0.41946226866157843,0.07816691138946855,-0.5607825694626329,-0.4520745219551528,2.047202739796884,9.565452112143426,-0.006281350370478056,0.006541616595229781,-0.005866976720961955,0.3031619045845236,-0.09390679358815958,-0.6761288854010565
0.4653795401454513,0.16508802738542316,9.722194610001846,-0.00028231046662800015,0.002830432200806067,0.011400126900919674,-0.39754795231225887,0.10575388988420015,-0.5584456281534401,0.018681096920467398,2.331475759706037,9.526681063437886,-0.007157328461214376,-0.0037419986378999207,-0.010051149461243017,-0.9662733593977986,0.29107146741129336,-0.07141435134571472,-0.1286034051259533,1.9880555610562463,9.4953667775212,-0.0016101403540179282,0.004813126769218843,0.0039724344857772044,0.3268002577529054,0.5574534211235154,1.0330108198389423,0.20053402449451677,2.000204036874305,9.697948069471694,0.0017365547913783482,0.0051456097961408145,0.006475312060619209,0.42216057199444457,0.08034176220599319,-0.5620138525534393,-0.4783156904926639,2.0680386945088016,9.61877213891601,-0.001912052415614647,0.00454348804826818,-0.007862309197378745,0.3068355417482144,-0.09025373077746492,-0.6768521827746651
0.478560428785697,0.15988372029313647,9.745998724338294,-0.0021083965256618923,-0.00242625417250085,0.011292846531366618,-0.39745010784219664,0.11479343474408368,-0.5593537692139761,0.03061090326532714,2.312805586328122,9.5397816202815,-0.01026687728979964,-0.0025864044551757105,-0.009586457985640142,-0.9679941656179628,0.3010866118568026,-0.07110672708102003,-0.1087564841740274,1.9571215289281096,9.513398575075064,-0.008667855599054645,0.0025234069114423428,0.003970565560876947,0.32784126719725126,0.5572237176732013,1.043014606505085,0.19536155095337418,1.9679335465134373,9.68019198391391,-0.007524241681340644,0.0038579740168001525,0.0062695724420785675,0.4235965457318093,0.07424648878630469,-0.5541896588975513,-0.4527232951682865,2.1277811808051785,9.545148393740366,-0.009886792275746625,0.0006747028440690859,-0.00607793810172841,0.3094732763640508,-0.09194443892136037,-0.668532304826727
0.47695364706528753,0.14829052919625157,9.784917385590887,-0.007629217957829094,0.002805280010525434,0.01022820255052101,-0.3896789337783597,0.11637989516373795,-0.5531648875697355,0.020943635268090927,2.301166402663659,9.537823747176699,-0.011202897016945598,-0.005728258767202971,-0.010546732713199558,-0.9618713792606733,0.30265546968412677,-0.06603433757107179,-0.12086126066105951,1.9674331683458464,9.530907576780402,-0.004506717570957389,0.0026679057109701095,0.002595406876194367,0.32586651124040367,0.5565012439881002,1.0405873101314973,0.19686778515913073,1.9560010406661084,9.725026406724076,-0.004016064750862476,0.004665804198134426,0.0069951225937470935,0.41995285656252346,0.07695730337451613,-0.554677508778118,-0.45293782427899165,2.004569858374534,9.590295278341106,-0.009622065614041367,0.005439331124423662,-0.004284291217688025,0.305818730891123,-0.09267457747302417,-0.6702584013135078
0.4693902336879422,0.16760003054583317,9.72883773264337,-0.0021412427484784917,0.0026859493834899876,0.009628303973256038,-0.40017020499716377,0.11285444707549654,-0.5576858074972071,0.043311810458459304,2.32204325604758,9.556288261994023,-0.008729893436738016,-0.004393515463224829,-0.01107641148827556,-0.9706538936674981,0.2965318935587066,-0.06637010107430327,-0.12742031781199759,1.9706662215644752,9.513026971360667,-0.0047563395670035796,0.0038326801243998283,0.0034305729823728747,0.33118721663515177,0.5552263801939994,1.0344513580938108,0.20706094517884818,1.9757295940220796,9.71869657321181,-0.00042135883812954384,0.003558846548933234,0.005626156500727307,0.4277477828385209,0.0761520749053354,-0.5615260039021718,-0.4851903229499373,2.084030378739462,9.611076696430727,-0.006956640128615632,0.003938940475304602,-0.009724065099172353,0.31293210286747813,-0.09441910975291735,-0.6772961585734889
0.44980962227432825,0.15612601482609595,9.737389675693478,-0.0005225221974337524,-0.0011256139753940905,0.010880491474726061,-0.3918872268146547,0.10960954263139985,-0.5590954317651456,0.02187604464485125,2.296725940642708,9.53889222075832,-0.008675725875751243,-0.0034955934845200673,-0.009599205004572056,-0.9633376955346948,0.2952759114803096,-0.06882023227493542,-0.1282078283690995,1.9468715976635944,9.528890165570473,-0.00408603972069106,0.003715657055863469,0.003903358047136714,0.32989572889034685,0.5462018443790496,1.0339915258094874,0.18297541259031944,1.9636845084058048,9.702266327156941,-0.003714321625998228,0.0045606324154034445,0.006167816131355831,0.4279385109750485,0.06809990492691044,-0.5593097768342727,-0.46152936630166924,2.0951762003198384,9.569228878198624,-0.007839198747641878,0.004441069489730595,-0.004087046584314161,0.3114542707174974,-0.10100865327723597,-0.6775288671414311
0.4891538528718918,0.15927255280438118,9.764550969982169,-0.0040736035331626844,0.0002752214794086339,0.009561111932818098,-0.39474710824426074,0.11792980997800431,-0.5578407881943965,0.042941409263933,2.3306856837837735,9.55230906737956,-0.00930361401750321,-0.0025827656966736796,-0.010690841808267649,-0.9665175961807566,0.30482311758716374,-0.0672763781903723,-0.12281345243665866,1.9757591747536951,9.523684412199158,-0.003682744839382565,0.003035736098004975,0.002617103511760782,0.3360659771311928,0.5525087645325292,1.0368656959199658,0.19813974296635115,1.9874524948946526,9.703178513822326,-0.002718248994611225,0.004261767364912607,0.006262700242759582,0.4316177830740303,0.0705147591989168,-0.5593224522682583,-0.4687896198430647,2.0164769596149053,9.596556789296649,-0.006772019415543447,0.003903839083460008,-0.007190949412000666,0.3173070702629687,-0.0995504941844732,-0.6755493359997911
0.4831316966238691,0.1730605623963637,9.770694511763246,-0.0025602450945345617,0.002996875124359754,0.010588705565124826,-0.3976840945220762,0.1169846352623489,-0.5581196579862526,0.03137635889277484,2.3142638088322656,9.537535597171464,-0.009744043628964093,-0.003703740760154699,-0.010432896728062298,-0.9692195859008924,0.3035210075661475,-0.07139119265100716,-0.1383128669093211,1.9698246442266838,9.517133698006903,-0.007327188095373496,0.00438483070555723,0.0037455675536051175,0.33171441512390304,0.5523123326894804,1.0434873693208326,0.2003938038975711,2.00121715545671,9.666063717919215,-0.005533075325766401,0.003264241202073629,0.006455332742320874,0.42819448806104465,0.06883904664394896,-0.5556500296772169,-0.46673037099915105,2.146967550829938,9.558416666006995,-0.010021896625439865,0.0029423246153267905,-0.006662213137316991,0.31508734066895516,-0.09879941258815489,-0.6709250718458816
0.4787241465781827,0.15517537213163213,9.729393177913247,-0.006252795925070212,0.002419241345842201,0.010429405276907833,-0.39675076846331325,0.11112628927375776,-0.55961933753402,0.029959408437866403,2.3070056407521924,9.525322472733803,-0.008760165444978785,-0.0032580545375030176,-0.010793519120623063,-0.9653026771998964,0.29866328217946014,-0.07034063741895379,-0.13295269855434244,1.9526816849187272,9.54334365089454,-0.0047623960080427985,0.0017422468209704837,0.004597170137964905,0.32876110532059893,0.5571978089127583,1.0344633036474515,0.18931555999716448,1.9593256195826285,9.697909171538114,-0.004002019751217645,0.003897371213131211,0.005639957848948874,0.4258099550644215,0.07860494538729143,-0.5627493860651438,-0.4675179036964006,1.971174163576756,9.579966133548062,-0.007200477758637002,0.004794206332208112,-0.0021756816613625945,0.3129210423612132,-0.09539016279614886,-0.6755843786073624
0.48061235806396396,0.14620400669416495,9.734744975048077,-0.001049779788173956,-0.0016609928637723128,0.012147616519418073,-0.3923374644484884,0.11473193989870123,-0.5578416445786492,0.04092285736870446,2.322827849787058,9.53232131655246,-0.01003225570276508,-0.0057329875303852,-0.008538269232741803,-0.9633420285642712,0.3006597060076668,-0.0681880394941685,-0.12468421310300626,1.9721248213724683,9.524413805803196,-0.0029537163381537167,0.005051193339623458,0.0030258755161882357,0.3363280505472027,0.5508080174747146,1.0415067426736577,0.20222294805351534,2.000646995294592,9.690157832180716,-0.0007260984653954024,0.0036650348052769135,0.006451466026777113,0.43136763962845404,0.06833201927082594,-0.5541896607604184,-0.4582352408003666,2.1100284382417858,9.568953220999283,-0.0043355212543395435,0.004537305545617463,-0.012161085018980795,0.31850412392139016,-0.10173949313485237,-0.6718746604856676
0.48276881050715126,0.161400761556538,9.792877260376569,-0.0003841008072918209,0.0008498702974827043,0.009722361341119472,-0.3988896241965884,0.11143539685193868,-0.5654967497755893,0.02286383022764011,2.307388589219343,9.540460376992122,-0.009298653569519422,-0.002572873414212964,-0.010697049602039798,-0.9687397838708226,0.29734648946374825,-0.07518417369697664,-0.12852088055388217,1.9618732400182144,9.523390628590539,-0.005850291802753552,0.0029079678873056977,0.001646843522935147,0.3316203426443542,0.551064873156342,1.0307953868089565,0.19511774316719016,1.9653014623741412,9.688890872397335,-0.005302824893486352,0.004303424491658633,0.00637038082014051,0.4296711970488912,0.07198828531831604,-0.5615194426237632,-0.46369712349681125,2.1144094324653917,9.57563901579295,-0.010618145950162677,0.00450508026584132,-0.0019857757626104196,0.3148793137225882,-0.09710825091169889,-0.6772781665227828
0.4872452361043628,0.1733371133912826,9.72047492389666,-0.0044544398309730214,0.00541052305426547,0.0094045506044416,-0.39943484379048405,0.10921625360071105,-0.561856102467079,0.040125407973682,2.3225923640204207,9.524460682041425,-0.006249953447721166,-0.003043953139389454,-0.011616399622366623,-0.9711592194455954,0.29768336025709985,-0.07005321447202559,-0.12927724302604635,1.9490105461422997,9.531505744798284,-0.006659886343982653,0.00426982596641635,0.004216368236023753,0.3282828208849802,0.5496554217966102,1.0444930847312446,0.1817700245182391,1.9797029785813507,9.702036625544338,-0.004592450441384707,0.00334128399715314,0.005937402983947926,0.42381635547664503,0.07034360832877903,-0.5522275710273632,-0.4644671630517729,1.975568078675849,9.63567543862918,-0.007417637738421956,0.0025837483398639424,-0.006658511237340426,0.3092217273359184,-0.10025051193507982,-0.6704626468112488
0.47307849758150367,0.1461735550466952,9.722930468375006,-0.006363973077507907,-0.002114309473637631,0.011001792041228588,-0.3998575870296302,0.1245339525955555,-0.5527129203264292,0.031958008054054736,2.3165256319077643,9.53511425918838,-0.010744577756298558,-0.004583601869538949,-0.010823201593817482,-0.9713903432117216,0.3087906959441123,-0.06366730249794149,-0.13857964008310014,1.961630116654258,9.527379483283713,-0.0033247878805207237,0.0019520373996634696,0.003989092194955839,0.33927408281450344,0.552495828198383,1.0419714079737314,0.2059874014052585,1.974768313922553,9.687227748665341,-0.0027212473469551725,0.004262781408178388,0.006259703311082571,0.43482384032498167,0.0734369094514822,-0.5532314567170323,-0.4568149012103212,2.1483559398402026,9.559681703881125,-0.007948711951322032,0.003008681073856406,-0.007425540149425397,0.32095305078146624,-0.09563890843758206,-0.6709034295216693
0.4745013464733661,0.1393100101863449,9.785168594905139,-8.191519142579417e-05,0.000820887768690184,0.01105710808360977,-0.39962877720278456,0.11361875393848533,-0.5625573624812612,0.03042715489451222,2.300282978937621,9.519020356551186,-0.008148933246575972,-0.0046050572120819745,-0.010452809575243421,-0.9682458960481474,0.2983504061914154,-0.07374083762297191,-0.11526860024857313,1.9743567934305972,9.523098007829658,-0.004050742915911536,0.0020310317288044135,0.0024117342195570097,0.32482349563562657,0.552589595833121,1.0349876157505655,0.1947527516649511,1.9723741329483764,9.70889245186376,-0.002542444486427117,0.005676853809543669,0.005565932613543384,0.4235733739170406,0.07155622531868454,-0.5563800879746477,-0.44911962407936934,2.0130240349376063,9.59179189949424,-0.007729567973020515,0.005214137730856835,-0.002941685685811901,0.3095111976280732,-0.09758793052695122,-0.6780379612730416
0.48284636455822844,0.17758508525338218,9.73200053859521,-0.000250221659754471,0.0039555627473104055,0.010552708726818903,-0.3968759030684189,0.12066987341375603,-0.5622349804938634,0.033821676882879514,2.3392436669207903,9.547781698615644,-0.007770338137975589,-0.002800512575371748,-0.011162390717794587,-0.9650835322848317,0.30444375817213176,-0.07460074056375547,-0.11870860013850801,1.9642081724675315,9.522054955910878,-0.003896063397871696,0.0025158797758892846,0.0019616390985692906,0.3339360208363428,0.5581491633020422,1.0405298052118546,0.20818411274653972,1.9863977970030788,9.690414436061817,-0.0026003070285530385,0.002743551465824545,0.006126171211419874,0.42994771389644604,0.07517351137230398,-0.5561566703539371,-0.44932279184753027,2.0966910124621583,9.599085085681642,-0.006032451514320881,0.004712385785923808,-0.01096647395163965,0.3158467967035633,-0.09197207213244281,-0.6733818685068396
0.4705381473954681,0.14276977469334953,9.739778376976327,-0.008126143322224003,-0.00027919574465339514,0.010909679988104218,-0.3998790558030972,0.11555411521305517,-0.5598601959385497,0.022903729576993815,2.3010277854743144,9.534072286451192,-0.011218258205712471,-0.004575062626379536,-0.01027923935875948,-0.9697050869678288,0.305495897998133,-0.07020592918002008,-0.13708035702101218,1.9563110592270088,9.537053222394594,-0.007387825281657362,0.004351833185433722,0.0026380169699723546,0.3285506905608195,0.5601332678591638,1.0361673938454263,0.19438325592777805,1.982487050749956,9.688430462067096,-0.005253368584727123,0.003930542273965832,0.006976198387773218,0.426541624032275,0.07811590018630993,-0.5610405430902402,-0.4656215827891318,2.09731784471861,9.55737200110181,-0.009561842671070749,0.0030058986613685024,-0.0026479108692087187,0.3143834476341229,-0.09001455454667855,-0.6729071976710055
0.4844607627547087,0.15794632971094086,9.759507282099438,-0.002358791394130097,0.0009923278445539915,0.010244733749976162,-0.39236755586618866,0.11470841562695169,-0.5546678744049882,0.03170465354047663,2.333309512634557,9.527339216279222,-0.010171565279764032,-0.004808001799203457,-0.010191323145615352,-0.9633351005749193,0.3001982414213099,-0.06671514457649716,-0.12303109473709083,1.9523899016205657,9.521341426911485,-0.0033814430186861187,0.0019140162347562233,0.002884525951429198,0.33402509891935833,0.5507902863424321,1.0256527819884929,0.20628776520248826,1.9727477773080566,9.711643217499233,-0.002011865751436403,0.0033016480062370073,0.005826724864030258,0.4301180785306979,0.06878657240725633,-0.5715225347145304,-0.47318751575568396,2.002687326353922,9.59969063407094,-0.006045323246355043,0.003752438833371434,-0.008524722496884305,0.31760994054351444,-0.10080588511974296,-0.6872633276846439
0.49409585267744704,0.1575151036343428,9.737879866436636,0.0004709466871102752,0.003613654630159272,0.010927038868413909,-0.4020803995611394,0.10878919534964976,-0.5665236870581232,0.03372640254034637,2.3052890419296754,9.53783189246113,-0.009265126328491097,-0.002111074956871558,-0.00996771627021811,-0.9711694232241271,0.2937093901288377,-0.07364132501973501,-0.12062187906455984,1.9606560967585767,9.522763454964497,-0.004607634435396167,0.004323566934212075,0.0029775046389786614,0.32462378829100325,0.5528501861847394,1.041336542797331,0.20462674856459379,1.9739317611530944,9.671589225963018,-0.0034356148579259786,0.005226940608166858,0.006688683609402864,0.4226034431202931,0.07253796165196301,-0.5568686818974932,-0.4596191393728756,2.1521210355639155,9.58123149129351,-0.006034497479757458,0.004392744381517758,-0.006328477381285725,0.3085039988560255,-0.0965905067862518,-0.6716980160433828
0.47006493268575844,0.1711385077701014,9.713670256544967,-0.0031489911593309645,0.0016220291046697129,0.009324842640069579,-0.3988948077220612,0.11676174708260946,-0.5593528775152556,0.03306417818366721,2.325009108632464,9.537271877158695,-0.008282243866228639,-0.0016653712938627895,-0.010327334554176884,-0.9692056520056757,0.30481045197610224,-0.0677527556294001,-0.13887905257805197,1.9640561825174219,9.529963293374541,-0.007449552031495368,0.0022213712046743593,0.002700045647963536,0.3346394433419691,0.5535068789211656,1.041512183196974,0.1974423553166488,1.9839923867793696,9.69623218081155,-0.005879198201182613,0.002980901803716236,0.005311656328096954,0.43163852685705334,0.07223498520143418,-0.5546876497702299,-0.4831901473656837,2.0264339982083457,9.584088216863565,-0.008882571587847152,0.005915232247735004,-0.0034217712433952155,0.31484349904673165,-0.09586708531995991,-0.6699578112525192
0.4813758952675517,0.15472270703557883,9.7763813654948,-0.005988290633038239,0.00012896003835546094,0.010630952995981772,-0.3947949984067814,0.11304718233398389,-0.5578774327326177,0.025999719860937423,2.3146846074668974,9.5568592289013,-0.011299721824188355,-0.004332595632981466,-0.01147765933355017,-0.9670046526886165,0.3004109542979024,-0.06816773898547472,-0.13643487512873484,1.9533644644873842,9.516469782483657,-0.0031731073335723742,0.0024379059731783337,0.0035380148834580423,0.33285950226834776,0.5525222293711181,1.0320039778438055,0.19614442077720726,1.9712956140375397,9.717247537503113,-0.0016576856147367638,0.0028195849081625673,0.005610240221983073,0.4299188414667915,0.07344260642543488,-0.5651854523563841,-0.46807068332235113,2.0882660897240473,9.60739421608772,-0.0064974342765199145,0.003359196372736772,-0.007902946827082681,0.3141599001710042,-0.09662504688956348,-0.6794803779147227
0.4735176675508711,0.14342615318175184,9.746500976170353,-0.004775185668262523,0.002875554526528431,0.010326788464889849,-0.39376557401567885,0.11089859815316165,-0.5656961636680653,0.034793666428428224,2.3162818946174566,9.547297978641698,-0.009636765377933855,-0.003908761661911565,-0.009266294907945985,-0.9628739332290126,0.2976255660485426,-0.07375017770402588,-0.12510421933324928,1.9591005397490957,9.514464578046148,-0.0057996101748507695,0.002953025617905807,0.002747434352220169,0.3272587040932868,0.5535438459870111,1.0330162240057466,0.19653423704644085,1.9823426741574723,9.696588871815736,-0.003955552828475871,0.0035265054407440113,0.006243776036785705,0.4218537143297651,0.07106991579469583,-0.5602817430017828,-0.46116302564406303,2.0739865804204043,9.595030522042382,-0.008022735264485638,0.003498197126225712,-0.0041772854513481275,0.31048305536689946,-0.09758718634789192,-0.6770558462178261
0.48612348096396896,0.1468548371201776,9.748226023602903,-0.001049401619646919,0.0008920775425225046,0.009898379458214835,-0.40066287537760853,0.11261347029848444,-0.5574472470453856,0.03614373526647259,2.301308521161496,9.552760967245096,-0.008137023786123309,-0.00458632610057508,-0.010468214451531227,-0.9692016824672661,0.2989341688103162,-0.06861975643578087,-0.1287148809829317,1.9558070953951416,9.536283382727863,-0.005489245382163368,0.003921718500623707,0.0018492396102895614,0.3267243697663999,0.5472002678372532,1.0332775419825921,0.20782056458975826,1.9539924216756814,9.704719931636182,-0.0036184160437650117,0.003813889370938569,0.007379459207859731,0.42277630874141614,0.063736198571118,-0.5614866318913442,-0.4587427999149067,2.030966894658514,9.577939283428162,-0.007912048744673095,0.004597911746877133,-0.007668946552809334,0.30974495635767885,-0.10296012084517127,-0.6782652079257252
0.4784538614666642,0.16018608714070098,9.771143775753952,0.0003214194183743375,0.001630257390289431,0.01208800526964224,-0.40061106746965686,0.11531917290950315,-0.560112895432064,0.02132306035264239,2.3367964136127117,9.51804043063534,-0.007065720156509444,-0.004374213103235028,-0.009636610213004528,-0.9706863669615841,0.30179207367698013,-0.07232968928226621,-0.12354866942070607,1.9773328382663962,9.50837053962769,-0.0032690430769753923,0.004087538174182907,0.003924092511075235,0.3375045019243498,0.550297562893544,1.035395834453289,0.19594817582785365,1.9991381286198604,9.712062209388797,-0.0027606464484969152,0.0038702468876969376,0.004293721021989381,0.4291831030184331,0.0707820692457782,-0.5568765864980811,-0.4668923559015652,2.1090111306554222,9.585668035907002,-0.006941726883559747,0.003605268745475102,-0.005083938940129424,0.3131670234303074,-0.09685849737167744,-0.6765558604074774
0.49276159457411717,0.1740426530636881,9.733988429918554,-0.005187626015803887,0.0020592446941951766,0.009299753792955149,-0.3966511596445505,0.11847243914273003,-0.562493154888311,0.03487883631317757,2.3141013031778384,9.539918135278576,-0.01129376992268504,-0.0043227395402194255,-0.011485871051029533,-0.9692283139772974,0.30225543717628794,-0.07380987398780883,-0.11541806345717871,1.9581247976355172,9.543570670632961,-0.00729686397559967,0.0027082321726683554,0.0022489594528403187,0.32781724720203165,0.5633047895625615,1.0325033359959475,0.1926487617423354,1.9766318902663125,9.713666018562474,-0.004261296128593435,0.003632695957265067,0.007067087404759094,0.4228829865345736,0.0793548237959022,-0.5639657994807141,-0.46483431433973155,2.050430451002495,9.583623153188883,-0.007395837881592178,0.0032120305433818307,-0.00446217377716157,0.309036926210839,-0.08879512361817743,-0.6770888525923233
0.47587673393379804,0.13332133480498615,9.735162628126062,-0.006650504110613851,0.0001781519388164377,0.01080505201104577,-0.4016342703300412,0.11529263306489618,-0.5552394398261156,0.03592780385715127,2.2987270866163176,9.545468940824723,-0.009847858339565509,-0.002306030894082385,-0.011360831335751255,-0.9721301715913766,0.30163775215011646,-0.06743672872067004,-0.1189885699060604,1.9587784363893854,9.534829903270888,-0.0056469229951248865,0.003438888782934316,0.002297350348932077,0.3388014611924602,0.5588367509661777,1.0370777115941794,0.21488370250432226,1.96850966397771,9.715399633118155,-0.0036204125731995923,0.003814898723680058,0.007377460438923585,0.43315675963756334,0.08027598558265484,-0.5569070111859066,-0.4533697210421933,2.0636444069166386,9.562251726127942,-0.007285156609030889,0.004311748055002064,-0.00795283489656861,0.3187776199322454,-0.08977920886776303,-0.6726408159414736
0.48967488739458276,0.14867298035827511,9.75491065235328,-0.001954427781713731,0.0018036948472300882,0.01127465542463011,-0.3945317774261558,0.11524079608144698,-0.5576146601269308,0.03300010321206075,2.3260034678854273,9.527309665101422,-0.010132059339720107,-0.004343271015245077,-0.009466071065892256,-0.9623790981130663,0.30477820789067755,-0.0699786997594838,-0.13420860690592812,1.9644347224414078,9.52041502197341,-0.00400107635681635,0.0020740970959580896,0.0035123361489845227,0.3311619911570244,0.5469377998966201,1.0400846188128927,0.19843997129844984,1.9821610748769216,9.704760825784158,-0.0028321338746392978,0.005015599501358909,0.005035073123410309,0.4267409979308531,0.06983238597140762,-0.5532077435715447,-0.4671599872459947,2.063868468511581,9.582909088094803,-0.0053947912901612105,0.004743884889553738,-0.0044151014813098525,0.3133665431373508,-0.09952311998673041,-0.6689779741450788
0.46849935969132633,0.17594906050020162,9.731948391149734,0.0002946213547978849,0.0030531185953136374,0.010690195606266852,-0.39236260184652244,0.10865654639648618,-0.561549179461083,0.03360845548800062,2.323730260314534,9.527861791760797,-0.009021547413679042,-0.0052548155252185105,-0.008928620725434782,-0.964573850350456,0.2986459423077097,-0.07131960409478207,-0.13161757197996293,1.9724916678629942,9.521896289500228,-0.0057489454190081096,0.0029940878046403403,0.0038500339982095837,0.33414191091483064,0.5593519419741919,1.0334456490347645,0.18889938083479685,1.964166202209132,9.694833162802627,-0.0035519197995164814,0.0026705650139777003,0.006635111396496753,0.43068584414993266,0.07735277631524456,-0.5612903561679852,-0.4568492332068381,2.0814954665443284,9.6165908365574,-0.008650485266089625,0.0031340398236428036,-0.006087560927414796,0.3153842454502801,-0.09027404158472879,-0.6775392791910415
0.48675894898887334,0.15524648826371992,9.749659347179213,-0.007859686279882653,0.0011217712994814,0.010846584934138679,-0.3953949965709931,0.12018372259027998,-0.5644217020862743,0.025634526704792982,2.317431478220247,9.538553901042365,-0.009325035993622034,-0.003421405051027,-0.01220930719551525,-0.9665457798197097,0.30322563102812367,-0.07432760981159858,-0.11782212039620682,1.9454244595662595,9.521861711741284,-0.008066067420795898,0.004480905647473971,0.0021602587672801842,0.33248131460109254,0.5586503609670247,1.0415154667509947,0.21175173674238432,1.9745400262654502,9.711676753836652,-0.004704321142710414,0.00409710183524283,0.00470976731250044,0.425068389689838,0.07545465012842639,-0.5551713225541147,-0.4652482291394502,2.070573431042349,9.575970611215613,-0.009078913580965159,0.004339055658535999,-0.0057092858731625186,0.3114365484021485,-0.0907328405201747,-0.6699905319073521
0.48281639723580055,0.15118272392068732,9.783255283273311,-0.004888459408947407,0.002029284464001818,0.010635464736965396,-0.39938304395905067,0.11894712669069071,-0.5571441492962407,0.03532104331221228,2.306374432779412,9.533883005717753,-0.010175307504531033,-0.005223425516103043,-0.010956659758610656,-0.9679808620305433,0.30433786096513693,-0.06701698647187165,-0.11246262963022467,1.9509046200574187,9.532467282292673,-0.004829045380060327,0.0017102882187378457,0.0034866574145110026,0.33530165151524804,0.5490943011098632,1.0359021763882044,0.20973356059484638,1.9821706599378284,9.707606923275623,-0.0037787483473247347,0.0049415847645038645,0.005547006574974818,0.4308887289205375,0.07100856041864463,-0.5590773025248971,-0.4706046955545593,2.0567683757006163,9.570257311945005,-0.0077362793357730825,0.003915506375402822,-0.0073300453520473005,0.31803882465012395,-0.0990633505597671,-0.6753029001951941
0.47284351404949876,0.14872862721658947,9.748038995730196,0.0010147701796442866,0.00270922050863945,0.011064501331649433,-0.3950503023944227,0.11376806189773583,-0.5559213686926489,0.026684387895312443,2.3218059039239063,9.543579331595444,-0.008708776741519295,-0.0027646506564747665,-0.010086858798160417,-0.9662584791655123,0.29997791698260906,-0.06523326207178433,-0.14793576000524164,1.9708442552366843,9.53871333859364,-0.004673359229242951,0.002195130857336362,0.0030375556017329885,0.32485436782929156,0.5543043606791115,1.037669761427186,0.18652023486796143,1.961178638427129,9.695483827936897,-0.003494053840891081,0.005604862468695895,0.0060728703644947375,0.42136096971458437,0.07034200450528885,-0.5600350612250656,-0.4643796780634478,2.0804705965100085,9.610336173043322,-0.00720419989168797,0.0034905686211708516,-0.006564011168599612,0.30704897874422404,-0.09732673413841388,-0.6739005620157024
0.4715526879962334,0.16857824720276388,9.760771796423866,-0.0032642843289951875,0.000773778950585841,0.009633485088746788,-0.39088520443144026,0.11155918540232153,-0.5598045334569571,0.035335565379382865,2.3237597420032454,9.533947992649129,-0.009646472208338955,-0.004331079500180046,-0.010025475664369463,-0.9609119103675169,0.2979132904476204,-0.0715655427319669,-0.12199600727821444,1.9625384041759228,9.528565705341638,-0.004308331636704111,0.003202860022905147,0.0032439382210286503,0.33356970799433394,0.5544584545332101,1.0263798983681525,0.21000242592736432,1.983485444757655,9.691507155410513,-0.0033206693942694028,0.003709741182691496,0.006550157641721699,0.4252713849902371,0.07346436576762994,-0.5698159293112517,-0.48163728395345307,2.0677758783322235,9.611154332766034,-0.006310843389862216,0.0033150965623003213,-0.005367794751222979,0.31517064905413333,-0.09224656671405432,-0.6841268156952085
0.48628737901138736,0.16378445886258378,9.767822471216926,-0.004341500197852104,0.001134849592244036,0.010769030756527426,-0.3910228825613,0.11818465939285218,-0.5641510483980751,0.0277123702894572,2.32613958931232,9.548620622318223,-0.010690192062496348,-0.004094230853675467,-0.010118478807792796,-0.9628938719032136,0.30367714602497753,-0.07654907324299892,-0.13440778829583833,1.9659044894304833,9.523219238935724,-0.006266541213534623,0.003600969582070784,0.0029251561134532597,0.3287848061924072,0.5581800658042397,1.0369020778616447,0.20201596657464674,1.9752502441044122,9.701000988577794,-0.0038826347808544564,0.005693362761280683,0.004326365983936364,0.4238493373133064,0.07667541021879899,-0.5588340513326384,-0.4657079916178001,2.091930221763254,9.582105567007382,-0.006309845550348384,0.0033140944394753936,-0.005367786618056549,0.3085391014433027,-0.0909882487871657,-0.6761091069651437
0.4894682793463312,0.15581427887134908,9.756412730467616,-0.004307847616724908,0.0033971581603306697,0.011906199366077163,-0.39712051886272637,0.11873390732911467,-0.5642047907467288,0.03636318905089015,2.3188187605477064,9.53514646828333,-0.010582184667644382,-0.005894562503864767,-0.009967156793584803,-0.969982328160678,0.30829690929737436,-0.07709353645849565,-0.12618759006191238,1.9622221408712393,9.520020194690455,-0.004465016860438774,0.0027190227617602866,0.003692044509079887,0.33086718039303226,0.5410787137085439,1.0391222562751086,0.2096552180512029,1.952323964573013,9.721354670154506,-0.0049282091266814095,0.004223984750956239,0.008100888940565919,0.42888282769251324,0.06345586771752322,-0.5585672336806825,-0.4521659409460099,2.0348338594717,9.600873026150117,-0.007463835324177749,0.004019188168872375,-0.005848888930109099,0.3116684833811603,-0.10759095942046071,-0.674335656567167
0.484299163287386,0.1494205660891728,9.749872863264974,-0.002017897108496141,0.0009642622949574499,0.008741648785329133,-0.3937554333354501,0.1135717269852455,-0.5639671302925382,0.037719422344572935,2.303702270210615,9.540604112934801,-0.008337211344481425,-0.002958847840729274,-0.012577264108416503,-0.9672691760189094,0.2993376796098455,-0.07327443095305089,-0.14154280539292835,1.963781097325296,9.536182846419441,-0.004615593600282304,0.004331620783850392,0.0029745403177547235,0.3280831470773306,0.5611171641230192,1.0381214358698,0.20755096638998644,1.9805963810127263,9.692150714898311,-0.002123759368471712,0.004053473248595837,0.004602098952407103,0.42606749929599974,0.07862101018588072,-0.5554248673853242,-0.45229286630765275,2.064659497500061,9.57106960030419,-0.006745104943337639,0.0038787991001082954,-0.007184735683681149,0.3112083262636178,-0.0875632821026914,-0.6717099233967011
0.480477006085959,0.15590550234063166,9.761338520600777,0.0006220409330559111,0.00046310432772398867,0.011437157796377832,-0.39384513938323984,0.11519736491533267,-0.5527251182330689,0.023995556795372252,2.304297571089329,9.511968233059175,-0.009139264517896716,-0.0038778202859980526,-0.009840104567605777,-0.9655059607512474,0.301051830455102,-0.060128665330631256,-0.14230722455034034,1.955501529295514,9.513584331344507,-0.004467015882443164,0.0027200357137021104,0.0036910556514614607,0.3319200186376359,0.5513244667198653,1.0388490203666014,0.20366443365569067,1.9853534375911537,9.704536401234357,-0.00460541720813325,0.0033493447475121717,0.005924407320681348,0.42893880839190723,0.07151085820295194,-0.5593199171738907,-0.46943350505115516,2.08661298961172,9.583082407784879,-0.007824124078495713,0.0037667232545463545,-0.006278057289318353,0.313623752499892,-0.09635318986056654,-0.6702068107245555
0.4830099007690071,0.17815759850055118,9.740518949039041,-0.0025557254792621317,0.0015571435922822532,0.011998179824776117,-0.3940757597707826,0.10963849548827355,-0.5600930380161392,0.04577897773693742,2.3252853642262092,9.530525180769565,-0.010311610846323096,-0.0022796879833775026,-0.010828247386000937,-0.9623692910588054,0.2969629942232482,-0.07007722972503483,-0.11614199865606979,1.9543637848791295,9.526260228296785,-0.004832035915121756,0.0017133065171006264,0.003484670815648728,0.3270762404342391,0.5567317577645245,1.0386256769658773,0.20437859369400876,1.9757930434608175,9.709021336073604,-0.0022751652197751104,0.0030339988884300765,0.007252869085246937,0.42260626050836536,0.07375121316788402,-0.5600456505503824,-0.4716421347816623,2.0519436170494676,9.599790346462443,-0.008253557624556283,0.0049717441096790585,-0.005898787506428795,0.3078129878183679,-0.09196762240637528,-0.6778191164147317
0.48174009978645094,0.15546756769888193,9.744617038921412,-0.006683271539508672,0.0016060572072499322,0.009409223282303057,-0.400394231231244,0.11020824525100655,-0.562589898967654,0.03769339156910014,2.318817934111565,9.541245933963006,-0.009116696581723281,-0.005437596078736894,-0.010882148791543892,-0.9684871284882642,0.2978713414281519,-0.07324173356324637,-0.12831812877382087,1.9762580081626984,9.535957426199522,-0.006521139399265767,0.0047697795778087375,0.003759346713787175,0.33601922517991,0.5512766402922353,1.0312535386599158,0.1997717538787646,1.982429056198333,9.68120860091749,-0.004962602813560991,0.003831421917159491,0.006137897474505943,0.4296493722755294,0.06929880089294599,-0.5629778726717803,-0.44755094485277347,2.0801964464252456,9.55683831013035,-0.007653323836571194,0.0030913198113987107,-0.005942202460050061,0.31683171046937136,-0.09784540678189015,-0.6772657904897743
0.471332881894891,0.15442386559758436,9.766296206587201,-0.0016537572293887815,0.0006415414033867639,0.010623845473931972,-0.39826575408745346,0.11352466780771732,-0.5518023587719605,0.02848252004662371,2.31635863723273,9.543109702633787,-0.009700363265775256,-0.003634670495485063,-0.010486388076990491,-0.9686872231363961,0.30101563311352664,-0.061823721786712235,-0.129148584594195,1.9563249438583574,9.521193787367261,-0.0046773421535312365,0.0021991566991546125,0.003035573453461992,0.3262889896252135,0.5513617102605043,1.0364455164286106,0.19922156017578546,1.960859250186643,9.706537158999371,-0.003782734289809741,0.004944603441679745,0.005543006593648109,0.42307141966488976,0.06984837666207314,-0.557351013252338,-0.47413302619060205,2.0480999440123426,9.600488400595408,-0.0073602085144017304,0.004795274948223107,-0.004701568227248451,0.30801129540571437,-0.09878645354080018,-0.6716942529010689
0.4728253086415541,0.15520201325477861,9.749542909877912,-0.0007801102766869183,0.0022799862978672264,0.009839214777498514,-0.397657762711663,0.1126442526256115,-0.5654761099980902,0.02869580037834255,2.314111739099572,9.543654020812165,-0.009198120191044944,-0.0031883040936874626,-0.01029486541715175,-0.9699575934122365,0.30030182397994876,-0.07377012496436708,-0.13539812240228014,1.967036375492083,9.526090477222802,-0.0030254105870821234,0.002926802585545961,0.0030859576155243744,0.33020899414937127,0.554502852619273,1.034947475637266,0.2032259188876375,1.9846822414290421,9.688862770592094,-0.0033771118477999244,0.004086653690479043,0.005936343165749719,0.4257614494542065,0.07128590160634576,-0.5607774993193143,-0.4794164809394801,2.087337008626253,9.61836556467141,-0.006546644225402274,0.004798654127649466,-0.007089351870883529,0.31241605146463547,-0.09733605426214982,-0.6731403590499696
0.48355568833102225,0.1666154807553365,9.745966972891114,-0.00447648518034275,0.0017174131220405917,0.009676989645463846,-0.38963096524880686,0.11447951789175666,-0.5602590312280151,0.03887671731210255,2.320899890070366,9.546844883201173,-0.010742091576011768,-0.003394838510276749,-0.010580455853209679,-0.9606823543483451,0.3022712160375295,-0.07360160721691762,-0.12121848299060961,1.970410030442746,9.533194572902678,-0.007097478092259289,0.003243178910115225,0.0028974841305662528,0.3300363145369478,0.557692937620477,1.0420218946548636,0.21698277279880707,1.9778146615019938,9.695621043330917,-0.00501603979836341,0.004208320353374159,0.0055270774867565535,0.4245779038542515,0.07472970629260466,-0.5537036464726874,-0.4636655205070645,2.0753549025873568,9.564453886323125,-0.009255609483604047,0.004038491565431063,-0.003605306361872868,0.3102076686601515,-0.09488021605998906,-0.6699849901153334
0.4888221565396599,0.14164695834486662,9.761953004144845,-0.003099122412725711,0.0013243725247343967,0.009877149319852858,-0.39554065002838473,0.11352890095140383,-0.5559277905006091,0.04751755488432313,2.3225950721315067,9.537288451867768,-0.0101976501607251,-0.0040711633641635344,-0.01068511834570661,-0.9694349180815149,0.298735678410713,-0.06617258690558657,-0.12173643107202345,1.957658391707836,9.541243853451851,-0.0042173921340573454,0.0015572569062033655,0.002853885161612702,0.32704240072425794,0.5572075805203808,1.0330097338946702,0.199709264965847,1.9796894514151444,9.705775489299368,-0.0017695739653302562,0.0035724076918673825,0.0043846118715699465,0.42433998949598706,0.07715753984997656,-0.5598131353200323,-0.46199862026538757,2.0355823819607184,9.588522046007403,-0.006375849230729011,0.004123253575470634,-0.006752497059561071,0.30926700959528786,-0.09049898608232074,-0.6751296843148433
0.48197598250172946,0.15247183467405462,9.727985867946746,-0.0027339826266573565,0.0010016417551979165,0.011759355415641614,-0.4049382966168363,0.1161415792935839,-0.566496287057777,0.026892679477954547,2.3147281928092105,9.527747217712783,-0.010195662885007544,-0.004068198774801387,-0.010687182793607685,-0.9743642515643697,0.30343646788568795,-0.07551941239485149,-0.10763937421667123,1.9538378857961554,9.52553652062302,-0.005906488058341108,0.004614729935878777,0.003128558843234078,0.33409865938870986,0.5491093652747884,1.038595250656475,0.20475187011872978,1.9765736859832408,9.677212599931423,-0.0031048482322530227,0.001439780290666207,0.007630280215646369,0.4291573540636739,0.06760400562962388,-0.5585778230022171,-0.45917191394566326,2.0981616560094265,9.618709505455307,-0.00807977554460137,0.004290337208362747,-0.005561899656358407,0.3145992241122584,-0.10197658329425735,-0.6723824741689766
0.4650102774664065,0.15417500343010035,9.73776035380754,-0.0034561603610809865,0.001343552338761048,0.011386015794451641,-0.3988616847715392,0.1189676290562934,-0.5605573016881802,0.037235432522372644,2.3215993349315145,9.530924830873206,-0.00912735078924073,-0.0038590704251495705,-0.009854509628788364,-0.9677590101154223,0.306696364569188,-0.07145697470129692,-0.13494523864726182,1.9597500171588882,9.536147480779762,-0.00544653891503703,0.0039718323399620436,0.0029478727432199125,0.3312368093401872,0.5559726357620228,1.0410415728999307,0.197247879212831,1.9682650211968844,9.686694719048592,-0.004711293054713398,0.004103132068723382,0.00470176551725233,0.42822923736486784,0.07372190842039379,-0.5556619610651413,-0.47203380050164306,2.060161320702177,9.586876302415748,-0.006662149444135752,0.0030546125361041836,-0.005796892791683909,0.3138783435256762,-0.09440425186412,-0.6714321311298361
0.4824058877896594,0.16301260165182407,9.746084377663399,-0.0022707471119196286,0.0018257643204561817,0.009946723943080847,-0.40125397273574936,0.12169464531690977,-0.5630019475951837,0.03595946988158124,2.323369316966135,9.522625556450917,-0.00930017836240384,-0.0013730984846006661,-0.010453493051562372,-0.9719289834100313,0.3105321570733386,-0.0749297370869706,-0.12365344709883856,1.9653065461211703,9.534216926838978,-0.004889667446623698,0.0016792906365489387,0.002379102397844097,0.33043722785540003,0.5532779283173147,1.0339725793197514,0.20471074494148875,1.9660821282571859,9.681897195986652,-0.001811674969197556,0.005110349022294485,0.007084964620682084,0.426516981870841,0.07421316424501888,-0.5593220044853684,-0.4611004530124184,2.0575338966592764,9.580639156307257,-0.009062972468177421,0.004319030392026664,-0.005706144277338953,0.31269137210619413,-0.0958871106407365,-0.6785141996622596
0.46889020468710213,0.15783430704965493,9.744412740656033,-0.004964498675816021,0.002320116877745048,0.010093860142255962,-0.3987334385355693,0.11184956810493324,-0.5557254918620713,0.0309534576817471,2.3269126044243356,9.558884192854451,-0.009168611678334096,-0.00473626033664539,-0.011347162769407837,-0.9726201068113821,0.2954894242642702,-0.06976079018464279,-0.13577116099692216,1.9688373483861872,9.528841137478375,-0.004471998755818549,0.0027240691300085304,0.0036890801702988128,0.3209472195142972,0.5557952070443821,1.0359836048034419,0.20571234273298472,1.9751641228218375,9.701486362063637,-0.004020974256327591,0.003908462452061626,0.005621965874209411,0.4160254557403404,0.0747804657670398,-0.5578389675889509,-0.46250550388141276,2.073358134849696,9.593530267614993,-0.00771550807115054,0.004537799419772449,-0.005130695920625554,0.3019276448534904,-0.09291872950753768,-0.6732081659196727
0.4684181232259097,0.15675455805213323,9.744452265285688,-0.0029289609616512616,0.0018749167090539836,0.010120860586888502,-0.39938319402067635,0.11846278815321841,-0.5576367760906811,0.02669568110115103,2.3187574569938834,9.525017007689792,-0.009188195127349228,-0.0031715189988423542,-0.010307224773998959,-0.9679875015662807,0.3030804591799546,-0.068946739478654,-0.12452764298999597,1.9743462705714947,9.526924009630747,-0.006274499502250946,0.003610021234674587,0.002921189600394196,0.3267944017023123,0.5489277232878729,1.0418185430476945,0.1951004540792564,1.965679620871554,9.687263977736247,-0.004256224836827985,0.0028703050171379058,0.00570292453456659,0.4223310926614126,0.06742352321937677,-0.5524617276491679,-0.4634437233400509,2.0705943843185155,9.58007609301196,-0.006204053293710609,0.0034458480159438314,-0.006416631217376802,0.3104281458974487,-0.09926794213066076,-0.6672850999848686
0.4652155496534247,0.1422851597979737,9.743213572557305,-0.004418549506141174,0.0014236994480180086,0.010226401818014624,-0.39350611123826085,0.11575348288265254,-0.5622394712706293,0.04483269125894748,2.3210974067522163,9.514044694001948,-0.00868694211689573,-0.0027261162307048534,-0.010113679446887304,-0.9643425735499866,0.30251952911452573,-0.07310254809043254,-0.12524079074147382,1.961578085594346,9.534963630434858,-0.0051432741192978014,0.002846095285865935,0.0032142907394218595,0.3304424144414122,0.5554711584413746,1.0322587518131912,0.20465274616061374,1.9732955939237942,9.701888865307097,-0.0023830481286734725,0.003786800479690803,0.006030233390461713,0.4284718436916613,0.07541132269017217,-0.5629905499194344,-0.4604332058554681,2.079545931742308,9.57276488010338,-0.007618685875634735,0.004678566319727611,-0.0061816136825520104,0.3136722550755601,-0.09466890420487878,-0.6787565788693766
0.48829313311824035,0.1778998809140866,9.754095110189736,-0.002273775928457851,0.0018237866953109197,0.009947680640087542,-0.39646050548185613,0.1181852401462525,-0.5571220870497271,0.028808563073046946,2.3283285650883925,9.542808827119408,-0.009752283919356924,-0.002929335459958464,-0.010951477029117227,-0.9660514077484275,0.3069379836838921,-0.07171284060297896,-0.11686826747514079,1.992180993833744,9.508459730958636,-0.005292836666503551,0.004459687868436986,0.00249777763978933,0.3282168253925568,0.5469546983620379,1.0376632070218759,0.19956588771231457,1.986695982081999,9.709995745923981,-0.004683896045488742,0.004497730109922904,0.006658764952552975,0.42523496512742165,0.06495164934552376,-0.5566111114893204,-0.4586691429351002,2.056753471765206,9.595499436866273,-0.006635320142635948,0.0040095470569085296,-0.008232556407530154,0.31239556623269726,-0.10270207897623117,-0.6714159225845873
0.4785433899509506,0.1567747506794273,9.763041754574116,-0.004839561146717121,0.001734637533265566,0.011187784523102526,-0.40306322026196906,0.11194364714634852,-0.5626023414558682,0.00792125654466208,2.311583319377666,9.529296442352956,-0.010052117155333202,-0.005414727936550471,-0.009806386086045959,-0.976781452972326,0.2976439864337015,-0.07173679068738904,-0.12366349835520987,1.9496553759925148,9.521692585356243,-0.0056659926921790275,0.0013555320706041306,0.003454018908132605,0.336596889138787,0.5549549242990957,1.04051893925112,0.1878036562214898,1.9653571327979684,9.71656439681969,-0.003993584363487088,0.004302060521568245,0.0075789677529644744,0.43019622485958964,0.07517770878689928,-0.5537151288976213,-0.44727285312574394,2.0700778695305098,9.574230333952112,-0.008170440935200094,0.0035012286142255787,-0.006707114663947133,0.31630905642633067,-0.09440380335179896,-0.6694663425874366
0.46124360438086354,0.12541565195876886,9.742037801740018,-0.006392123149535926,0.0015761611776753304,0.010746858824007879,-0.39886687002802235,0.1172678088842588,-0.5617910384898762,0.028592520447824222,2.2969061477162596,9.532054910527041,-0.009359107788432141,-0.002678484401002501,-0.012698181433500435,-0.9680190777359394,0.30392454126304,-0.07604374288731344,-0.13568467434224563,1.9603682486114469,9.539135157590271,-0.003647021143805817,0.003089898502626068,0.003713774497745184,0.32612981513811756,0.5599151757254514,1.0396021313912909,0.17150914492693914,1.958692088875978,9.730964806264899,-0.0015583705308577212,0.005381047390769971,0.005649831437029066,0.42483057924687434,0.07594793426537104,-0.5537070746401819,-0.4818745150570883,2.032387825290247,9.61798351626787,-0.006198252952224073,0.004079170037501633,-0.0042183922465074885,0.3102227431887686,-0.0902440704384355,-0.6709753317403987
0.5076281613938858,0.16552265312683095,9.732995155500628,0.0035840057996526947,0.001349663525980877,0.01123179490529865,-0.4005392556734086,0.10549179250887163,-0.5521274725548956,0.04808141265071746,2.335141542044435,9.536886732882321,-0.00693857778518546,-0.004552643829471505,-0.008493596086517528,-0.970878291510505,0.2907239510895945,-0.06357473135214886,-0.11237814225939752,2.0071087686568414,9.511733467566527,-0.005450514279465068,0.003976858150747595,0.0029458883784318456,0.3324651537074163,0.5625414329649009,1.0346709777610952,0.21373422230871253,2.0021692838793124,9.675491768888662,-0.002285170782657616,0.003035053056406659,0.007245885000390537,0.4299983399942793,0.08297876475579019,-0.5588607460958118,-0.4526782953049357,2.122150775064613,9.563805242006053,-0.009155451131047251,0.0028905912979235197,-0.009049559963632176,0.3141701846679204,-0.08465365635263648,-0.6765858809218934
0.4757558273281516,0.16239574559803183,9.75781460862733,-0.005672964424121843,0.0012332728927113607,0.0111211626467178,-0.3974540972822211,0.10970301632361139,-0.564274891280018,0.021246269815882513,2.2976107181670646,9.547134843787259,-0.010289841639123323,-0.004242054606472657,-0.01264488310572573,-0.9660483123884956,0.2956550317940127,-0.07443180861849769,-0.14603307855512238,1.9301881379353238,9.535793610819105,-0.007417828682768762,0.0022825463620047204,0.0037887279842174024,0.3299349091810111,0.5518156109555579,1.0334900921356056,0.1864590465153924,1.935778599750982,9.706224722137835,-0.0070809966666781545,0.0018838181571230396,0.0058825485427139845,0.42847083369725286,0.07420044562318874,-0.5588365858237104,-0.4583711035439726,2.0743853622983495,9.560571400695475,-0.009772926144349086,0.005081735165439907,-0.0021720111154019286,0.3134059596645411,-0.09490038556949369,-0.6746072325194189
0.4742975830977386,0.148377089841497,9.739810579924171,-0.00789943213472394,0.002555715609926807,0.009454735092537877,-0.4016368327167901,0.1145633057984863,-0.5557329052987123,0.028959579730492464,2.3212066704172263,9.536681580489644,-0.010289781879145567,-0.002240172483590403,-0.010856086593398744,-0.9691985538742303,0.29894791207769955,-0.06788689196365301,-0.11959880822284748,1.9860032344738867,9.509718393151921,-0.0027180011586643593,0.003900520202566687,0.0021887717676515143,0.3375045822635304,0.5522457435806972,1.0331945598216838,0.18697633306772118,1.9924227444899332,9.711636125506235,2.9102731569617727e-05,0.005633269867962228,0.0054502807841178245,0.43503489512602433,0.07169892510951513,-0.5644586756201282,-0.4626590239778611,1.9934598573132558,9.635863205184808,-0.003387473701322927,0.004986100378522358,-0.008749346600640803,0.3168476658321612,-0.09638747597077804,-0.6797119654991325
0.4705255803251539,0.16312571297909761,9.729216362179162,-0.0011681760643805965,-0.0014007876808656548,0.011611383748535023,-0.3845755543328687,0.10928598133978176,-0.5580524353079803,0.03496814730563857,2.339999243971841,9.513415284504047,-0.009177275731173377,-0.003153751520995558,-0.010320606983013854,-0.9540573733321914,0.2935839316487192,-0.06858407540500715,-0.11455519749164293,1.9801806363469594,9.528085748319294,-0.008804652200540154,0.004215289881039495,0.004329824112632003,0.329639108952857,0.5466863880337754,1.0315501311969046,0.20903715060167868,2.0050640479576964,9.688283482585799,-0.005086892022947478,0.0012790861642832043,0.006077330181190799,0.4237841432770576,0.067640477505472,-0.5593009748845089,-0.463678059148995,2.1953167893093766,9.558927915288471,-0.009967025215867531,0.002880205014107335,-0.006662745636970673,0.3097344746236058,-0.10246577253222702,-0.6760696526705017
0.4716861524814234,0.16576331217586532,9.769354820193232,-0.0010736805357345024,0.0008732419470195433,0.009908010375910513,-0.3979226472507404,0.11941338458157635,-0.5561507762376453,0.030380682539176446,2.303892579261242,9.542603237626746,-0.008586657256167102,-0.004949837921918756,-0.010725527292951516,-0.9672644231383599,0.3064805142395083,-0.06998976736853935,-0.13324918215692672,1.9418637921032387,9.535764877015739,-0.005818539090755773,0.0029721451175397763,0.002736519184955855,0.3312566594456639,0.5525695486201896,1.0478849802294998,0.20082280885180318,1.9576425785506217,9.707689019782439,-0.0035050311945891977,0.005610913894620535,0.0060618759136187245,0.42674829480155413,0.0696002602623333,-0.5483241701451627,-0.46056919600953733,1.9467736931878157,9.591282339240827,-0.00672154378353241,0.005134426335785433,-0.0027851630775324082,0.31308835287889525,-0.09705944060039945,-0.6616624250158972
0.48146330175218943,0.16484653012647243,9.747744153826572,-0.004497209334990995,0.002837713405015796,0.011674240952981203,-0.40328053545398324,0.11560054444557617,-0.5616012259529309,0.029033801497120895,2.336418136053094,9.537411193632463,-0.009695187463461461,-0.0040313295291480805,-0.011265117055572855,-0.9743461476345062,0.30474423040237325,-0.07090415601544238,-0.10985909959130499,1.977190613726883,9.516162543161203,-0.0032407197315455836,0.0024099569873048824,0.002428499936362259,0.3314338767279356,0.5508413020033421,1.0398303403451712,0.2039580314647925,1.9902705881588332,9.68575182009393,-0.002907986247443709,0.00208739116692924,0.00558133255602137,0.42601565206590947,0.07032973809815021,-0.5514986024895291,-0.4599712264080126,2.096882495980143,9.580558324618968,-0.006795776720714584,0.003402271279992801,-0.012960727599156223,0.31263536372891537,-0.09927826909143676,-0.6692275231618147
0.47064169969345654,0.13129259038332028,9.738618210938558,-0.004236666729203803,0.0005445237190355338,0.011868729036635104,-0.3968498794577754,0.12238598418103497,-0.5631990845370654,0.01913027851274828,2.316073040520111,9.53134279901347,-0.009128124109944824,-0.004267585198292175,-0.010624989402759966,-0.9660600825247395,0.3071453231193133,-0.07367005293350805,-0.12515035776286051,1.9786001106211049,9.532338091468326,-0.006900099666953358,0.00377714082757113,0.0035460243590259557,0.323116648596965,0.553090996953969,1.0347539319842813,0.17701802537647357,1.9629782871059622,9.706524084202611,-0.00595056338591887,0.0033738720647200405,0.0046778303390635585,0.42065775986701465,0.07401267378065758,-0.5585776745292483,-0.4686030861321197,2.1051806128854387,9.566165783198864,-0.009625973593491209,0.003440387993610467,0.0005985547851541043,0.3058306166978361,-0.09610314216917723,-0.6739104926119137
0.4759737306733723,0.15721570232184623,9.741226081152327,-0.002651631132888606,0.00326674613565005,0.010061801181712514,-0.39207991715854523,0.11377169570330696,-0.5602874968797202,0.029107080253557023,2.3143048140636573,9.53050121347219,-0.008128606743924268,-0.0033787457370050484,-0.01023584875070451,-0.9645872966850636,0.30153323262209125,-0.07357109778488301,-0.12907326336949168,1.956768935261429,9.539035762631988,-0.0033376269369343433,0.004061601032735855,0.0028165797486897678,0.32421839959709803,0.5570206821299256,1.0491424116521118,0.19685383499304315,1.972059857905476,9.69976028618163,-0.0027452249159950664,0.004270905906039226,0.006240727834344255,0.41922625860514734,0.07551832463654157,-0.5461276275157851,-0.4772591029543516,1.961628768457837,9.63892167247394,-0.0056163193400009985,0.004933780807379479,-0.010519922433928143,0.30456031962371827,-0.09265080630719964,-0.662940941917396
0.4954410247663934,0.15850654980178291,9.754861197231017,0.001218351445660883,-0.0018691155023200982,0.010130431184991226,-0.3945215681864234,0.1111299200737847,-0.5630164224524178,0.028843523815387996,2.303321325441953,9.527023628577355,-0.009326580537329985,-0.0022166872526455934,-0.011968843808181976,-0.964596678195968,0.30149202156928284,-0.07576869138616135,-0.10886766386760038,1.9714265642979825,9.525918642452773,-0.006133915243919921,0.0020054813811900647,0.003630742928121848,0.32557158670240477,0.5579469527325118,1.0313089208993504,0.2061616192840309,2.0002339623903747,9.689342545876437,-0.003337652135596709,0.0037158280428026434,0.006536174200407161,0.4235925194850533,0.07569246144629457,-0.5620052021196119,-0.4618380291057794,2.1906317436684817,9.54674989616454,-0.006552363685022702,0.0031833576148271427,-0.006845707738087987,0.3068327000905508,-0.0963633374945863,-0.6787875697352203
0.4757678834574929,0.15644449475802008,9.7412484153685,-0.004142180681155598,0.0028185459353669362,0.010166355591601539,-0.3925891092921605,0.1125483681706141,-0.5593243213407763,0.030752320195125724,2.315094932628926,9.54430292891584,-0.0081049961306602,-0.0029367130952434855,-0.009493100016233299,-0.9599271977806141,0.29918111948036924,-0.06915207040668235,-0.13583180408608472,1.9658569356926028,9.54428037944784,-0.005768888527550893,0.0030122127437933635,0.0038381277392526346,0.3337166696118172,0.5620553047501053,1.039790792337797,0.20183213349780615,1.9656423978107722,9.711689728915069,-0.00590211943295264,0.0029989994548595593,0.005284654621535344,0.42679767211420155,0.07861342325921772,-0.5564032042874714,-0.47032845390227435,1.9776546375375985,9.596774952685141,-0.008280328674398053,0.0030218322904363624,-0.0010222033322277583,0.31412954548956823,-0.0880532824509858,-0.6702281518580998
0.4788798466936163,0.14817201205262887,9.729832780094627,-0.007121299251894157,0.0019211184435709,0.010376475648829106,-0.40035289149141734,0.1162963050986595,-0.560591240338146,0.028721711795011436,2.3298078021487307,9.53118331360065,-0.010119698030541179,-0.005143585228113529,-0.011023406405090636,-0.9721415595587076,0.30379774660522285,-0.06943054723500623,-0.12175787407358572,1.9547428846675816,9.505792436753843,-0.00587315653144573,0.0029391086484926976,0.0016319285246271609,0.3255103091282905,0.545750379631084,1.0359748634236898,0.19393954049771053,1.9778868171219637,9.696099498850486,-0.0017986246760779377,0.004342920699508465,0.005728799269688583,0.42157101648041373,0.064249900159569,-0.5548936198904759,-0.46187572778606617,2.0817499150389907,9.575846994492512,-0.004988223369468975,0.004016280176160203,-0.013002018734137638,0.30824732851066783,-0.10489375821441119,-0.6726523755430385
0.48354932626310165,0.14280645297743175,9.758529360315288,-0.005002447730582769,-0.001372760891489167,0.010356149392394123,-0.3881484528677554,0.11883981150666736,-0.557527461783209,0.029867268228811104,2.3057113437137833,9.532581475375919,-0.009166356334997525,-0.0031359840431487624,-0.010333989192028754,-0.9606579527369271,0.30507931866623744,-0.06706215233229586,-0.12222618465198037,1.9719460051394377,9.521152683927406,-0.00561318813318284,0.003498057517360995,0.003390023685275605,0.3288055850951123,0.5576990128778732,1.040565071353208,0.1859433268047605,1.969699559940653,9.705541233300458,-0.005049060652270651,0.00498484466222908,0.006864257587178566,0.42483496193058634,0.07643810643249588,-0.5532202717656427,-0.4511523614397823,2.1141237855689297,9.580936762180148,-0.008782777241289572,0.005038035846474074,-0.0020246865780975043,0.3109361000506039,-0.09414695492791147,-0.6690062701239224
0.48079756926894646,0.1704244571180326,9.76600350553296,0.0011695253601996822,0.003230818723658307,0.011320852918694274,-0.39871739606293105,0.1113768959891544,-0.5579270024139509,0.032050065129181245,2.3174984010128807,9.549864354705461,-0.008054844519505472,-0.004050545463555604,-0.009797486729476177,-0.9682345325967614,0.29545396619833947,-0.07197725370421941,-0.1289368753992401,1.9523209087757485,9.518797985982754,-0.0049439126678777895,0.0033760465104799276,0.003864826450369257,0.3280360728931554,0.552091319331147,1.0413153793280066,0.19536139941076167,1.9769816938709521,9.72025418092523,-0.003932083001017087,0.0031607595606146467,0.006829624240988341,0.424569072757339,0.07399197814383168,-0.5556558463062689,-0.4705757232130158,1.9670400345158172,9.60508649084471,-0.007603552576335836,0.004024211282721576,-0.008375681928709628,0.31166699532019476,-0.09512450939226182,-0.6689996087337893
0.4762713954182327,0.1532021503465581,9.72461295359484,-0.006466133506827311,0.0018689810945296162,0.010204288125105836,-0.39625906373965886,0.11548536832338355,-0.5554310650615263,0.02928629256802258,2.314509261880036,9.528749291374401,-0.009252821091396614,-0.0028864873324786016,-0.011530519274085037,-0.9662629362645307,0.30167746542405893,-0.06575320459690968,-0.12350570768992478,1.965122360401993,9.55223478305685,-0.005771872378921891,0.0030152332081579587,0.003837141115708415,0.3238213546913685,0.5499104939175307,1.0342680989309418,0.19910089263569625,1.9822361984231445,9.68750034003089,-0.004029956930533464,0.0039135020948978605,0.0056119701969339925,0.4198584807025504,0.06570763542141089,-0.5624620299028842,-0.4565507180625737,2.1650804955382585,9.556908690183523,-0.00690665372174658,0.0029278770532454403,-0.007275835919601466,0.3051039994066222,-0.10197042710867152,-0.6773154043216195
0.4744892906239707,0.1594216903302796,9.719337772660202,-0.007153181519917356,-0.0017687891760096212,0.010634844145258737,-0.3941940248687472,0.11894533932269147,-0.5636874413335704,0.029527985074039247,2.312089181107681,9.529336743319512,-0.011135817237379171,-0.004463736379233786,-0.010375696361805974,-0.964105746298038,0.3061720519678787,-0.07366014441257654,-0.1296412409283159,1.9798234919856414,9.526650316909578,-0.004639663042771952,0.0022483019439610485,0.004131242212496997,0.32804133313465783,0.5562327279763584,1.037399277214523,0.19641853970581402,1.9780360062416475,9.704213588111323,-0.0045739454636106935,0.0029825540804548113,0.006515243284258654,0.42652588211374143,0.07470927131931418,-0.5563932130014095,-0.4681321478742421,2.0077312549730393,9.595779508827672,-0.008708606293621794,0.0035805249758178136,-0.0028380983633827274,0.3121736849227599,-0.09538013652235061,-0.6726592766718698
0.4801248239234907,0.16670204299355315,9.766100545658906,-0.001340329158379944,0.0031594617883684176,0.009717413027912127,-0.39851491664241917,0.11182725785933642,-0.5530383909270198,0.034070048745357503,2.306727161081088,9.560313618675815,-0.008164858739948164,-0.0022421990951235265,-0.00994795029011099,-0.9689539015085025,0.29772287230950756,-0.0681090085688222,-0.13606757436854117,1.9604191433194231,9.524246239050008,-0.004071670853820929,0.002051164180380207,0.002399830194674269,0.32679777179070146,0.5564790369247576,1.0337449650924193,0.19798226235973496,1.9803620995477325,9.687906966039508,-0.0018006212055125185,0.004343930052249954,0.005726800500752437,0.4248205083311026,0.07641911813203611,-0.5610332353223161,-0.46022471944463506,2.0779787292023637,9.577367587417047,-0.0058000001192367034,0.0046402315740490365,-0.008415999854803504,0.3087677912865764,-0.0951352117063595,-0.6748748960826705
0.4736323413690604,0.1485281237187096,9.74147651305919,-0.00193654984168633,0.0029178829969751206,0.010438022203781143,-0.39032837125616837,0.11693762173175122,-0.5614685122624676,0.03856781778059583,2.320839094565143,9.524258165356695,-0.010088129878475415,-0.004692674949638111,-0.010287859416421404,-0.9604359104319709,0.30277317374687085,-0.07287993703316689,-0.10996225133676785,1.9632764340177868,9.506450131012805,-0.007012131444409209,0.003336402474017161,0.005092765961410342,0.3396903148734503,0.5488159672059412,1.035384434013755,0.2011364494718284,1.9924886632543892,9.691044673854185,-0.004388130126102265,0.004397583898455279,0.005824457301108884,0.43428735081191344,0.06733122487184853,-0.5554126354846697,-0.4571991608458811,2.0867355415845372,9.570160018265875,-0.010050080550734381,0.00335474032659942,-0.0034144950234021644,0.3216860404956681,-0.10175118997646843,-0.6735669607244642
0.47070305987374345,0.16636627017269578,9.771051091568568,-0.006458431096934931,0.0004382933577925097,0.011603858871024707,-0.38884331577649456,0.12202623527777359,-0.5582424849219869,0.01986589480392318,2.326838020224253,9.531505853119773,-0.009179054598774493,-0.0035582683096875697,-0.01109115743775148,-0.955531898630911,0.3095031464376576,-0.06594576881799274,-0.13127315679392487,1.9645682118947205,9.535157477067651,-0.005511106106587454,0.003949860444427892,0.001838324495696657,0.33432116604002027,0.5525100757370656,1.0315062225748635,0.19934074665765866,1.9794014556609676,9.712073900345189,-0.005670856644879591,0.004040173136612244,0.0051986959845159025,0.42943293521999726,0.07248097645061301,-0.5602991935717053,-0.4759330224893315,2.0079154405694326,9.603230176912195,-0.0075975738893354116,0.0040192043212638655,-0.00837363604535226,0.31658141166689197,-0.0961309554606882,-0.6755630297383162
0.4730542441243508,0.13680180024619282,9.763609724719352,-0.003478361329947966,0.0013317038650912606,0.011394718130520983,-0.3961805248388043,0.11506254568242075,-0.564223090860814,0.025516388380899875,2.308609093934716,9.567275129582505,-0.009655695616795036,-0.00356263695043778,-0.010541939580322995,-0.9655729384925434,0.30247673854098434,-0.07529389951705114,-0.12900485171276077,1.961026571384446,9.544459217203496,-0.005363563508627207,0.002336276512827737,0.002551851003591721,0.333939636392653,0.5566889696369338,1.0427309981584474,0.1892890643161228,1.9883725180411191,9.713005696930438,-0.0033436541067264204,0.003716858587988221,0.006531182775843113,0.4336120138232208,0.07466716247691121,-0.5529882037148871,-0.4754260457304675,2.1233314875735467,9.581488782786932,-0.00601530029061969,0.0027534121374393453,-0.006078632906753981,0.3175308515784589,-0.09342870409244354,-0.6692187460595118
0.46257654471411536,0.16396187716941765,9.719070463189853,-0.0007974186127719946,0.0022600668097516926,0.00985090389616423,-0.40017172130214895,0.10825117553536727,-0.5623582775964859,0.031349224182606154,2.3187484314863016,9.540036091594253,-0.008590355203576554,-0.003358417897825396,-0.009704160741658767,-0.9711575708228896,0.2949886850367391,-0.0704907790259107,-0.11459076482453873,1.9686009685239658,9.521057894160736,-0.005364563457714309,0.0023362840873159055,0.0025518576707000704,0.33420499199801124,0.5605903555598833,1.0414997438049867,0.20648499576331125,1.9759374797437523,9.707557081491023,-0.004269196870018344,0.002877368226150951,0.005690931310089984,0.4273048374094953,0.08105325362538097,-0.5554330676230795,-0.4618923164780499,2.0325507355340013,9.602273614988729,-0.0069038650125724825,0.0035582083729214444,-0.005076604087679999,0.31462569043266464,-0.08903696129965893,-0.6721757396271395
0.48541526806458246,0.14895770402791453,9.743327540137843,-0.0024011745567462887,0.000968625964390422,0.01026015738130478,-0.4086940600588993,0.11150110711762581,-0.561438920850805,0.022061558475704655,2.3162094604324723,9.541923686281857,-0.01008217658772939,-0.0046838186802348435,-0.010296052390335072,-0.9784837962204161,0.29889915116437327,-0.06979970009462906,-0.1269466822808561,1.9605154310870914,9.523451049644521,-0.005826496503302282,0.002982194573109066,0.0027315504800616668,0.3365550220890409,0.5537233856031624,1.0356387661404032,0.17603858324598276,1.9751062308816627,9.715376462294767,-0.0020873051249965975,0.003682661672492315,0.005198935498841955,0.4282186717201642,0.07274018960889944,-0.5576125647005093,-0.44250502430307853,2.0863737967227243,9.592303565269834,-0.007140676098951599,0.00504677959918769,-0.006794180931288501,0.3168323993506009,-0.09393519668975084,-0.6758120650821492
0.48318881684967185,0.1468132840424477,9.760129755197575,-0.0040872931116188085,0.00252184730090087,0.010717716884236698,-0.3924129634130721,0.1103129422748281,-0.5544568669040373,0.030943184245181037,2.3272056629326894,9.536317569598697,-0.008675827016738222,-0.003106938980794775,-0.010901732419448437,-0.9611194129854043,0.29881062954059234,-0.0627908591926138,-0.1273671106944011,1.9705883974980107,9.51599585758572,-0.005776861935987711,0.0030192644584625637,0.0038341656592277133,0.3287384470200259,0.5518327913042553,1.0371601422896157,0.2008670688425794,1.9887280146854145,9.715821427443332,-0.003441520919858645,0.0044706010939643374,0.005313526288334346,0.4252802729595643,0.07081522996177003,-0.5546724367984225,-0.4714661710650675,2.05530662757485,9.573179069868177,-0.006999692699002995,0.0034124364849556143,-0.004026666655643093,0.3111722432645951,-0.09780945086555894,-0.6689944426473642
0.4708261783712085,0.17226774145495194,9.73237719753732,-0.004201519029344454,0.00167661668629966,0.011022391543275804,-0.4003867232282781,0.11190988125372126,-0.5616011444257395,0.035404740089457924,2.3220334357363925,9.567234218952697,-0.008674839730946838,-0.003103975700417127,-0.010903792573852742,-0.9699399987804415,0.2966944065876107,-0.07077200902491637,-0.12783279680629156,1.980616732149391,9.508553064993883,-0.006239788246972352,0.003665184684745707,0.004014865111015713,0.329551330329631,0.5603772709809336,1.039578261554623,0.18900876554560447,1.9881720225070012,9.697255629275343,-0.0036533886157708076,0.0038250702403391707,0.007351496601279763,0.42483057924687434,0.07594793426537104,-0.5537070746401819,-0.4650284657837966,2.0599269978600576,9.587119742955911,-0.008215506685955389,0.004291354721881049,-0.00808766014023905,0.311201753727073,-0.09122596389467917,-0.671943373375079
0.47406786618705765,0.15499684728313723,9.743008696331493,-0.005096857281863944,0.0014699977438218405,0.010407327297700846,-0.39869720568519346,0.1094548028645499,-0.5620913582307603,0.033453942891956724,2.297226449742947,9.546912902700663,-0.009063020280919267,-0.003357857183210086,-0.009159053036466733,-0.9687266043528451,0.2969134924861752,-0.0722465683937205,-0.11709600990517345,1.944623080033647,9.507034228461933,-0.00500052157071189,0.0033450229623419744,0.0027592447159050645,0.3360343368186606,0.5517683268453787,1.0329614148181405,0.1892604431724333,1.9783999633609102,9.701760934194818,-0.004845171957712657,0.005635412898513105,0.004818289755034148,0.4330771209681573,0.07122306697090791,-0.5651859007425695,-0.45025505003032895,2.0689964487720918,9.587145043734585,-0.008245535728969904,0.003964755636361981,-0.0034557903996360454,0.3192796590621219,-0.09638773285484702,-0.6779901725779495
0.4879728138702109,0.17041475625731162,9.762849230845282,-0.0008527096031966416,0.0011191276187808511,0.010702985270731625,-0.3957802824351217,0.11571548717408403,-0.5542047315926125,0.020497210301511772,2.32454500731293,9.530412948946934,-0.00920942149996158,-0.004411766800550299,-0.012601304509200927,-0.9677209661221151,0.30195154728607954,-0.06404280403934905,-0.12313770965530765,1.9736052304343055,9.527145330303522,-0.004853993165389425,0.001730444470260872,0.003471780132107494,0.3316397857273786,0.5527759341392301,1.0317675746917034,0.1967038157812907,1.975991355675806,9.697025996051087,-0.0033466524590703684,0.0037178726312540023,0.006528185844166103,0.42527791211461147,0.07274681435895897,-0.5634661678690743,-0.4714899209823584,2.044313915056702,9.58161987631275,-0.006968872770261995,0.004370371142246308,-0.006459317950907944,0.3141533171029945,-0.09491041184329194,-0.6775323344549116
0.4716076001108766,0.15208548860031032,9.75983401215184,-0.004923676821779948,0.0020215196295422667,0.010650074363216541,-0.3992064303379691,0.1111395533399145,-0.5581774159612878,0.02486847020584156,2.3103342921493013,9.557340711876426,-0.009168140860044678,-0.0035395197578235874,-0.011105558205437299,-0.9674979068914928,0.2989135316680905,-0.06984686845012958,-0.1328290000158626,1.9517472933506548,9.546308921214273,-0.006855616303909488,0.004201921158852005,0.0008857413100687174,0.324582903145559,0.5508877842535452,1.037433970304048,0.19612412959407405,1.9751479045227438,9.697209119170184,-0.003347647165595582,0.0037188772934711985,0.006527185237970821,0.42307315606262325,0.07009236975514145,-0.5573516094552161,-0.46855595730593225,2.088002023484962,9.585828046117552,-0.007065698296206338,0.004225601377105405,-0.005409388652037469,0.3092394862664819,-0.0985492880931251,-0.6731535201007126
0.49764686986697204,0.15904836742105538,9.76333473923302,-0.0035899379169679513,-0.0006356935459124907,0.009707956709215437,-0.394731304758027,0.11673161145087697,-0.5607787316144462,0.022562622966885607,2.3161293853084572,9.54028274559122,-0.009525810229369845,-0.005346374040725428,-0.01041402641108088,-0.9665315069492711,0.30427111853853755,-0.07068459935996137,-0.11858678811937524,1.959326023533067,9.52292273791905,-0.003976392203340318,0.002128329823938153,0.004603080621252437,0.3304092700709778,0.5530254733202052,1.0300662165822771,0.20765789610082014,1.9653062614843961,9.720419809239065,-0.0028026586595513233,0.004649818187043038,0.005623910318051468,0.4274899621322435,0.07395924903754046,-0.5605431930368757,-0.4620299663931445,2.0400016163814185,9.575721875947783,-0.0089332628159011,0.004419741738723649,-0.006751773576255561,0.31319036923841903,-0.09613849961054757,-0.6807078939089332
0.4696273441272327,0.15810880188664045,9.754579499777321,-0.002232051915816749,0.0015161728438887355,0.010504836655205694,-0.39907377026327784,0.11342424172909674,-0.5698790724794446,0.03260302767586842,2.3053666959519967,9.53544178937409,-0.009027547263045502,-0.004901937524217028,-0.010218449829702776,-0.9672889516981806,0.29998714695219264,-0.07768233863059291,-0.1131140422808429,1.9651123142349847,9.533517888172808,-0.005623146320073366,0.0035071243189411347,0.0033860705064332397,0.3392088696844978,0.54882177973994,1.0363646634483688,0.19362709606012676,1.9821953406628008,9.693307592625079,-0.0042982475807660245,0.0036478812337920334,0.007035118708208619,0.43403202728336987,0.06586681539467872,-0.555897606389928,-0.45893403529031046,2.100283396944481,9.578857904607286,-0.007422978748640402,0.003972124299475442,-0.005840538335354857,0.32095870586862363,-0.10077504843416883,-0.6740616081036134
0.4804984140505819,0.16944047259259676,9.75105829433977,-0.002777010332197705,0.0024135654962868123,0.01037431174632809,-0.39452269371236814,0.11476268388518167,-0.5590822238270564,0.03344420085174649,2.321057871082227,9.54399058050036,-0.008666897674765354,-0.0030901364455925787,-0.010913087667693656,-0.9648104813743708,0.3008880019775317,-0.06891918742356044,-0.14308524700844183,1.966384618142652,9.512171923754613,-0.004540579111098245,0.002702123200423426,0.002577558640572845,0.3304860663062948,0.560599584850055,1.032979369662985,0.20611235915465834,1.9839217159693927,9.695835311707794,-0.004206300731078843,0.005815632393631626,0.005129671336632404,0.4280224612229835,0.08102785971702924,-0.5637353721954096,-0.4692287591121755,2.026361352018969,9.597732930659244,-0.007161535518728003,0.0040778323929999225,-0.004358445478447304,0.31295572967464075,-0.08758809448188606,-0.6790248138719567
0.4661446375365794,0.15206247669225698,9.731262980645015,-0.005505488599195408,-0.0007709237131498213,0.010774871132066158,-0.39689210541021147,0.1206572070683181,-0.5605261042409377,0.032357272964507744,2.322903705995098,9.53572208273823,-0.009590651547747237,-0.004654791058237943,-0.010864799726356745,-0.9677462648579607,0.30355954269255964,-0.06944484372327432,-0.11140076725722763,1.9649346577210889,9.512449301963562,-0.0046374720729363255,0.004354769380823513,0.002966636211701337,0.3364011856789964,0.563496220089368,1.0380606861358157,0.19705435757875217,1.984456768967861,9.700982792134148,-0.0026372937792612013,0.0027527466335817603,0.006098217156938121,0.43145436918790164,0.08102191344469997,-0.556173671304593,-0.4651921113371888,2.0851136441070817,9.573275822017099,-0.006265768244291306,0.0026386835709179364,-0.007559642076275729,0.3155973195663707,-0.08854751776071318,-0.6709520342505404
0.4810053557156986,0.14676738799702332,9.738317135088348,-0.0043837659970549815,0.0011221542848229224,0.010783537009910898,-0.39566966774265766,0.11434830540220045,-0.5673977711359641,0.03428092996984645,2.3164929429565313,9.545095802916961,-0.010562561219759643,-0.005102611214525869,-0.010512189889467586,-0.9650919445127168,0.30219678552140294,-0.07724506432254498,-0.11217055454403534,1.952127785493459,9.520437383853364,-0.006819144209789037,0.0021415936514077192,0.0031470160276602984,0.32708185459112044,0.559411915735742,1.0364227798437762,0.18534878342301964,1.983861693232516,9.682418806421111,-0.0050136011153207516,0.0046150377483427565,0.0074600935274181344,0.4228784327487678,0.0778975791869129,-0.5607882346249469,-0.4583518152871271,2.088900480817626,9.573442770138332,-0.008050106673940642,0.004879628647819325,-0.003356408020124683,0.30730758379236034,-0.09171270356364529,-0.6744044440799218
0.46485971017071104,0.16999694818696248,9.74412165214988,-0.0023134626766049974,0.004358803065644424,0.010556136853929301,-0.39721293876297026,0.11212070156480489,-0.5613254725842226,0.03317813146077114,2.3182890282484943,9.536842308440537,-0.008148005703374636,-0.0022076142596864482,-0.009971675051775578,-0.9682372457877801,0.2974066212180246,-0.0720138598880265,-0.11554495134204455,1.9644991320039458,9.503948733946018,-0.00463846446216318,0.004355776924278983,0.0029666406622926153,0.33369240772288583,0.5622908367750405,1.0358843479153106,0.20622680675312452,1.9636526978085835,9.704990403435568,-0.0030903372855606162,0.003989554469502596,0.005095044709945704,0.42924454212543595,0.08029549277983848,-0.5603178371279712,-0.48135734712745093,2.016388139871486,9.612610388144212,-0.007129713461633274,0.0050367649145741525,-0.006791094400044819,0.31389516394392253,-0.09074721613422122,-0.6731516461032439
0.4745064891385035,0.1597950929996028,9.744583531227883,-0.0034197862734221774,-8.614928533732726e-05,0.009951660471737825,-0.4003771510802912,0.11288580682827867,-0.5615938200208032,0.033311378869874814,2.316483111018022,9.537280680525244,-0.007072802865398805,-0.003989510807811569,-0.010936033153825072,-0.9704282682612484,0.29767974359440663,-0.07030031219733446,-0.1250300461693662,1.9729068451197371,9.530452572428006,-0.004542570573242387,0.0027041361213325514,0.002576567566437347,0.3299701931581307,0.5566979309184462,1.0332352749051434,0.1960818508743918,1.993647712717082,9.680832160042112,-0.0024969100929919433,0.0045446252118679685,0.00479959651128811,0.4274743274362576,0.07176231122823282,-0.5605378247675187,-0.4523452269457727,2.1236000895865583,9.557908693957865,-0.007343793097961318,0.0025165969876365453,-0.006655929577163085,0.3136461095092133,-0.09489878603140453,-0.6738729638399958
0.4708409034951194,0.16555521240462412,9.756079303117188,-0.003963744782842139,0.000811233489094955,0.009821144970046138,-0.3953946788906256,0.11412723659781746,-0.5708150499825008,0.012947588774635966,2.3177465710109235,9.53170687771178,-0.01014977850252843,-0.004403715060252111,-0.011515241031681467,-0.9677863485407984,0.29920887032632015,-0.08010707178592662,-0.12880863269090376,1.9508884830167983,9.537109683453302,-0.007125362617458275,0.0032743510457376264,0.0028796025418458483,0.3301442085902348,0.5513157320079874,1.0288516614963619,0.18815986205749896,1.9647334302679829,9.715275247659784,-0.0055849618919706955,0.0032934867187779633,0.006404357414953373,0.4252735365472836,0.07225764216352706,-0.563952973187068,-0.4593133635540771,2.0286257136225623,9.59898643552745,-0.0063431789946611205,0.004720547248455416,-0.004544012754910568,0.3109805383174466,-0.09734916767045772,-0.6787629545398454
0.4805925204477122,0.16449755959358578,9.734483351683151,-0.0026658423266655196,0.0032548112267001164,0.010071578702860115,-0.3941121426827841,0.11154892219118456,-0.5542197984418906,0.04096656478487006,2.3204486052063427,9.519416353209353,-0.010040679204239766,-0.004219122776990638,-0.009572808527815958,-0.9660165890226928,0.29923264115816295,-0.06595245405192798,-0.11739494862612267,1.9677495725226317,9.527568641280372,-0.004285609582101047,0.003262107744698054,0.004334684944927909,0.33407185843050136,0.5520234105516932,1.0312649370320257,0.19559710720984552,1.989400393965639,9.721492568906305,-0.003305208600258542,0.0033440401177972246,0.007131020530004081,0.42577173296513127,0.07323409742470999,-0.5627362622714632,-0.46004992368930264,2.094458506568407,9.59474617396514,-0.006953700140589898,0.0037270073614303905,-0.008656417820473068,0.3121864357849295,-0.09660959629971702,-0.6755847079343255
0.4872651300403858,0.14059674117012858,9.733624407614723,-0.005282084355400104,0.0009175648237313312,0.010168459551804704,-0.3964634572435661,0.11624505541883115,-0.5588456196170387,0.02320967407241846,2.304541591095109,9.527443873517086,-0.009085443736682158,-0.004198516242607041,-0.010678476458191392,-0.9675009114150867,0.30258403448661453,-0.06942759761636517,-0.13276604660291016,1.9505784860216542,9.52858059452235,-0.006201501457633134,0.0019845235140804646,0.002517212564134351,0.33287462146695856,0.5530149158932289,1.033711851785513,0.19152875161851243,1.9688521984104879,9.682790853851158,-0.005323650270125275,0.003564137841671439,0.004973209551885054,0.4294282484086574,0.07150797153192501,-0.5590758144554832,-0.47232770508058053,2.0901478115629724,9.560369594529742,-0.009843687169161305,0.004250587147579892,-0.0033160001231178652,0.31485416220228296,-0.09807254169722558,-0.6728814318614716
0.46774050453393745,0.17063883634351082,9.750905212382627,-0.0012895674068367643,0.00285377370585053,0.010272668861548123,-0.389846924755208,0.11523115540376339,-0.56245266669047,0.04329508455100143,2.3119543414194497,9.529286501405679,-0.00950992482823935,-0.005322713573853013,-0.010433541439605136,-0.9592094241914858,0.3010797984148427,-0.07212128198192184,-0.11231680248507156,1.9721464496820504,9.538455445587195,-0.004494935027932205,0.002742218958627874,0.0036781938879849665,0.32609554785726724,0.55990407063415,1.034475257935625,0.1926200053174491,1.9775797811890043,9.70247671586451,-0.002760220094214283,0.004274981011369065,0.006227745610084729,0.42361673606354344,0.07790067363494857,-0.5573715920273399,-0.47499023262395623,2.039370293677844,9.591656981277541,-0.006310362200883867,0.005679480531727763,-0.006975656441037032,0.3090120767525146,-0.09440303057032133,-0.6746317266044022
0.4659700159631086,0.148400466468603,9.75490789604829,-0.004274578190387435,0.0019654196186566614,0.010480800161097604,-0.4016386589525553,0.10899035725966799,-0.5613906364913855,0.02630403966687424,2.322819617642019,9.549398024380155,-0.00858618643787768,-0.003753097343096953,-0.010483922728980978,-0.9743394361209298,0.29765175650421327,-0.07150331622732714,-0.12165933841398816,1.9663133832562742,9.519275049228169,-0.00578682680656867,0.0030283290940408894,0.003829212505067294,0.32694602795966254,0.5496271247712171,1.0271676531073808,0.19821049751770403,1.9926999878808205,9.689201564507345,-0.0045899211155868164,0.0029896337913876522,0.006501255566895009,0.42303868508344156,0.06738627147824917,-0.5656460076170718,-0.45599202601285044,2.1112012643796105,9.594521059943306,-0.006622262099838779,0.0030145420779511363,-0.005791567554755872,0.30880210016780013,-0.10126528648266675,-0.6838901559867194
0.4703189649281965,0.16213344652104594,9.739505794153473,-0.002422010774017546,0.0023923907675953084,0.008867411303512861,-0.398175329772727,0.11407957916043827,-0.5608310424985027,0.03620575353570215,2.321081081469733,9.548545200578003,-0.009150279397613514,-0.0035079143341367417,-0.01112823121479634,-0.9706749789942531,0.2996320792218738,-0.07033587076793,-0.11629566058432621,1.9717556684148518,9.529951675586355,-0.00650771318161194,0.0031172830744121863,0.002250799053637955,0.34240132326035183,0.5551360217409461,1.0319345400732531,0.1976443170375735,1.9708701090755008,9.714456783888869,-0.005325637833233364,0.0035661495964527472,0.004972208334830043,0.43603668869253465,0.07462842011123814,-0.5617816360826955,-0.46917588453189774,2.0235676940709615,9.57949295715191,-0.009216776919748156,0.003970420526061403,-0.0036009057274285854,0.3231845498305303,-0.09688404664064923,-0.6779682474138223
0.48656664402705363,0.14951445089085894,9.751856199781868,-0.0014620647477434762,0.0008686408694740792,0.01142840425051919,-0.3878465357092433,0.11912480697034573,-0.5633819110839613,0.016780440450754386,2.300164922169221,9.54377139332725,-0.0109879754945765,-0.004226908629250047,-0.008477416762820959,-0.9572740083240766,0.3054252367178619,-0.07489652996630718,-0.12875698157127036,1.9638037954542615,9.532283244517135,-0.003666968633197671,0.0031030344269516565,0.003706879197963863,0.3272601809190816,0.5496480152831493,1.0376637672218805,0.20650117027270515,1.980465071134698,9.688967961243366,-0.0017167582805737765,0.0035922628783874116,0.006934477804322482,0.421354368287033,0.0681569340799752,-0.5551467157322046,-0.4582267430500288,2.072852578319894,9.583676004053315,-0.004626051913927662,0.0039281097592025775,-0.007929772405895624,0.3075188701563558,-0.10098410355602207,-0.6719344877536387
0.4749439400376173,0.145719847338712,9.733374547451623,-0.005779823355881467,0.0026394676925966323,0.012581677403055037,-0.38886431399980925,0.12152460622131253,-0.5565372783760425,0.046452760484676635,2.3166626954169853,9.548340268207332,-0.00919945066919042,-0.002386119568653108,-0.010825998373786254,-0.9599259601109694,0.30508027684289146,-0.06706529517193051,-0.1322388854808247,1.957928712625221,9.500601459956972,-0.005838452836027384,0.002993272129596517,0.002725606251765749,0.3348805901654693,0.5539908994183229,1.040532498876467,0.18947425646808577,1.9825908467952396,9.699013340535911,-0.0035938908991195403,0.002683778660434159,0.0066001567638219,0.4313947445909468,0.07151186433127017,-0.5517554276753223,-0.45951504702335966,2.071134220365109,9.583985217267019,-0.009116955730842369,0.004113183916281756,-0.0046508135065493166,0.31436569923502433,-0.09709309522689256,-0.6723978178197307
0.47210783773373344,0.16350880210824456,9.762985647413116,-0.002654452756714927,0.0007019764618098597,0.009475723065256467,-0.3969273023132831,0.11917603559904702,-0.5583402574355482,0.03252816385260787,2.326206812087484,9.52389323518461,-0.009198461994156321,-0.002384156111634234,-0.010828039784624863,-0.9679894603800604,0.3067555555871674,-0.06828251394411015,-0.11831513479339317,1.9566261587921805,9.538385151826695,-0.005472405243330143,0.004001000218682576,0.0029349821299072248,0.32457474904323064,0.5508851417313319,1.0362140004160214,0.20213370386813836,1.9843409969446453,9.701546679632802,-0.004494960114230238,0.00515936353199942,0.004595797810625892,0.4196520159139308,0.07035417407418608,-0.5600319293207424,-0.4572628334006277,2.030096873644015,9.593967852033966,-0.007768290374159746,0.0037066246389151594,-0.006270590438620917,0.30631897763836924,-0.0987919905521893,-0.6748771740304456
0.47715116471042013,0.14790243204813727,9.756818347148558,-0.003022240565765798,0.00215084407651139,0.009588982778229165,-0.3934021060473964,0.12237574556570144,-0.5663407009492711,0.02590668474194682,2.31552068572256,9.543364454964067,-0.00958846301107717,-0.005054415990247608,-0.011641459963541266,-0.9658289066670104,0.3080721092015503,-0.07637491638303277,-0.13351569464354474,1.9621674095552946,9.524022390803056,-0.006875750484113697,0.002113563512166226,0.0020384277176907304,0.33141991523170833,0.5535161135582114,1.0346975133246532,0.19631452047512918,1.9791250819126924,9.694516088475726,-0.0039984957188945415,0.0035447163451485277,0.0062048110380912395,0.4279563353046407,0.07054143126428097,-0.5590707424492973,-0.4653026880594548,2.106281305634066,9.57511207969714,-0.005994349722071901,0.0027353733207161842,-0.006076470785399255,0.31266744538147073,-0.09807350975159636,-0.6748459385701514
0.4633150307587654,0.17240426599559172,9.745855975211645,-0.003852873950036315,0.00022087799430687568,0.01091689998290552,-0.3974231980189437,0.11215026277642651,-0.5649895121828138,0.04579724665510791,2.3228936003460867,9.54523066575947,-0.009602295719066314,-0.0030742108188928103,-0.009834194311920175,-0.9680040304212728,0.2968686848289997,-0.07469026419869929,-0.11924918731736746,1.9651187478665983,9.531285824556063,-0.0058394443490844255,0.0029952774760174735,0.0027246085105219016,0.32995521496563407,0.5545015276017284,1.0334841385707532,0.19573482190508656,1.9782796332465913,9.694700216477068,-0.0027167868223520303,0.003899139173477896,0.006832581508313272,0.4250459095090814,0.07349043103284073,-0.5598055288492647,-0.4596919070880755,2.0275745428094227,9.608370656524126,-0.007698292460489721,0.0028874483773883818,-0.004888830132115894,0.31293333076589125,-0.09564222096277356,-0.6780256292449963
0.4752171332894494,0.15395821431606888,9.75157451442944,-0.0033708889919842502,-0.00038377375264546094,0.010500957961562356,-0.39289142563316226,0.11105151532217984,-0.5546999466392519,0.013943019144035756,2.3185215050163737,9.528314472272143,-0.010661675694374831,-0.00326853628005998,-0.01067818523785332,-0.9647952147049682,0.30046417342799475,-0.06549267253385067,-0.13163078028277087,1.956970336766933,9.533649287098592,-0.005999150347321506,0.0025104586373661895,0.0031707370657791476,0.3288171409683163,0.5559979978113991,1.044230768995598,0.20238309103335175,1.9848304297932646,9.685664954709845,-0.003358642168561484,0.0037219336650109627,0.006518198108129168,0.4228514627710044,0.07109025149939799,-0.5490535858285367,-0.4601632414671185,2.0753766835521867,9.59164068858297,-0.00773347885976619,0.0046655565546149256,-0.008701223635859448,0.307974899813246,-0.09901168929879117,-0.6648576700401528
0.47508391509543857,0.1531453184334336,9.751593227974775,-0.002305150306974431,0.0018009760812680423,0.009963215254974475,-0.39869185107895816,0.11163996890935501,-0.5603659870577015,0.02540104524112205,2.321396517442671,9.540349887782508,-0.009140361380606548,-0.0034891483419156725,-0.011141627873880167,-0.9694546692448414,0.3001215912910299,-0.0703502599875449,-0.12625784468318463,1.9555306006978554,9.521435193063661,-0.0050114712706594575,0.003356095110343071,0.0027542937958188523,0.3348644087233761,0.5522808954443201,1.0400482989489306,0.19948539581608132,1.9807336756187488,9.702338349584958,-0.004093353646799185,0.004299439890550834,0.004988146604679541,0.4333379579267823,0.07075904311172952,-0.5541992042900807,-0.48129986195493385,2.0675085137404836,9.584888404882749,-0.007506855721927141,0.0038083327582227114,-0.00478848606271518,0.3180096528648415,-0.09831341709824808,-0.6694461161962543
0.47950128116742946,0.16722762231709443,9.736195364054273,-0.0014718339896046414,0.002297311456884944,0.01003379931915671,-0.40081422738575184,0.11583850532752978,-0.5640172551603777,0.022663493560815193,2.3183842415538427,9.519279154530738,-0.009546186649437422,-0.004182186387877983,-0.010146717768379629,-0.9704521101534659,0.3012587121273025,-0.07476213870726477,-0.1297688038803417,1.9750189122912984,9.527825605237597,-0.0059393153547728835,0.004649948483818483,0.003114701625259354,0.33269003874964265,0.5593672688009022,1.0354083681446566,0.2008439276999117,1.9828763847919233,9.686097553098337,-0.004119413121587072,0.0050679388832332315,0.006335333377929605,0.42774542395276316,0.07494041636575499,-0.5581050388308622,-0.4630113403993961,2.054806731317581,9.593402242595195,-0.0067502891002641134,0.004640872018074372,-0.00855399058771459,0.3141370670698951,-0.09172372938520142,-0.673147553633967
0.48087369617596,0.14906848858520455,9.76355076875155,-0.004455103555706556,-2.064894084545487e-05,0.011638452643249992,-0.3932433006517331,0.10970906143110055,-0.5705833823986093,0.04550512208347721,2.317639031316113,9.538709226536119,-0.010057143711810592,-0.005051906641001512,-0.011099406364783364,-0.965336774781496,0.29679437093545424,-0.07885202473930042,-0.13038613846153538,1.9738490608749144,9.528059270978448,-0.003988378775506407,0.0021354075045564,0.004597145259024803,0.32923624101312327,0.5574333462845675,1.032262563494646,0.198969417214239,1.9907380250368123,9.682036895380794,-0.002766214948959841,0.0042770115282475445,0.006222751742066262,0.42431406943913397,0.07301240379195775,-0.557850004093862,-0.4597981263194953,2.0975451680178705,9.584044379714598,-0.007595480855873748,0.0030282082836569943,-0.005937716409432716,0.31072157253381133,-0.09416267106670748,-0.6746234511738369
0.4773527352418698,0.1639692746571601,9.75300806252694,-0.003976810918312648,0.000808332485201818,0.00982499987345327,-0.39552669066196317,0.11378192444067471,-0.5571458710603285,0.026473278739241768,2.3056901068115527,9.537942350988978,-0.009083252321051482,-0.004597122601916344,-0.011454155623836388,-0.9640720209247646,0.2969882249541627,-0.0686051630099067,-0.12523654974338239,1.9608207558196105,9.523560961026941,-0.008062156503345066,0.004579261418237798,0.003235046116983439,0.32796880137181506,0.5479298145211037,1.0359537104405796,0.2013754095145579,1.9636588096232013,9.69499931678399,-0.004405089951719969,0.004407663354297288,0.005807464099970016,0.4225625818514086,0.06692193458701795,-0.5573429596246843,-0.4535598791413451,2.0337445376802235,9.588613640996602,-0.007481254119556253,0.005400624416478338,-0.005018959126229323,0.308500223933296,-0.10074430450639792,-0.672663044669936
0.462310670825396,0.1671446682833244,9.745995481589112,-0.0021882705518047507,0.0012105687302389964,0.011058026783358398,-0.3995911777821184,0.1153439142129496,-0.5647423781130075,0.04456373185479575,2.308375597750586,9.526945752856358,-0.009188545366392067,-0.0023643902960543916,-0.010841455187274385,-0.9733807171560561,0.30174736675013075,-0.07451475502961549,-0.12607665652534283,1.9593716975513926,9.523847721781253,-0.004184497265151777,0.003717918122122324,0.0027829835563890266,0.32688294259747175,0.5642992570664014,1.0376345532287008,0.19015956862035183,1.9815799309101083,9.691642495243332,-0.0031243881445286413,0.004761093331804962,0.006435238846241155,0.4246029192893015,0.07887365391098121,-0.5561557754179433,-0.45467770451740763,2.082503823257872,9.585687761404767,-0.007560667197060242,0.003988140192910993,-0.008368352486420792,0.3099931830427871,-0.08829620954705956,-0.6729352026767679
0.47194526181713237,0.15681498339517877,9.746449297117238,-0.004166438020601116,0.0028076652604965852,0.010182046110948924,-0.4010909287791976,0.11484589845006478,-0.5615860591736925,0.026157129339279668,2.3319794188528697,9.542429622760462,-0.009486093203199234,-0.005288213322232369,-0.010462295331273217,-0.9687373143697319,0.29858557314219997,-0.07423124004799635,-0.12064118282012207,1.95817240098758,9.511590687908743,-0.004867962763669596,0.0017415328437210321,0.0034638492873921654,0.3324867886280295,0.5630352335358149,1.0373548298297408,0.19056850947869527,1.9720015974156746,9.696082038107614,-0.0036463173780712983,0.0030626650584695903,0.00598733006589788,0.4282545730102564,0.07835069116406625,-0.5598232768927315,-0.4560403997957648,2.0469986829585536,9.588176299912412,-0.006454668032688818,0.002964474089426075,-0.0032594979614821826,0.3156179936484207,-0.09026891506468954,-0.6755850324055361
0.47278284801282305,0.16786448585234737,9.764588445355615,-0.003859921682545079,0.0002179325457265687,0.010918811474246247,-0.3970509405612514,0.1091468914838699,-0.555729572103945,0.045502080163321565,2.3127771598516245,9.53209317313477,-0.009609043470582682,-0.0034856391693108024,-0.010599593018687964,-0.9689473370103174,0.29676891908472186,-0.06687092167676474,-0.12110731938450423,1.968397764168511,9.504156471775122,-0.005734958538766431,0.005174872821164198,0.003770214959840633,0.33779308440726424,0.5583471774775468,1.0329354094494407,0.19406486019890745,1.9838429650185825,9.699320806536212,-0.004645338830498369,0.003370534204381768,0.0058854294938395614,0.4323653359522781,0.07294910557666959,-0.5603057560907594,-0.4727650058208009,2.0678331317743646,9.586596281605972,-0.007581282704693283,0.0023918408050537738,-0.008136841654769878,0.32098519011216603,-0.09321174617524429,-0.6760373698617692
0.49464620642013624,0.1491049959419725,9.748682534364542,-0.004461824365972148,0.0014119991191995198,0.010242906023907327,-0.39770253035864195,0.11721233347229774,-0.5559209859677113,0.016788632637034874,2.309203666406134,9.536789596960427,-0.010102340431952385,-0.003924182696793583,-0.010801302419575427,-0.9689748858925176,0.3037698586972536,-0.07115285880857468,-0.12808064883112358,1.9557103437820005,9.524574064271908,-0.005638085627999651,0.003522220142758668,0.0033781374627579767,0.31705489251467306,0.5563159488778682,1.0374725287339548,0.19166217694296894,1.9729777578877004,9.680086567867246,-0.0047178280795501185,0.004515891508568033,0.0066257834325196266,0.417723214291882,0.07281791196844317,-0.556372331816756,-0.4570531363484565,2.075178563043622,9.559189998491465,-0.00910600071279248,0.004097166379374013,-0.004648709678862523,0.30071027160589286,-0.09242954360633317,-0.6737039769018994
0.4825283347831209,0.16560559112897102,9.743020534765142,-0.0025463227213880684,0.0015422296677147322,0.009175954078490332,-0.40234633125912933,0.11240808620100984,-0.5603949428688176,0.028489359675159535,2.321022582680827,9.552879033832834,-0.009112781873353397,-0.003040205447412628,-0.010404026593882022,-0.9733544014945448,0.2994075006450282,-0.0690989950555997,-0.1314616239286841,1.9753366544589082,9.530954308515131,-0.004137861668928697,0.003756008533905815,0.0038846165450449957,0.32805765470669535,0.5562380173527885,1.0398412169412123,0.18773381955377708,1.9777601079743472,9.692470270095237,-0.0014150185722090066,0.0034860959846573602,0.006109173776056744,0.42753002269462587,0.07763953824241607,-0.5529841762674924,-0.4677156809218383,2.053481721558749,9.602052543537237,-0.005861943971021125,0.004467419265572219,-0.007354806250758973,0.31191954892583373,-0.09293016217580262,-0.6697376405555263
0.46728186206544287,0.16875190587388078,9.736018801180162,-0.00405055817239243,0.002217267787433333,0.011276848232146933,-0.39695197056524445,0.11455367253235649,-0.5605719117898424,0.02720657111287641,2.3140546460509235,9.5405588753263,-0.008985851397088799,-0.004837831495627086,-0.010269839243598504,-0.9684797619701931,0.3001137204901919,-0.0708423645052363,-0.12335785501867241,1.9602028907471467,9.53545203620472,-0.006212471208652002,0.0019955891640761184,0.0025092617180939745,0.3292659563805746,0.5559816108565435,1.0383686600582418,0.19390994740069062,1.990910288574254,9.719383010647036,-0.00407127299811215,0.0035349595467372204,0.0036369574066483492,0.4228666202780735,0.0749805270520474,-0.5558991005187872,-0.46449677917379567,2.096231330434515,9.592758679351364,-0.008569697451422548,0.0030428766121877796,-0.006083873397275989,0.3094916245982711,-0.0941551305614892,-0.6729208962652828
0.4865008517827476,0.1595745581624443,9.771751577663798,-0.004463151195176315,-2.3584511459968192e-05,0.011640354727404807,-0.39859209252550054,0.11946946480360897,-0.5627481850496562,0.038893674793216995,2.316894095839147,9.552600981100005,-0.01114008297633689,-0.003683401900313257,-0.010898405558663053,-0.9685004087682291,0.3059177498017559,-0.07388166005852428,-0.10608974635808052,1.9656968057769075,9.521145368565756,-0.003261276651856999,0.004150903721171176,0.005016930326167555,0.3301566660285599,0.5469356730190994,1.0356962343877913,0.1902974172564033,1.9890424349852593,9.695847123369802,-0.003153445971660477,0.005530606367753143,0.007779428687814209,0.42622402962079814,0.06689526252165376,-0.5575946694436453,-0.4568510423715967,2.0307341431573107,9.569711735182418,-0.0061058101518261425,0.0009852914501058002,-0.004794973216630644,0.31290661481439735,-0.10271582097728861,-0.6758072800631522
0.47808650441551137,0.1691044840843034,9.754605194625167,-0.004052577274440984,0.002216280208066701,0.011277821840852794,-0.39785201553534144,0.11607706855314295,-0.5671616311780755,0.027991454712563417,2.3182511304182527,9.545768807253848,-0.008049430125095187,-0.0028379511608036174,-0.009564202050882419,-0.9709508397702694,0.30219370846092164,-0.0769749497307012,-0.1275833573262978,1.9603567393270278,9.526834732225938,-0.005528990590413689,0.0039739743804120126,0.0018283915540566946,0.32270018470779815,0.5557965383620591,1.0425630480365708,0.19271193489346392,1.982502761345293,9.683853494383417,-0.004739182552667676,0.004127250572298671,0.0046687583409243385,0.4187425190940301,0.07770509815393377,-0.5517470734554677,-0.45789230544121085,2.08053810291671,9.5806174854319,-0.007553690670545987,0.0039821311086283544,-0.008366298469896996,0.3040946754326316,-0.09192876733914541,-0.6670955472194577
0.45345441015367044,0.1614735127172664,9.734346643386958,-0.0029716991613735074,0.00041659159779437066,0.01153774954377755,-0.4003179244210832,0.11705096505594523,-0.5635155273714006,0.02826623929469354,2.316215394775139,9.546261894289552,-0.00906936263157001,-0.004573446003671343,-0.011472662250261886,-0.970449588741525,0.3039717054543939,-0.07334775479557758,-0.13104096599323423,1.961282476856739,9.51806862029804,-0.006165843172289167,0.002032679606892309,0.003610896923267014,0.33213816661256507,0.5479047246145172,1.0388549696475124,0.1876609131013731,1.9752604165843193,9.716968594356374,-0.002323189388368902,0.003039260347264403,0.007219944986446669,0.42868035808122146,0.06834936691695195,-0.5549167349967087,-0.4679212552175759,2.0569045659100955,9.595934459706871,-0.00872314726626098,0.005936943826840644,-0.004445015834399502,0.3136369186359114,-0.09978245995310962,-0.6741028976441777
0.4748528550795648,0.1630408782975621,9.731266907052275,-0.003925913822952732,0.0005106882619620968,0.010374316177649629,-0.3977461931718823,0.11112146528177404,-0.5576756697695419,0.026886431958748222,2.3092522740425085,9.533939059089063,-0.009089159945197251,-0.0026001349536854384,-0.00965924074206897,-0.9657841756760717,0.29549837248231237,-0.06979014052855337,-0.10807351002402286,1.9689782603460266,9.544766102797116,-0.004652391329791312,0.00436987170264649,0.0029617030939802376,0.3238489054533385,0.5552770970393613,1.0323032422215939,0.20432051568644008,1.9901497845055895,9.722494614498636,-0.0031748057112198492,0.005140967890137793,0.005823406035008892,0.4218593820252802,0.07180348805024132,-0.5600395351919966,-0.46542159473618694,2.0665934593414543,9.60259868535983,-0.0072170300145848595,0.002637308811292634,-0.007703632195429601,0.30731813159162275,-0.09636296578590571,-0.678297014825348
0.4745311153097514,0.15259766423835297,9.753330053895688,-0.004408917649161569,0.0011153350637726344,0.010792248646988769,-0.40179229030334374,0.1163306837520443,-0.5632908273747899,0.02052187711521838,2.3073430618521638,9.557465370666867,-0.009526326696871812,-0.004152596742281273,-0.010170361692706034,-0.9723960522118005,0.3015413048835815,-0.07256173315193261,-0.12036548790898627,1.965391511769056,9.516540330809068,-0.006790473627345465,0.0021957917494314794,0.004235733880858707,0.32438029813887514,0.5545572872023578,1.039625430392647,0.1917033113765093,1.9712103732718003,9.688663827136843,-0.004695756397189577,0.003750408762714599,0.005273596682607299,0.41895519831525907,0.07379152920083826,-0.5541799669176284,-0.4650991036893418,2.095813923718887,9.559528129163146,-0.008476102192089089,0.0038139962803495535,-0.004932590901619786,0.30459631357663314,-0.0956040799568143,-0.6709893596616391
0.47423995035623673,0.16089222821312366,9.731333176311852,-0.0029141585872899576,0.0029890752002660263,0.009292198565209355,-0.39155728097938386,0.11766895068549976,-0.5597656194726549,0.024468941640517643,2.312951254608904,9.517489982630773,-0.009209001196785752,-0.003194123677902183,-0.012365092635636144,-0.9606580725381658,0.3013950913296717,-0.06821328782308288,-0.11762167710896891,1.9732846325845583,9.518172935808936,-0.00404398016939316,0.002105376350897579,0.0034915546409351903,0.3327298268596369,0.5545102751733563,1.0468939059556726,0.18009657748095315,1.9956203415605265,9.721273126338469,-0.003130382999274199,0.004763123848683443,0.006430244978222688,0.43019114869192315,0.07396148981739306,-0.5517591545494422,-0.4515128070641089,2.039291280805548,9.591425397496064,-0.007037810531517489,0.004190562219909488,-0.005402140890751439,0.3153099527595504,-0.0956114222981706,-0.6655610238624936
0.45900949874328867,0.15494543289957102,9.746352795087454,-0.00230579885067047,-0.0007557398430103832,0.009367216713086837,-0.39662330172162347,0.11873632796986631,-0.5651771292963563,0.03715180477455564,2.3029619443804403,9.534180228521194,-0.010072766602292926,-0.0034742561103043522,-0.010064728285241738,-0.9677785666207103,0.3034176476754286,-0.0770114444395958,-0.12725107248791517,1.9630632182689705,9.529499714875602,-0.0059006389234359385,0.00469609274524029,0.004213370292691385,0.32511633590732475,0.5599104063257174,1.033993777078163,0.20360167809876759,1.9720524553672836,9.691418782143213,-0.004010478312001503,0.0035497773505983907,0.0061948208585998876,0.4250876044038387,0.07934926518155877,-0.5598198450487014,-0.4683177733084061,2.09383316128678,9.587776473257458,-0.0072130343676896375,0.0026353003071013874,-0.0077036054222629725,0.31048804765657717,-0.08927918299934269,-0.6746387948245912
0.47500128612982406,0.17153526539634273,9.749496590868496,-0.0028562235669499524,0.002693376501862189,0.009839595873551732,-0.3959722233969946,0.11212493363022703,-0.5635108367347141,0.034711055479036614,2.317760517523576,9.521287798889674,-0.008551455067010065,-0.003692868525442498,-0.01052820840839998,-0.9660364845032029,0.2961978811639444,-0.07151149722025704,-0.11915611691559777,1.959318892119869,9.526335642820266,-0.005180148874080829,0.00288033116678013,0.003194462554489275,0.3319704142535061,0.556698473235897,1.0403020792943638,0.20787449495591012,1.9752814174940252,9.698899065071643,-0.003176807507096246,0.005140979701533296,0.0058224097048627165,0.43092413889819725,0.07516715440665106,-0.5559144601044785,-0.4537992167399848,2.035612100059429,9.592099048616046,-0.00813104971724998,0.004694842417990881,-0.0023002795842772187,0.3136422685212944,-0.09489666984223447,-0.6731409769763465
0.4780915750771608,0.1637702849619411,9.738047509067961,-0.004234785665898381,0.0016638324771864027,0.011036982461332506,-0.3946037054213312,0.11469935215799205,-0.5505378425624274,0.028483257480920204,2.333655702246082,9.552980215912239,-0.009243485439150236,-0.0016450616604584596,-0.011306793668830578,-0.9662330087175779,0.30352805856133425,-0.05821863663436512,-0.12853968605236532,1.9719184027938108,9.522356970927193,-0.0059968704115025435,0.004626930095905294,0.0020081088504488895,0.3346419824112463,0.5508283656691959,1.044936052398937,0.1845125590047049,1.9817922975867563,9.697443452819064,-0.004295149902725553,0.0028904922421372227,0.005665947309255638,0.430667113741233,0.07176582349046334,-0.5498016896959589,-0.4705276402307985,2.0722391452846343,9.575756089441441,-0.007711546193458335,0.004646524287973273,-0.008696053435175795,0.3174960383772776,-0.09829826141344176,-0.6645657674932022
0.46290651104247216,0.15745900373887922,9.753068856863209,-0.0038729976255442626,0.00021403161808900782,0.010922658873140123,-0.39959357889563346,0.12212510329827118,-0.557366607656725,0.035036077916400815,2.322356980104652,9.526420179931256,-0.008969965995958307,-0.004814171028754671,-0.01028935427212276,-0.9682323688377885,0.3082337019335946,-0.06757706099762273,-0.12666357313697302,1.9567073925459397,9.539340797838928,-0.005851392245779466,0.003008352804437713,0.0027176598738737874,0.3299884927823224,0.5552424959593235,1.0376334136255019,0.21158378556669943,1.9775418765706478,9.706589745270925,-0.0031323795287087793,0.004764133201424932,0.0064282462092865415,0.42847747516055906,0.07469358524389882,-0.5571287886444612,-0.47131722294357037,2.086474203944326,9.561266533164769,-0.006599329677194377,0.0029905019323300036,-0.005788377666015934,0.3114373160244523,-0.09635486118205663,-0.6724153183078685
0.48251976200221525,0.16707297000968613,9.744728452716293,-0.002625464104424362,0.0015115989215108516,0.012028183276657634,-0.39966979645408474,0.11552456387939934,-0.5561961657471446,0.036689374075408926,2.316006633981311,9.535728909271201,-0.010211412224271247,-0.002092951578174733,-0.010958200266349383,-0.9716398682592376,0.29918867374607583,-0.06788098496807088,-0.12419528062268319,1.9691060377073266,9.510430731491272,-0.005120285394430846,0.005021825283170654,0.0031404226315714487,0.32172375372084466,0.5589699006660818,1.0389006102944207,0.18910519758082422,1.9754285409584331,9.709355478401838,-0.003461479097820296,0.004481694593072128,0.005293536155518467,0.41774733407145537,0.07696167354921732,-0.5593124609292158,-0.46618989015336154,2.042237500414335,9.605915125754661,-0.007266674446536155,0.0056741395719895026,-0.007111661451843812,0.3036573920143539,-0.08682364303898722,-0.674681736651052
0.46914484780139054,0.16210882207360805,9.742988732511975,-0.004943091808401387,0.0008995182675106131,0.008665430817918391,-0.3907716365731868,0.11915736624837406,-0.5638974388030716,0.028786274118640615,2.317995582801466,9.550538087967677,-0.009515404522210533,-0.004136828911152023,-0.010183706414589537,-0.9626421457412326,0.3064133329410232,-0.07391596251615223,-0.13399908436177027,1.9588369277112698,9.5217517794169,-0.005182140336224971,0.0028823440876892554,0.0031934714803537774,0.33073698418786235,0.5554857025679912,1.039824938245791,0.20084454469319848,1.9859801553831056,9.707660109295055,-0.003610880756831,0.002688865548852404,0.006586175765961781,0.42896945529585495,0.07493706837505515,-0.5559102848441732,-0.4626924746987651,2.1010532422455226,9.581907012251408,-0.007222259290651945,0.003261660094777622,-0.005503425130291762,0.3153452336654747,-0.0917192694788829,-0.6706991830356789
0.46361122995143367,0.17575117698924894,9.74924583462448,-0.0038727092795542203,0.0016476104561178497,0.009527185608612113,-0.3975291875837173,0.10649588349604797,-0.5596610389337692,0.037294221493865694,2.3202580417602365,9.540947581468002,-0.00958721599312305,-0.0034481420655828377,-0.010628394554059598,-0.9655348036628985,0.29011947218652046,-0.07017942603685762,-0.14036511791878822,1.9577221897709722,9.53446105622856,-0.005248620501177371,0.002467706258801147,0.005842879312025386,0.32922246607022315,0.5547505436251349,1.0332444907534026,0.20265123514642291,1.988290615927663,9.691393075924514,-0.00337262840748718,0.0037270040515094125,0.006506211603156087,0.42480320111692926,0.07373556861383651,-0.5600496767609137,-0.4800270812704044,2.0542255787307386,9.584499477053997,-0.007656763570262142,0.004455717685886554,-0.005115150098754122,0.31146864583342004,-0.09490540090956241,-0.6777914407359322
0.47195638826717246,0.14378529806909307,9.753589349393328,-0.0037568199507476453,0.0010572203946083943,0.010620987802219175,-0.4008088028159334,0.11826484442310353,-0.5620460780584072,0.03461454553943251,2.3262133234633193,9.523979223898216,-0.009004453117283399,-0.003266127584011308,-0.00923203637685672,-0.97335922208473,0.3006145604480492,-0.0698537456063389,-0.12578788400017987,1.965332642441437,9.51118956786978,-0.006060715939270996,0.002490459624298506,0.0020591644332605945,0.3304607877210941,0.5559639020034033,1.0344546159266266,0.20402542995680048,1.9700784466164045,9.700038835960578,-0.002465459414236652,0.004173844379426663,0.005394442230025299,0.4260435229655914,0.07713824936461355,-0.5627462535575252,-0.46534645134306124,2.063656534671688,9.584630247755115,-0.0066613541832476735,0.0038046698648264913,-0.007167081600275657,0.3126786736749177,-0.09343524504990393,-0.675103293349513
0.4731820436703468,0.16423994765834,9.749710289196091,-0.0033347796344862495,0.0007472871782470592,0.009657622153648552,-0.39498765623151155,0.11430125739783353,-0.5620202645777208,0.028053805838356108,2.315494951219075,9.543379775952435,-0.008631014279365124,-0.0034156113392758043,-0.01173829096114106,-0.9658058870424204,0.30056038159320075,-0.07330360681953355,-0.12934093862064325,1.9617596613042398,9.5329665919699,-0.0053904716404896465,0.002363443364094579,0.0025349715891493057,0.33462107006228725,0.553014135359137,1.0393163190835386,0.20828844264314433,1.9733354742985654,9.70751706880756,-0.004417062011943299,0.004414719442439123,0.005795469042898721,0.430660128114544,0.07248178192279371,-0.5563954475565568,-0.4586856389018621,2.067407978249302,9.584874357785933,-0.008278700591457133,0.0047258766164780565,-0.004829189447809354,0.31804126681265393,-0.09613125325669715,-0.6745793509977154
0.47302352455681657,0.16349929570086005,9.749730298407139,-0.0017824128014485908,0.0008887425955207045,0.01010142005879071,-0.3964221091002902,0.1153089372997138,-0.5642235551129431,0.02557205936726845,2.3303659079598753,9.530510168380077,-0.009510446953187354,-0.00412795520139167,-0.010190895279901212,-0.9665395990604331,0.3010427623762811,-0.07355356572563346,-0.12091081646762022,1.9696831323686221,9.522118817646243,-0.004194447892182056,0.003727984892669765,0.002779028161029591,0.3309272547175499,0.5537616861526867,1.033723250157623,0.203429140633272,1.986652433216723,9.715702731587626,-0.0033011338649606434,0.0025826514095403427,0.005764857058280741,0.4250393390417055,0.0727556727679999,-0.5605357343828008,-0.4556667349175865,2.059422989652234,9.578810174259816,-0.007304881418164567,0.0024805199600646866,-0.006653621058812615,0.31293210286747813,-0.09441910975291735,-0.6772961585734889
