# sampling frequency: 40
# units are seconds/meters/radians/a.u.
seg1_acc_x,seg1_acc_y,seg1_acc_z,seg1_gyr_x,seg1_gyr_y,seg1_gyr_z,seg1_mag_x,seg1_mag_y,seg1_mag_z,seg2_acc_x,seg2_acc_y,seg2_acc_z,seg2_gyr_x,seg2_gyr_y,seg2_gyr_z,seg2_mag_x,seg2_mag_y,seg2_mag_z,seg3_acc_x,seg3_acc_y,seg3_acc_z,seg3_gyr_x,seg3_gyr_y,seg3_gyr_z,seg3_mag_x,seg3_mag_y,seg3_mag_z,seg4_acc_x,seg4_acc_y,seg4_acc_z,seg4_gyr_x,seg4_gyr_y,seg4_gyr_z,seg4_mag_x,seg4_mag_y,seg4_mag_z,seg5_acc_x,seg5_acc_y,seg5_acc_z,seg5_gyr_x,seg5_gyr_y,seg5_gyr_z,seg5_mag_x,seg5_mag_y,seg5_mag_z
1.515508,-7.524464,6.20125,0.107477,0.033301,0.007123,-0.256348,0.522705,-0.083496,-0.140349,8.339175,5.227405,0.043021,0.0381,0.007729,-0.189209,0.379395,0.476562,-1.012777,-7.027206,6.595383,-0.009605,0.063699,0.027016,0.655518,0.075195,-0.045654,1.453087,-6.692279,6.504099,-0.231721,-0.098943,0.07224,0.195312,0.333252,-0.577148,2.011613,-5.650309,7.347311,0.211455,0.000234,-0.047717,-0.378174,0.414307,-0.356201
1.477343,-7.027322,6.312148,-0.017873,-0.026318,-0.000915,-0.258789,0.514893,-0.078369,-0.16574,8.273961,5.368744,-0.043877,-0.021455,0.009569,-0.186768,0.377686,0.48584,-1.244839,-7.18394,6.674846,0.009774,0.118214,0.040618,0.65332,0.065674,-0.044189,1.620527,-8.331736,6.033556,-0.120038,-0.218907,0.036204,0.188965,0.32251,-0.577881,1.880087,-5.992652,7.219651,-0.266611,0.007791,0.053929,-0.38208,0.40918,-0.352051
1.639767,-7.772388,6.111641,-0.060258,0.012875,-0.024608,-0.260742,0.52124,-0.078857,0.086667,8.102718,5.269917,0.022107,0.011388,0.008887,-0.186279,0.374268,0.485352,-1.157297,-7.139497,6.869526,0.079974,0.087197,0.01128,0.650879,0.073242,-0.038818,2.435292,-7.44637,6.193725,0.352002,-0.214958,-0.153597,0.183594,0.324707,-0.57666,2.037038,-6.835507,7.030542,-0.11671,-0.039658,-0.011797,-0.382568,0.416992,-0.347656
1.485067,-7.407031,6.317451,0.147332,-0.00914,0.007897,-0.261475,0.516357,-0.081787,-0.269157,8.307578,5.296527,0.084872,0.027152,0.007303,-0.183105,0.380371,0.476318,-1.433046,-7.052915,7.041938,0.06439,0.097053,0.022382,0.653564,0.068359,-0.041992,2.465071,-6.682145,6.632774,0.032518,0.026839,0.015214,0.184814,0.320801,-0.582764,1.986239,-6.668441,7.311093,0.155218,0.057274,-0.028416,-0.383301,0.409912,-0.355957
1.713556,-7.187805,6.388652,-0.034713,-0.001434,-0.002677,-0.258789,0.522217,-0.075684,0.090015,8.433245,5.156119,-0.00106,-0.055713,-0.004785,-0.176758,0.379639,0.480713,-1.364174,-6.874784,7.192698,0.043306,-0.054693,-0.008913,0.654297,0.07373,-0.040283,2.349192,-7.332253,6.599101,-0.114244,-0.032139,0.04202,0.186523,0.329102,-0.57373,1.952122,-6.216131,7.385326,0.134281,-0.050138,-0.003376,-0.381592,0.415283,-0.348877
1.445906,-7.329859,6.224452,0.004678,0.010651,0.011029,-0.269043,0.512939,-0.078613,-0.111371,8.362411,5.202686,-0.067215,0.064865,0.015416,-0.179932,0.37793,0.484131,-1.197558,-6.808267,6.908066,-0.053992,-0.012775,-0.002026,0.641602,0.06543,-0.038574,2.492744,-7.478364,6.364821,0.027998,0.155929,0.035384,0.177246,0.318359,-0.574951,2.215332,-5.959684,7.306983,-0.004641,0.057925,-0.017277,-0.392334,0.405518,-0.351318
1.541862,-7.403701,6.11128,-0.08323,-0.025145,-0.00197,-0.259766,0.517578,-0.077637,-0.202948,8.037199,5.306711,-0.081191,-0.056476,-0.016154,-0.180176,0.383301,0.476807,-1.499647,-7.042083,6.923211,-0.113898,-0.09894,-0.017446,0.6521,0.068115,-0.04541,1.836639,-7.083552,6.554424,-0.00851,0.193575,0.022291,0.192871,0.323486,-0.579346,1.74377,-6.356882,7.151849,-0.216401,0.10657,0.057066,-0.380371,0.41748,-0.357178
1.522812,-7.633867,6.238558,0.044482,-0.018127,-0.002253,-0.263428,0.526367,-0.074951,0.037831,8.259583,5.318468,0.078247,0.038342,0.019437,-0.175781,0.37793,0.479492,-1.016411,-7.314805,6.683468,-0.05966,-0.109683,-0.014252,0.650635,0.079834,-0.040283,1.866204,-7.335781,6.341676,-0.130908,0.079411,0.082283,0.188965,0.331055,-0.573486,1.901026,-6.72952,7.079162,0.065096,-0.023702,-0.018038,-0.383789,0.421631,-0.349609
1.630371,-7.15355,6.421936,0.016653,0.002283,-0.001476,-0.265137,0.519287,-0.083496,-0.206731,8.451562,5.236557,-0.048897,-0.014051,-0.017217,-0.189697,0.37793,0.489258,-1.185298,-6.962555,6.632957,0.091764,-0.037364,-0.038504,0.643066,0.070801,-0.04834,1.840769,-7.407275,6.108708,0.047634,0.175959,0.012547,0.188477,0.327881,-0.579102,2.0328,-6.154256,7.266163,0.107284,0.074177,-0.045488,-0.384521,0.415283,-0.355713
1.609521,-7.575454,6.301324,-0.07823,-0.016629,0.007507,-0.262939,0.518066,-0.070557,0.125215,8.102591,5.22639,-0.095633,-0.01301,0.024942,-0.180176,0.386719,0.477051,-0.998958,-6.664254,6.66188,-0.044753,-0.064128,-0.002595,0.646484,0.072998,-0.037842,1.338971,-6.990721,6.42535,0.00243,0.05116,0.015912,0.192627,0.324463,-0.56665,1.724699,-6.335854,7.186438,-0.126602,-0.001994,0.069272,-0.384277,0.415039,-0.344238
1.565458,-7.444649,6.211198,0.044537,0.045146,0.008021,-0.255615,0.520264,-0.071045,-0.160109,8.199481,5.331462,0.071652,0.044312,-0.02569,-0.185303,0.378662,0.478027,-1.073647,-7.221101,6.61162,-0.137657,0.058504,0.023078,0.654297,0.074707,-0.038818,1.9107,-7.350702,6.060932,-0.099484,-0.090673,0.024488,0.195068,0.326904,-0.567627,2.016286,-6.470663,7.043901,0.017494,-0.070798,-0.046624,-0.376709,0.41748,-0.344238
1.464753,-7.42822,6.179139,-0.016527,-0.020969,-0.005399,-0.262451,0.513184,-0.075439,-0.16484,8.304389,5.333364,-0.030558,-0.02939,0.024898,-0.176758,0.381348,0.478516,-1.341409,-7.42321,6.726026,0.089169,0.005866,0.010912,0.646484,0.068115,-0.042725,1.834435,-7.527609,6.346618,0.068243,0.07205,-0.001057,0.191162,0.321289,-0.57373,1.860762,-6.400222,7.157239,0.014533,0.031372,0.021,-0.38208,0.412109,-0.355469
1.572422,-7.341107,6.287084,0.06702,0.035931,0.005412,-0.25415,0.514648,-0.083984,0.009446,8.245912,5.218037,0.035473,0.023084,-0.010196,-0.18335,0.378174,0.485596,-1.060944,-6.780237,6.90335,0.136615,0.02969,-0.027307,0.658447,0.068848,-0.05127,1.792381,-7.120281,6.563384,0.103096,-0.05932,-0.028049,0.200195,0.318848,-0.580811,1.864676,-6.258543,7.314551,0.094382,-0.088344,-0.024654,-0.375488,0.411377,-0.359619
1.549017,-7.315703,6.26481,-0.064055,-0.037584,-0.011985,-0.258057,0.518066,-0.084717,-0.170662,8.317767,5.235713,-0.019486,-0.023552,0.023597,-0.180664,0.373779,0.484863,-1.341435,-6.690329,6.901698,-0.063315,0.00322,0.039247,0.651123,0.070557,-0.051514,2.284031,-6.846721,6.423494,-0.016025,-0.016543,0.03164,0.195312,0.321533,-0.581787,2.190092,-6.188829,7.276622,-0.082508,-0.000141,-0.021518,-0.381348,0.412109,-0.35791
1.593055,-7.562022,6.257058,0.03282,0.03452,0.011714,-0.261475,0.525879,-0.075684,0.122633,8.269003,5.21963,-0.01747,0.019847,-0.012267,-0.181885,0.387451,0.484375,-0.985188,-7.134492,6.725082,-0.10499,-0.020312,0.00261,0.64624,0.077881,-0.041992,1.718104,-7.389206,6.403665,-0.145362,0.093832,0.071267,0.193359,0.333008,-0.570801,1.909273,-6.62795,7.301515,-0.078021,0.039165,0.06311,-0.381836,0.420898,-0.351318
1.540651,-7.228544,6.268022,-0.016953,-0.028326,-0.000999,-0.251221,0.515869,-0.079346,-0.262358,8.215601,5.316909,-0.020103,0.005723,0.019083,-0.177979,0.382568,0.475586,-1.26144,-7.249106,6.731378,0.019791,0.046107,0.017924,0.658691,0.069092,-0.042969,1.656895,-7.703817,6.391864,0.008855,-0.1018,0.001931,0.200928,0.323486,-0.574463,1.923166,-6.456059,7.221331,0.075117,-0.009567,-0.070655,-0.371582,0.412598,-0.352051
1.590406,-7.637004,6.141808,-0.008697,0.013602,0.004614,-0.258545,0.519287,-0.072021,0.127464,8.213257,5.269273,-0.015474,-0.018984,-0.015673,-0.175049,0.375977,0.482666,-1.105275,-6.995011,6.835751,0.042246,-0.023969,-0.023973,0.653809,0.070068,-0.039307,2.17688,-7.213801,6.441108,0.086393,-0.058512,-0.027223,0.19458,0.321533,-0.570557,2.117495,-6.298461,7.269391,0.055147,0.030737,0.050362,-0.375977,0.414551,-0.347656
1.526483,-7.166823,6.373685,0.056105,-0.020288,0.002972,-0.255371,0.514893,-0.077637,-0.217287,8.37148,5.214061,0.04469,0.029694,0.009053,-0.177002,0.380371,0.489502,-1.269531,-6.861513,6.921153,-0.015819,0.042076,0.018142,0.654053,0.068604,-0.044434,1.876651,-6.952999,6.573062,-0.06463,-0.005768,0.03122,0.195801,0.322998,-0.575195,1.882208,-6.153321,7.37606,-0.006442,0.078649,-0.044143,-0.376221,0.40918,-0.35376
1.59241,-7.482534,6.3249,-0.110767,0.002319,0.00345,-0.264404,0.519287,-0.074951,0.033926,8.345677,5.214962,-0.109275,-0.026442,-0.005249,-0.183594,0.38208,0.477539,-1.270168,-6.931889,6.79292,-0.089188,-0.056862,-0.022288,0.647217,0.072754,-0.045654,1.884469,-7.461089,6.521824,-0.184811,-0.093293,0.046016,0.188721,0.328125,-0.572754,1.906241,-6.504255,7.271014,-0.166026,0.028767,0.056518,-0.380859,0.41626,-0.350586
1.569105,-7.503045,6.286333,0.035046,-0.002024,0.022786,-0.262695,0.526123,-0.080811,-0.157893,8.144008,5.270733,-0.018331,0.032139,0.002424,-0.184082,0.379395,0.476807,-1.081128,-7.184717,6.783257,-0.101126,0.004087,-0.004328,0.646484,0.077148,-0.049072,1.953454,-7.63152,6.148476,-0.020604,-0.094269,-0.004019,0.184082,0.33252,-0.577393,1.835819,-6.657469,7.030978,0.04174,0.030307,0.003781,-0.381592,0.419678,-0.355469
1.483341,-7.319985,6.010957,-0.034302,0.018126,0.004526,-0.263184,0.532471,-0.081055,-0.032862,8.244449,5.40444,-0.044431,-0.020209,-0.0035,-0.185303,0.382568,0.479248,-1.264271,-7.204395,6.704166,-0.009788,-0.024723,-0.024213,0.648682,0.087402,-0.04834,2.080776,-7.118134,6.413681,0.028758,-0.02867,-0.019345,0.187744,0.343262,-0.577637,1.858748,-6.185626,6.807155,0.138077,-0.014803,-0.032256,-0.378662,0.426514,-0.358154
1.400032,-7.438403,6.036156,0.027015,-0.019849,-0.005895,-0.25708,0.524658,-0.078857,-0.19865,8.141457,5.132123,-0.000514,0.037895,0.011779,-0.18457,0.377686,0.491699,-1.183595,-7.020011,6.862681,-0.025772,-0.002978,-0.014893,0.65332,0.07959,-0.046143,1.746673,-7.233848,6.369491,-0.181466,-0.032297,0.057339,0.191406,0.337891,-0.573486,2.091371,-5.957766,8.552165,-0.053178,0.011957,0.023336,-0.375488,0.419189,-0.353516
1.573653,-7.363975,5.827318,-0.043002,-0.129759,0.000711,-0.26001,0.517822,-0.076416,0.01998,8.522424,5.330987,0.042844,-0.084884,-0.007434,-0.179688,0.381348,0.487305,-1.225122,-6.961798,6.773618,-0.043466,-0.087307,-0.036099,0.651367,0.074219,-0.050049,2.148991,-7.703743,6.104068,-0.087903,-0.139305,0.009828,0.186035,0.331543,-0.574951,3.004677,-6.850683,8.139071,-0.339637,0.216334,0.037024,-0.373535,0.416748,-0.359375
1.625934,-7.449277,5.533523,0.056503,-0.140309,-0.008724,-0.257812,0.517334,-0.070068,0.329909,8.277449,5.374488,-0.169697,0.058954,-0.018439,-0.180664,0.370361,0.477539,-0.568647,-7.03983,6.610328,-0.123077,-0.043289,-0.025265,0.654541,0.075439,-0.043945,2.374264,-7.130972,6.148372,0.061845,0.044452,-0.032115,0.190674,0.331299,-0.568604,2.956852,-7.179932,8.117879,0.179802,0.799943,0.068198,-0.359375,0.413818,-0.360352
1.471527,-7.475028,6.242764,-0.010833,-0.3171,-0.015531,-0.273438,0.525391,-0.067871,-0.460321,7.895467,5.157469,0.083878,-0.040572,-0.030573,-0.181152,0.37207,0.487305,-1.335562,-7.565581,6.546165,-0.155862,0.041375,0.044319,0.642822,0.082764,-0.048584,1.688246,-7.081344,6.381204,-0.169763,0.000795,0.0877,0.176514,0.342529,-0.570312,2.369026,-6.490834,7.98475,0.121598,1.090739,-0.0124,-0.360596,0.419678,-0.377686
2.189645,-7.406205,6.477138,0.303232,-0.284353,-0.0032,-0.262939,0.52002,-0.071533,0.300121,8.731785,5.698547,0.022902,-0.116121,-0.105512,-0.179688,0.388184,0.493408,-0.93536,-7.419805,6.652247,0.135373,-0.133495,-0.026099,0.648926,0.079102,-0.051514,1.765998,-7.726505,5.86363,-0.069911,-0.140095,0.050575,0.187256,0.338379,-0.571533,0.736321,-6.016427,6.215935,0.754176,1.22887,0.130104,-0.33374,0.409424,-0.401123
0.901739,-6.024502,6.828143,-0.092494,-0.111777,-0.065977,-0.271729,0.520752,-0.066895,-0.525453,7.838462,4.909403,-0.031879,0.035874,0.064346,-0.172363,0.376221,0.487061,-1.214597,-6.44855,6.863763,0.17951,0.145234,0.012218,0.643555,0.079102,-0.052734,2.047508,-7.255863,6.198492,0.100404,-0.018585,-0.009221,0.176758,0.335938,-0.568848,0.497642,-3.090965,7.913336,0.251735,0.455538,-0.444032,-0.338135,0.402832,-0.402588
3.009074,-8.453979,6.914266,-0.360675,-0.33594,-0.131874,-0.271729,0.517578,-0.055176,0.477442,8.957759,5.045698,0.199738,-0.086593,-0.196593,-0.18335,0.379639,0.476807,-1.133716,-6.52524,6.69413,-0.257387,-0.126547,-0.00969,0.649902,0.076416,-0.048096,1.77667,-7.025615,6.603656,-0.109374,-0.11654,0.011507,0.181152,0.334229,-0.566895,2.489084,-6.437431,7.056401,-1.648847,0.817551,0.392086,-0.318604,0.42041,-0.391113
1.138132,-7.628925,6.472867,0.119324,0.086742,0.084438,-0.275635,0.519043,-0.060547,-0.524533,8.201806,5.677304,-0.381189,0.051978,0.027523,-0.174805,0.379395,0.476318,-1.008654,-7.59308,7.000846,-0.180849,0.097325,0.048467,0.645264,0.077393,-0.049805,2.248919,-7.613829,6.29481,-0.163646,-0.137096,0.055937,0.17627,0.33667,-0.567383,-1.865742,-9.761829,5.565619,-0.3649,0.795192,0.06003,-0.313477,0.42334,-0.399414
1.693324,-7.220869,5.467781,-0.191724,0.012388,-0.064206,-0.271484,0.514893,-0.059326,-0.195522,7.296934,5.178383,-0.212301,0.054833,-0.045463,-0.177246,0.366943,0.476562,-2.113008,-7.239876,6.910702,0.062948,0.029702,-0.097965,0.650146,0.07666,-0.052002,1.924598,-7.668473,7.128792,-0.137941,0.001347,-0.009557,0.180176,0.339355,-0.56543,0.416743,-6.499525,6.072251,1.268528,-0.534153,-0.388656,-0.317383,0.404541,-0.410156
1.395622,-8.232408,6.760028,-0.027524,-0.154015,0.025361,-0.268555,0.521484,-0.053467,-0.663046,7.927849,4.785721,0.554442,-0.085933,0.072701,-0.174316,0.380127,0.4729,-1.466331,-6.792004,7.372932,-0.125708,-0.324328,-0.060436,0.651123,0.080811,-0.051758,2.15431,-7.603554,6.702837,-0.202134,-0.173446,0.061143,0.182617,0.344238,-0.561035,1.908686,-4.529073,8.134608,-0.260176,0.166627,0.209142,-0.313721,0.413086,-0.404541
3.002921,-6.985275,7.003665,0.042279,0.122146,0.046327,-0.266357,0.517334,-0.061279,1.054318,10.869464,6.106806,-0.09635,0.083456,-0.169104,-0.178467,0.384277,0.483398,0.024425,-6.910234,6.160199,-0.256639,-0.113116,-0.137702,0.648438,0.081787,-0.058594,2.619085,-7.052675,6.422804,-0.200649,-0.035767,-0.028034,0.179443,0.343994,-0.564697,0.408702,-7.075059,7.043268,-0.929304,0.194871,0.044634,-0.310059,0.420898,-0.401611
0.966043,-7.694932,6.116752,-0.444099,0.011374,0.009498,-0.275391,0.518311,-0.053223,-1.051153,6.585869,4.997044,-1.196036,0.090209,0.082309,-0.176514,0.370117,0.477783,-1.920014,-7.264675,7.046821,-0.244066,-0.042173,-0.003292,0.637451,0.080566,-0.053955,1.365873,-7.432693,6.695968,-0.610698,-0.076032,0.116551,0.16748,0.354004,-0.552979,0.547107,-8.165381,9.692075,-0.267699,-0.290673,0.102018,-0.321289,0.425537,-0.391602
2.566142,-9.689465,5.586769,-0.269285,0.235818,0.149156,-0.263184,0.51123,-0.05957,0.548523,6.26463,5.978474,0.715826,-0.0101,-0.088143,-0.174561,0.372314,0.477783,-0.754994,-7.696501,6.52979,-0.268459,-0.379074,-0.16905,0.642578,0.079102,-0.0625,2.215398,-8.874784,6.474261,-0.19012,-0.526379,-0.006562,0.168213,0.347168,-0.553467,2.662774,-8.798762,9.552957,-0.325128,0.144312,0.163979,-0.303711,0.417725,-0.39502
1.894999,-8.579555,6.499174,0.232258,0.041199,0.123821,-0.267578,0.52002,-0.055664,0.184068,10.305256,6.191213,0.517307,0.260496,-0.075443,-0.173828,0.380127,0.470459,-0.518133,-7.558443,6.740598,0.13247,-0.229993,-0.006285,0.633789,0.087158,-0.0625,3.341713,-7.108992,6.417795,0.382881,-0.211115,-0.187268,0.152832,0.353027,-0.55127,2.012844,-8.087449,9.468565,0.390111,0.898653,0.094042,-0.296631,0.419922,-0.403564
2.55469,-5.584181,8.743227,0.047639,0.355673,0.338769,-0.259277,0.518799,-0.068359,-0.507412,9.357465,3.276676,-0.690706,0.119574,-0.062407,-0.179443,0.368896,0.480957,-0.967278,-6.650675,7.149944,-0.093642,-0.346045,-0.076649,0.630859,0.088135,-0.071045,2.261601,-6.304924,7.127296,-0.323539,-0.300361,0.086291,0.150391,0.356445,-0.54834,0.607946,-6.273313,10.003198,-0.147114,1.028163,0.051673,-0.281006,0.415527,-0.414795
2.468531,-7.104684,7.852982,-1.482757,0.260296,0.473287,-0.257324,0.534912,-0.056396,0.445062,7.367475,4.974703,-0.35351,-0.294771,-0.277209,-0.173096,0.347656,0.474365,-0.427835,-6.636248,6.949751,-0.125885,-0.529226,-0.132727,0.619873,0.100342,-0.077148,3.28288,-8.32308,6.041256,-0.577618,-0.486616,0.13777,0.13623,0.368896,-0.541748,-0.129771,-7.139575,8.871705,-1.04288,0.650945,0.636603,-0.268311,0.431885,-0.408447
1.329883,-11.498941,6.388432,-0.356615,0.667006,0.579277,-0.23877,0.539551,-0.065186,-0.317466,8.372398,5.965468,0.07801,0.355904,-0.170475,-0.181396,0.365723,0.462402,-1.442194,-6.690378,7.040552,-0.560908,-0.394047,-0.090692,0.625,0.103271,-0.081299,3.002121,-8.356692,6.497021,-0.185853,-0.033256,-0.094192,0.138672,0.37207,-0.536865,0.219151,-8.699081,8.482091,-0.735297,0.427914,0.276871,-0.24707,0.436768,-0.408447
2.635183,-9.20853,7.536031,0.063242,0.345756,0.355562,-0.222412,0.541748,-0.067871,0.289817,10.391051,7.606787,0.310783,-0.175305,-0.691632,-0.17627,0.346191,0.463135,-0.262698,-8.908213,6.480067,-0.641687,-1.092998,-0.222687,0.616943,0.114502,-0.094971,2.8938,-7.867391,6.386402,-0.240549,-0.244077,0.048052,0.13623,0.378906,-0.530273,1.713311,-8.150073,7.678284,0.508419,0.400288,0.330968,-0.226074,0.432373,-0.417236
2.288958,-9.658816,6.942285,0.142674,0.53219,0.277905,-0.201416,0.544678,-0.078613,1.329838,9.529746,6.262551,-0.678526,0.54902,-0.635,-0.176758,0.333252,0.455322,0.803202,-8.411405,5.493778,0.525994,-0.659948,-0.131974,0.616943,0.122559,-0.109863,3.524195,-8.238899,5.752385,-0.155782,-0.097483,-0.076851,0.134033,0.385498,-0.526855,0.73608,-5.885219,8.460356,0.684617,0.679482,0.007276,-0.203369,0.423096,-0.433838
2.771661,-7.70915,6.959996,0.243387,0.6193,0.193949,-0.188477,0.529785,-0.090332,-0.384029,6.087655,5.009623,-0.38339,0.313,-1.026667,-0.172363,0.318604,0.455566,-0.448215,-5.342413,7.054785,0.279586,-1.028739,-0.450272,0.606445,0.121094,-0.131104,2.472858,-7.895135,5.773775,-0.035676,-0.049102,-0.06602,0.124512,0.377441,-0.52124,0.445023,-5.963008,8.333303,-0.576462,0.227993,0.192267,-0.192383,0.412598,-0.429932
1.530583,-8.502954,6.379203,-0.076277,0.791447,0.359103,-0.170654,0.534424,-0.094482,0.260369,8.109935,5.332181,1.025153,0.573717,-0.825324,-0.169678,0.320557,0.434814,1.585399,-7.284393,6.669835,-0.790101,-0.989969,0.054281,0.60083,0.135498,-0.13501,2.420956,-7.865672,5.965415,-0.124851,-0.326739,-0.173148,0.114746,0.38501,-0.515625,0.783682,-9.192435,8.530399,-0.75639,0.249355,0.386064,-0.177734,0.426025,-0.422852
1.436488,-8.25529,6.117402,0.182747,0.861791,0.317614,-0.153076,0.530029,-0.109131,-1.45429,10.119326,6.039446,-0.196411,0.516629,-0.996579,-0.158936,0.313965,0.42627,-0.959947,-8.788251,6.29429,0.205326,-0.638535,-0.443664,0.592285,0.146484,-0.15332,2.979662,-8.014327,6.138862,-0.152342,-0.178685,-0.140193,0.105469,0.388672,-0.51416,0.852005,-8.910035,8.378144,0.763417,0.359697,0.039836,-0.166016,0.409668,-0.439697
0.955814,-7.802059,6.134101,-0.140319,0.633928,0.36714,-0.135986,0.529541,-0.11792,-0.524584,7.386445,5.248565,-0.298283,0.459933,-0.960301,-0.158203,0.296143,0.413086,0.244972,-6.411121,6.885989,0.255697,-1.498922,-0.380193,0.575195,0.15332,-0.179688,2.509327,-8.487085,5.93178,-0.337129,-0.09246,-0.171602,0.093994,0.395508,-0.507324,1.715346,-5.76606,8.656223,0.659111,0.524685,0.153401,-0.14917,0.396484,-0.455811
0.600567,-9.113464,6.051119,-0.066246,0.72017,0.336485,-0.126221,0.52124,-0.121338,-2.371648,8.008069,5.498644,0.407184,0.746763,-1.145928,-0.154541,0.284912,0.406006,1.395371,-7.273007,6.579548,-0.744894,-0.833539,-0.342181,0.559326,0.164551,-0.187988,2.277424,-8.479705,5.83467,-0.154651,-0.084638,-0.170004,0.078369,0.395752,-0.5,0.444752,-6.627521,8.437954,-0.892348,1.485539,0.33582,-0.126709,0.400879,-0.453857
1.274196,-7.22156,6.489139,0.465566,0.717627,0.418985,-0.101074,0.52002,-0.134766,-1.484541,8.278306,5.292092,-0.036168,0.209705,-0.977193,-0.148926,0.27124,0.393799,-0.105335,-9.171035,5.78467,-0.156527,-1.318391,-0.338868,0.549072,0.176758,-0.205078,2.204065,-7.904113,5.536776,-0.136639,-0.158234,-0.265633,0.070068,0.396973,-0.495605,-1.904773,-8.844,7.149077,-0.013293,0.650262,0.434563,-0.100586,0.397949,-0.45874
0.794975,-7.323101,6.729515,-0.035685,0.942588,0.450705,-0.070557,0.518555,-0.137451,-1.388564,7.161552,4.604029,0.115091,0.665664,-0.998945,-0.13623,0.263916,0.386475,3.732889,-7.206809,6.067659,0.410306,-1.181987,-0.582258,0.539795,0.185547,-0.2229,2.33646,-8.093856,4.960734,-0.309368,-0.408838,-0.233599,0.064453,0.403564,-0.484375,1.290885,-7.44782,7.86046,0.862841,0.438881,0.064164,-0.076904,0.383057,-0.46875
1.277619,-9.267273,7.035248,0.358553,1.025436,0.558347,-0.052002,0.51416,-0.159668,-2.455149,7.929814,4.318961,0.825361,0.190185,-0.741953,-0.12915,0.268311,0.374023,2.577934,-6.3575,6.328274,-0.150635,-0.534893,-0.288176,0.525391,0.196045,-0.241943,2.726876,-8.296706,4.2659,-0.071618,-0.697952,-0.413283,0.039795,0.404297,-0.488281,-0.704069,-6.826646,8.904393,0.186618,1.213381,0.66328,-0.047363,0.377441,-0.480225
0.504909,-8.512975,7.056631,0.54798,1.086377,0.679495,-0.02124,0.51001,-0.166748,-0.898703,11.315482,5.288862,1.028815,0.59783,-0.992726,-0.127441,0.273926,0.365723,2.877064,-7.05509,6.525778,-0.316542,-0.627948,-0.473263,0.513428,0.214844,-0.25,2.970899,-7.21753,5.114125,-0.213566,-0.828834,-0.512377,0.023193,0.406006,-0.480957,0.02178,-8.72259,7.934758,-0.037149,0.002263,0.450164,-0.031982,0.372559,-0.47998
-0.43908,-8.741679,5.711522,0.788164,1.016862,0.488968,0.005859,0.502197,-0.176514,-3.529782,8.810524,4.482667,-0.394448,0.749607,-0.71615,-0.094482,0.271484,0.349609,3.367565,-8.475084,7.336157,0.197331,-0.13124,-0.332832,0.501709,0.225342,-0.256104,3.381538,-8.806165,4.499428,0.013299,-1.168068,-0.530376,-0.001709,0.404541,-0.475098,1.354691,-8.186786,7.206483,1.445546,1.257594,0.346653,0.001465,0.346191,-0.49292
-2.133659,-7.008753,6.134976,1.352413,0.958974,0.618536,0.033203,0.497803,-0.196533,-3.347133,5.729199,2.147283,1.439873,0.681283,-0.615349,-0.093506,0.266846,0.330811,2.508726,-8.107694,8.371974,1.258534,0.036365,-0.411484,0.481689,0.242676,-0.2771,4.251282,-8.440598,4.947764,1.036394,-0.995294,-0.952409,-0.031006,0.395508,-0.49292,-3.202303,-5.447284,9.592689,1.469129,1.476564,0.486929,0.036133,0.32959,-0.516846
-1.473668,-7.951086,6.925059,0.874732,0.913875,0.628691,0.057861,0.479736,-0.212402,-4.507697,10.583045,3.65636,2.328574,0.839687,-0.296649,-0.079834,0.290771,0.299561,3.053794,-6.326197,9.143708,1.293747,0.254274,-0.401457,0.459717,0.239258,-0.298584,4.706972,-6.252573,6.384475,1.16909,-1.011803,-0.878075,-0.062256,0.369873,-0.50293,-1.421394,-8.24036,8.661886,-0.358122,0.856548,0.714689,0.060547,0.318115,-0.518799
-2.185771,-7.395547,7.290238,2.101895,1.113767,0.833144,0.093018,0.470459,-0.234863,-4.176036,10.583621,3.242442,0.617972,0.581053,-0.061174,-0.05249,0.287109,0.272461,1.656367,-6.726019,9.411043,0.978043,0.386349,-0.121645,0.443604,0.253662,-0.3125,5.823644,-6.310709,6.918911,0.781884,-0.881228,-0.783101,-0.084473,0.365723,-0.506348,-2.77295,-9.961792,5.993332,2.415163,1.794488,0.916318,0.108887,0.283936,-0.53833
-3.184903,-2.972713,9.142046,1.120647,1.149496,0.664417,0.128418,0.453369,-0.249512,-5.06813,8.949551,2.60337,1.257688,0.81401,-0.014502,-0.040771,0.281006,0.236572,1.219949,-6.938849,9.786826,0.845946,0.097135,-0.286457,0.422607,0.255615,-0.325928,6.160719,-6.447482,7.312585,0.724403,-0.478228,-0.59779,-0.10083,0.34375,-0.511719,-4.331029,-1.118734,9.759737,4.169068,0.99809,-0.097067,0.137939,0.211182,-0.568115
-2.849064,-7.952806,8.025512,0.105401,0.927673,0.496624,0.154297,0.457275,-0.250244,-4.968492,11.752072,3.707522,1.294891,0.440758,-0.092758,-0.013672,0.28125,0.207031,1.810918,-7.257894,9.536788,0.56212,-0.112003,-0.07162,0.388916,0.266113,-0.331299,6.59603,-6.366727,7.280451,0.529047,-0.239941,-0.417885,-0.11792,0.339844,-0.503418,-1.576604,1.365842,10.498549,-0.129353,1.245612,0.635677,0.171387,0.209473,-0.55249
-3.067954,-6.49567,8.250793,1.466097,1.171084,0.672466,0.183594,0.449463,-0.270264,-4.40575,10.980978,3.107721,-0.058243,0.604644,0.022721,0.005371,0.240234,0.168701,2.260479,-7.595788,9.153148,0.657386,-0.223142,-0.063924,0.355713,0.279053,-0.354492,6.509866,-6.536853,6.478979,0.558973,0.189667,-0.219053,-0.128174,0.334229,-0.513428,-4.415985,-6.369667,8.735936,-2.191104,2.060008,0.835759,0.214844,0.237061,-0.538574
-2.959568,-4.559395,8.697916,0.326662,1.137344,0.59357,0.217529,0.453613,-0.269287,-5.016784,7.96986,2.236139,0.089726,0.333148,0.212843,0.037842,0.210938,0.144775,3.151797,-6.922874,8.68736,0.630057,-0.224128,-0.002912,0.32251,0.287109,-0.359619,5.294934,-6.346854,6.134289,0.477771,0.313079,-0.097752,-0.133545,0.333984,-0.503906,-5.528284,-10.602494,7.384101,0.775026,1.035898,0.52308,0.243164,0.226807,-0.530762
-3.120656,-6.6149,7.456066,0.903939,1.524243,0.726613,0.258057,0.446045,-0.285645,-4.018368,8.676679,2.050696,1.020312,0.262661,0.398692,0.061279,0.177979,0.115723,3.509981,-7.412238,8.236503,0.50227,0.052768,0.247222,0.301514,0.293213,-0.381348,5.152247,-6.849366,5.53905,0.592957,0.052215,-0.023443,-0.138184,0.328857,-0.510986,-3.766956,-3.729201,6.903227,3.894782,0.803028,0.182424,0.273193,0.16748,-0.555664
-4.511225,-3.56514,8.199603,1.336297,1.606849,0.673592,0.289062,0.433838,-0.295166,-5.373862,10.316544,2.137749,0.877212,0.215643,0.682232,0.093506,0.14502,0.088867,2.792926,-8.316877,8.442484,0.99761,0.278042,0.348492,0.268799,0.289307,-0.403564,4.837571,-7.160272,5.230379,1.137835,0.212086,-0.107919,-0.147949,0.311523,-0.521973,-4.863272,2.424153,8.372342,1.644929,1.378117,0.199121,0.303711,0.138184,-0.553467
-5.467023,-3.685665,7.874082,0.581509,1.542602,0.603328,0.326172,0.431641,-0.313477,-4.646349,11.032477,1.305717,1.060083,-0.224363,0.763112,0.102783,0.104492,0.05957,2.949629,-7.064705,8.671122,1.75797,0.505593,0.433753,0.250977,0.274414,-0.440186,4.252011,-5.799862,6.130548,1.635604,-0.00217,-0.163323,-0.158447,0.289795,-0.545654,-6.080091,-1.485075,7.219924,-1.148094,0.695383,0.810557,0.326172,0.146729,-0.554688
-5.991873,-3.647255,7.897547,0.414777,1.142096,0.518846,0.360352,0.426514,-0.307129,-3.719931,13.572728,1.839963,0.661306,-0.166911,0.674731,0.125244,0.044678,0.034668,2.207409,-4.091507,9.349604,1.170278,0.778767,0.436655,0.237793,0.262695,-0.445801,5.708298,-3.794219,7.256766,1.088102,-0.148464,0.068522,-0.165771,0.274658,-0.542969,-3.88215,-5.079685,7.340641,-0.06217,0.643264,0.136399,0.351807,0.140625,-0.54126
-6.101717,-5.964431,8.740729,-0.208593,0.628694,0.549385,0.39209,0.430664,-0.310547,-4.085208,11.467503,1.691365,-0.660045,-0.518076,0.531759,0.138672,-0.006348,0.01001,0.967304,-5.313878,9.086314,0.010064,0.706829,0.799569,0.233398,0.266113,-0.458496,5.164096,-5.50529,7.531007,0.206251,0.257528,0.495644,-0.158936,0.276123,-0.545654,-4.808647,-5.682183,7.977625,0.050488,1.655502,0.65901,0.396484,0.134277,-0.529785
-4.022804,-6.89077,7.875019,1.175022,0.73442,0.634861,0.425537,0.418701,-0.317139,-2.171406,7.703632,1.085659,0.063307,-0.472689,0.337876,0.156738,-0.055908,-0.011475,0.866626,-6.526151,8.647395,0.923177,0.54013,0.544025,0.221191,0.253174,-0.476074,4.228335,-6.880884,7.709443,1.043104,0.027593,0.179745,-0.160889,0.262695,-0.548828,-7.960753,-5.310385,5.281488,1.544201,0.876043,0.508814,0.423096,0.104492,-0.528076
-5.957479,-2.477492,7.672752,1.454238,0.824615,0.581769,0.444092,0.397949,-0.339355,-3.443074,8.388446,0.763137,1.477449,-0.240192,0.314983,0.166992,-0.110352,-0.022217,0.382209,-4.316295,9.03099,1.755406,0.592953,0.615553,0.20166,0.232178,-0.505127,5.259469,-5.037137,8.108912,1.670287,0.106753,-0.021924,-0.178711,0.237305,-0.573242,-5.443193,-0.873542,6.489754,2.468887,-0.148184,0.150131,0.42041,0.065674,-0.544678
-5.143751,-1.974068,5.981735,0.625982,0.648299,0.453836,0.467529,0.396973,-0.344971,-2.47506,11.178577,0.649501,1.05002,-0.409896,0.20399,0.16626,-0.15332,-0.04248,0.00439,-2.169335,9.925878,1.382918,0.376984,0.502558,0.192139,0.219238,-0.527832,4.826917,-3.670954,9.050971,1.285456,0.323144,0.015427,-0.181641,0.222412,-0.581055,-3.942115,1.401353,6.50587,0.844532,0.576717,0.472231,0.439209,0.049072,-0.54126
-5.797927,-1.242031,6.592711,0.615873,0.422303,0.513204,0.49707,0.380859,-0.346436,-3.080302,9.566608,-0.472253,-0.460025,-0.244589,0.391535,0.178711,-0.202393,-0.039062,0.026356,-1.763621,9.758928,0.357818,0.258998,0.408242,0.186035,0.21167,-0.532715,4.854821,-3.791491,9.037156,0.431669,0.180893,0.253259,-0.177002,0.210938,-0.580811,-5.513435,-0.507905,7.099355,-0.505881,0.960632,0.380022,0.469482,0.043945,-0.525391
-4.887677,-2.092608,7.562979,-0.141505,0.472599,0.470813,0.516113,0.385742,-0.353271,-2.211381,7.12862,-0.449778,0.293074,-0.504703,0.250891,0.181152,-0.240723,-0.061523,0.012187,-3.316194,9.266647,0.085073,0.118037,0.327162,0.172363,0.217041,-0.549072,4.790949,-5.14444,8.306136,0.297475,0.305724,0.160158,-0.181396,0.211914,-0.582275,-5.765173,-2.581597,6.537349,0.16063,0.632219,0.555872,0.484619,0.038818,-0.521484
-5.74037,-3.359238,7.01414,0.393837,0.414842,0.425041,0.544922,0.376709,-0.373047,-1.542213,9.698097,0.316686,0.996343,-0.064291,0.195563,0.190918,-0.285889,-0.068359,0.151373,-2.990428,8.766052,0.853678,-0.013017,0.058371,0.165283,0.206787,-0.579102,4.566984,-4.382137,8.26698,0.818401,0.366579,-0.10027,-0.17749,0.200684,-0.604248,-5.582016,-0.017492,6.158049,1.451386,0.626401,0.090756,0.511963,0.016357,-0.530273
-4.7051,-2.643936,8.554729,0.421701,0.31331,0.246386,0.548828,0.365967,-0.366455,-1.709211,9.786871,0.852963,-0.094566,-0.121192,0.056303,0.194336,-0.310791,-0.074951,0.68204,-1.217631,8.93102,0.620105,-0.214949,-0.033245,0.132568,0.193115,-0.580566,4.619374,-2.954007,8.179608,0.51597,0.292723,-0.116134,-0.193115,0.18457,-0.593994,-5.974723,2.111793,6.670925,0.505409,0.638526,0.222719,0.515869,-0.003906,-0.512451
-5.305029,-3.099565,8.554048,0.153584,0.719687,0.255505,0.577148,0.362305,-0.368408,-1.199783,8.472336,-0.44496,0.606721,0.201738,0.014239,0.197021,-0.343994,-0.065918,1.42403,-2.032173,8.931303,0.171803,-0.14718,0.075584,0.12793,0.195312,-0.59668,4.475331,-3.366618,7.83072,0.329558,0.242371,-0.139974,-0.189941,0.181641,-0.603516,-7.226443,-0.595732,7.354959,-1.099128,0.146857,0.294132,0.531494,0.007812,-0.512207
-7.340141,-1.986349,6.665686,0.272212,0.312392,0.213911,0.589111,0.356689,-0.37793,-2.078662,12.389258,-0.05009,0.975669,0.231031,-0.314582,0.215332,-0.375,-0.0625,0.872878,-2.310279,8.826057,0.239681,-0.109675,-0.184077,0.108398,0.194092,-0.612305,4.520139,-3.097583,7.80098,0.264542,0.124123,-0.168052,-0.200195,0.171631,-0.60498,-5.375589,-3.352691,7.326435,-0.251333,-0.3496,0.144857,0.530029,0.004639,-0.520508
-6.706965,-1.636081,6.353713,-0.6303,-0.287099,0.203989,0.604004,0.369385,-0.384521,-1.547162,12.116046,0.184896,-0.993874,0.169129,-0.426905,0.228516,-0.407715,-0.07251,1.587469,-1.739946,9.104993,-0.218095,-0.276108,-0.192059,0.098145,0.206543,-0.623291,4.776608,-2.596596,7.756485,-0.316093,0.105281,-0.08071,-0.203613,0.184814,-0.608154,-3.538335,-1.838581,6.671047,0.208677,0.743499,0.108313,0.553467,0.006836,-0.511963
-5.195678,-4.372375,6.922674,-0.396081,-0.688965,0.245459,0.605713,0.375244,-0.404297,-2.149229,7.324711,-0.933827,-0.563358,0.206066,-0.467639,0.231934,-0.430176,-0.084717,2.125685,-3.221455,9.054765,-0.502255,-0.019126,-0.122901,0.083496,0.219482,-0.640869,4.136557,-4.403426,7.261593,-0.533611,0.015451,0.014044,-0.214111,0.197266,-0.615723,-5.940589,-1.816839,7.581526,-0.797527,1.400802,0.410615,0.576416,0.012939,-0.505371
-4.054139,-3.369489,9.451485,-0.455729,-0.307385,0.493174,0.618896,0.369385,-0.406006,-2.665058,9.75868,1.400227,0.464809,0.369008,-0.377655,0.241699,-0.456787,-0.067871,1.409805,-3.131836,10.08398,-0.343203,0.166834,-0.369027,0.078857,0.219482,-0.642578,4.490829,-3.721179,7.588391,-0.215982,-0.226646,-0.253438,-0.217773,0.194824,-0.609375,-8.190245,-4.089253,6.973211,-1.210441,0.833719,0.491078,0.598633,0.011475,-0.488525
-3.558246,-3.917737,8.050852,-0.555157,0.395656,0.562858,0.638428,0.378418,-0.413818,-2.588624,9.424262,1.051561,-1.02239,0.222084,0.115602,0.25293,-0.482178,-0.080078,1.686428,-3.545374,9.483044,-0.625663,0.205649,-0.111675,0.072754,0.23999,-0.656006,5.369302,-3.295774,7.606989,-0.53873,-0.201089,-0.003142,-0.229492,0.211182,-0.612061,-8.28928,-3.173631,7.170666,0.38749,-0.33332,0.357395,0.602295,0.010254,-0.500488
-6.144616,-3.450474,6.719093,-0.34911,0.48629,0.626168,0.655762,0.384521,-0.406738,-1.996611,7.057484,0.649001,-0.158101,0.309414,0.067136,0.251709,-0.505615,-0.080322,0.970427,-4.88988,8.996912,-0.580675,0.205822,-0.221877,0.066162,0.258545,-0.656494,5.894972,-4.939143,7.052832,-0.746364,-0.010928,0.009678,-0.235107,0.230713,-0.603271,-4.130187,-0.758218,8.273012,-0.330296,-0.77736,0.388126,0.599609,0.011475,-0.505615
-5.606459,-3.710456,5.402269,-0.391963,0.139225,0.702124,0.666748,0.365967,-0.414795,-1.816784,10.501883,0.982204,0.942649,0.186247,-0.047273,0.253174,-0.522217,-0.063965,1.470857,-4.838181,8.479083,0.184903,-0.150219,-0.126753,0.049316,0.244873,-0.677246,6.095683,-5.065788,6.973677,0.111109,0.320603,-0.080721,-0.241211,0.217773,-0.61499,-3.482542,-3.627789,6.543771,-1.598005,0.678657,0.846451,0.613037,0.009521,-0.499512
-7.779074,-3.700616,6.80893,-0.586961,-0.400063,0.59139,0.674316,0.37085,-0.423828,-2.312672,12.637082,2.437409,-0.56082,0.385709,-0.200577,0.268066,-0.549561,-0.057373,1.641536,-2.800321,9.477009,-0.221167,-0.030195,-0.312819,0.043213,0.251221,-0.684814,4.641402,-3.367351,7.830441,-0.468933,0.646902,-0.013396,-0.235352,0.231201,-0.616455,-6.977638,-4.624615,5.727957,-0.024588,1.126473,0.556059,0.633789,0.002441,-0.484619
-5.361126,-5.620962,7.858821,-0.26428,-0.430179,0.536935,0.679688,0.360107,-0.432129,-3.376849,8.360603,0.918599,-0.631415,0.221227,-0.045196,0.266357,-0.565918,-0.067627,2.138884,-5.864625,9.217089,-0.994456,-0.062657,0.157212,0.038086,0.262695,-0.687256,3.479138,-7.170598,6.686761,-0.84543,0.009665,0.240399,-0.241455,0.237061,-0.613525,-8.707978,-1.327712,5.572163,0.737395,0.646334,0.446481,0.648926,-0.02417,-0.476074
-5.400789,-3.079663,8.513084,0.056681,-0.322753,0.587861,0.687256,0.35791,-0.448242,-1.319643,10.107283,1.826556,0.80807,0.292137,-0.126518,0.284668,-0.587158,-0.047607,2.81845,-6.587896,8.623113,0.490799,0.344941,-0.385147,0.037842,0.26123,-0.706299,5.594545,-6.748261,6.338457,0.527996,-0.048981,-0.464681,-0.248535,0.235596,-0.626465,-7.696398,-0.132075,6.239458,-0.706904,-0.361242,0.576144,0.649902,-0.016113,-0.488281
-5.475093,-4.302935,7.379591,-1.090114,0.050965,0.529302,0.700439,0.362793,-0.445068,-2.9852,11.760486,2.620145,-0.468605,0.618885,0.153591,0.268799,-0.603027,-0.048096,1.316617,-3.035262,9.470022,0.236388,0.524712,-0.192398,0.041748,0.26001,-0.711914,4.818546,-3.641096,7.766348,-0.128154,0.268577,-0.107732,-0.248535,0.234863,-0.625,-6.808881,-3.285341,4.625129,-1.786266,-0.221108,0.544957,0.656006,-0.003174,-0.488525
-7.440875,-5.460155,5.566075,-0.370652,-0.401033,0.571117,0.699463,0.352051,-0.450439,-2.587426,9.87903,2.135026,-0.728714,0.219699,-0.085685,0.272217,-0.616455,-0.054199,0.912113,-4.215643,8.93555,-1.396301,0.221915,-0.227152,0.035645,0.274414,-0.705322,5.145228,-5.319047,7.607608,-1.331861,-0.134859,0.131666,-0.258301,0.248291,-0.613525,-7.74376,-5.514007,4.112295,-0.796244,-0.746556,0.619903,0.647461,-0.010742,-0.49292
-7.08275,-3.287935,5.473219,-0.535822,-0.681706,0.418283,0.69458,0.362549,-0.472168,-2.639922,9.600633,2.665982,-0.360057,0.585156,-0.216126,0.282959,-0.628662,-0.062988,0.582461,-7.813994,7.664721,-1.120874,0.209757,-0.084675,0.030273,0.303711,-0.719238,5.693826,-7.88506,6.32141,-0.839266,0.463102,0.199622,-0.254639,0.274414,-0.623047,-4.843774,-2.838494,4.446852,0.581935,-0.816892,0.209188,0.637451,-0.017334,-0.516602
-7.636545,-5.804754,5.94777,-1.16494,-1.204264,0.268023,0.690674,0.369141,-0.481445,-4.571052,10.275227,3.485178,-0.284355,0.521628,-0.487808,0.299805,-0.644775,-0.04541,-0.392933,-6.466877,9.108106,-0.0443,-0.029422,-0.463773,0.026611,0.303467,-0.718262,3.419639,-5.966777,6.866208,-0.198089,0.90325,-0.155196,-0.24292,0.272705,-0.623779,-7.287986,-0.727573,4.108872,-0.979951,0.616748,0.503488,0.656982,-0.015625,-0.502686
-8.157951,-6.772608,5.979489,-0.494214,-0.817997,0.282415,0.680664,0.366455,-0.489502,-6.184121,10.631954,4.459984,-0.700591,0.742852,-0.217195,0.309082,-0.642334,-0.04834,0.707619,-6.00084,9.779111,-1.423793,0.021413,-0.013735,0.020996,0.320801,-0.707764,2.859143,-5.529288,6.433222,-1.173532,0.747808,0.486086,-0.237793,0.290771,-0.615967,-12.87071,-4.739706,3.924132,-2.270145,-0.361661,0.498702,0.651367,0.000732,-0.507324
-8.048114,-4.75246,5.417151,-0.199438,-1.008399,0.112529,0.666504,0.371094,-0.510742,-6.33926,8.845668,4.134647,-0.814206,0.389396,0.040479,0.304199,-0.658691,-0.059082,0.606298,-11.337685,8.177086,-1.50611,0.398277,0.264596,0.024902,0.352539,-0.706787,2.211285,-9.630042,5.133874,-1.025642,1.012441,0.452083,-0.22168,0.318604,-0.620117,-8.93229,-5.757699,3.896147,0.560216,-2.079188,0.044335,0.619629,-0.001709,-0.54248
-7.175502,-3.572781,4.809645,-0.395748,-0.744968,-0.0808,0.6604,0.364014,-0.527588,-4.968817,9.132769,4.090546,-0.029659,0.616737,0.402343,0.293701,-0.668945,-0.038086,1.207644,-10.985135,7.2401,0.715968,0.716464,0.14054,0.038574,0.327881,-0.727539,1.802961,-8.470549,5.621879,0.769361,0.759343,0.202541,-0.206299,0.293213,-0.64502,-5.979981,1.276077,4.145903,1.728826,-0.968633,-0.277383,0.613037,-0.037598,-0.562256
-6.708013,-3.770035,4.206208,-0.794082,-0.997183,-0.243089,0.654541,0.387939,-0.538574,-6.02938,9.780215,4.634661,-0.985306,0.357167,0.568305,0.293945,-0.696289,-0.051514,-0.266191,-6.045408,7.307679,0.357597,1.110764,0.349132,0.063477,0.326172,-0.726807,2.620204,-4.65564,6.77243,-0.008247,0.826456,0.440208,-0.186035,0.302979,-0.64502,-7.365341,2.039962,5.370884,-2.106896,-0.916261,0.056657,0.606445,-0.001221,-0.56958
-6.945581,-4.124971,5.382286,-0.871766,-0.953484,-0.242254,0.635742,0.397949,-0.546875,-5.675114,7.364946,3.814817,-1.33702,0.126531,0.60302,0.276367,-0.699219,-0.064453,-2.067874,-7.400692,6.502006,-1.489943,0.737739,0.779361,0.083252,0.34668,-0.719238,1.161356,-7.247778,6.382145,-1.042491,1.03397,1.177355,-0.163574,0.325928,-0.641846,-5.873509,-5.936717,5.700919,-3.25503,-0.802259,0.085261,0.593994,0.044678,-0.581055
-6.523499,-5.904628,6.179367,-1.248097,-0.963157,-0.200337,0.61377,0.419189,-0.563721,-7.221013,6.42547,4.630386,-1.038866,-0.233678,0.547866,0.264404,-0.710693,-0.084717,-2.376972,-11.908115,5.046415,-1.380657,0.511217,0.906109,0.089355,0.369873,-0.717285,0.524884,-9.454146,6.488748,-0.339945,1.055834,1.029263,-0.145996,0.334717,-0.656006,-8.705825,-9.001964,4.907009,-0.618488,0.167424,-0.152988,0.589355,0.054932,-0.588867
-6.17102,-8.548412,5.771489,0.04793,-0.791079,-0.101151,0.605225,0.423584,-0.571045,-5.129431,4.747318,4.701955,-0.327276,-0.918456,0.424,0.24585,-0.717285,-0.088135,-3.180152,-12.099805,4.823338,0.879335,0.093129,1.017293,0.102783,0.352051,-0.730713,0.322201,-8.825676,6.243158,0.766034,1.187688,1.148914,-0.110107,0.326904,-0.664307,-9.958813,-5.669456,5.156761,1.362712,-1.411238,-0.016828,0.573486,0.037354,-0.608887
-4.673243,-4.676985,5.352614,1.056318,-0.566657,-0.225819,0.605225,0.400146,-0.589844,-2.565009,5.931459,5.040414,1.130254,-0.624061,0.286349,0.24707,-0.725342,-0.068359,-0.928238,-6.146176,4.861709,2.196069,-0.281771,0.817691,0.111572,0.302246,-0.755615,-0.260223,-7.127067,5.455606,1.491225,1.340209,0.95016,-0.071533,0.302002,-0.689453,-4.7043,-0.807496,5.109764,2.043012,-1.994543,-0.321328,0.550537,0.000488,-0.638672
-3.978332,-3.770215,4.977105,-0.60941,-0.648732,-0.48035,0.586182,0.407959,-0.59375,-2.16315,9.740825,5.308482,0.189181,-0.412146,0.203374,0.244385,-0.731934,-0.065186,-0.167943,-1.270654,5.114071,0.683326,0.082768,0.993042,0.118164,0.278076,-0.761719,-1.283879,-3.373222,5.518925,1.063988,1.183255,1.015431,-0.045166,0.278076,-0.700439,-2.949671,1.415593,7.802276,-0.482114,-0.784601,-0.314346,0.533936,0.001709,-0.64502
-3.052577,-6.286769,4.329054,-0.71712,-0.239952,-0.5584,0.581055,0.435547,-0.605225,-1.642317,6.885114,4.111989,-2.114725,-0.057242,0.411283,0.242676,-0.737793,-0.102295,-0.920799,-2.139396,4.063146,-1.221913,0.415067,1.055898,0.134033,0.307129,-0.760986,-2.663684,-2.627846,5.660993,-0.685055,0.53976,1.223361,-0.025146,0.301758,-0.706299,-4.72377,-3.141988,7.271846,-2.325662,-0.455589,-0.282977,0.529297,0.05542,-0.658447
-2.440297,-5.297891,5.57229,-0.75789,-0.133714,-0.559846,0.568604,0.449951,-0.592773,-1.481605,1.633555,2.559527,-1.524698,0.210638,0.291592,0.225586,-0.727783,-0.116455,-1.914527,-4.631319,2.949732,-0.863735,0.478224,0.905275,0.144287,0.313477,-0.745117,-2.024362,-6.052497,5.426205,-1.03501,-0.420374,1.183196,-0.030029,0.317383,-0.688965,-3.777102,-6.690001,8.011274,-1.241908,-0.740929,-0.72822,0.507812,0.080078,-0.654297
-2.159342,-7.427402,5.079623,-0.470996,0.480829,-0.547327,0.586182,0.458008,-0.593994,-1.621364,1.862007,2.437077,-0.142488,0.674798,0.095696,0.237061,-0.741699,-0.119385,-3.067809,-3.208248,2.982567,0.078071,0.234938,0.639052,0.162109,0.308838,-0.753906,-0.358809,-5.943608,6.409661,0.214498,-0.37564,0.61092,-0.022949,0.315186,-0.698486,-3.64577,-6.327208,6.336392,0.307863,-0.260945,-0.580973,0.514404,0.081299,-0.667236
-2.928647,-4.319104,4.263443,1.450993,0.706674,-0.348259,0.588135,0.438232,-0.5979,-2.813906,2.123585,1.519571,0.45415,0.634036,-0.232794,0.238037,-0.73999,-0.106201,-3.690519,-3.385502,3.14845,0.196183,-0.432961,0.850592,0.152344,0.303467,-0.755859,-0.695658,-3.911354,7.235955,1.020197,-0.405581,0.547865,-0.036377,0.298096,-0.710449,-4.605946,-3.537481,5.591535,1.569254,-0.811479,-0.610413,0.491699,0.05835,-0.679688
-4.9656,1.228497,5.107868,0.131406,0.622566,-0.412801,0.59668,0.436279,-0.593018,-3.101506,5.966461,1.214732,1.13473,0.748442,-0.802264,0.249756,-0.732666,-0.079346,-4.395668,-2.154816,4.344315,0.651979,-0.938358,0.53816,0.138428,0.286377,-0.766602,-0.534332,-1.512753,6.783819,0.526843,-0.099816,0.500344,-0.032471,0.285645,-0.716553,-1.712257,0.66347,8.254805,1.121844,-0.61324,-0.714559,0.479004,0.044434,-0.688965
-2.102604,-2.552517,4.759967,-1.380379,0.404566,-0.348236,0.607178,0.466553,-0.57666,-3.875808,7.789803,1.275894,-1.360146,0.489841,-0.769699,0.262207,-0.721924,-0.090088,-2.994246,-0.055992,5.532533,-0.720919,-1.611036,0.515777,0.116211,0.303223,-0.762451,-2.41524,-1.914081,6.165348,-0.996184,0.193664,1.01806,-0.014893,0.310059,-0.701172,-2.903094,0.242718,7.998393,-1.896321,0.883888,-0.272149,0.498779,0.084961,-0.670654
-2.946712,-2.910049,5.162997,-0.519727,1.317079,0.168633,0.631104,0.471924,-0.568604,-2.825798,2.237368,-0.880153,-1.957166,0.416047,-0.4092,0.278809,-0.723633,-0.137451,-0.433848,-3.33376,4.907199,-1.859755,-1.129716,0.670996,0.104736,0.334229,-0.759521,-2.88331,-4.735161,4.393189,-1.148623,-0.598635,0.741559,-0.02002,0.333984,-0.699463,-5.86575,-6.221492,5.718714,-2.946895,0.244191,0.137753,0.507324,0.134033,-0.667725
-3.799335,-3.033574,4.448661,-0.900779,1.455244,0.307348,0.657715,0.489014,-0.550049,-4.197472,2.497991,-0.98392,0.384354,0.598418,-0.154521,0.27832,-0.727051,-0.117188,-2.241849,-5.85992,4.70544,-0.402889,-0.528202,0.470666,0.099121,0.351074,-0.758789,-1.928943,-5.32161,3.42259,-0.334213,-0.512275,0.527328,-0.023438,0.348145,-0.698975,-3.92976,-8.173341,5.459629,0.306721,-0.479491,-0.011887,0.501465,0.136475,-0.678467
-5.725261,-4.718537,3.015819,0.675317,1.507897,0.547207,0.68457,0.464844,-0.536377,-3.730266,6.45262,-0.581503,1.015241,0.346825,-0.096776,0.290771,-0.729492,-0.110596,-1.89329,-3.415368,4.685002,1.480747,-0.455437,0.232735,0.089844,0.314453,-0.771484,-3.284212,-5.468985,3.422319,0.693589,-0.797144,0.163264,-0.040527,0.329834,-0.704346,-2.927147,-2.305448,6.967113,2.266932,0.280368,-0.007256,0.503662,0.085205,-0.679688
-3.373291,0.472383,6.412279,0.464024,1.233152,0.713859,0.710205,0.450684,-0.526611,-2.994851,6.927359,-0.065477,-0.188756,0.612916,-0.163895,0.292969,-0.724121,-0.109375,-1.70189,1.40964,4.894621,0.947802,-0.052641,0.047656,0.094238,0.300781,-0.783691,-0.707925,-1.509126,3.571379,1.158504,-0.995817,-0.203679,-0.056152,0.309082,-0.719727,-3.297827,0.047344,8.131266,-0.475354,0.689839,0.425421,0.523682,0.0896,-0.678467
-5.273914,-3.931036,5.477096,-1.192742,1.773835,0.946111,0.740967,0.459717,-0.492676,-3.795425,4.710225,-0.888909,-0.008979,0.510221,-0.265333,0.30127,-0.723145,-0.106201,-1.980328,-0.541929,4.636017,-0.921384,0.010608,0.460159,0.094727,0.321533,-0.773438,-1.376925,-0.473631,3.931788,-0.151823,-0.404619,0.239376,-0.062744,0.319336,-0.711914,-3.430955,-6.327046,8.540867,-2.541493,0.749663,1.100742,0.538818,0.12207,-0.658447
-6.865773,-4.860105,4.600332,0.56398,1.323367,1.299062,0.771484,0.439941,-0.474854,-3.79213,7.155692,-0.32307,1.096504,0.537532,-0.724853,0.316895,-0.724854,-0.079834,-1.951797,-5.211924,3.924753,-0.449064,0.242667,0.227326,0.101318,0.3396,-0.766357,-2.591301,-4.221317,3.652658,-0.414913,-0.88334,0.223132,-0.078369,0.334717,-0.705566,-4.433479,-9.131151,4.713022,0.871331,1.151693,0.955417,0.562988,0.099609,-0.647705
-7.152027,-3.299991,6.251393,0.871156,0.844536,1.272702,0.783936,0.406006,-0.471924,-4.512025,6.877488,0.195904,0.913264,0.29891,-1.038723,0.335938,-0.715332,-0.069824,-2.100283,-5.922883,3.999255,1.770239,0.357553,0.390361,0.105957,0.300049,-0.779541,-0.947142,-5.671714,2.822611,1.875185,-0.958857,-0.220687,-0.104004,0.296631,-0.721924,-5.751775,-2.527398,4.503095,3.394121,1.102096,0.667681,0.578125,0.024902,-0.643311
-5.052735,-4.156614,5.341542,1.585494,1.063694,1.460241,0.816162,0.368896,-0.464111,-4.057468,5.180188,-0.75164,2.16997,0.218967,-1.388574,0.367432,-0.707031,-0.031738,-1.710384,-2.066702,5.06145,3.03495,0.594303,0.397893,0.132568,0.253906,-0.801025,-0.68204,-0.172382,4.138132,3.310571,-0.422656,-0.576137,-0.10498,0.242432,-0.749023,-4.892369,0.482875,6.121213,1.367049,0.494939,1.102593,0.597168,-0.004395,-0.639648
-8.450717,-0.005834,4.656819,1.530176,0.703882,1.40708,0.831055,0.325684,-0.458252,-4.617282,11.335258,0.356019,3.321647,0.150469,-1.796742,0.396484,-0.680908,0.021484,-1.878287,1.410055,7.326156,1.98136,0.728641,0.570282,0.148193,0.213135,-0.806152,-0.977398,1.792346,6.214985,1.365592,-0.60785,0.120492,-0.120361,0.215332,-0.753174,-4.05289,-2.009777,5.96441,0.44698,0.912157,1.116851,0.612793,-0.031006,-0.623779
-7.164757,-0.416173,4.931653,-0.280388,0.23504,1.04908,0.827637,0.3125,-0.459229,-4.314595,14.713233,1.795392,0.100032,0.347785,-1.864493,0.432373,-0.67627,0.014893,-0.940095,0.951101,8.794974,-0.196698,1.185248,0.505568,0.167236,0.218262,-0.804932,-0.16105,-1.362647,5.944128,-0.090076,-0.667152,0.343785,-0.135254,0.2229,-0.753174,-5.062076,-0.68354,4.57279,1.565668,1.68658,0.871218,0.627686,-0.071045,-0.606201
-7.397914,-3.556332,5.003609,-0.462752,0.049667,0.953382,0.847656,0.308105,-0.452637,-5.454356,7.019732,0.292531,-1.924331,0.593995,-1.681776,0.460938,-0.661621,-0.008789,-2.430756,-2.957386,9.009467,-1.109048,1.717482,0.70521,0.219482,0.243164,-0.781494,-0.187016,-2.893095,6.485746,-0.107679,-0.359289,0.394744,-0.125,0.229248,-0.748779,-7.302972,2.910619,5.105946,0.459878,1.53252,0.76968,0.66626,-0.088135,-0.579346
-6.309043,-4.219774,4.989914,0.292834,0.441644,0.828104,0.855469,0.297607,-0.458008,-5.553297,3.150213,-0.205584,0.881965,0.95435,-1.412028,0.490723,-0.643066,0.017822,-2.982102,-5.699093,8.971726,0.179336,1.957466,0.621166,0.259521,0.247803,-0.783936,-0.134746,-4.921438,7.168477,0.062101,-0.319696,0.266617,-0.130127,0.243896,-0.758545,-7.404195,-0.026477,4.245705,-1.209931,0.862855,0.895833,0.676514,-0.079834,-0.57666
-8.595406,-1.035981,4.176686,0.699534,0.701209,0.745936,0.864502,0.27002,-0.441406,-7.612024,9.593243,1.598073,1.891251,1.271033,-1.245565,0.508301,-0.621826,0.052002,-4.956141,-3.092958,9.677333,1.285994,2.367522,0.453195,0.305908,0.221924,-0.767334,1.183247,-4.154701,8.472126,1.294634,0.213826,0.01441,-0.130859,0.218262,-0.76416,-8.382507,-1.646208,3.506456,0.760014,0.637067,0.503302,0.68457,-0.10083,-0.561523
-8.433046,-1.43223,2.548909,-0.031705,0.448386,0.461376,0.87793,0.269531,-0.431152,-7.151919,8.722275,0.588775,-0.733576,0.905464,-0.975413,0.523926,-0.61084,0.054688,-6.157692,-2.479235,9.783122,-0.032036,1.928994,0.807481,0.352783,0.225098,-0.750244,1.577682,-2.711411,10.012715,0.500748,0.878228,0.200888,-0.102295,0.225098,-0.765625,-7.191768,1.501307,4.394577,0.987181,0.241163,0.215388,0.693115,-0.111572,-0.553467
-8.431702,-0.326305,3.306949,0.513031,0.142902,0.54168,0.88501,0.262939,-0.432617,-7.131577,4.42978,-0.720346,0.027949,1.084492,-0.98729,0.54126,-0.607178,0.068848,-5.448944,-5.692935,8.625799,-0.424341,1.703583,0.624745,0.391113,0.239014,-0.733643,1.778299,-5.323567,10.027483,-0.06836,1.259831,0.641382,-0.068359,0.238525,-0.770752,-5.645654,1.255518,5.654174,-0.512902,1.064859,0.543546,0.711426,-0.108398,-0.541504
-7.267549,-0.513982,4.352214,-0.391841,0.218992,0.472844,0.875977,0.256836,-0.430908,-8.152331,5.655177,-0.300758,0.647912,0.740224,-0.829497,0.557617,-0.601562,0.075195,-6.201822,-6.457762,8.039484,0.513725,1.554224,0.711865,0.411621,0.221924,-0.725342,0.881711,-6.934029,9.944536,0.703292,1.923959,0.418849,-0.039795,0.227295,-0.781982,-7.915928,-1.753409,4.173348,-0.822899,1.701207,0.451576,0.723145,-0.107422,-0.516602
-8.072847,-1.957615,4.181053,0.587931,0.545797,0.685926,0.898438,0.238037,-0.422119,-8.799149,5.147599,0.050963,0.134831,0.440676,-0.535649,0.567627,-0.589355,0.092773,-6.37231,-4.960502,8.41443,0.631546,1.229915,0.613411,0.451172,0.210938,-0.71582,-0.664869,-4.166006,10.867611,1.500219,1.762874,0.366877,0.012207,0.200684,-0.791504,-10.286276,-2.153042,2.923176,0.813481,0.825235,0.576801,0.746582,-0.125488,-0.502441
-9.595845,1.24823,3.837982,0.442301,0.889641,0.789661,0.912109,0.229492,-0.415771,-9.456828,5.034971,-0.713673,0.856693,-0.025376,-0.415728,0.570801,-0.590088,0.098389,-7.218897,-5.86661,7.809176,0.201993,1.092239,1.084426,0.476562,0.206055,-0.7146,0.659772,-3.315536,9.941844,0.629485,2.028278,0.718709,0.060303,0.200195,-0.805664,-8.56117,0.789413,3.848862,0.984196,0.111724,0.44468,0.747314,-0.140137,-0.51123
-11.122892,-1.449316,2.242549,-0.354745,0.395772,0.70647,0.92627,0.230225,-0.408936,-9.985235,7.285131,0.14894,0.720828,-0.249285,-0.452609,0.588867,-0.584229,0.096191,-8.538166,-5.849026,5.879931,1.113504,0.801146,0.819373,0.502197,0.1875,-0.711914,-4.097202,-5.040366,5.888614,1.253825,3.409262,1.033806,0.145752,0.185791,-0.806885,-8.664608,0.608083,3.806175,-0.352167,1.204959,0.775062,0.769287,-0.143311,-0.489014
-12.093142,-1.622573,2.593009,0.56757,0.594358,0.773487,0.934082,0.200684,-0.389648,-11.505116,5.942548,0.780672,-0.289964,-0.239002,-0.439041,0.601318,-0.583984,0.087891,-8.87747,-1.451638,4.686019,1.485109,1.192651,1.011761,0.526367,0.14209,-0.692627,-9.803774,0.860679,3.470055,2.870361,3.608887,0.636698,0.224365,0.119385,-0.79834,-12.430329,-0.92296,3.795699,0.113651,1.462703,0.620247,0.784912,-0.162598,-0.453857
-11.171956,-2.324701,4.49711,-0.456094,0.38768,0.539358,0.928467,0.197021,-0.386719,-11.209165,2.874968,-0.049003,0.022688,-0.454603,-0.469721,0.605957,-0.575439,0.08252,-10.420818,-0.899124,4.666654,0.224998,1.461791,1.470386,0.543701,0.121338,-0.680664,-9.27116,3.787851,2.219046,0.475785,3.847084,1.400213,0.300537,0.108398,-0.78125,-12.785597,-0.555011,3.802984,0.079052,0.755524,0.429552,0.781006,-0.171143,-0.44751
-12.767466,-4.423043,3.485122,0.477705,1.365566,0.76913,0.961914,0.181396,-0.375732,-11.029955,6.195115,0.54652,1.737387,0.207293,-0.526092,0.616455,-0.566162,0.106689,-10.677927,-1.743304,3.644862,0.721216,1.947145,1.153045,0.598389,0.100342,-0.666504,-12.629873,-1.620922,-0.167194,0.268071,5.558458,1.85301,0.438965,0.099365,-0.74585,-13.478413,-2.092347,2.795283,-0.174515,0.576923,0.650522,0.801758,-0.17627,-0.453125
-13.681397,-1.555634,3.486891,0.054334,0.683563,0.416341,0.965576,0.174072,-0.354004,-11.594189,9.389057,1.809598,-0.281359,0.148637,-0.860537,0.629395,-0.553711,0.103516,-12.122098,1.051508,3.123534,0.475829,2.180695,1.200068,0.634277,0.078857,-0.626709,-16.231605,0.455188,0.128593,1.232879,5.782041,1.351334,0.551758,0.072266,-0.672852,-13.396379,-0.746655,3.707898,0.843221,-0.152239,0.131013,0.79834,-0.187256,-0.443115
-12.843,-4.076296,2.361363,-0.098997,0.777946,0.28519,0.968506,0.174805,-0.347412,-9.184661,4.557349,-0.57183,-0.458423,0.777676,-1.340985,0.639893,-0.535645,0.102539,-10.503538,-0.118621,1.375251,-0.157559,2.305659,1.128664,0.666748,0.071533,-0.596191,-16.030798,1.956977,-1.200791,0.479257,6.027503,1.68878,0.660156,0.049805,-0.591553,-10.006347,0.516561,4.008262,-0.051846,0.14038,0.169964,0.794189,-0.188965,-0.447266
-11.113402,-2.057757,3.322267,0.185651,0.04111,0.278311,0.980957,0.168945,-0.34375,-11.303132,6.046479,0.148659,0.531318,0.982558,-1.798646,0.667725,-0.51001,0.134766,-11.125724,0.064704,0.315379,-0.22222,3.064036,1.121838,0.726318,0.061768,-0.539551,-18.967364,1.106073,-2.058122,-0.473949,6.296119,1.541503,0.769531,0.041748,-0.4729,-10.634869,-3.101788,4.820586,-1.62375,1.007635,0.348583,0.81665,-0.17334,-0.433105
-11.002209,-2.93676,3.228078,0.022752,0.548737,0.335665,0.989258,0.168945,-0.339844,-10.033923,4.22894,-0.399869,-0.738908,1.022611,-1.951013,0.691406,-0.484131,0.131592,-12.05172,-1.737703,-1.286628,-0.451449,3.505853,1.262644,0.774902,0.054932,-0.477051,-20.647649,-1.259622,-3.156916,0.060599,5.142386,1.749694,0.841064,0.025391,-0.377441,-11.316083,-5.398972,3.669798,0.633786,0.694653,0.278217,0.826172,-0.179932,-0.425049
-9.829417,-0.776672,3.08971,0.601399,0.451538,0.544177,0.984131,0.141602,-0.330078,-12.400069,0.568537,-1.676387,0.079381,1.146533,-1.933046,0.716553,-0.44751,0.158447,-13.087247,-1.781308,-2.75422,0.371586,4.176743,1.280598,0.813477,0.019287,-0.393066,-20.388066,1.219129,-2.398968,0.815124,4.417879,1.19482,0.880859,-0.011719,-0.280762,-10.900769,-0.709818,4.244078,1.405423,0.464996,0.147516,0.821045,-0.209473,-0.408447
-12.09875,-0.222879,1.475232,-0.068326,1.032278,0.800752,1.002197,0.128662,-0.303467,-12.703683,1.595655,-1.361011,0.709676,0.6959,-2.198042,0.740479,-0.420654,0.178711,-15.246904,-0.555008,-4.137388,0.104522,4.515513,1.375109,0.861816,-0.006592,-0.292236,-21.644835,1.702912,-1.533957,-0.236816,3.762013,1.726529,0.922363,-0.037842,-0.192139,-10.795371,-1.538976,2.692559,-1.105331,0.651465,0.854684,0.83252,-0.210205,-0.39502
-10.558481,0.982739,0.739643,0.170606,0.615146,1.047861,1.000977,0.114746,-0.302246,-13.506974,0.925996,-0.630965,-0.577535,0.367051,-2.386711,0.754395,-0.373047,0.185791,-16.473806,0.103121,-4.756418,-0.250305,4.008653,1.438956,0.878174,-0.021729,-0.215088,-20.908441,0.285416,-0.744446,-0.374441,2.636981,1.431239,0.935547,-0.055908,-0.138184,-11.513856,-3.649081,3.468925,0.196884,0.566878,0.876461,0.829834,-0.222168,-0.390869
-10.245191,0.882253,0.903806,-1.073422,1.250402,1.11012,1.015869,0.104736,-0.276855,-11.463695,-2.844751,-1.261792,-1.262294,0.080239,-2.719465,0.788086,-0.33252,0.171631,-14.889952,0.851595,-4.491534,-0.980664,3.398956,1.423233,0.896973,-0.045898,-0.136963,-16.914131,1.338251,-0.158961,-0.731547,2.4912,1.62084,0.951904,-0.091553,-0.078125,-9.024772,0.031642,4.832245,0.527402,0.47721,0.764063,0.837646,-0.241943,-0.377197
-8.645959,-2.926584,-1.261419,-0.601561,1.527195,1.460026,1.029053,0.078613,-0.246826,-11.825489,-4.834193,-1.295797,-0.437647,0.443856,-2.637066,0.806641,-0.274658,0.177002,-15.174722,-0.533542,-4.54555,-1.089993,2.924129,1.552267,0.900635,-0.080322,-0.076172,-16.95873,-0.591354,-0.20203,-1.263869,2.848318,1.755225,0.951416,-0.128906,-0.008545,-8.637578,-1.066018,4.403779,-1.401486,1.235301,1.43029,0.842773,-0.256104,-0.359375
-9.879959,-0.524951,-1.316346,0.126561,2.183027,1.614484,1.039062,0.033691,-0.206299,-11.706699,-3.988726,-0.202882,0.04757,0.33041,-2.726217,0.826416,-0.229736,0.177246,-14.521091,-0.060863,-3.897846,-0.184783,2.119207,1.252534,0.899658,-0.117432,-0.033936,-16.140926,-1.831219,-0.393933,-0.3353,2.395077,1.55226,0.943604,-0.178955,0.038574,-9.120372,-3.867761,4.285383,-0.226992,1.150822,1.187128,0.846924,-0.29248,-0.343994
-8.584307,-1.036782,-2.710991,-0.494867,2.481683,1.601036,1.052734,0.008301,-0.154541,-10.764707,-3.417834,-0.542461,0.259112,0.914923,-2.492502,0.831055,-0.180664,0.206299,-13.404093,1.469981,-3.652253,0.129575,1.881438,1.124416,0.898193,-0.137939,0.004639,-14.344052,-0.275105,-0.595747,0.326702,2.55785,1.270022,0.931152,-0.206543,0.093994,-6.228443,-1.339932,3.882022,1.058977,1.381891,1.072985,0.852295,-0.312988,-0.306641
-10.662157,-1.397852,-3.101186,-0.07976,2.679941,1.696756,1.062256,-0.025879,-0.095947,-12.797453,-1.799338,0.355534,0.056516,1.186429,-2.453525,0.8396,-0.133301,0.224609,-14.955899,2.887645,-2.944756,-0.387463,1.589839,0.905396,0.894775,-0.1604,0.0354,-16.201969,1.566216,-0.056246,-0.38167,2.69061,1.077165,0.915039,-0.234619,0.146729,-6.718802,0.671577,3.794102,0.016407,2.805121,1.164518,0.866699,-0.338623,-0.248291
-9.0675,-0.033121,-2.286409,-0.319447,2.810057,1.608666,1.066895,-0.063477,-0.043701,-11.224272,-2.116069,-0.30998,-0.358504,1.371079,-2.292903,0.830811,-0.094971,0.262207,-13.7964,0.804012,-3.188314,-1.192371,1.123874,0.845999,0.893066,-0.19043,0.045654,-16.047479,-0.809743,-0.970442,-1.056539,1.572274,1.070841,0.903809,-0.266846,0.15918,-6.922276,-0.469092,3.996737,-0.491658,2.788769,1.108884,0.87915,-0.36499,-0.197754
-10.112362,-0.429535,-1.76824,-0.362045,2.926315,1.566914,1.058105,-0.091309,0.013916,-12.545696,-1.323135,-0.557231,0.181507,1.966137,-2.174824,0.826172,-0.050537,0.305664,-13.85505,-0.770418,-3.141557,-0.60625,1.38606,0.710091,0.881348,-0.210205,0.0625,-14.61671,-0.700648,-1.448049,-0.162568,1.444875,0.595591,0.883789,-0.281494,0.173096,-4.611956,-0.497841,1.533808,0.39125,3.417265,0.958388,0.885498,-0.380127,-0.125488
-9.273637,0.201523,-0.026945,-0.066035,2.988241,1.512113,1.051514,-0.112061,0.067871,-13.149484,-0.291798,-0.92954,0.043063,1.636447,-2.168871,0.824219,-0.01416,0.34082,-14.47745,-0.878303,-2.494602,-0.623778,1.156218,0.735708,0.873047,-0.217041,0.069336,-16.616507,0.727431,-0.372865,-0.385381,0.914752,0.746217,0.874268,-0.287598,0.162598,-6.534976,2.429215,2.230681,0.772218,4.037098,0.741701,0.892334,-0.387207,-0.044434
-8.395093,2.19784,0.921484,0.230299,3.242263,1.500973,1.036377,-0.152588,0.144531,-11.642093,0.010503,-1.706892,0.653111,1.580801,-2.204208,0.801758,0.036621,0.385498,-12.206739,-2.636219,-2.635947,-0.44544,1.151974,0.855497,0.867676,-0.25293,0.0896,-14.142233,-0.654751,-0.912796,-0.320813,-0.484448,0.804036,0.868652,-0.324707,0.14502,-5.17526,3.497206,1.33993,0.101913,3.120435,0.708415,0.885498,-0.413818,0.027588
-9.521787,3.245575,0.365019,-0.622886,3.134608,1.310585,1.019287,-0.178467,0.207031,-12.425736,3.678236,-1.020189,0.742811,1.222176,-2.576384,0.792969,0.081055,0.403564,-12.702669,-1.183451,-1.774112,-0.163726,1.337433,0.939648,0.859619,-0.273682,0.112061,-12.356777,1.267891,-0.193585,-0.060959,0.012701,0.732677,0.863281,-0.340576,0.134766,-3.839882,3.112211,-1.446086,-0.416881,3.746923,0.709423,0.875732,-0.422607,0.106934
-11.177946,1.459428,-0.689283,-0.356655,2.677561,1.253789,1.003662,-0.208984,0.245361,-12.142325,3.418457,-1.320952,-0.401492,0.867847,-2.902578,0.7771,0.141846,0.42749,-13.229615,-2.167535,-1.34847,-1.18994,1.272154,1.328506,0.851074,-0.316406,0.112793,-15.542235,0.613547,0.351847,-0.931159,-0.207574,1.336941,0.860596,-0.380859,0.095947,-7.781944,3.171256,-3.05708,0.070224,4.208102,0.624027,0.864502,-0.44043,0.180176
-9.43525,5.270958,0.698613,-0.410831,1.988849,0.998114,0.986816,-0.230225,0.284668,-11.671692,3.075906,-1.522081,0.157014,0.373411,-3.303188,0.756836,0.203857,0.434326,-12.814266,-3.097185,-0.332114,-0.405385,1.145885,1.356305,0.840332,-0.352295,0.130127,-13.996282,-0.214519,-0.150199,-0.345877,-1.131171,1.214702,0.855469,-0.415527,0.061523,-7.698944,5.931391,-3.310074,0.03072,2.868833,0.323025,0.849609,-0.444092,0.242188
-9.254617,3.054795,-0.345919,-2.285909,1.943619,0.744377,0.960205,-0.253906,0.291016,-10.239385,5.035838,-0.519147,-1.199486,0.207558,-3.205877,0.73584,0.240234,0.452148,-11.588301,0.766887,1.686954,-0.996587,1.49013,1.465331,0.80957,-0.387939,0.141846,-12.708137,2.452993,0.958153,-1.103075,-0.423258,1.553995,0.833984,-0.454102,0.026611,-6.554404,6.167858,-4.52023,-1.849784,3.142965,0.441545,0.818604,-0.459473,0.280518
-7.875664,0.868233,-2.621905,-1.002886,1.876826,0.798605,0.952393,-0.2854,0.321045,-9.06907,0.659143,-1.937352,-2.055694,0.163322,-2.877582,0.726807,0.272949,0.468506,-10.936845,-1.533912,1.826442,-2.355,1.776081,1.866804,0.801025,-0.448486,0.15332,-13.571043,-1.018743,0.666265,-1.91905,-0.784482,2.099995,0.824219,-0.511963,-0.010254,-8.679443,2.831302,-5.958944,-2.13671,2.487426,0.503233,0.808594,-0.489014,0.309082
-9.98413,4.999399,-1.639439,-1.477023,1.5442,0.428583,0.94751,-0.289062,0.319336,-9.572921,0.931038,-1.222458,-0.670144,0.339213,-2.562603,0.707275,0.308594,0.484131,-11.186448,-2.563403,2.140103,-1.048286,2.139789,1.746008,0.78125,-0.483643,0.166748,-11.065697,-1.638672,0.805576,-0.580463,-0.414999,1.790517,0.80957,-0.543457,-0.047607,-8.023776,4.256937,-6.211119,-0.355997,1.796177,-0.036766,0.806396,-0.479736,0.324951
-6.722099,-0.335674,-3.668443,-2.122985,1.348242,0.2095,0.926514,-0.311523,0.32251,-7.561532,1.446251,-1.09648,-1.483854,0.077425,-2.116004,0.689453,0.326416,0.492432,-9.299114,0.215539,2.431328,-0.629143,2.152291,1.77266,0.742676,-0.530273,0.200439,-9.953091,-0.138455,1.905901,-0.364951,0.237894,2.082659,0.775635,-0.597168,-0.049316,-7.117587,5.853759,-5.240873,-1.706686,1.57072,-0.020209,0.785889,-0.49585,0.340332
-7.517598,1.44909,-3.000764,-0.023532,1.13311,0.176511,0.921387,-0.304932,0.349365,-6.445097,-1.297955,-1.913669,-1.089746,0.412115,-1.704939,0.676025,0.343018,0.51709,-8.504027,0.467822,1.909069,-0.982826,2.471793,1.935933,0.705078,-0.566162,0.236572,-7.701993,-0.935254,1.610229,-0.285684,0.757648,2.045237,0.748291,-0.635498,-0.037354,-5.738588,1.329382,-4.28525,-2.310896,1.328768,0.083966,0.775879,-0.50415,0.34082
-6.715218,3.516278,-2.708299,-1.366107,0.958154,-0.061812,0.918945,-0.31665,0.335449,-6.687169,0.004445,-1.702674,-0.148735,0.425905,-1.571169,0.65625,0.359375,0.523682,-8.68021,-0.011951,1.517228,-0.628344,2.386782,1.791568,0.669434,-0.607666,0.253906,-6.987989,-0.775005,1.553203,0.272248,2.09562,2.046892,0.728027,-0.680908,-0.011475,-4.738794,0.408841,-2.819196,-0.178296,1.784203,-0.346209,0.769043,-0.501465,0.36377
-7.267759,0.215146,-3.058678,-0.609909,0.50834,-0.190887,0.919922,-0.321533,0.351074,-6.737275,0.018979,-1.852615,-1.068017,0.385478,-1.207819,0.643066,0.365479,0.542236,-8.650965,1.139707,1.573951,-0.248748,2.197772,1.670059,0.630127,-0.644775,0.293945,-7.979951,0.326091,1.937403,0.311878,2.883039,1.908556,0.697266,-0.728027,0.049805,-5.988206,4.957668,-3.741842,0.619634,2.197406,-0.594772,0.75708,-0.488525,0.421631
-5.932431,3.914022,-0.882677,0.07045,0.888205,-0.245786,0.919434,-0.317627,0.365723,-6.146475,-3.232843,-3.108695,-0.669868,0.380755,-0.981122,0.637451,0.369141,0.545166,-7.582409,1.16651,1.092749,-0.420657,2.000554,1.573606,0.591309,-0.678467,0.314941,-7.016907,-0.443848,0.848988,0.087436,3.666101,2.00243,0.662842,-0.768066,0.110107,-6.695312,5.538933,-4.29585,-1.135947,1.881921,-0.562833,0.748779,-0.490723,0.439697
-8.015803,3.183057,-1.563385,-0.989824,0.808317,-0.412558,0.932129,-0.312012,0.371826,-7.76384,-1.217859,-3.225211,0.448241,0.49682,-0.703263,0.623047,0.388672,0.559082,-8.975944,1.861287,0.685265,0.013754,1.941006,1.278537,0.568848,-0.695312,0.348145,-9.018778,0.282221,0.532803,0.527305,4.997894,1.676123,0.630615,-0.794434,0.200195,-8.066624,1.68257,-5.590694,-1.452113,1.595465,-0.466395,0.750732,-0.48877,0.457275
-7.853756,2.002839,-2.563875,-0.075454,1.057788,-0.349348,0.919434,-0.304932,0.385254,-7.887962,-0.707893,-3.742062,-0.898731,0.063914,-0.546839,0.613037,0.383545,0.571533,-8.450269,2.759306,0.112492,-0.509108,1.322326,1.07498,0.531982,-0.718506,0.349854,-10.752818,1.107233,0.229619,-0.294813,5.305134,1.690819,0.567627,-0.828613,0.259521,-8.515909,1.044384,-5.706999,0.082675,0.868953,-0.671601,0.739502,-0.482666,0.467529
-9.024853,4.392675,-2.038233,0.132071,0.628228,-0.348888,0.917725,-0.296631,0.40625,-7.715645,-3.742635,-5.02645,-0.019581,-0.005869,-0.395104,0.611328,0.389648,0.565918,-7.568116,0.826553,-1.254268,-0.19071,1.225907,0.896986,0.501953,-0.732422,0.368164,-10.979877,-1.529434,-1.722077,-0.075002,5.551946,1.53264,0.495117,-0.849121,0.339355,-7.738847,3.344024,-6.848993,0.644594,0.582274,-0.584013,0.736572,-0.458496,0.494385
-8.812745,3.394947,-2.544541,-0.578584,0.619565,-0.461536,0.923584,-0.289795,0.40332,-8.058148,0.131825,-3.889817,0.974887,-0.115293,-0.551913,0.613525,0.41333,0.552979,-7.513078,2.781978,-1.897683,0.769847,1.164392,0.380249,0.488525,-0.729492,0.390137,-11.705714,0.231605,-1.976899,0.784882,5.67577,0.879844,0.436768,-0.857422,0.410889,-8.302415,4.021767,-6.014086,-0.609098,0.542615,-0.564343,0.741943,-0.452881,0.490479
-9.006499,2.335108,-2.841172,-0.121208,0.078403,-0.40826,0.92334,-0.282715,0.398926,-8.027307,0.274011,-3.770744,-0.81839,-0.372791,-0.367645,0.626221,0.405273,0.560303,-6.965346,4.408817,-2.192703,-0.058266,1.129274,0.172853,0.46875,-0.733887,0.395996,-11.415784,1.203166,-1.847185,-0.137628,4.868266,0.761088,0.369385,-0.871826,0.448975,-8.336903,0.805041,-6.427897,-1.216078,0.163688,-0.34508,0.736084,-0.457764,0.480957
-9.277419,3.581069,-2.683981,-0.318723,0.111854,-0.378829,0.935791,-0.281006,0.406738,-7.951222,-2.419577,-4.590136,-0.378626,-0.363476,-0.470699,0.625488,0.414795,0.555664,-6.926187,2.816994,-2.962529,-0.572262,1.43247,-0.044439,0.467529,-0.746826,0.409668,-9.786103,-0.687873,-2.768365,-0.364051,4.201574,0.327571,0.328369,-0.879395,0.483398,-8.439772,-0.315032,-7.631657,-0.004136,0.06653,-0.454007,0.75293,-0.453125,0.487061
-10.52559,2.053674,-3.723797,-0.813565,-0.405079,-0.39261,0.939453,-0.278809,0.387939,-9.616245,-0.695508,-3.98867,-0.132875,-0.406716,-0.350111,0.627197,0.41748,0.560791,-8.43062,2.458035,-3.496038,-0.11165,1.645311,-0.463354,0.452881,-0.742676,0.426025,-10.67425,-0.786596,-2.587203,0.101622,3.668689,-0.175528,0.288818,-0.884277,0.51001,-9.472153,2.005646,-5.488331,-0.097984,-0.077344,-0.422059,0.752686,-0.45166,0.48291
-10.464334,1.092293,-3.781793,-0.128411,-0.5101,-0.270555,0.951172,-0.279785,0.381348,-9.599408,-2.651509,-4.214586,-1.094284,-0.708649,-0.205758,0.635986,0.398682,0.551514,-8.58035,3.026092,-3.650596,-0.003364,1.646331,-0.839545,0.45459,-0.740723,0.447998,-10.758634,-0.796035,-2.224466,0.224449,2.141932,-0.561296,0.281738,-0.884277,0.534912,-9.55644,0.148792,-6.290472,-1.153323,-0.168207,-0.072369,0.759277,-0.466553,0.472168
-10.513957,2.188364,-3.343973,0.201257,-0.609948,-0.278408,0.95874,-0.273438,0.368164,-9.710999,-5.214592,-4.406274,-0.064463,-0.52681,0.033261,0.647705,0.399658,0.545166,-9.013788,2.028823,-4.306141,0.110616,1.883482,-1.217231,0.454102,-0.720215,0.46582,-9.675346,-1.590125,-2.575725,0.713491,1.338941,-0.93926,0.286621,-0.868652,0.553711,-11.109355,-1.146248,-8.381574,0.621768,-0.191797,-0.214438,0.76416,-0.451172,0.473145
-11.136416,2.268817,-4.176491,0.197456,-0.504717,-0.361119,0.965332,-0.253174,0.364258,-10.485428,-3.607952,-3.325277,0.652582,-0.609893,0.19387,0.656006,0.414551,0.525391,-10.145973,1.582569,-5.202878,0.976609,1.691641,-1.688408,0.461426,-0.678711,0.508057,-11.527296,-1.254665,-2.03634,1.577467,0.476408,-1.419752,0.312744,-0.827148,0.592529,-11.462964,3.895562,-7.05721,1.738368,-1.267445,-0.382602,0.780029,-0.416504,0.468506
-11.71977,2.660876,-5.062573,0.299945,-0.702824,-0.49884,0.984131,-0.250488,0.351318,-10.667325,-3.606739,-2.863575,-0.201474,-0.528426,0.293811,0.66333,0.397217,0.51416,-10.333411,3.259222,-5.526765,1.278859,1.294648,-2.115528,0.487793,-0.641357,0.537109,-11.295077,0.539055,-1.466767,1.743701,-0.739949,-1.929662,0.371826,-0.793213,0.615234,-8.797919,4.60952,-6.485406,-0.522653,-1.123595,-0.223138,0.802002,-0.424316,0.44165
-11.69319,2.865996,-5.178291,0.23924,-0.89199,-0.623488,0.985352,-0.232422,0.347412,-11.355727,-5.759056,-2.959255,-0.311762,-0.689198,0.283807,0.675537,0.394287,0.504883,-10.605357,2.572929,-5.714353,0.469906,0.640051,-2.18033,0.500977,-0.603516,0.562012,-11.119988,0.583078,-1.252369,1.168537,-1.155381,-2.154024,0.421875,-0.753662,0.638184,-10.863798,0.721806,-8.844839,-0.370342,-0.396453,-0.285575,0.798096,-0.42041,0.441895
-12.215948,3.232183,-4.479597,0.507066,-0.765373,-0.834907,1.010498,-0.205566,0.328125,-11.874976,-7.136837,-2.732557,-0.199105,-0.696113,0.399573,0.694336,0.390137,0.496582,-11.360035,-0.29486,-6.461253,0.722373,0.064623,-2.369163,0.548584,-0.554443,0.563965,-12.982285,-0.525307,-1.279116,1.41535,-1.628788,-2.406887,0.502197,-0.692627,0.63501,-13.661833,3.332576,-9.682736,2.101304,-1.19325,-0.776728,0.832031,-0.379639,0.429932
-11.366221,4.019178,-5.090832,0.409919,-0.578537,-0.983001,1.01416,-0.19165,0.318115,-11.838152,-8.207682,-3.225531,0.409572,-1.223578,0.626122,0.713867,0.379883,0.468506,-11.690353,-0.721852,-6.288584,1.7911,-1.006145,-2.494129,0.586182,-0.489258,0.567627,-12.792801,0.203745,-1.280869,2.090839,-2.427293,-2.55985,0.575195,-0.627197,0.630859,-11.701325,7.781842,-7.43109,0.905422,-2.55251,-0.703886,0.85376,-0.361816,0.380859
-12.42234,3.320495,-7.069659,0.508274,-0.520363,-1.123981,1.034912,-0.161621,0.311035,-11.431135,-6.337361,-2.403001,0.921835,-1.320624,0.759084,0.726562,0.379639,0.421387,-11.557674,1.001797,-6.014055,1.731552,-1.721598,-2.413484,0.642578,-0.422363,0.558105,-12.944579,2.072584,-0.787606,1.839291,-2.341504,-2.508311,0.652344,-0.553955,0.617432,-8.346675,3.519683,-7.469195,-1.185582,-1.963068,-0.623835,0.881348,-0.361816,0.33374
-10.870445,4.830104,-6.774076,0.694929,-0.824818,-1.184496,1.045898,-0.136719,0.307373,-11.988028,-6.041636,-1.731867,0.048156,-1.973116,1.017817,0.761475,0.358887,0.386963,-12.819792,-0.10805,-5.981613,0.948176,-2.703677,-2.113018,0.690674,-0.369385,0.533203,-15.519397,1.465862,-1.043955,1.204287,-2.653213,-2.143821,0.711182,-0.492676,0.594482,-10.903159,0.996616,-8.295409,0.835452,-1.210529,-1.042258,0.892334,-0.333496,0.324219
-10.108839,4.505658,-6.373686,-0.057071,-0.683468,-1.407985,1.063232,-0.104736,0.283203,-10.004683,-7.225065,-1.999704,0.025564,-2.284229,1.320745,0.796875,0.326172,0.338867,-12.272258,-0.612691,-5.664715,1.060523,-3.332076,-2.090128,0.75,-0.308594,0.470215,-16.558536,1.643679,-1.828935,1.073878,-3.200673,-2.231683,0.776855,-0.417969,0.53833,-9.901677,5.922605,-6.097955,1.685361,-2.377646,-1.296125,0.921875,-0.294678,0.273926
-8.803667,2.741862,-6.735945,-0.208007,-0.559754,-1.466805,1.069336,-0.078613,0.27002,-10.757425,-5.637496,-1.323053,0.265996,-2.459378,1.897971,0.822754,0.296875,0.290771,-13.576552,0.82527,-4.751826,0.784813,-3.553121,-1.856311,0.790283,-0.26001,0.406738,-18.774723,2.370611,-2.153859,0.538322,-3.45332,-1.943222,0.820557,-0.364014,0.472168,-6.565488,5.6653,-4.459705,-1.376196,-1.624386,-1.060055,0.933594,-0.2854,0.233643
-8.377066,2.363719,-6.2016,-0.067501,-0.419839,-1.565326,1.079102,-0.036621,0.263672,-9.274348,-4.547925,-1.261237,-0.221037,-2.774921,2.433037,0.857178,0.246094,0.230957,-13.35704,0.551356,-4.452359,0.162299,-3.800471,-1.770228,0.828125,-0.209961,0.332275,-20.829212,1.043085,-2.983987,-0.043927,-4.468908,-2.001171,0.864746,-0.298584,0.380615,-7.996355,-0.092021,-5.331564,-1.327101,-0.980261,-1.227096,0.943848,-0.257568,0.205322
-8.210828,0.556748,-5.142082,-0.322724,-0.442436,-1.768989,1.0979,-0.011719,0.258545,-9.685213,-3.898169,-1.228583,0.199272,-2.324029,2.896453,0.875244,0.179932,0.177979,-14.308966,0.575385,-4.079195,0.638488,-3.461019,-1.839256,0.864502,-0.172119,0.271729,-21.161053,0.61602,-3.609346,0.368814,-4.967725,-2.160548,0.9021,-0.249512,0.282227,-6.915946,0.194575,-4.759731,0.839981,-1.333991,-1.762639,0.967773,-0.230713,0.182861
-10.183809,-1.625966,-3.531217,0.49768,-0.557337,-1.916211,1.102051,0.037598,0.248779,-10.985463,-2.140832,-1.016818,0.714421,-2.098682,3.101184,0.898926,0.115479,0.125732,-16.629508,1.818282,-3.499028,1.03458,-3.526381,-1.909504,0.879639,-0.113281,0.203857,-23.980607,0.479709,-3.041299,0.46577,-5.105241,-2.305155,0.9104,-0.176514,0.182861,-7.740674,2.88501,-3.386089,0.651544,-0.435563,-1.740951,0.969238,-0.182373,0.182129
-9.837683,0.283758,-0.739852,0.937453,-0.897033,-2.082989,1.123535,0.092041,0.23291,-10.303993,0.775753,-1.251416,1.224949,-1.675493,2.944249,0.898193,0.050537,0.082764,-16.254327,3.213626,-2.81506,1.1766,-3.923178,-2.1486,0.904785,-0.051514,0.124268,-23.474811,1.041418,-2.499599,0.902178,-5.936495,-2.612185,0.918213,-0.104248,0.066895,-9.686042,0.961762,-3.08295,-0.569444,-1.102634,-1.835964,0.993164,-0.140625,0.152588
-10.657433,-0.122498,0.146458,0.201059,-1.134928,-2.200987,1.125244,0.139404,0.196045,-11.002832,3.756513,-1.462873,0.454315,-1.150467,2.655992,0.906738,0.0,0.061768,-15.939751,3.746278,-1.434626,0.210715,-4.006797,-2.191551,0.899658,-0.006592,0.031982,-20.858197,2.876383,-1.560488,0.070182,-5.206845,-2.72537,0.894775,-0.048584,-0.032227,-7.613549,-2.401492,-3.021145,-0.301001,-1.502876,-1.880193,0.992676,-0.102539,0.107666
-12.877097,-1.306636,-0.29273,0.580046,-1.47529,-1.994168,1.122559,0.193115,0.170166,-13.278046,3.651137,-2.610656,-0.113022,-0.949777,2.268902,0.901367,-0.049072,0.039062,-17.037212,1.027696,-0.237526,-0.40039,-3.920722,-2.424295,0.891602,0.053955,-0.035156,-23.535682,0.874027,-1.320415,-0.694258,-4.236755,-2.59993,0.868164,0.012695,-0.088379,-9.948687,-3.640852,-2.508446,0.178359,-0.79353,-1.696267,0.991455,-0.055664,0.098145
-12.685597,-0.1132,0.282685,0.938443,-2.210918,-1.845107,1.128418,0.229492,0.113037,-14.047781,3.007375,-2.965983,0.274697,-1.247943,2.248398,0.896484,-0.097168,0.0,-16.230609,-1.45503,1.439816,0.134678,-3.860115,-2.48686,0.877686,0.099609,-0.119385,-23.184923,-0.676364,-1.817049,-0.005506,-4.572848,-2.913206,0.84375,0.056396,-0.164307,-12.42275,-3.316702,-2.2869,0.987318,-1.804569,-1.457725,0.999023,-0.026611,0.052246
-12.864626,-0.391938,-0.312089,0.832821,-2.095139,-1.465202,1.125977,0.268799,0.056396,-14.067019,3.861518,-3.168032,1.038988,-1.176259,2.554244,0.88916,-0.151367,-0.023193,-14.838228,-1.41989,2.67294,1.178847,-2.885001,-2.479629,0.855957,0.155029,-0.184814,-20.221669,1.146859,-1.535158,0.960564,-4.012314,-2.807862,0.81665,0.107666,-0.241211,-10.231044,-3.530343,-2.326466,0.439561,-2.303989,-1.107048,0.995605,0.00415,-0.012939
-14.29382,-0.955364,-0.393659,1.067533,-2.508551,-1.118422,1.118896,0.281982,0.005371,-16.201142,5.254955,-1.757165,0.677892,-1.250644,3.057541,0.869141,-0.214355,-0.035645,-17.347587,-0.220172,3.869108,0.833751,-1.956455,-2.15901,0.839111,0.185791,-0.212891,-21.17084,2.067003,-0.009084,0.022759,-3.196473,-2.547217,0.794189,0.13916,-0.27832,-12.461199,-4.937678,-3.199314,1.006667,-1.736045,-0.564839,0.989258,0.005859,-0.041504
-13.801519,-1.289275,0.529761,0.917636,-2.577576,-0.944524,1.119385,0.30542,-0.05542,-15.222395,3.944949,-1.139095,0.555201,-1.415365,3.266342,0.85376,-0.286865,-0.061035,-17.680286,-1.998911,2.698476,0.891841,-1.676167,-2.062649,0.834229,0.224121,-0.244629,-19.582416,-0.81258,-0.052505,0.340721,-3.361669,-2.337674,0.774902,0.182861,-0.340576,-13.584116,-2.388517,-1.710619,1.955214,-3.150937,-0.596056,0.99292,0.01709,-0.119141
-14.408818,-2.079034,0.341119,0.418,-2.773156,-0.867447,1.107178,0.311035,-0.121582,-15.003323,5.217602,0.276849,0.880283,-0.830246,3.240502,0.827637,-0.352539,-0.068604,-18.503189,-0.380111,1.801612,1.403498,-1.17832,-2.032983,0.81543,0.249268,-0.276611,-15.854668,1.596462,1.165565,0.843835,-1.810758,-2.512878,0.753662,0.209473,-0.378174,-9.710748,-0.735327,-0.453004,0.450639,-3.298039,-0.27821,0.976318,0.012207,-0.199463
-14.367705,-3.332111,0.640083,0.170221,-3.148835,-0.88724,1.078613,0.344238,-0.192383,-16.023038,5.404548,1.343807,-0.291171,-0.688131,2.86158,0.795166,-0.407471,-0.082764,-19.416077,0.196571,1.180404,0.388917,-1.647576,-1.890144,0.791016,0.295898,-0.30957,-17.32805,1.581117,2.228775,-0.329283,-0.544626,-1.771911,0.73877,0.26123,-0.384521,-11.644513,-3.482111,0.222531,-0.773991,-2.316987,-0.13768,0.956787,0.037354,-0.248291
-11.727713,-4.436761,1.210435,0.304221,-3.154035,-0.811422,1.048828,0.348877,-0.256348,-13.843878,1.213817,1.42655,-0.85589,-0.595312,2.581229,0.766113,-0.452881,-0.102295,-15.892819,-2.760118,-0.178136,-0.128965,-2.006431,-1.760609,0.761963,0.317383,-0.344727,-14.831085,-1.304958,0.669382,-0.291494,-0.130591,-1.766734,0.721924,0.284668,-0.382324,-11.736576,-5.994452,-0.001074,0.408594,-3.651903,-0.271686,0.922363,0.030518,-0.325439
-12.014285,-3.987338,0.3587,1.083463,-2.76418,-0.780182,1.023193,0.361084,-0.335693,-13.159781,-0.8121,1.13602,1.064456,-0.115829,2.453932,0.733887,-0.507568,-0.081299,-15.29437,-5.394609,-1.209715,1.286263,-1.684094,-1.450876,0.738525,0.334473,-0.399414,-14.884262,-2.057466,-0.542012,1.383641,1.396311,-1.445147,0.732666,0.301514,-0.384277,-8.170841,-2.208224,1.594273,2.387402,-3.774069,-0.394422,0.886475,0.015869,-0.42041
-11.066601,-2.527323,0.17142,1.122522,-2.883277,-0.6979,0.996826,0.354248,-0.391357,-12.992299,2.797903,1.899398,1.720417,0.056785,2.337919,0.711914,-0.54834,-0.054199,-14.507589,-3.09261,-1.128074,2.291994,-2.014124,-1.372297,0.717041,0.32959,-0.457764,-17.094322,1.037555,-0.048292,2.161114,1.110915,-1.359694,0.739502,0.291504,-0.386475,-8.335576,0.330427,4.370618,0.669983,-2.95626,-0.097047,0.858398,0.005371,-0.475098
-9.081334,-1.76107,0.755851,1.10617,-2.551086,-0.495777,0.957031,0.347412,-0.44165,-11.597231,2.422208,1.685429,0.2676,0.04901,2.48725,0.681152,-0.59082,-0.050049,-11.294739,-1.869994,-1.218198,1.458662,-1.850493,-0.869253,0.687012,0.320068,-0.503174,-13.22923,2.09235,-0.814066,1.394338,0.207231,-0.615821,0.735107,0.2854,-0.392334,-8.080896,-3.884792,3.978543,-0.493238,-3.147084,0.143266,0.812012,0.007812,-0.530762
-7.543036,-0.32085,1.54172,0.366422,-2.230227,-0.326827,0.932129,0.349121,-0.48291,-9.895932,0.761276,1.137907,0.205984,-0.002997,2.541984,0.639893,-0.638428,-0.045166,-9.921816,-2.404148,-1.473853,0.808371,-1.508467,-0.586296,0.672607,0.322266,-0.536621,-11.106944,1.343058,-1.047331,0.753043,0.419572,-0.474858,0.743164,0.284424,-0.397217,-5.822044,-4.219143,5.180416,1.164906,-2.92387,-0.152658,0.771973,-0.006348,-0.584961
-6.827029,-2.966748,1.100418,-0.296725,-1.877679,-0.16224,0.901855,0.349609,-0.522949,-8.681263,1.295763,1.20242,0.070125,0.028557,2.535168,0.598389,-0.675537,-0.039551,-8.48153,-3.020271,-2.116377,0.562016,-1.354362,-0.236859,0.6521,0.306641,-0.576416,-10.656447,0.715313,-0.808921,0.564853,-0.366091,-0.025487,0.733643,0.268066,-0.421631,-4.630204,-1.498169,7.191127,0.491119,-2.2159,0.243509,0.736084,-0.019531,-0.628662
-6.926058,-3.082619,1.980828,0.826109,-1.626371,0.122883,0.876221,0.334961,-0.546631,-8.852192,-0.059712,0.803047,0.025785,-0.034517,2.459427,0.552002,-0.721924,-0.031494,-8.642611,-3.94901,-2.678109,0.908164,-1.096539,0.085898,0.637695,0.289307,-0.599121,-8.951132,-0.242863,-1.320846,0.783256,-0.746281,0.134239,0.727539,0.256348,-0.44043,-5.808978,-3.492811,6.044474,-0.471332,-1.303363,0.508637,0.712158,-0.019775,-0.641602
-5.567802,-1.64929,4.016538,0.441783,-1.426415,0.27244,0.854492,0.327637,-0.583008,-7.119476,-0.336345,0.929558,0.86715,-0.298519,2.147813,0.511719,-0.740479,-0.018555,-7.651164,-2.822874,-2.525338,1.625034,-1.452548,0.217552,0.619385,0.264893,-0.64624,-8.941809,0.141191,-0.717658,1.307447,-1.192125,0.414341,0.718018,0.231445,-0.489258,-6.977431,-4.403874,5.782589,0.923189,-1.56581,0.431997,0.689453,-0.038086,-0.678955
-4.871111,-3.23177,3.121705,0.652272,-0.693263,0.436162,0.841553,0.299316,-0.589844,-5.548435,0.928174,0.984573,1.236398,0.002209,1.964758,0.468262,-0.76709,0.016357,-5.673143,-1.149421,-2.34973,1.636927,-1.279903,0.515117,0.5979,0.2146,-0.673828,-6.743106,0.600764,-0.753015,1.269246,-1.816469,0.573767,0.696289,0.188477,-0.528076,-4.74122,-1.271705,6.532933,1.685572,-2.05934,0.44356,0.645996,-0.087891,-0.698486
-5.244774,-1.335403,2.68669,0.952568,-0.665104,0.553947,0.838379,0.275879,-0.609375,-5.346209,2.162418,1.579988,0.883203,-0.093385,1.530314,0.440186,-0.793945,0.023193,-5.928352,-0.003987,-1.769109,1.13318,-1.505538,0.685411,0.587402,0.187012,-0.711182,-5.928019,1.175508,-0.196019,0.895743,-1.675183,0.69887,0.68335,0.16333,-0.567627,-2.809713,0.105663,8.046219,0.68871,-1.25744,0.613655,0.630615,-0.106689,-0.722412
-4.120228,-1.323944,2.364063,0.423515,-0.404163,0.486646,0.829834,0.258789,-0.612061,-2.955982,1.281821,0.944766,0.570531,0.123565,1.138497,0.425781,-0.801758,0.044678,-3.533628,-0.774492,-1.976947,0.72955,-1.68314,0.853949,0.560059,0.15918,-0.73584,-5.506034,0.023412,-0.486989,0.518619,-2.074477,0.913488,0.653809,0.134766,-0.608154,-2.85434,-0.706109,6.852528,0.506097,-0.372274,0.553627,0.621582,-0.122559,-0.722412
-5.044186,-0.943926,3.155304,0.416097,-0.467093,0.418146,0.818604,0.243164,-0.622803,-4.63293,2.369216,1.419793,0.905331,0.485693,0.672602,0.40332,-0.805664,0.072998,-4.989344,0.213155,-1.449321,0.932189,-1.451631,0.865911,0.531006,0.124268,-0.764404,-5.299694,0.790256,-0.40102,0.660952,-1.963832,0.687783,0.619873,0.107422,-0.648682,-4.038442,0.537442,6.331668,0.838548,0.222157,0.350749,0.619141,-0.146973,-0.716797
-2.877855,-0.848839,3.926731,-0.21523,-0.13758,0.354107,0.812012,0.244873,-0.623047,-2.975663,3.009377,1.397839,-0.268208,0.241438,0.284945,0.396484,-0.82373,0.058838,-3.822654,1.284198,-0.923032,-0.079467,-2.024098,0.968693,0.494385,0.117188,-0.790283,-5.820613,1.60075,0.02955,-0.261996,-2.242487,0.934041,0.58252,0.098145,-0.68335,-3.802134,1.46642,6.887589,-0.066348,0.019033,0.385842,0.619141,-0.145996,-0.716797
-3.050638,-1.106549,3.735424,-0.256644,0.27504,0.351504,0.818359,0.242188,-0.62207,-2.902881,0.907488,0.574961,-0.610803,0.711497,0.137866,0.394287,-0.81958,0.057861,-3.079365,-0.27144,-0.884558,-0.640716,-1.599408,1.079006,0.468018,0.114502,-0.815186,-5.129549,0.082836,-0.583339,-0.757769,-2.637623,0.871344,0.537842,0.095459,-0.724854,-2.472238,0.466375,6.730683,-0.566114,0.242506,0.326715,0.62085,-0.140137,-0.718262
-2.811226,-0.950727,2.791476,-0.616255,0.671751,0.315684,0.838379,0.251953,-0.608887,-2.571029,1.434754,0.58392,-0.110532,0.55459,-0.199182,0.400635,-0.809814,0.071777,-3.614737,-0.75641,-0.630634,-0.462331,-1.82618,0.961141,0.440918,0.112793,-0.830811,-4.713969,-0.331418,-0.670263,-0.602137,-2.53012,0.807634,0.501221,0.098633,-0.751953,-2.409851,-0.010671,5.974897,-0.457826,0.579782,0.228752,0.639893,-0.135986,-0.704834
-4.355019,-1.729684,2.127189,-0.382816,0.647895,0.285877,0.848389,0.256592,-0.590332,-2.740671,2.59023,0.534851,-0.14183,1.013471,-0.371042,0.407471,-0.813477,0.06543,-2.889498,-0.723928,-0.528357,-0.187165,-1.528902,1.002341,0.410156,0.108643,-0.841309,-6.022708,-0.419866,-0.520615,-0.289084,-2.746859,0.805583,0.444824,0.095947,-0.779053,-2.463235,0.053677,5.395068,-0.371915,1.045084,0.149792,0.654053,-0.126465,-0.684814
-3.323672,-0.524087,2.916522,-0.305103,0.642818,0.232569,0.862061,0.251709,-0.586426,-3.421962,2.756895,0.529229,-0.516924,0.799631,-0.709062,0.421143,-0.805908,0.063477,-3.938045,0.170059,0.328434,-0.278978,-1.524191,0.953869,0.385986,0.098389,-0.862305,-5.414171,0.520785,-0.442444,-0.38821,-3.094294,0.705681,0.387451,0.091064,-0.819336,-2.792633,0.431051,5.447905,-0.245085,1.388747,0.06827,0.683594,-0.12793,-0.672607
-3.606468,-0.719247,3.010791,-0.589373,0.824019,0.215301,0.875244,0.260742,-0.572021,-2.612501,2.116646,-0.175205,-0.472427,1.079959,-0.781177,0.435303,-0.798096,0.068359,-2.591809,-0.528309,0.460278,-0.596979,-1.365508,1.051141,0.359619,0.106445,-0.874512,-5.50086,-0.274004,-0.555785,-0.544093,-3.103023,0.90522,0.322266,0.097168,-0.850098,-2.386494,0.761137,5.892011,-0.527643,1.585521,-0.006036,0.708008,-0.116211,-0.651611
-3.424515,-0.82041,2.784694,-0.517937,1.008607,0.276051,0.895996,0.265625,-0.556641,-3.954513,2.751675,-0.107192,-0.324828,1.031676,-0.959273,0.448242,-0.785889,0.064453,-3.401516,-0.950265,1.011616,-0.456324,-0.941677,1.007796,0.348877,0.105469,-0.884521,-5.495665,-0.294056,-0.429155,-0.367278,-3.260665,0.69712,0.25708,0.095947,-0.873535,-2.415304,-0.11346,4.375687,-0.833263,2.037975,0.085455,0.746826,-0.106445,-0.619873
-5.218542,-0.579635,2.505385,-0.457244,1.092649,0.314301,0.908447,0.271484,-0.536133,-3.82896,3.111964,-0.496892,-0.291346,1.077374,-1.030985,0.469482,-0.770508,0.075195,-3.416668,-1.161139,1.486664,-0.263782,-0.808942,1.094157,0.325684,0.10791,-0.888916,-5.647771,-0.560704,-0.337556,-0.148242,-3.225407,0.919946,0.180908,0.098145,-0.888916,-3.936463,-0.562551,3.588355,-0.437978,2.313598,0.035683,0.775879,-0.096191,-0.580811
-5.439533,-0.309876,2.411238,-0.417657,0.980264,0.318493,0.917969,0.270752,-0.506836,-5.386294,3.674428,-0.691116,-0.190553,1.043958,-1.203233,0.483887,-0.760254,0.08667,-3.744031,-0.940031,2.138132,-0.183191,-0.349826,1.116644,0.318604,0.100098,-0.885498,-5.791858,-0.38789,0.0648,0.033126,-3.204176,0.763317,0.108643,0.093262,-0.893311,-4.123822,0.258923,2.970209,-0.1867,2.227597,-0.006999,0.804443,-0.092529,-0.536133
-6.64206,-0.965521,2.715451,-0.197735,0.965394,0.421012,0.932129,0.269287,-0.496826,-5.645592,3.309994,-1.397151,-0.109646,0.879641,-1.27746,0.513672,-0.74707,0.081543,-4.196704,-1.896847,2.650485,-0.122924,-0.057002,1.356154,0.326172,0.095703,-0.884277,-5.51907,-1.160219,0.093376,0.302947,-3.051594,1.01131,0.041504,0.083252,-0.898438,-4.906389,-0.709075,1.567223,-0.761671,2.818715,0.211396,0.841797,-0.087158,-0.482666
-7.257107,0.182013,3.809949,0.177545,1.00627,0.565195,0.95166,0.256592,-0.469238,-7.600629,3.943077,-1.451899,0.566328,0.810643,-1.368865,0.534668,-0.724121,0.103027,-4.786439,-2.08707,3.355961,0.712082,0.48999,1.415428,0.341553,0.065674,-0.879395,-5.797719,-1.342146,0.464391,1.132663,-2.594986,0.740968,-0.012939,0.055664,-0.899658,-8.538233,-1.542062,1.406192,0.099804,2.666051,0.326941,0.87915,-0.09668,-0.426025
-8.157924,0.494182,3.972222,-0.05106,1.181644,0.554328,0.966309,0.251465,-0.451416,-8.018133,5.26941,-1.362355,0.397922,0.445199,-1.396395,0.561035,-0.697998,0.113281,-5.658781,-0.312953,4.178508,0.942484,0.958598,1.561516,0.367188,0.040039,-0.871582,-5.652275,-0.10458,1.33009,1.370104,-2.227686,0.890476,-0.061279,0.030518,-0.9021,-9.114214,1.314051,1.429371,1.014603,1.735598,0.117385,0.894287,-0.104004,-0.391846
-8.57317,0.989847,2.911167,-0.021791,1.339986,0.6464,0.995117,0.239746,-0.427979,-7.975852,5.2514,-2.078846,0.263972,0.373282,-1.447103,0.583496,-0.679688,0.117432,-5.859437,0.254034,4.20002,0.667399,1.470865,1.671293,0.411133,0.00708,-0.862061,-4.621937,-0.351383,1.553082,1.311817,-1.551751,0.859255,-0.083984,-0.000244,-0.908203,-7.812716,3.171947,0.999786,-0.315652,1.610788,0.28425,0.919922,-0.110107,-0.365234
-10.601133,1.286379,3.016813,-0.747449,1.109366,0.633135,1.000488,0.243408,-0.4021,-9.133802,6.849298,-1.647789,0.012916,0.350856,-1.649398,0.611084,-0.653076,0.125977,-7.647114,1.378791,4.849525,0.206679,2.086565,1.485564,0.447266,-0.008301,-0.835205,-4.719797,0.884833,2.57997,1.061158,-0.410115,1.104405,-0.097412,-0.018066,-0.904053,-9.445543,0.731695,-1.110183,-1.462248,2.104018,0.371072,0.931641,-0.098877,-0.321777
-10.771034,-0.292903,2.863615,-1.134219,1.10733,0.631315,1.015869,0.250244,-0.375977,-9.548312,6.571316,-1.919488,-0.849536,0.354439,-1.775099,0.633057,-0.631836,0.113037,-8.728705,1.233379,5.182417,-0.495164,2.410963,1.44898,0.495361,-0.008545,-0.801758,-5.210693,-0.062436,2.980592,0.219094,0.578359,1.348115,-0.080078,-0.013916,-0.900879,-12.014917,0.005382,-1.186277,-0.79423,1.506991,0.210912,0.946777,-0.088623,-0.286621
-12.799489,-0.96255,2.63752,-1.150787,0.860846,0.635426,1.030029,0.246338,-0.355225,-10.876042,5.986936,-2.00336,-0.686939,0.649362,-1.93641,0.669922,-0.605713,0.112305,-10.491299,1.148162,5.61806,-0.573606,3.011102,1.124559,0.560059,-0.010254,-0.756836,-5.215426,-0.623497,3.155864,0.35083,2.078009,1.425455,-0.02124,-0.022705,-0.902832,-11.712151,0.601564,0.063481,-1.210908,1.092727,0.208156,0.958496,-0.088135,-0.262939
-12.705825,-1.095496,1.862053,-1.434798,0.682029,0.643014,1.02832,0.252441,-0.340332,-11.144345,6.932511,-1.644019,-0.885354,0.736273,-2.093759,0.705078,-0.565186,0.100586,-12.054048,1.75972,6.201681,-0.938221,3.2192,0.96269,0.604248,-0.004639,-0.709961,-6.389483,0.341316,3.646785,0.023634,3.917905,1.538281,0.064209,-0.018555,-0.895264,-11.368075,-0.74196,0.229148,-2.008201,1.277323,0.292936,0.956299,-0.075684,-0.23877
-12.160685,-1.928185,2.524062,-1.235038,0.442521,0.703599,1.036621,0.262451,-0.336426,-11.348991,4.965009,-2.159572,-1.585033,1.149515,-2.023614,0.725586,-0.538818,0.104248,-12.784684,0.543473,6.651844,-1.418102,3.511,0.868699,0.664307,0.017578,-0.6604,-7.861699,-0.234742,3.004421,-0.418758,5.915299,1.797123,0.206055,-0.001709,-0.874756,-12.551533,-2.840184,-2.730851,-1.661662,1.614367,0.350715,0.970459,-0.065918,-0.20752
-13.256642,-1.3804,2.883453,-0.984567,0.779515,0.840623,1.048828,0.254883,-0.317139,-13.479928,3.311246,-2.315216,-0.689092,1.265295,-1.868369,0.75,-0.518799,0.112061,-15.734382,-0.769676,7.448238,-1.029903,3.575094,0.884433,0.719727,0.020264,-0.596191,-12.181375,-0.760835,1.473556,-0.14849,8.75473,1.856533,0.405273,-0.009521,-0.799805,-16.141295,-1.657094,-1.91872,-0.531292,0.93154,0.398434,0.975342,-0.070801,-0.188477
-12.17499,-1.046786,1.775579,-0.897702,0.650954,0.853302,1.047607,0.237061,-0.302002,-12.07582,4.63546,-1.905882,-0.242736,1.134637,-1.731214,0.767578,-0.479004,0.131836,-14.842514,-1.060253,7.286094,-0.728809,2.859658,0.829595,0.746826,0.01123,-0.544922,-19.35895,0.171562,-1.614045,0.253643,11.342138,1.905611,0.610107,-0.03833,-0.64624,-12.268824,-0.159929,-0.512364,-1.034054,-0.61694,0.409252,0.965332,-0.080322,-0.203369
-13.272996,0.730289,1.882683,-0.450596,0.879641,1.041728,1.068848,0.226318,-0.288086,-13.534086,5.208062,-2.862832,-0.396034,1.356994,-1.453532,0.776123,-0.460449,0.155273,-13.569023,-1.43222,4.740534,-0.609649,3.039606,1.007112,0.797363,0.004883,-0.492432,-30.115979,2.176163,-7.844604,0.26009,13.680668,1.980791,0.808105,-0.060059,-0.4021,-10.936144,-1.093525,-0.455762,-1.364658,0.970794,0.806023,0.984131,-0.084229,-0.185791
-15.610775,2.406603,1.647979,-1.645776,0.815626,1.238604,1.063965,0.220459,-0.266602,-15.950128,6.746592,-2.12561,-0.751017,0.89022,-1.113931,0.790283,-0.444092,0.160645,-13.854248,0.041836,-1.029058,-0.897669,4.018453,1.149132,0.82373,-0.002441,-0.408203,-39.971569,4.219756,-11.664042,-0.84209,12.901018,1.90607,0.884033,-0.072998,-0.137451,-16.23279,-0.898141,0.941602,-1.549605,1.051099,0.735106,0.971436,-0.091309,-0.160645
-16.21331,-2.642173,0.775816,-1.727452,0.312053,1.192776,1.076416,0.203125,-0.258789,-15.44937,4.280575,-1.435172,-2.033632,0.41195,-0.942853,0.797119,-0.438721,0.144287,-16.535177,-0.229973,-8.170408,-1.510299,5.681477,1.778367,0.87915,-0.029297,-0.288574,-37.842577,1.656048,-10.858584,-2.266953,8.386138,1.864482,0.912354,-0.098389,0.027588,-13.698552,-1.371476,-0.432295,-1.195366,0.228018,1.007146,0.981201,-0.112305,-0.157471
-15.245042,-2.042735,3.241899,-0.598156,0.414763,1.285518,1.06543,0.181396,-0.254639,-14.857515,-0.852349,-1.244351,-1.51751,0.846482,-1.546936,0.812256,-0.4104,0.148193,-19.7231,0.450616,-12.645161,-0.63246,6.091633,1.663107,0.893311,-0.059082,-0.163086,-30.357982,-0.602416,-9.107489,-1.382129,5.491361,1.886278,0.900146,-0.124756,0.12085,-14.435239,0.26906,-0.4716,-0.6505,1.806187,0.830131,0.973389,-0.127197,-0.120117
-16.121405,-2.382833,4.809225,-1.431939,0.661468,1.098194,1.093262,0.16626,-0.23877,-18.120944,-3.060712,-0.519108,-1.149575,1.389928,-2.614133,0.832031,-0.367432,0.164795,-21.360984,3.76127,-13.908002,-0.800761,5.594917,1.561137,0.932617,-0.091309,-0.043457,-28.757132,0.927512,-5.118914,-1.183724,4.340732,1.370279,0.924072,-0.154297,0.195068,-21.22805,0.457889,-0.614492,-1.699349,1.421148,0.824133,0.994141,-0.143311,-0.091309
-13.167483,-3.28402,1.096698,-0.786923,1.460011,1.206333,1.101318,0.144287,-0.208984,-16.786069,-5.786359,-1.068328,-1.303907,1.273184,-3.708078,0.857422,-0.29834,0.179443,-21.015874,3.480042,-12.575059,-2.035935,3.86469,1.407623,0.932129,-0.121094,0.02832,-24.506814,0.815575,-2.564794,-1.980218,1.62057,1.312479,0.937256,-0.189941,0.205322,-18.712989,-2.144401,0.293294,-1.852644,-1.727382,0.776483,0.986816,-0.156738,-0.139893
-14.099187,0.560282,-2.27541,-0.735161,1.894612,1.217192,1.112549,0.123779,-0.173584,-16.395717,-7.057467,-1.971002,-0.815665,2.189891,-4.260855,0.883301,-0.212158,0.22168,-20.283298,0.055856,-11.208022,-2.133674,2.774676,1.396467,0.932861,-0.153809,0.07373,-18.827974,-1.405231,-3.372389,-2.007624,1.665049,1.162903,0.94873,-0.224854,0.217529,-8.878047,-2.54109,2.470671,-0.705001,-1.29079,0.674344,0.975586,-0.17041,-0.170654
-10.261555,0.165792,-5.230357,-1.27068,2.091421,1.348814,1.119629,0.100342,-0.129395,-15.703039,-7.620588,-3.041415,-0.605943,1.677546,-4.367161,0.892822,-0.125244,0.243896,-19.485273,-0.97391,-7.7373,-1.205006,1.290001,1.115933,0.929443,-0.179932,0.083008,-21.130824,-1.016884,-2.088329,-0.843836,1.28821,0.982928,0.962158,-0.25415,0.228271,-8.773088,-1.320247,4.567488,-1.078327,1.37933,1.062702,0.976318,-0.186768,-0.147217
-11.033502,0.720217,-5.280552,0.093983,2.89399,1.854875,1.132324,0.064209,-0.056885,-13.674548,-8.761156,-4.027608,-0.203031,1.93012,-3.511852,0.88916,-0.061279,0.294922,-15.743451,-1.878504,-5.263355,-1.126137,1.20585,1.280415,0.935547,-0.208984,0.10791,-18.513822,0.171373,-2.203055,-0.884724,-0.608904,1.017439,0.984863,-0.282715,0.210205,-10.374167,-2.965834,2.298426,-0.778136,1.620759,1.332319,0.980957,-0.213867,-0.105713
-9.830729,4.782029,-3.95568,-0.014941,3.750038,2.094307,1.132812,0.012207,0.024902,-16.796,-7.298607,-3.765635,1.029625,1.335149,-2.445001,0.889404,-0.004395,0.336182,-16.787712,-2.748991,-3.848825,-0.069638,1.344226,1.274831,0.936279,-0.237305,0.131104,-17.505467,-0.822519,-2.3307,-0.36871,-0.767869,1.236494,0.997559,-0.322998,0.183105,-8.834026,-0.159695,1.638552,1.367713,1.717802,1.337848,0.981201,-0.248535,-0.063965
-10.876301,3.834334,-4.574315,-0.72121,4.340022,2.181791,1.117432,-0.039551,0.121338,-14.762812,-2.052955,-2.851204,1.032328,0.605151,-1.852456,0.887939,0.040039,0.343506,-15.170794,0.509525,-3.25096,0.009318,1.198734,1.23683,0.924561,-0.27124,0.158447,-18.262214,0.816657,-0.382924,-0.23585,-1.579382,0.938788,0.998291,-0.355713,0.13916,-5.881926,5.099344,2.487142,0.909409,1.877056,1.27991,0.969482,-0.283936,-0.015137
-11.303355,3.784501,-3.867179,-0.732941,4.060742,2.1556,1.102295,-0.087158,0.209717,-15.184147,1.049892,-1.883064,0.062617,0.467407,-1.815323,0.885986,0.09082,0.35083,-16.522161,1.038103,-2.951095,-1.011238,0.983824,1.372299,0.924805,-0.307617,0.168701,-15.063469,0.970995,0.298989,-1.004948,-2.203518,1.324817,1.007324,-0.397217,0.074951,-3.114816,5.311234,0.144915,-1.008897,3.296868,1.462434,0.963623,-0.313965,0.055908
-12.633351,3.761641,-2.42673,-1.452655,3.287877,1.782454,1.085449,-0.133301,0.270996,-12.613649,2.693086,-1.419324,-0.474288,0.190889,-2.537699,0.867188,0.130371,0.348877,-15.300041,0.408538,-2.501,-1.206752,0.074465,1.093333,0.931885,-0.343018,0.163086,-13.301346,-0.633714,0.22782,-1.359751,-1.166257,1.131191,1.011719,-0.428711,0.038086,-6.029301,4.751062,-2.849392,-0.591517,4.757097,1.142906,0.95752,-0.340332,0.162842
-10.515671,1.217556,-0.979247,-1.637713,2.359592,1.375275,1.052734,-0.177979,0.301025,-11.529833,2.713514,-1.065872,-1.140329,0.630474,-2.958928,0.861328,0.192383,0.377441,-14.3867,0.667037,-0.51925,-1.148989,-0.140469,1.014202,0.918457,-0.378174,0.141113,-14.428347,-0.81409,0.68977,-0.930641,-0.978267,1.109693,0.99585,-0.47168,-0.004395,-7.007233,7.252152,-3.87689,-0.455999,3.945183,0.614182,0.926025,-0.362793,0.234619
-8.626719,2.150374,0.651293,-1.281657,2.476473,1.147448,1.033691,-0.198242,0.334473,-10.063271,1.935951,-1.312006,-1.150079,0.769427,-3.087317,0.838379,0.248047,0.403076,-12.277533,1.026646,1.392211,-1.210805,-0.353368,0.785752,0.919434,-0.392334,0.115967,-12.125666,0.483973,0.262411,-0.904371,-0.978658,0.833339,0.994385,-0.484863,-0.042236,-6.047432,7.48419,-4.906096,-1.909326,3.842423,0.563096,0.904297,-0.375244,0.294189
-8.333688,0.973817,-0.54053,-1.637357,2.536207,0.842621,1.010986,-0.228027,0.376709,-9.856912,1.512032,-1.356802,-1.063747,1.192285,-2.684886,0.807617,0.285889,0.431396,-9.866914,-0.292091,2.399173,-1.742672,0.327779,0.862861,0.911133,-0.421387,0.115723,-11.751682,-0.373508,0.202383,-1.498586,-0.527618,1.078447,0.979736,-0.514648,-0.060303,-9.161657,3.658567,-6.276905,-2.364774,3.061858,0.47544,0.877686,-0.405029,0.343994
-8.981372,0.883183,-2.837188,-0.167128,2.527996,0.699339,0.980957,-0.249756,0.425537,-9.521117,1.299191,-2.115275,-0.026168,1.113531,-2.382616,0.778076,0.336426,0.45166,-9.270467,-3.139286,2.370838,-0.747187,0.94921,0.906593,0.897461,-0.452881,0.134766,-10.902043,-2.807002,-0.328991,-0.382235,-0.818599,0.820025,0.9646,-0.538818,-0.078613,-8.037642,2.083848,-7.796568,-0.033089,1.401956,0.174219,0.862061,-0.414795,0.374023
-9.374724,4.378881,-2.175202,-0.416043,1.611887,0.163113,0.960449,-0.251709,0.442139,-9.024119,3.629601,-1.193682,0.428036,1.08964,-2.172072,0.746826,0.380127,0.469971,-8.181329,-1.250133,2.691459,0.587887,1.497488,0.81182,0.87793,-0.462158,0.166016,-8.948679,-0.313577,0.615938,0.837628,-0.466153,0.619321,0.950195,-0.554199,-0.087646,-6.799172,7.215798,-5.720161,0.888674,1.685569,-0.423701,0.845459,-0.394043,0.406006
-6.800805,1.580816,-2.899851,-0.723572,1.271358,-0.066839,0.949951,-0.268311,0.467041,-6.77048,3.015969,-1.689865,-0.397637,0.752234,-1.960274,0.72583,0.407227,0.493408,-6.631246,0.723577,2.723638,-0.005642,1.939291,0.970678,0.858887,-0.496826,0.214844,-7.367241,1.295291,1.373986,0.225869,-0.221677,0.869971,0.936523,-0.588379,-0.080811,-6.348391,5.908126,-6.002803,-2.150086,1.476285,-0.182929,0.835449,-0.421387,0.421631
-7.845012,3.242916,-2.792506,0.112626,0.803875,-0.158089,0.947998,-0.263184,0.481445,-6.846934,1.385916,-2.234913,-0.345805,0.940706,-1.750177,0.695557,0.434082,0.515625,-6.764254,-0.726581,2.315979,-0.906205,2.507056,1.125892,0.832031,-0.527588,0.259033,-6.251064,-0.042544,1.134314,-0.345061,0.510004,1.131083,0.924316,-0.612549,-0.068115,-6.737877,-0.624802,-8.985967,-1.473213,1.535775,-0.140005,0.826416,-0.432129,0.440918
-8.297624,4.585406,-2.442677,-0.722637,0.264265,-0.43614,0.951904,-0.257812,0.475098,-8.329291,1.33751,-2.304574,-0.074883,0.327195,-1.523819,0.67627,0.459473,0.520752,-8.359489,-2.59809,2.129439,-0.285696,2.58952,1.257944,0.801025,-0.547607,0.304199,-7.643312,-1.248573,1.418326,0.337409,1.314849,1.187926,0.911377,-0.63501,-0.034912,-9.07916,3.241647,-6.652071,1.592808,0.951943,-0.847762,0.826416,-0.394043,0.469238
-6.565544,2.244607,-2.59802,-0.660963,-0.078464,-0.525865,0.955566,-0.25293,0.466309,-5.99294,0.661429,-2.48857,-0.546194,-0.075533,-1.214674,0.666992,0.487549,0.52002,-6.716187,-0.496878,1.993145,0.338469,2.487195,1.105739,0.759521,-0.569336,0.359619,-6.046594,0.647322,1.772231,0.698748,1.597175,1.143929,0.890381,-0.660889,0.012451,-6.422139,7.035573,-4.940616,-0.841322,0.043058,-0.509179,0.826172,-0.394043,0.462646
-6.85409,2.58879,-2.972783,-0.153933,-0.135284,-0.443643,0.965088,-0.253418,0.460449,-6.634144,-1.278031,-2.652566,-0.413312,-0.303564,-0.82767,0.65918,0.488281,0.520996,-6.954297,0.439353,1.706788,-0.401547,2.780062,1.383796,0.715088,-0.60498,0.404297,-5.175315,0.554048,1.395199,0.050396,2.987279,1.570588,0.868652,-0.700928,0.079102,-6.062614,0.067533,-6.535622,-2.645532,0.645004,-0.16281,0.822754,-0.426758,0.448242
-6.529253,3.877795,-3.488081,-0.151591,-0.448396,-0.58196,0.971436,-0.240967,0.451172,-5.574965,-0.948448,-2.620185,0.108902,-0.735733,-0.694545,0.654297,0.499268,0.508301,-7.629848,-0.845299,1.097847,-0.256919,2.410779,1.2775,0.663574,-0.626221,0.440918,-7.083707,-0.929603,1.134448,0.392912,3.831564,1.521273,0.830811,-0.731445,0.169678,-7.381275,-1.163854,-6.191782,1.135511,-0.015496,-0.67653,0.825439,-0.401611,0.458496
-6.502096,3.195094,-3.212288,-0.423878,-0.781786,-0.705023,0.988037,-0.237061,0.432617,-6.019654,-1.134026,-2.667276,-0.455448,-0.821436,-0.330613,0.661865,0.501709,0.505615,-6.948201,0.734786,0.865198,0.407285,2.071963,1.092272,0.625732,-0.64502,0.486572,-6.336087,0.720604,0.799275,0.744346,4.543758,1.413037,0.788086,-0.755859,0.279053,-4.973754,6.166845,-4.032314,1.383972,-0.303094,-0.785724,0.837891,-0.377197,0.467529
-4.834656,1.096218,-3.168331,-0.335194,-0.760134,-0.618002,1.008057,-0.213623,0.418213,-4.624282,-3.371969,-3.278383,-0.50303,-1.278205,-0.178962,0.677002,0.495361,0.48584,-5.795014,2.242972,0.665571,-0.140267,1.704992,0.959965,0.594238,-0.649658,0.511963,-7.157635,1.044483,0.032491,-0.025277,5.671109,1.536271,0.724609,-0.770752,0.389893,-4.654997,3.024987,-4.627695,-2.773326,0.372952,-0.191033,0.841064,-0.388916,0.451904
-5.954815,1.510979,-3.696726,0.481865,-0.686085,-0.48274,1.013672,-0.200195,0.412842,-4.876909,-3.890624,-2.965557,0.24605,-1.001041,0.217305,0.692871,0.494873,0.463623,-5.653732,0.897416,-0.468117,-0.191871,1.553327,0.874711,0.558105,-0.66333,0.537109,-9.135418,-1.01547,-1.182666,0.024903,6.07812,1.468168,0.63501,-0.794922,0.49707,-7.033486,-5.587688,-6.920514,-0.945619,0.005336,-0.137207,0.842041,-0.398193,0.448975
-6.192416,1.781956,-4.000511,0.365778,-0.726877,-0.524614,1.021484,-0.192139,0.386475,-5.551766,-3.844258,-2.906181,0.335697,-1.175505,0.467249,0.707275,0.48877,0.438721,-5.613714,1.601983,-1.398673,0.866044,1.220139,0.363196,0.533447,-0.663818,0.557617,-9.704566,-0.769546,-1.9753,0.782678,6.225255,0.979154,0.5354,-0.803711,0.59082,-6.296634,-0.288447,-5.717942,3.477825,-0.86956,-0.786748,0.851318,-0.352295,0.450439
-6.238014,0.207274,-3.886958,1.034677,-0.765607,-0.580985,1.033203,-0.169678,0.388428,-4.817379,-5.047116,-3.00639,0.846506,-0.906348,0.904938,0.735596,0.492188,0.405029,-4.591673,3.187788,-2.08436,1.016652,1.173567,0.024677,0.518555,-0.644043,0.597656,-9.808354,-0.443705,-2.285869,0.911056,5.986747,0.757758,0.43335,-0.789551,0.686768,-5.17749,6.361895,-3.576472,1.543243,-0.535764,-0.394357,0.860107,-0.324219,0.455078
-5.939694,2.183924,-3.245437,1.216432,-0.565001,-0.563242,1.044922,-0.147461,0.389404,-5.162209,-3.007254,-2.246121,1.663581,-0.611062,1.079994,0.753174,0.47583,0.378174,-4.645153,3.057859,-3.116883,0.89153,1.240707,-0.453568,0.508545,-0.619141,0.629883,-8.528664,-0.707432,-2.670733,1.211807,5.376047,0.313863,0.336182,-0.765381,0.762451,-6.403103,1.077177,-5.353849,-1.463073,-0.454268,-0.08009,0.869141,-0.335449,0.435303
-7.910844,1.558393,-4.180058,0.51277,-0.677211,-0.688049,1.061768,-0.128906,0.376221,-6.378955,-1.49365,-1.568557,0.353691,-0.189644,1.336647,0.771729,0.457275,0.37207,-5.772842,3.611847,-3.94472,0.91148,1.193447,-0.894277,0.509277,-0.591797,0.655762,-8.2585,0.112369,-2.444697,1.136065,5.172276,-0.172048,0.250977,-0.737793,0.819092,-7.035243,-2.979683,-6.244455,1.122752,-0.786843,-0.520213,0.887207,-0.314697,0.42749
-7.865311,1.890338,-4.307524,0.73991,-0.846114,-0.749958,1.065918,-0.104248,0.369629,-7.571075,-4.159743,-2.577216,-0.165841,-0.192099,1.34432,0.786133,0.431641,0.362305,-6.170281,3.461891,-4.580432,0.458322,0.845271,-1.339097,0.505615,-0.5625,0.684082,-8.566642,-0.866154,-2.277081,0.964947,4.112059,-0.449387,0.166748,-0.708252,0.866699,-6.774398,3.656535,-4.673878,2.653129,-0.977395,-0.844212,0.893555,-0.26709,0.43042
-8.719322,2.380438,-3.565867,-0.040733,-1.143792,-0.837196,1.078613,-0.08667,0.346924,-7.675031,-3.273023,-2.312124,0.38805,0.00026,1.301399,0.803711,0.404297,0.36084,-6.570033,2.358994,-5.0118,0.271452,0.62327,-1.661383,0.518799,-0.532471,0.69873,-6.920799,-0.940516,-2.400972,1.413101,3.31221,-1.041168,0.114014,-0.666992,0.904297,-6.379516,4.558586,-5.004192,-1.130714,-0.518068,-0.453132,0.900879,-0.272217,0.414062
-8.531973,0.729785,-4.009329,0.310555,-1.038202,-0.824107,1.089844,-0.067383,0.316406,-8.922074,-3.184435,-2.335087,-0.614386,0.005491,1.3965,0.808838,0.37915,0.36792,-7.267805,0.997232,-5.773853,0.392771,0.214084,-2.046305,0.544189,-0.498779,0.699219,-7.426765,-0.686927,-2.235649,1.571911,2.744838,-1.144177,0.068115,-0.623535,0.931396,-9.104548,-2.636555,-6.98987,-1.106275,-0.293936,-0.307074,0.905029,-0.275391,0.390381
-9.987782,3.950902,-2.779335,0.434645,-1.15081,-0.889271,1.103271,-0.046631,0.301758,-9.714208,-5.797709,-3.018991,-0.623384,-0.131506,1.430583,0.822266,0.343262,0.363281,-8.367696,0.151182,-6.3631,1.012639,-0.268509,-2.414839,0.57373,-0.443848,0.712891,-8.187506,-1.448167,-2.493215,2.239463,1.372695,-1.240052,0.052734,-0.565674,0.9729,-10.407735,1.60539,-6.60845,2.905905,-1.409146,-1.125927,0.923828,-0.227051,0.383545
-9.603178,2.753082,-3.545741,-0.632721,-0.977004,-1.084883,1.114258,-0.024414,0.271484,-9.958736,-4.385916,-2.642417,0.175044,-0.223026,1.328751,0.84082,0.318115,0.355225,-8.613245,0.683032,-6.905998,1.440196,-0.983883,-2.70481,0.619873,-0.373779,0.707764,-7.269603,0.152655,-2.69826,2.989967,0.357323,-1.441921,0.063721,-0.483887,1.005615,-7.920136,8.383911,-5.961907,0.301842,-1.667975,-0.899419,0.945801,-0.205078,0.343994
-11.765177,2.754444,-3.713824,0.06622,-0.965514,-1.079285,1.132812,0.007568,0.247803,-12.401137,-3.779614,-2.101073,-0.989142,-0.422309,1.421684,0.847168,0.275391,0.350098,-9.988712,1.05285,-7.871913,1.1191,-1.599761,-2.600704,0.673096,-0.302734,0.688232,-9.322324,1.781754,-2.501316,2.586638,-0.63481,-1.434192,0.096436,-0.400146,1.028076,-10.735041,2.556071,-6.170593,-2.791776,-0.817192,-0.446564,0.961182,-0.209717,0.308838
-10.834283,4.419505,-3.484566,-0.498602,-0.994669,-1.17854,1.133545,0.032471,0.230225,-12.200707,-6.423349,-3.550709,-1.097348,-1.425096,1.239017,0.869873,0.248047,0.321045,-9.921309,0.585683,-8.264395,0.633107,-2.62205,-2.443955,0.725098,-0.240967,0.652344,-9.985501,1.841628,-3.325818,1.924086,-2.600981,-1.622839,0.167236,-0.33374,1.044922,-11.342202,-2.085604,-5.79393,-0.225076,-2.164913,-1.120667,0.973633,-0.18457,0.267822
-11.590936,2.538357,-4.160944,-0.358948,-0.949498,-1.161395,1.142822,0.051758,0.202148,-12.203228,-5.500384,-3.121174,-0.337379,-1.647768,1.278723,0.88208,0.210205,0.288818,-10.089887,-0.431067,-9.222072,0.214415,-2.826337,-2.061295,0.779053,-0.200928,0.594238,-10.739187,2.035871,-4.732164,1.513521,-3.803297,-1.769404,0.273926,-0.279297,1.0354,-8.467573,3.105603,-5.074749,1.731161,-1.727202,-0.959971,0.989746,-0.158447,0.231201
-10.362411,3.704625,-4.322933,0.122895,-0.928195,-1.047628,1.149414,0.081787,0.182861,-12.912949,-5.648861,-2.983481,-0.830411,-2.677914,1.265482,0.903076,0.189941,0.227783,-11.501073,-1.994353,-10.714909,0.406355,-3.353749,-1.859523,0.82373,-0.149902,0.5271,-15.133982,1.78675,-6.53195,1.253908,-5.824401,-1.60144,0.422852,-0.222656,0.991699,-10.549399,5.402201,-3.243507,-0.559647,-1.306081,-0.792831,0.99585,-0.138916,0.198975
-10.159609,3.31301,-3.384928,-0.506191,-0.871261,-1.12686,1.14624,0.10791,0.156738,-11.336596,-7.43251,-2.704783,-0.398333,-3.000235,1.406692,0.922852,0.154541,0.164795,-10.955095,-0.90844,-11.83473,1.523493,-3.29553,-1.686143,0.858887,-0.092285,0.456543,-19.333521,1.66555,-9.841317,1.445723,-8.352662,-1.601605,0.614014,-0.162842,0.883789,-8.968469,1.189439,-2.920814,-1.335345,-1.663455,-0.723618,0.998291,-0.128906,0.153076
-7.202148,-0.706066,-4.032154,-0.226212,-0.382831,-1.064742,1.149902,0.12915,0.148926,-10.485495,-6.535014,-1.503158,0.359616,-3.40617,1.500582,0.939941,0.123535,0.078369,-10.16315,3.140319,-11.67881,1.507988,-3.167904,-1.391715,0.887939,-0.040771,0.389893,-26.023001,3.291844,-11.924847,1.186811,-10.35106,-1.931011,0.812988,-0.101807,0.698242,-7.867702,-1.313126,-2.256663,-0.047546,-1.194568,-0.889775,1.004883,-0.108887,0.127441
-8.901644,-0.167768,-3.772258,0.737865,-0.188205,-1.166982,1.148438,0.161133,0.144775,-8.021576,-6.241182,-0.399364,0.082634,-3.056636,1.35082,0.945801,0.091064,0.008545,-10.118439,3.66233,-10.022171,0.671227,-2.936433,-1.178384,0.90625,-0.010254,0.321289,-33.545031,2.115029,-11.393338,0.357642,-12.27052,-2.046083,0.966553,-0.048828,0.413574,-7.356378,1.531205,-2.076518,2.01391,-1.337033,-1.166177,1.009277,-0.074707,0.097412
-8.974636,-1.49813,-3.19206,0.045564,-0.13891,-1.695188,1.1521,0.196045,0.145752,-8.551186,-7.204474,-0.044852,0.402183,-1.984933,0.576895,0.931885,0.07373,-0.040527,-15.880866,4.353726,-4.834494,1.461802,-3.861716,-1.560866,0.925049,0.031494,0.23584,-31.624235,1.257005,-7.508434,0.672419,-13.313823,-2.832825,1.018066,0.010742,0.084229,-7.075825,5.600596,-1.284763,1.133392,-0.456307,-1.642777,1.012451,-0.039551,0.093018
-9.534618,-2.788611,-3.47333,0.606617,0.088327,-1.951543,1.148682,0.245605,0.144043,-8.694644,-5.277923,-0.729281,1.084276,-1.07738,0.362613,0.93457,0.075439,-0.069336,-20.151494,6.943591,1.186327,1.212252,-6.092866,-1.938005,0.941895,0.084961,0.086914,-24.326391,2.912554,-2.496794,0.226907,-10.493198,-2.91714,0.968994,0.072998,-0.169678,-10.582191,2.5092,-1.151976,-1.486958,-0.1877,-1.691461,1.011719,0.000488,0.083252
-9.73577,-0.872972,-4.178608,1.025536,0.92304,-2.020815,1.145996,0.295898,0.180176,-9.997944,-1.801735,-2.132716,1.571101,-0.069614,1.406636,0.932129,0.042969,-0.076172,-18.423286,4.616757,5.795794,-0.384081,-7.240962,-2.313974,0.933594,0.132568,-0.067627,-25.619307,1.088569,0.354395,-0.891621,-6.702078,-2.930637,0.894775,0.12207,-0.294922,-10.3637,-4.077783,-2.539333,-0.486934,-1.167784,-1.996953,1.013184,0.051758,0.069824
-11.767424,0.199418,-4.862631,1.268968,0.859527,-1.843697,1.129883,0.341553,0.190186,-12.030892,4.340762,-3.81749,2.404675,0.030277,2.908261,0.924316,-0.025879,-0.065918,-13.912629,-0.780384,7.148875,-0.367911,-6.623923,-2.642256,0.890381,0.185547,-0.216064,-23.616582,-0.096326,-0.286843,-0.101556,-5.923801,-3.068544,0.802979,0.164062,-0.405273,-8.254586,-3.344357,-1.831899,1.77495,-0.798739,-2.189451,1.003174,0.102051,0.040283
-13.075473,1.3349,-2.894996,1.834986,0.219821,-1.505518,1.124512,0.378662,0.184082,-12.011204,9.826152,-4.415874,1.491729,-0.116508,3.959874,0.912109,-0.116699,-0.067627,-11.662818,-2.786871,6.848843,0.580985,-4.962321,-2.622766,0.844727,0.223877,-0.322754,-17.658521,1.660537,-0.53184,0.002065,-4.152227,-2.828458,0.73584,0.191162,-0.468018,-8.780154,-2.282148,-1.096683,0.956918,0.317377,-1.545431,0.999756,0.134033,0.044189
-14.523015,3.039622,2.087036,1.663125,-0.934946,-1.129423,1.125977,0.412598,0.15625,-13.612796,10.66554,-5.090943,0.5614,-0.522699,4.401518,0.883057,-0.218262,-0.076416,-12.029612,-1.729943,6.542287,0.940215,-3.596811,-2.337649,0.803223,0.256836,-0.399414,-17.998222,1.094472,0.048342,-0.20006,-2.843866,-2.35635,0.693848,0.214844,-0.503418,-11.630866,-4.815371,-2.514045,0.806823,1.031114,-1.036972,1.002197,0.161621,0.062988
-13.729466,1.334014,6.020844,0.721914,-1.664917,-0.841082,1.118652,0.429688,0.111572,-12.776058,10.753603,-4.30708,0.165376,-1.418577,4.197417,0.860107,-0.313477,-0.10376,-11.723756,-1.45425,5.27174,0.095895,-2.571957,-1.9715,0.757812,0.28418,-0.444092,-15.278622,1.066006,0.171762,-0.252655,-3.032293,-2.169702,0.63501,0.231689,-0.546875,-15.039913,-3.898744,-3.317062,1.886071,0.147194,-0.562444,0.990234,0.175781,0.056396
-14.567523,-1.187423,5.951573,0.886287,-2.053541,-0.524428,1.114502,0.442871,0.062744,-11.663392,9.823118,-3.544956,0.271977,-1.714377,3.63924,0.82373,-0.382568,-0.13623,-11.973185,-3.216477,3.336011,0.397346,-1.653762,-1.737513,0.734375,0.303467,-0.470947,-12.200085,0.213957,0.199399,-0.260499,-1.853824,-1.779367,0.605957,0.245361,-0.56543,-14.330077,-1.278901,-2.449742,1.595995,-1.704838,-0.14818,0.991699,0.181396,0.012207
-14.937929,-1.360815,5.116314,0.831429,-3.009207,-0.475023,1.10498,0.447266,-0.015381,-11.090946,10.014134,-1.97464,0.754244,-1.937776,2.622967,0.795166,-0.442871,-0.1604,-12.153493,-1.243712,2.697887,1.389231,-1.242348,-1.701585,0.703369,0.308105,-0.506836,-12.721452,-0.589171,0.821652,0.110305,-1.102742,-1.790265,0.578857,0.258545,-0.583984,-11.207154,-1.140362,-1.155381,0.762361,-2.190762,0.130384,0.983887,0.175049,-0.047363
-13.579672,-3.413292,3.848059,0.604912,-3.744389,-0.608973,1.093018,0.455322,-0.100342,-11.209481,9.656865,-0.621258,0.611034,-1.609306,1.658741,0.77002,-0.468994,-0.177002,-11.878573,1.133978,2.961907,1.120668,-0.903536,-1.597047,0.687744,0.310791,-0.523193,-11.357337,-0.008137,0.695599,0.608193,-0.69665,-1.750166,0.566895,0.261475,-0.595947,-10.631102,-2.375531,0.400913,0.578987,-2.107567,0.237212,0.984863,0.165527,-0.093262
-11.579129,-4.089739,3.864094,0.850041,-3.995942,-0.620922,1.066162,0.468994,-0.200439,-12.017841,7.590887,0.86552,0.140489,-1.253388,1.004563,0.746826,-0.489258,-0.178223,-11.704069,1.122619,3.59731,0.492457,-0.390532,-1.608305,0.674805,0.331543,-0.542725,-11.953042,0.974614,0.864444,0.194937,0.40008,-1.750202,0.564697,0.277344,-0.602051,-10.321312,-2.596046,1.286937,1.014701,-2.438687,0.180297,0.976562,0.165771,-0.162354
-10.358287,-4.641239,3.403744,0.694469,-3.510757,-0.742971,1.033936,0.4646,-0.272949,-11.716748,4.081059,1.65959,-0.103494,-0.644476,0.964267,0.736328,-0.51416,-0.195312,-11.326716,-0.037581,3.873764,0.373509,0.196315,-1.716582,0.665527,0.338867,-0.534912,-13.404635,-0.433964,0.651208,-0.165837,0.440518,-1.655343,0.561768,0.287354,-0.590576,-11.598203,-1.364771,2.394671,1.173253,-2.679494,0.130206,0.960205,0.143066,-0.225098
-8.551426,-4.568823,2.372352,1.099502,-2.771631,-0.683317,1.004395,0.471924,-0.333008,-10.317275,1.185162,1.618503,0.360492,-0.15958,1.347207,0.730469,-0.531738,-0.185059,-10.105582,-1.096205,3.032567,0.598821,0.845027,-1.68301,0.66748,0.358887,-0.525146,-10.990811,-0.989718,0.202101,0.477925,0.598828,-1.910366,0.561768,0.305664,-0.587891,-10.446581,-1.333956,2.8356,0.824688,-3.948157,0.09209,0.933594,0.141357,-0.310547
-9.279852,-2.534852,1.108106,1.074448,-1.927588,-0.597368,0.981934,0.470459,-0.37793,-9.72143,1.217163,1.69174,1.143154,0.565447,1.716688,0.700928,-0.572754,-0.157471,-11.10128,-2.179366,1.81811,0.878113,1.530232,-1.558628,0.673828,0.374023,-0.509033,-11.105163,0.119086,0.874348,0.910241,1.641608,-1.796974,0.57251,0.317383,-0.575684,-6.482205,-1.706048,4.283856,0.819767,-3.82463,-0.082893,0.894775,0.13916,-0.395996
-8.965053,-2.430764,-0.113411,0.743571,-1.908635,-0.581356,0.959717,0.466309,-0.425049,-10.508414,2.415229,1.719115,0.650849,0.684289,1.783386,0.682373,-0.598145,-0.123779,-11.868233,-2.795236,0.382805,0.915392,1.188655,-1.431151,0.683838,0.37915,-0.50293,-11.117672,0.553358,1.495221,0.649195,1.70948,-1.587577,0.593018,0.324219,-0.564941,-5.814089,-1.986383,6.306394,0.594744,-2.574521,-0.047527,0.869385,0.125488,-0.452637
-8.622495,-2.175654,0.815502,1.189197,-1.75802,-0.382534,0.931152,0.459473,-0.46582,-9.866332,-0.201372,0.949029,0.014244,0.577782,1.674162,0.660645,-0.635986,-0.121582,-9.96472,-4.320858,-1.076935,0.932343,0.819881,-1.118229,0.684326,0.382812,-0.502197,-8.252436,-0.695353,0.501158,0.81607,2.334547,-1.140606,0.616455,0.32666,-0.544189,-6.764387,-3.18926,4.972097,0.729544,-1.57046,0.053213,0.848633,0.114746,-0.487549
-7.159991,-0.508399,2.936682,1.074089,-1.468065,-0.209931,0.908447,0.438965,-0.502197,-9.916882,-1.497361,0.446978,1.034036,0.373772,1.471295,0.635986,-0.669189,-0.079834,-9.495866,-4.590796,-1.706249,1.602542,0.42113,-0.883949,0.679688,0.373047,-0.516113,-8.853101,-0.162363,0.268863,1.655331,3.31273,-0.950354,0.655762,0.310791,-0.509033,-8.961922,-2.079905,4.860809,1.445687,-1.154051,0.093287,0.83252,0.085938,-0.518799
-7.199435,-1.262072,3.439648,0.621594,-0.761281,0.046963,0.892822,0.438721,-0.51709,-9.211277,0.471237,0.827754,0.981286,0.036742,1.308642,0.616699,-0.690674,-0.065186,-7.933036,-2.952417,-1.930506,1.421468,-0.134198,-0.609295,0.671875,0.369873,-0.533203,-8.496628,1.933688,0.467634,1.340034,3.175086,-0.506023,0.688477,0.310303,-0.469482,-9.129489,-0.661639,6.295129,0.918993,-1.650674,0.322264,0.802979,0.075439,-0.550049
-6.721066,-0.772278,3.195396,0.893575,-0.146274,0.330237,0.901855,0.406494,-0.522949,-8.978922,-0.057267,0.90926,0.313149,-0.211502,1.178187,0.592041,-0.710938,-0.069336,-7.142059,-3.407577,-2.473217,0.82332,-0.41666,-0.267746,0.672607,0.35376,-0.546387,-7.47759,0.767101,-0.721275,0.729765,3.404905,0.273435,0.742432,0.286377,-0.414551,-7.578466,-1.215392,6.079499,0.375556,-1.483837,0.439702,0.792236,0.05249,-0.575195
-8.721834,0.128441,2.267194,0.269257,0.240855,0.44069,0.9104,0.405273,-0.522705,-8.958279,0.661175,0.527783,0.825755,-0.489375,0.774001,0.58667,-0.718262,-0.054199,-7.058789,-3.160529,-3.100329,0.787996,-0.682777,-0.003942,0.666016,0.352539,-0.570068,-8.771608,1.093006,-0.915814,0.901957,3.43336,0.297885,0.785156,0.278809,-0.361084,-7.508932,-1.232774,5.068207,0.531184,-0.96327,0.467487,0.779541,0.044922,-0.594971
-8.831349,-1.439343,1.477252,0.02379,-0.036398,0.501261,0.910889,0.393799,-0.529297,-9.298177,2.67769,1.188608,0.472603,-0.74838,0.320777,0.582031,-0.735596,-0.066895,-7.284322,-2.43433,-3.203029,0.401326,-0.887785,0.386744,0.659668,0.338867,-0.595215,-8.769026,2.278749,-1.016118,0.308563,2.658511,0.830001,0.818848,0.258545,-0.315918,-7.565371,-0.64091,4.595847,0.195084,-0.478442,0.51619,0.772705,0.033691,-0.608398
-7.923713,-1.12775,2.865991,0.116489,0.088025,0.601303,0.92041,0.370361,-0.519043,-8.378269,1.941934,1.421423,-0.292571,-1.030803,-0.088452,0.574219,-0.729248,-0.067139,-7.144114,-1.901365,-2.901096,0.084234,-0.967178,0.653117,0.655029,0.312988,-0.603516,-8.260006,1.431709,-1.595454,-0.490009,1.988934,0.96468,0.848145,0.230469,-0.26416,-8.232203,-1.336999,4.371546,-0.263398,0.037005,0.622726,0.777832,0.012695,-0.599854
-7.65553,-1.851228,3.0348,-0.570583,0.472363,0.61876,0.931396,0.380859,-0.512451,-7.783035,1.105214,1.548857,-0.079626,-0.811917,-0.33251,0.584717,-0.730469,-0.091553,-7.054495,-1.327242,-2.678157,-0.140443,-0.749886,0.978031,0.655273,0.3125,-0.618652,-8.607788,0.772403,-1.933382,-0.545112,1.095614,1.087621,0.864502,0.224365,-0.244141,-9.010032,-1.539951,4.431939,-0.17374,-0.230947,0.557327,0.774414,0.017822,-0.606934
-7.54524,-3.524136,2.033759,-0.253009,0.692035,0.64647,0.943115,0.369873,-0.507324,-7.361501,2.350465,2.213773,-0.037222,-0.832755,-0.570065,0.588867,-0.716064,-0.098145,-7.26076,-0.485519,-1.925442,-0.360902,-0.594709,1.140523,0.653809,0.295898,-0.634277,-7.947823,1.282294,-1.643133,-0.995414,-0.17184,0.802861,0.869385,0.213867,-0.249268,-7.991327,-1.571967,3.462547,-0.294472,-0.563514,0.545079,0.764404,0.012695,-0.622559
-7.204403,-2.739845,1.112264,-0.065256,1.006312,0.665682,0.959961,0.352051,-0.478271,-5.474756,1.841528,1.480674,-0.441501,-0.340775,-0.717158,0.607178,-0.699463,-0.103516,-5.862536,-0.867605,-2.038251,-0.456291,-0.306292,1.220933,0.658447,0.274658,-0.624756,-7.077741,-0.599746,-2.170496,-1.180908,-1.147982,1.16878,0.869385,0.188232,-0.257324,-6.745416,-2.513095,2.612393,-0.377227,-0.535181,0.559552,0.755371,0.001221,-0.622559
-6.943973,-2.933751,0.411606,-0.120894,0.749225,0.580584,0.972656,0.344482,-0.459717,-5.586398,1.415367,1.468393,0.088127,0.045406,-0.981598,0.616211,-0.684082,-0.11084,-5.697558,-0.471714,-1.457268,0.057741,0.104908,1.112196,0.666992,0.260498,-0.621338,-7.145806,-0.889315,-1.991368,-0.378035,-2.007924,0.643704,0.855957,0.181885,-0.300781,-6.129311,-2.506405,2.227774,0.243477,-0.365153,0.413081,0.748779,-0.007324,-0.626953
-6.253284,-2.529825,-0.13959,0.014178,0.820853,0.525299,0.988525,0.333008,-0.449219,-4.093045,2.889452,1.923228,0.179423,0.446543,-1.205767,0.64624,-0.667236,-0.099609,-4.70435,0.978823,-1.16446,-0.000289,0.393358,1.074937,0.680176,0.240723,-0.619141,-6.990489,0.748184,-1.643049,-0.342386,-2.838074,0.798017,0.836182,0.166748,-0.36499,-5.081306,-1.306378,2.929279,0.09201,-0.188916,0.354139,0.747803,-0.014893,-0.634766
-6.219612,-2.248755,-0.661278,-0.457623,0.41899,0.477222,0.996094,0.330322,-0.44043,-4.486278,3.164464,1.688513,-0.475452,0.991988,-1.372399,0.67334,-0.642334,-0.091553,-5.07353,1.444761,-0.838049,-0.54837,0.915814,1.060552,0.703857,0.230469,-0.600098,-8.037656,0.520339,-1.655932,-0.918401,-3.377184,0.551129,0.805176,0.163574,-0.424561,-4.000613,-2.756564,3.443617,-1.155463,0.455181,0.500403,0.758057,-0.007324,-0.625488
-6.592608,-3.350943,-0.933281,-0.927458,0.211885,0.449591,1.005615,0.3396,-0.433594,-4.327738,2.909971,1.975682,-1.003605,1.373771,-1.601639,0.702637,-0.611328,-0.079834,-6.117706,1.430946,-0.447672,-1.266246,1.156422,1.000127,0.731201,0.233887,-0.573486,-9.571518,0.57098,-1.337325,-1.159902,-3.896059,0.499863,0.759033,0.175049,-0.499023,-4.401235,-5.266952,2.965896,-0.990981,1.312435,0.590694,0.783936,0.005615,-0.601318
