# sampling frequency: 40
# units are seconds/meters/radians/a.u.
seg1_acc_x,seg1_acc_y,seg1_acc_z,seg1_gyr_x,seg1_gyr_y,seg1_gyr_z,seg1_mag_x,seg1_mag_y,seg1_mag_z,seg2_acc_x,seg2_acc_y,seg2_acc_z,seg2_gyr_x,seg2_gyr_y,seg2_gyr_z,seg2_mag_x,seg2_mag_y,seg2_mag_z,seg3_acc_x,seg3_acc_y,seg3_acc_z,seg3_gyr_x,seg3_gyr_y,seg3_gyr_z,seg3_mag_x,seg3_mag_y,seg3_mag_z,seg4_acc_x,seg4_acc_y,seg4_acc_z,seg4_gyr_x,seg4_gyr_y,seg4_gyr_z,seg4_mag_x,seg4_mag_y,seg4_mag_z,seg5_acc_x,seg5_acc_y,seg5_acc_z,seg5_gyr_x,seg5_gyr_y,seg5_gyr_z,seg5_mag_x,seg5_mag_y,seg5_mag_z
1.7407375947236468,-6.110381279623725,7.353710804623586,0.009283095580643667,0.003532034046161999,0.010075527476881126,-0.5302280648612845,0.10588234440595616,-0.017203338790944378,-0.011412464982592614,7.489750570996814,6.270266272233576,0.007436375677628934,0.002051345105263845,-0.011183357100633015,0.08339541079938846,0.48510743269144085,0.5748698205934282,-1.1795911021996763,-6.122174507487619,7.256404554822663,0.024069199560028717,0.06522395891740064,0.021802216760704627,0.7557509164621689,0.11277455406026132,-0.2055014135549946,0.9081321141700609,-6.38110538068413,7.715993673431442,0.030425814621404396,-0.08382244735881997,0.017180276464649594,0.14539842094696892,0.44912838500115043,-0.8185151115467486,1.813796532967244,-6.087602750050169,7.446438097828628,0.008435634050219252,-3.411403334092429e-05,-0.004657614024746011,-0.4151682215678766,0.47762141145554426,-0.3294058013459693
1.766964293269827,-6.194780148801554,7.294919709831333,0.0033715011433228556,0.0026697244758927766,0.007712961834690466,-0.5317284888364474,0.10435028765798575,-0.005253258455827181,0.008338198861404161,7.423707141535046,6.392830864970018,0.009648789219567149,-0.0016614761783727736,-0.004531566782589058,0.08342938192350817,0.4758430458821531,0.5757570020915564,-1.1622524014363518,-6.16364097390427,7.367495925751086,0.039655996396834384,0.10149237674749338,0.016631511444216998,0.754460183643199,0.10376489489558455,-0.20461721644665873,1.0647905037155507,-6.282767755201323,7.6761287986615825,0.047633806989071076,-0.15263043370918017,0.0068988587081838795,0.14019881164752027,0.43548493095576496,-0.816554461949156,1.832080161591958,-6.072465581999551,7.370741940999362,-0.002252231802733623,-0.0011681459316545961,-0.00887847852895495,-0.41792920863834293,0.46541817869334356,-0.3267793776276271
1.8023593099932327,-6.2322979239141345,7.331005660224134,0.017890410853129497,-0.00488347875151375,-0.0022319954726074476,-0.5273266198507333,0.10531159142555187,-0.006212748684580303,0.07967395388906098,7.4557339487300105,6.361068881963116,0.022954308576896867,-0.00020268514069814612,-0.010680397674728183,0.08094684286557044,0.48516344846611004,0.5787713045811522,-1.2089144716146263,-6.1751880895897155,7.702762537871985,0.057958464916597216,0.09238963021464237,0.012747307453466828,0.7540213247398634,0.10998674616489869,-0.19788491924247223,1.3793106673277293,-6.3836241672420995,7.459429001920492,0.06911561050005828,-0.1316563260629407,-0.006251350239178768,0.13658481109297294,0.4433178682516591,-0.8160447313239033,1.9107084362195188,-6.151043872648573,7.4151658490531425,0.013194904003988726,0.0013551959013778057,-0.016879401185895516,-0.4207889937530001,0.47372817100130626,-0.3247630671506456
1.7779034486348984,-6.179627036640353,7.393243061873099,0.024438835807743583,-0.00029256045452193233,0.005144588005137059,-0.524619741281505,0.10631873191716412,-0.013036127425468617,0.008099150745023995,7.470298322876093,6.366316214392577,0.022731046224251473,-0.004701919209725506,-0.007318024002157756,0.0817080426058356,0.47971842792333075,0.5742240441702968,-1.282993662205154,-6.070836381512146,7.8846320565763195,0.04460453099396078,0.053270305254286596,0.009954289473584652,0.7537199352268924,0.10262378909802494,-0.20020217399602117,1.4762748053828136,-5.998809996961101,7.644276828697499,0.05613862114534012,-0.045219505530891074,-0.003994020711223494,0.13454833102724012,0.4330810933029506,-0.8219054303940966,1.8628860082793581,-6.301306144590388,7.57983213990161,0.02232987308107364,0.005192171825495934,-0.008553870288803118,-0.42355089039152577,0.4679309500800212,-0.3318646890462351
1.8657509350118533,-6.077733227662502,7.441489808771061,0.0089955738996157,0.00026215110509818316,0.015190448183468737,-0.5221973327748108,0.10481160581735431,-0.008156690680723545,0.09681729753126357,7.604656897274173,6.250532601879706,0.0028840432022698877,-0.010277744183417798,-0.011541813995540844,0.08240071596805337,0.4880976167120348,0.578724660112202,-1.2199197960883816,-5.964575267572652,8.003053374722256,-0.0006896002177311773,-0.007344742338766303,0.009570229491336079,0.7564779722766145,0.11195749239145122,-0.19572146339806423,1.5470319653635467,-6.026520027912816,7.796820871508471,0.00758670578669462,0.043698970424378196,0.010977515208618676,0.13827883318893444,0.4425783766157011,-0.8187381570716717,1.9642526607695001,-6.061169952890727,7.578863404681507,0.007826727045339333,0.020845117009357445,-0.0004339661553055585,-0.4193216101519594,0.47223524562007935,-0.3218488982856885
1.7623218399017473,-6.079463538286975,7.33261374002385,-0.02542799530595742,-0.007004682532924368,0.01931483492896462,-0.5243879907240895,0.10652635343033866,-0.007419145852915192,-0.0042396474789774645,7.439468911948758,6.240961470947182,-0.028571357963453187,-0.012286856596531547,-0.01658797558777108,0.07268894274177096,0.473898291660235,0.5787018374349561,-1.2932053547068414,-6.008318054825203,7.7424538369591245,-0.03976880441118846,-0.0482032140144289,-0.0005325893200228438,0.7417502622282085,0.1017735489033406,-0.19823134322806593,1.344652446192664,-6.129794156624226,7.760473324176341,-0.031824489594277874,0.09821999221897958,0.013027160571947013,0.1299431108253199,0.43603439092477003,-0.8177343752459618,1.831819539784713,-6.041580186269436,7.476374609738098,-0.02968652957936428,0.03803521183818948,0.0022308106054930318,-0.4276845811950163,0.4639985191563952,-0.32259115329270244
1.7392786699492908,-6.2570283761034124,7.2205685659253405,-0.01801367690529367,-0.01113114841890879,0.018579626832310542,-0.526288375311847,0.11390683073590438,-0.014945559484960867,0.01180659839318618,7.481891564417384,6.413306150426812,-0.03623388900735735,-0.006522259911020437,-0.017554483246612657,0.08390554172913207,0.4794859437695478,0.5744756762853993,-1.2435337568332792,-6.115558304571262,7.664606308674085,-0.051506172277518844,-0.08392668363651568,-0.009038040556158342,0.7537589220852045,0.10770467575222896,-0.20297414005497832,1.2007739418094618,-6.1771962286077,7.756161574052991,-0.052342777209793065,0.13638211539002737,0.011202513097837818,0.13996618992844415,0.4398837608209927,-0.8202114004163161,1.8351438978569001,-6.199125069867559,7.328428112501896,-0.02110730641199515,0.051950228342451846,0.0028719209942582005,-0.41668124762252295,0.4703024078053813,-0.32846523357761714
1.8028031554654658,-6.2078072488530385,7.408672071608004,-0.0011679909383230868,-0.01656237089536845,0.008334522991284342,-0.5217214055055742,0.10188398539761466,-0.00890693391616148,0.03872562358094138,7.4693468392443485,6.384446360159486,-0.01776073828572249,-0.008162254592206434,-0.00691037803004121,0.07900611158434827,0.48244995110855166,0.577592262518879,-1.1814321000156423,-6.111113796395238,7.488065648067024,-0.043581005510741934,-0.08091722769372332,-0.004684243058896131,0.7513713301275163,0.11464476351128693,-0.1979626556900265,1.136553506794765,-6.18276973566276,7.662509593750221,-0.043820097737307065,0.13877080014266877,0.013579079057739708,0.14247299480989625,0.4459661184960015,-0.8126474877119289,1.8188893866651883,-6.031347767139868,7.4908918384358385,-0.00305198421336848,0.05348523372968917,-0.008413448772166439,-0.4229476122579615,0.47985349708064134,-0.32569222944640225
1.807023388887406,-6.150992523962369,7.392777120476847,-0.010492523574337179,-0.006724920704582883,0.010852032646423943,-0.5346586723898433,0.10532479510991191,-0.0028120823930353456,0.028380111400728523,7.503789185852856,6.267252097271626,-0.0219337979217096,-0.007452751831130419,-0.016575654493056674,0.07804195908879728,0.4806843693481145,0.5744457304576194,-1.1342919597389394,-5.994167897467875,7.248061498753384,-0.037367662844996645,-0.06258634215804564,-0.00392050593402113,0.7466995440618766,0.11042040776890782,-0.20448318032526266,0.9382259889882136,-6.063106079250931,7.635160504024162,-0.0370783855467695,0.10519699063096226,0.013077563742316651,0.14071828777775416,0.443297394772755,-0.8202111388091394,1.813273310078362,-6.301038363008338,7.494144101936902,-0.012638249224537046,0.03176814916287963,-0.003665160338036947,-0.4198328019037021,0.47473164050666344,-0.3303768070893277
1.8700237307923464,-6.174714199667139,7.41583916762402,-0.013927729738055707,0.006368118447777206,0.021923204687699253,-0.5260507269204748,0.11292511572355643,-0.014219133386442338,0.10113993319978884,7.446199154661901,6.320807923053644,-0.024794128210517567,-0.006660087611690668,-0.013325281733795406,0.07924784042681916,0.4801246136156073,0.5844685468142397,-1.0718842185829194,-6.078969262532101,7.255281724514894,-0.020964671284524575,-0.024758754711663226,-0.0012995830329474059,0.7471953755681893,0.11128418061559933,-0.1964397193421618,1.011270446803552,-6.196559241852872,7.6426190192921775,-0.020990304040182692,0.041287743405298706,0.004892239650600091,0.14416482966656363,0.44058168930900293,-0.8089972571509967,1.874194011567552,-6.075504598038645,7.4938613340808224,-0.017496200070952324,0.00031397189454439295,0.005231559110498904,-0.41959489581524606,0.4683326222463368,-0.32211489405437743
1.7577329647847018,-6.277168217215279,7.309570283077969,-0.011241572572862244,0.010523160017734,0.011963449307379373,-0.5268274479342289,0.10340993717435472,-0.0147686774188953,0.006987802998660588,7.459543661247067,6.407252059509441,-0.009863289749657878,1.0189103587047814e-05,-0.015916059106966838,0.08656632471295689,0.4813805926848288,0.5849479467842364,-1.16343971557546,-6.137025596712765,7.3064333812324636,0.005238513717493233,0.007766523661714027,0.001232971306913252,0.7530632614203553,0.11243489767300578,-0.19792589324845392,0.9410686509064095,-6.1498180977302725,7.477054718910342,0.010256198726358962,0.007385784793692047,0.0021454443984172855,0.1505102686514503,0.4403005881256551,-0.8092666308947073,1.768401760884631,-6.1763956447072434,7.384751065844707,-0.01911171289678802,-0.021295366207366377,-0.0015038996791358512,-0.41197938042240906,0.472653193324429,-0.3189513732530208
1.7723090173588958,-6.19426015905745,7.300780854777312,0.013758924173435263,0.011810152042637205,0.010240129555794255,-0.5204445192733756,0.11239272651711778,-0.01152303629055095,0.02078717795273661,7.434097876118005,6.345030263295875,0.0111115033028655,-0.0045075670613646535,-0.012431599516462456,0.08074021206928722,0.4765697536166312,0.575984339646305,-1.1698634821035523,-6.121264489918441,7.523374469579531,0.026544823924348832,0.018674838350875873,0.0093956775377816,0.7491009563605527,0.10528771675099574,-0.20366427808054016,1.1206508123212107,-6.20367249251236,7.7111350909051835,0.03132554909781252,-0.005305784562301088,0.0025160536359514034,0.1431464709488249,0.43815218720862703,-0.8160755906459851,1.8203349688960466,-6.142386824347994,7.390422267165009,0.01340640600291034,-0.028968032450121015,-0.004007018723922506,-0.4184177630721804,0.465668581191979,-0.32726356473387314
1.7681194504931685,-6.123781189250865,7.363959320740644,0.0035072603170557704,0.003688946562878644,0.006466650162536372,-0.5265986773881154,0.10481555320815068,-0.005482106598470431,0.0012661118497367604,7.524794222447478,6.326691336154771,0.0018237772693056836,-0.007707375806682154,-0.008195133168322192,0.08855870515007115,0.47701403078093996,0.5715954750155596,-1.2158908465712333,-6.034828085151503,7.653767804271629,0.011876666722908684,0.02119460413202186,0.00765695998682476,0.7566707283994538,0.10560597750322853,-0.2102646184787815,1.1355400238834108,-6.001575970672773,7.762416258368463,0.015745166834351912,-0.004865380647989606,0.007165151604020165,0.1516680996696662,0.4376187989087179,-0.8212368539473148,1.8367451048933143,-6.045995170237829,7.524962161960038,-0.0014824273189763754,-0.015111579677675081,-0.009336388375021145,-0.40890753148303965,0.46758380094267515,-0.3324246893620383
1.8412301639634845,-6.187433845140295,7.344539088814041,-0.001608623891410467,0.0026325254245849533,0.00766184560434999,-0.5246521364095181,0.10237610520006736,-0.007201801232555171,0.09359467655845384,7.485504776382696,6.294904925980754,-0.005311047052495764,-0.006812113855039538,-0.008601204510541206,0.08343566079291916,0.47648607787633596,0.5703744933428171,-1.1309127193519035,-5.959522881699223,7.560812523037552,-0.009917700968024998,0.004200440336689952,0.014660022663241148,0.7537538893911495,0.10713865548506422,-0.20760326348486757,1.1851126386806554,-5.967580933402238,7.728700089292794,-0.005571311555461454,0.012454197335511471,0.020338020977472726,0.14484572439394788,0.43912282218278315,-0.8199874254426225,1.9159196962278169,-6.246786211790706,7.457066755973144,-0.005943273537182033,-0.004706084816123659,-0.006288896832170338,-0.41671336873345705,0.46861825142914404,-0.3326252535937483
1.809204488537306,-6.152740300585852,7.369291833525403,-0.006847065271534197,-0.0032467839642695835,0.015114640718743936,-0.5255605298317062,0.11509830233289219,-0.0107862564915965,0.026893176930892843,7.475835786226527,6.292367817233698,-0.015118129286447981,-0.002766768402310547,-0.011351817937503218,0.08290322319174344,0.48490243893814955,0.5773137655437067,-1.1605175122590188,-6.088447754574581,7.490330622935472,-0.01714251865629462,0.0037650108157816797,0.013038076762914002,0.7484343966441054,0.11366284894681652,-0.1996545668880806,1.0804315251474972,-6.236506279226138,7.734821272916487,-0.014563146158249373,0.0019158432572401974,0.020432603201431622,0.1429667152295816,0.4479178283587238,-0.8143566043723527,1.872259372259236,-6.093550846398482,7.610712274970837,-0.00920560236747849,0.011329832642330371,-0.0013554672067813407,-0.42149442883305166,0.47739381317451324,-0.324493812984774
1.7989082963030745,-6.240664955015985,7.303160322301045,-0.009005944601107279,-0.000742379911765308,0.014136175398897468,-0.5189655448719835,0.11218161908041958,-0.017868974627014495,0.05953282191857936,7.457698301334414,6.3748999968781614,-0.01302992654649972,-0.005338142393592198,-0.014035654205577867,0.08952059169435472,0.47833252380602986,0.5771908295547031,-1.1663651899807312,-6.153741532229619,7.450735136288666,-0.006508376110818082,0.010835330626933464,0.006119158488319302,0.7583837433147887,0.10597237245057033,-0.2022131092635845,1.07555762364127,-6.315538774016454,7.7843090180795675,-0.013158958685629888,-0.02606368005235717,0.011527440715017568,0.15460817151897976,0.4368658803570346,-0.8173431677535641,1.8838792377470137,-6.254725501429746,7.427523478745196,-0.013709968479231376,0.024275604949879424,-0.001990713845803012,-0.40938911117685167,0.46733311192592136,-0.33071483643988764
1.823078592576418,-6.124583228613307,7.332905714825481,0.006370979024719322,-0.006333641295256601,0.01534382143436265,-0.520011886431869,0.10260122150738323,-0.007677329142471036,0.0596032044519805,7.46735435052406,6.355622838520506,-0.006517710170479033,-0.01017507530548164,-0.014449802582091283,0.08609747182267415,0.47696088093829847,0.5835569036343466,-1.1684994178865151,-6.073836564031074,7.591381058854646,-0.009067316627967222,0.008465503317135768,0.0025422503330223972,0.7545044238858117,0.10929943184421134,-0.1949430580561206,1.1661777402275342,-6.0789345965556345,7.8509964170990285,-0.01862528098576874,-0.05300458350388422,0.011091515576373038,0.14609324084467115,0.43935361739135725,-0.8136450897311615,1.8515408993322624,-6.056750460398075,7.498886567748413,0.0065185453392578255,0.0391393144589494,-9.352188788892588e-05,-0.4147249435964163,0.46732792577231885,-0.3233651777747432
1.7832704259358398,-6.180109202993312,7.373642401188845,-0.012825373903998284,-0.010172721834821543,0.014463923800061479,-0.5185372942209251,0.10768285655616075,-0.0015388011395651938,0.0429278387347088,7.539771043609846,6.274562673225127,-0.020703642798406294,-0.006643482286356787,-0.014873878310207556,0.08489048640701549,0.4758772342622564,0.5774681367569,-1.2145977445582035,-6.004245700666521,7.63281647456689,-0.032727092703278955,-0.0030239838104295647,0.0023180927732180633,0.7552022461541276,0.10483062054679938,-0.19901856963995468,1.1437807169048615,-6.1266006298480145,7.781811253332125,-0.04283385929319251,-0.045664379240116265,0.01585129400603699,0.14632755319716087,0.4398431825921806,-0.8168185787630652,1.8367306799624616,-6.187519560694927,7.529062664327831,-0.01734936686556803,0.04816508931170937,-0.002535770091903155,-0.4137853311334017,0.46589049438433633,-0.32899340746303685
1.8005424661745943,-6.143640686411384,7.400248936481974,-0.020462605818445327,0.0003933447998250737,0.022146145194759697,-0.5299697984483529,0.11098199736102356,-0.01301964374973695,0.012471732596292766,7.457121649372603,6.286114704479506,-0.03643024571737002,-0.0031472606070993697,-0.014193805079788985,0.08168848331343896,0.48226119201746936,0.5802863263474675,-1.1995453247954844,-6.1157305014525285,7.538879493606295,-0.050844248744694,-0.01620820511141927,-0.008030458558130072,0.7469443940664058,0.11047196726603825,-0.20130966459447805,1.1272526433419352,-6.265122572778314,7.965330801544607,-0.06717172388132456,-0.06649496981599701,0.00986078029269182,0.14001144525766335,0.4428069947800867,-0.8131287487112289,1.7991787605232563,-6.210366991805279,7.564430617507074,-0.021710478766634445,0.04651761671979022,0.006363478249684582,-0.41765761886920605,0.470554861668052,-0.3287030722537674
1.8105576352842012,-6.227058271493906,7.3919394547468675,-0.0345526275640845,0.009814047374529261,0.027401733002643525,-0.5282671428174789,0.10951148963507246,-0.013268810020672117,0.04989873088761655,7.492612242984691,6.386333230561079,-0.042268104168748724,-0.005347788906599802,-0.014674904762561641,0.08071890442579543,0.4831240256692105,0.5736773206075655,-1.1582202272208755,-6.139351424567111,7.5309959904088535,-0.05254514645894129,-0.015429839622919118,-0.01432099908593691,0.7457440156302231,0.11327937112879016,-0.20916973203447836,1.1860991761620585,-6.264941988251765,7.478944128377795,-0.0651311059853902,-0.06754159864304424,0.007266692842125413,0.1363579913502302,0.4477163088233876,-0.818236680990587,1.7874330035749026,-6.151339023580497,7.437230287641289,-0.03986889178132351,0.02407523682158541,0.010774354046238345,-0.4227690749849667,0.4754991950632378,-0.33279927801689807
1.7453660493729606,-6.186437142077469,7.113017411164238,-0.011398102928710208,-0.002861438719728526,0.017999264487188534,-0.5302132128973744,0.11098468178583637,-0.013264213167021583,0.033595950711475184,7.347707335975128,6.430385304179451,-0.02584824657078574,-0.0065449715585182205,-0.018457711545965032,0.08240576263963809,0.48969199463884305,0.5718610232804915,-1.1456355588208367,-6.155993866111616,7.475531983569293,-0.04254023726228582,-0.02461555964518698,-0.008659210531143787,0.7480201027528728,0.1234971316424515,-0.21031957745694652,1.1673060147199135,-6.147559439644365,7.701793640698196,-0.05533831357499468,-0.0573257934962411,0.009149652217537104,0.13763111193382452,0.45772057031008984,-0.8199412448894525,1.765151456187352,-6.015779601282791,7.058556690577368,-0.009374397942246482,0.0034330859544476214,0.0038043577710014883,-0.4185537544135435,0.4847489339562321,-0.33325320961038574
1.6462682148013839,-6.157305300740297,7.259966001213718,0.01288129256546687,-0.022466756984166853,0.010875067607019177,-0.5253853640661454,0.10647738081836676,0.0011233597572575403,-0.09101164830542105,7.57947124009508,6.325443718059729,-0.01921268856219578,-0.013536970128199556,-0.005381688950534422,0.08608100578069959,0.48370191513333777,0.5778272842010184,-1.2969415892043223,-6.174013405613794,7.619851773188461,-0.051097285152399606,-0.02495639352701701,-0.009731311585753846,0.7526105926735315,0.11716461512968382,-0.20728374694391444,1.090384462606739,-6.334656593208257,7.562927395703993,-0.06732910662689384,-0.053141759619404774,0.010891074482242804,0.14201602480340866,0.45354009577452,-0.8160565254937165,1.9314807168935688,-6.223469034799299,8.026120252409104,0.018586935915937988,0.0696279838787705,-0.002327234245728021,-0.41300465094614064,0.4744449029832472,-0.3316321548871183
1.9413601650647603,-6.245011908748693,7.115382697743302,-0.01565029693541088,-0.08458121874551933,0.028870823513645758,-0.5265941817333047,0.10772096464748249,-0.0015577849810073804,0.23515106025839635,7.481353639766607,6.321213886727792,-0.03783822547344982,-0.005359860802434303,-0.014548212165036,0.08342382289321451,0.47730783012843225,0.5757324825272317,-0.9757737921392419,-6.037433511258931,7.503598521421563,-0.06638041607272789,-0.03190626239565148,-0.02273799221460343,0.7476783055182912,0.11083909247115448,-0.20815301589808358,1.3777642536145822,-6.190738836973093,7.567744931850695,-0.07945517869696565,-0.02333390529591955,0.0022872456960971897,0.1382956047676593,0.44526309662910674,-0.8184906754283802,2.320302133548995,-6.343488546272801,7.870595019158259,-0.015590091238505096,0.37530495927168206,0.009210703244387573,-0.41087319423363916,0.4695852380911736,-0.3380185225103826
1.9241875021610313,-6.18560224079428,6.854546467103574,0.01721571906881639,-0.18612869233371712,0.035297482588480485,-0.5297952683008778,0.10042803848001144,-0.004296224628456129,0.19902501686845012,7.368349407309497,6.471330799688214,-0.029484926465455485,-0.014205762823030536,-0.04252807987603586,0.08781572340271596,0.4745257728136579,0.583600549126591,-0.8904912308218579,-6.261687190823775,7.3588043897525806,-0.060992561951675794,-0.03945752960135324,-0.014083056249597384,0.7547558958034155,0.11039499475625512,-0.20228661691953356,1.3552153535541742,-6.110354358638727,7.545753191265253,-0.07681532575363835,-0.03720394514803819,0.011213722209159166,0.14274830711932227,0.4481574706673676,-0.8082514624852807,2.3146410635583003,-6.189412379868352,7.771557755486095,0.031165756766331883,0.7095821289685433,0.01134466688146079,-0.39992169410037404,0.46659404183206776,-0.3410187489636037
1.8786218375007797,-6.336505447338227,7.549007936290183,0.08144785097274959,-0.28684437848128014,0.05371646304075577,-0.530790962113374,0.10158930946702886,0.005962914201215135,-0.05228151517336037,7.598782755225909,6.576428444810033,0.01200442152593125,-0.04722976955351154,-0.07010647977006086,0.07655494044311793,0.48512622540686534,0.5775433450722447,-1.1283541457213546,-6.372895506683135,7.358826395199805,-0.04421335378452063,-0.03981990559785924,0.011072081931705263,0.7396963682655341,0.12042599267408666,-0.2080682916862641,1.1786825089091117,-6.213976614696338,7.544003340970745,-0.05427754298753651,-0.04104756263948035,0.03489510530997239,0.12813453651109055,0.4563034983432156,-0.811359945670743,1.8976873117804303,-6.775792026814412,7.604030732230822,0.11774053049140486,1.0189162096998794,0.03306722213059762,-0.4040768328449512,0.4759893023519277,-0.35583626835037274
1.9269467144986858,-5.744467120014863,7.20015159979579,0.04186690449628201,-0.22558490757494737,0.0249155959652114,-0.5282908585305999,0.11668214076860313,0.011190657918883445,0.10241857869263912,7.185453843599656,6.333130247864993,0.01903539920386811,-0.053911261321872496,-0.053089427891381095,0.08950958151458627,0.48290449103215277,0.5732077560606287,-1.0586159878454684,-6.107533791778572,7.3138954823113815,-0.03359367316301383,-0.00711309381102173,0.02475537014169267,0.7479687869929083,0.11689082831277085,-0.2111844358320749,1.1240245880615842,-6.204391105858669,7.359514151447488,-0.04089320332773311,-0.06409604783179526,0.043872368991665946,0.1376472043018369,0.45453829193248835,-0.8111552536327336,0.8914224709365421,-4.354041022037797,7.711589284712162,0.05621358897198947,0.8986727083617713,-0.01574212614633448,-0.38537317999138554,0.4700612790250321,-0.3669472713370111
1.9691037541227658,-6.18489685164034,7.639164719750586,-0.01714274497587898,-0.22855320505572013,-0.021011842481084824,-0.5268915635288122,0.10396429354457037,0.013555284207355585,-0.009895503323893995,7.8411720523003945,6.109362588709168,-0.0004610864312907817,-0.03873976573011875,-0.07691451314594923,0.08096424359012867,0.4828759121150068,0.5734378516979661,-1.1755048508998696,-5.839194056393753,7.408674645973311,-0.023558015603175896,-0.014887684096505285,0.014749164555431082,0.7408815638739874,0.11597707835951603,-0.21067906222220018,1.066160655214262,-6.28523935103369,7.564226107863228,-0.029463899895685267,-0.062367106396276316,0.030708680998906283,0.12811682164556798,0.45312932328391003,-0.8111188836944332,1.3602071191040224,-6.110622875015819,7.086603770813007,-0.03576493780614078,0.7754674391338197,-0.11545425305270793,-0.3846541347758612,0.47155155773972,-0.37206895917702826
2.18769225811725,-6.052790087353396,7.982255525401345,-0.06817064912020808,-0.19447357855448805,-0.009390580106726354,-0.5407749440339817,0.10749088305080144,0.006708125073582258,0.02382455369553642,7.323478098005333,6.191297386145604,-0.027980720752116453,-0.02412716596453365,-0.08397241119982163,0.0863544426271452,0.47542349833343267,0.5791874406545395,-1.0854008218767097,-6.2192038596760115,7.45228187473383,-0.02301765326006554,0.015506199287200269,-0.0008760320000000164,0.7452818602766366,0.11653371162565951,-0.2045857602457794,1.3400584147542653,-6.231011764967402,7.794904799071128,-0.034909631597569275,-0.08942432054485465,0.013178422622342967,0.1310521714000818,0.45091072973769675,-0.8064935626790467,0.5303931565722678,-6.576180256899513,8.262735244838742,-0.09545847176316691,0.6424818416026922,-0.054500199545083394,-0.3724757275035905,0.4675571651028009,-0.3721509455956053
2.0249581971823805,-6.586262144152602,7.386194948959597,-0.1571489529841155,-0.051721320264597054,0.025094240635716362,-0.5327048631399546,0.11110494321157376,0.008459085529496176,0.038127485459651965,7.641633697927387,6.427330951983578,-0.06932205889511839,-0.010939224679283075,-0.09162787403382172,0.08269474065021562,0.47679667221985456,0.5745186329997193,-1.2267936132449395,-6.037862196755202,7.7259080761843055,-0.07322727423674498,-0.017477467114046793,-0.011736563898090406,0.7416106301258625,0.11547526412084722,-0.21115887663449512,1.1492929801355438,-6.264942984056372,7.90014123247167,-0.09564370178979055,-0.10926276400973517,0.016999928055687175,0.1261643414339495,0.4533850372616499,-0.8113549184054967,0.521008346760506,-6.402520725012231,7.191726252302972,-0.22030846748918986,0.3124497496173616,-0.017955850707015567,-0.3751743480345683,0.47005621382908247,-0.3784713306070943
1.2829624256071148,-6.220910681409443,6.430184601674139,-0.0567180048946304,-0.0006315341482100559,0.0009447403835583278,-0.5327463164811628,0.10255714616238835,0.008893385226064988,-0.57418060150367,6.881346790940869,6.332958769386208,-0.048976035670088944,0.015578233163569613,-0.0018055056199400262,0.087098863795331,0.47366853107625295,0.5762876480670284,-1.770247736564109,-6.416252370151054,8.022518047417323,-0.1029822350355526,-0.048927477445729964,-0.02860429972713527,0.7469591033429229,0.1125246915766909,-0.20989045363405012,1.1469440665256705,-6.594730398311015,8.28325395528715,-0.1402809636328758,-0.07994039058862323,0.009275272652064601,0.1286297984761682,0.45556486348888797,-0.8084335813499656,0.0628303286625343,-6.304202936647955,6.5751375367972695,-0.08360319836322275,0.14282699541929963,-0.020675995089353902,-0.37031669874620105,0.46734258579551397,-0.37973075558963876
2.3940033903471676,-6.300184758826754,8.33053694984227,0.001334241778167686,0.0015498058998648246,0.024661458808232253,-0.5302747850021936,0.10793021440169634,0.006735932829323866,0.14709549808350747,8.277184902477442,6.342734654630921,-0.05717961243496469,0.01262091420259685,0.020256252873567734,0.08854161573477617,0.47765308642649934,0.5806190302369656,-1.0505447812682687,-6.082475503243258,8.014213652698292,-0.1631985461341209,-0.12642242393404982,-0.057108059329210314,0.7460464300234039,0.12083183614210422,-0.2100301195968386,1.50442536136834,-6.302413794966983,8.231004399499408,-0.23667601525315066,-0.04286928529878729,0.004815765760664439,0.12942659357765446,0.4641021592433918,-0.8050106094297801,1.2380770300142758,-6.594543304231968,7.950757827201213,-0.006067272346310693,0.05435845794932657,0.01931296884601093,-0.3663587457093356,0.4729157538477776,-0.3772753170098338
2.3070080841761205,-6.207031575334376,7.74513846317405,-0.16107097655907898,-0.0025833302508210297,0.046901564324869034,-0.5300184451408178,0.11615936416325556,0.018019411108529244,0.1426360062023675,7.109752284783319,6.32775186230086,-0.12129268044930729,0.030801865571416644,-0.08199953487516015,0.08760816745726215,0.4699354213895725,0.5719563519738069,-0.8564722889308155,-6.044509058270021,7.107897322976696,-0.21081011047667728,-0.15608641149923796,-0.058988922850834236,0.7413928260452366,0.11900284543801284,-0.21927637381239715,1.3861814113917048,-6.1147853869383315,8.105421107790054,-0.33341690613682246,-0.11176052076864053,0.0019731552578464095,0.12430735523906926,0.4660862055061789,-0.8059644821990108,0.6870188614733612,-6.222331560377408,8.063163575978047,-0.1849625898874554,-0.06707646119571924,0.017119224765863205,-0.36690639336201636,0.4675737137683789,-0.38169871545883327
1.9076322379246697,-6.672437252562612,6.976945329845807,-0.14435146792900694,0.10018323268869127,0.04893504478167383,-0.5272964398358698,0.11744625066423693,0.005337691104782603,-0.06137467105156538,7.3125098012723155,6.40594952019805,-0.1225659776191732,0.057789580004472596,-0.059739056061867864,0.07758353297192672,0.4707475054481706,0.5790068517374545,-1.1335006711731404,-6.355103984356551,7.665067612600527,-0.19714252830423426,-0.1695346663923012,-0.08488181807115901,0.7302065129980598,0.12475736198080066,-0.21619582162661177,1.2047841134592354,-6.736331604239521,7.955997127892646,-0.29563706823204033,-0.20910099771006124,0.008892432221888482,0.11312813768015459,0.46980802082350864,-0.7983486605418197,0.9282356785118192,-7.262873916187403,9.180599108046998,-0.16347937755605774,-0.01986765058240269,0.06793290646085648,-0.374675326489703,0.46929934495872544,-0.37506013081657424
2.1529877875787227,-7.697595233134186,7.142072707564852,-0.0896085755093099,0.19008532248074742,0.10202570733684026,-0.5217190303672736,0.11129391327221626,0.008974492753808511,0.11040743742837106,7.025972630583973,7.085238280668225,-0.050430748854351684,0.08184454122030144,0.0039941853271579664,0.08274836894809008,0.4628745571262473,0.5742636127534211,-0.9472137741825978,-6.398931201317007,7.6072491456791695,-0.1239697814851603,-0.2100943573091071,-0.042958609502576434,0.7323561523689968,0.11876311628585659,-0.2231764490427946,1.6036743862841516,-6.283729915907712,8.262715713609031,-0.12633151721008115,-0.24200222126478244,-0.010338763964335345,0.11628095225813007,0.46686032992275167,-0.7993399377939038,1.3641065976953535,-7.8680864728747375,9.349151843960959,-0.08215337907270731,0.3546950783061219,0.12588589550601012,-0.35988286079000026,0.46118932288240455,-0.38396841945383275
2.540405723969137,-6.996718191275482,7.786964394945286,-0.18497120672815298,0.1904982897097968,0.13014441077577335,-0.5160648062646869,0.11667493689572812,0.003162601361074689,0.3751099956935671,7.579225502932952,6.745806559755957,0.004850739212181073,0.17787712723282856,-0.05457852531437181,0.07441738011015728,0.46783947982830126,0.5810034461003866,-0.5481871667431893,-6.130005168213417,7.662147424783009,-0.07858213026606689,-0.2980082932498554,-0.010376773301712286,0.7180267278393259,0.12841877017532927,-0.22186999482806766,1.8338526651776699,-6.084124927390264,8.182571666115987,-0.0657579603472356,-0.31964694336447214,0.010034121522153341,0.10196951179180057,0.47767991356688266,-0.7919489948536316,1.5025715949664382,-7.095118741282887,9.469599733330039,-0.1784458838435925,0.704736656981537,0.07838545688306381,-0.3576221161039933,0.4687295774944141,-0.3819811510143007
2.5042773776209093,-4.08515819929932,9.162901276763964,-0.38926185042357425,0.2671308800121402,0.28516113086771566,-0.5150798452305039,0.11982584118391694,0.006114780035852774,-0.11347093201347268,8.038220241982266,5.229820776103953,-0.08940287658622906,0.04785127067447034,-0.1495815424674651,0.0749187318598372,0.46677871500794477,0.5758943166814947,-0.6355671852170824,-6.483018164063839,7.992806682049777,-0.14507651330409305,-0.37062010690805514,0.013232322395902368,0.7139038837261502,0.1321558004970837,-0.23389651879772494,2.110644722123974,-6.385558957976932,7.9703079626862445,-0.1173635052912869,-0.3142907074587848,0.044171654370180405,0.09757886034605737,0.47990480799787893,-0.7941265319148351,0.7192567402297264,-6.727960499592746,10.124290026394483,-0.373737888998728,0.8161485556387568,0.19860531416995247,-0.34180797765038934,0.46695927807047066,-0.3908564779333404
2.23256462305332,-6.857034363705334,8.147920150077809,-0.49364840906242835,0.4841031867207202,0.44997762733604546,-0.5050968613267633,0.11102805080950039,-2.07194471134405e-05,0.22418506089444154,7.360298423199948,5.987055468348203,-0.2872772446981393,-0.020312636632676073,-0.1931990785502722,0.06977520233766626,0.4690374902630713,0.5807315333813525,-0.6886724090311852,-5.671322601252349,7.838056087941734,-0.29564904955307403,-0.4389709903101144,-0.060895488712394884,0.7003205752113509,0.14369676131404183,-0.23628553893435364,1.90140239143933,-6.575064159978524,7.94469888220697,-0.2889790375962331,-0.3003336900139825,0.03147376046073824,0.08544811568719196,0.48729360468160493,-0.7857714621013644,0.05580778080479686,-7.212710848547408,9.552367609897882,-0.5253525498612831,0.666517841214908,0.3425353055634804,-0.3307967723852878,0.47029831776036385,-0.39088912083639255
2.132225089642791,-7.913723698955046,8.486258892868934,-0.44194753490560945,0.6223563302192645,0.46642746156595977,-0.5008296493085611,0.1281933633658153,-0.015284222597954306,-0.0015892575070854831,7.47997020529773,7.070103562713761,-0.29577821064151427,0.0643996715913361,-0.2880141123549887,0.07491080110512796,0.4661530286631847,0.5822536705559941,-0.8141158873181737,-6.695818945777333,8.069390347117091,-0.29309104495867255,-0.6108391049527141,-0.0912232148172853,0.6971867996829098,0.1491257169995956,-0.24882889546686268,2.1303972247033958,-6.8679689626094795,7.858085410829341,-0.29745627442590106,-0.20215468380112783,-0.014332975264370544,0.08499708585785645,0.4919320768554765,-0.7833232586814525,0.6608739216043609,-7.1740721146911355,9.13788334180812,-0.45715215526697767,0.6129466918924341,0.3510722061398175,-0.3098377494999789,0.4687148306458162,-0.3963697969124945
2.52661060319991,-8.933868378514958,9.061721513614966,-0.0030504876726881007,0.5310844526739412,0.2887601477021702,-0.48669509012666345,0.12130897063838526,-0.018222744421583136,0.40297202813507266,8.007628516024218,7.944546609253575,-0.0825836009236963,0.24023673498384793,-0.5158825544915976,0.07173683276386836,0.46707997922281064,0.580034494215842,-0.15555422958567075,-6.784556425499,7.772317668414953,-0.18793742245309997,-0.7363700107633802,-0.06811639460529602,0.6857766172351089,0.15765128681777718,-0.2553173047313286,2.323792226616395,-6.940912360757148,7.73041103778705,-0.186126367908865,-0.12666905120444624,-0.028940975277609853,0.08142980462153454,0.5024435573286721,-0.7749981081216961,1.0844938152647492,-6.920309768237756,8.383237381631671,0.022546459249643214,0.558683789091913,0.2570203594780132,-0.28986617931275915,0.4671514644697501,-0.4040427025196609
2.741454851055505,-7.521392468531599,8.324301443520552,0.019032468725351893,0.5353454431874628,0.16589479237950025,-0.46881108991442444,0.13006646328308752,-0.026426334427587867,0.6069569191548089,6.981427251384035,6.73965431369328,-0.05444027940056886,0.41623457148813364,-0.7473993633164787,0.07176421274587633,0.462580437215286,0.5737619335697337,0.2074152197713248,-6.363853091158347,7.0521088093545155,-0.14071327837943495,-0.8606572225691024,-0.06918930050484941,0.6797620442729866,0.16938405501670167,-0.2718736088017911,2.2764701974370722,-6.814219814237982,7.750097568406754,-0.15734331600228238,-0.1337665850284385,-0.044066707708148904,0.08148264266701562,0.5082990550650947,-0.7703547259061446,0.8752464148423577,-6.837969117801776,8.950959426080582,0.011541958306524429,0.4418454538543219,0.14554429442859917,-0.26921662822353926,0.46023347445885165,-0.41516890488267805
2.422553173320855,-7.026143713079261,7.688809453147791,0.06137501349166431,0.6372936326355148,0.13204446453800153,-0.4499978327321992,0.1336348482444533,-0.025627050396127077,0.27730049545184554,7.189136382752476,6.555238046852363,0.01321751905260371,0.5257428080731635,-0.8914297350180993,0.060589310793338534,0.44976576596171697,0.5693178515481999,0.44503494742569744,-6.404181483361786,7.1531130839261765,-0.052824843407234534,-0.9656257341648128,-0.11061724199991413,0.6616648256041542,0.1658394122040286,-0.287680270618349,2.086706204512673,-6.881805139269072,7.388980265557901,-0.06852019555594996,-0.19094935648867759,-0.07758162980715416,0.07437950578040767,0.5012564237887417,-0.7656942632600716,0.6397499421430406,-6.975509722844757,8.645363925152328,0.04330754091065732,0.3083382272785508,0.12189210873962479,-0.2588654518297769,0.4421123575519545,-0.4187445847217828
1.980382192748187,-6.725808547396572,7.515791290494973,0.11667060611650211,0.8035529049913681,0.1747211181435758,-0.4302036787319233,0.1270796699670493,-0.04637340547755792,-0.2737767314442091,7.708464043498329,6.338667156207299,0.07476432866641783,0.5301906334002726,-0.8312258149694808,0.05570230812817426,0.4509720081516224,0.5695334570443487,0.3758254966456733,-6.500308948209346,7.586680066039332,-0.029125510539052275,-0.9213177254171506,-0.11584453369066458,0.6439546294295136,0.1806130513148933,-0.30306345757286784,1.9632963824988252,-6.9310164789459145,7.582253453120792,-0.03815819260988788,-0.2536136939168298,-0.11700450486458742,0.06468724446921248,0.5093634700351753,-0.7590561740897082,0.6805788317559345,-7.254574012097414,8.952424372909585,0.10652864385942659,0.2582584954954085,0.1758609475122874,-0.24720418118699367,0.4376665493242004,-0.4241989533559875
1.394200737015456,-7.040472050075146,7.462728014699868,0.02878137602540736,0.8329253927143069,0.20779539555005017,-0.4037850270065551,0.13408373689002562,-0.054078619332615575,-0.9059979412364447,7.010971870537642,6.485142842078441,0.024007265127624935,0.6007590610709161,-0.8793448922051479,0.051802653022311754,0.4511193431379371,0.5646407219751745,-0.18630960900472399,-6.456403720544406,7.583446080401368,-0.09164541808637278,-0.9959489200348423,-0.17098367473593973,0.6237775261987484,0.1922075055086459,-0.31985664056966784,1.743688253379616,-7.167320857992345,7.531080791891946,-0.12298626108271093,-0.23428870537565172,-0.16284094637190097,0.05469717637348256,0.5125962834367331,-0.7590135835580392,0.6377128910248487,-7.096799066502522,8.62627617945488,0.029930316182705568,0.42827704821888896,0.1897618113323087,-0.23263736977776808,0.43224316776826077,-0.43309012897379817
1.3702434159167203,-7.0982059772258745,7.587045552298256,-0.09307137294499034,0.7281925394058676,0.22421216722508316,-0.38789851143217646,0.1294739492196402,-0.07067200254819239,-1.1498965496254596,7.690538590302959,6.797514018785428,-0.005936477067931394,0.6522430724607232,-0.9959702519839724,0.04426024651171267,0.44707880242274184,0.5583477096791652,0.3443559255346984,-6.94112136478632,7.6247152615122,-0.1554788309688214,-1.1113497727527444,-0.2227874250804842,0.6035737531351981,0.20030952745980146,-0.34098661878308667,1.8345337174420306,-7.195286496034851,7.575924224077274,-0.17733382511159315,-0.16178903937646422,-0.18394634940365576,0.04448086472464061,0.5175374240808763,-0.7567714596924751,0.930272895969823,-7.183354843694715,8.141120628162046,-0.11296790122835862,0.7433707100885445,0.18641958672712772,-0.21223593069481367,0.42459150365553244,-0.44397551866137874
0.9070326978101603,-6.644526831429376,7.407971818544352,0.024573710468976682,0.7262728485992676,0.24775833926488194,-0.36813830716441603,0.1257231165091563,-0.07138039881748479,-1.6729823962621728,7.244807326713058,6.623184334279596,0.05640718416817504,0.6391458826670244,-1.0003215765162758,0.03111424036856386,0.4391358647580247,0.553574749094925,0.44408194461153505,-6.926214225753058,7.420639341379691,-0.1997429248300412,-1.1312832787456966,-0.23923112011761208,0.5701755862563561,0.20695812426017426,-0.35305427189871363,1.6300579976254275,-7.262922915423269,7.37229338127885,-0.19770198084964807,-0.14068029992209707,-0.19096280573701832,0.030355436126275698,0.5183452933473562,-0.7489027429507965,-0.25730236624314407,-6.777638221018815,8.403270657124974,0.02537163845752779,0.8960932102075325,0.22043862590966135,-0.1972182452181376,0.4135469462782318,-0.4524143835887933
1.1756055854100966,-6.417114072086739,7.314380799448505,0.13808121668064002,0.8347897690082187,0.24875278260996217,-0.3498178023276816,0.12084247484549092,-0.08552761863192479,-1.4857715214081206,7.048573384220068,6.2959179780206025,0.14275667749064555,0.6010973795092471,-0.9832669288387299,0.030868805430543236,0.44149795938028186,0.5488951541672947,1.1127356497304386,-6.797503607276212,6.684529828252011,-0.17676375294078867,-1.1236969208373615,-0.2414253928834342,0.5519767345747263,0.2217561144152549,-0.3672165637626802,1.7441502224452836,-7.236197084582332,7.248151306515629,-0.18259693723594547,-0.19730905437968135,-0.22788057418272434,0.023545653007302603,0.5198465321882373,-0.7447233426570726,-0.00685820940097346,-6.584354530135649,7.874809133035287,0.1900601597142032,0.8021376762661003,0.24915541761886797,-0.17410092335526875,0.40805498256227096,-0.46012575690559593
0.9899076276705067,-6.061095252873998,7.2037221877514845,0.2336561585525452,0.9603387752648317,0.30656454504771263,-0.3222259252670769,0.11758961964340446,-0.09353937095627518,-1.642569113600739,7.44255033966122,5.954212693339611,0.20139703780880316,0.5242023013583871,-0.9216227923947031,0.03990955133847778,0.44145488930008125,0.544272471894376,2.1013997336841457,-6.842244019490154,6.398702667705809,-0.14462794126493925,-1.015831178948944,-0.2630906099097109,0.5386022405868299,0.2289567838505718,-0.38076413233608175,2.1456366635687143,-7.203979430515152,7.159519693998146,-0.15326193636504135,-0.40093761959738844,-0.25565996761170456,0.017988520495676924,0.5237769282869056,-0.7356645543409783,-0.419342902452766,-6.938183308259872,8.66195963463399,0.2540626466030708,0.7906515500448683,0.31112010474363483,-0.14465636679232904,0.399340709209587,-0.4673985579304105
1.184333797178376,-6.895045931213414,8.449000614472482,0.49055607112067584,1.1695263898552821,0.37366098716981005,-0.3050866830454383,0.11812079951410485,-0.11327059223152731,-1.717163625151549,8.309153649149328,5.813430161753629,0.30681386669166155,0.48661777489731933,-0.7640668774693046,0.03822023397044597,0.444307371062575,0.5254202329656783,2.512316595579008,-6.287241746696051,6.296322890465092,-0.11647637789421726,-0.746939194067949,-0.2987264212733224,0.5133066531607569,0.2415544489016479,-0.3983059330712055,2.42234618094445,-6.722811531086483,6.842873603335256,-0.11376965151719046,-0.6801595489716135,-0.296149338291323,-0.0032390727027078966,0.5280557914316854,-0.7387505378458165,0.08279738616015749,-7.499406447398154,9.013060861958108,0.48834186695470755,0.6692746868984635,0.40892400270362517,-0.12480019660525227,0.3873307936462034,-0.4836785140624841
0.9215468720361302,-7.423779405081851,8.63126357208949,0.434432243899103,1.0922027790652353,0.41199297963553533,-0.28433728750498866,0.1177755932925953,-0.11273524059885892,-1.950624408938646,8.759836572344803,5.880672650705888,0.3987171527446732,0.6048270774233766,-0.8425066499700035,0.0487262524145528,0.44686054993251917,0.5151397856937859,2.5422538628167906,-6.329758666588723,6.603138309574325,-0.0656262471254336,-0.5202498350545911,-0.37073382866944077,0.4987403086702783,0.25234645262984157,-0.4021462810652495,2.61498500575231,-7.3237992563313705,6.818339325322161,-0.08401687224173049,-0.9363117424912544,-0.36691454910470306,-0.024201754818827238,0.5291487831989659,-0.7318305078245531,0.34130483953468316,-7.302135728455127,8.377770517322274,0.4202371448659912,0.7130390518426625,0.42156473228105407,-0.09755425869681851,0.3798663452921547,-0.49313142230595663
-0.48467401200342514,-6.547683264631038,7.406414793297102,0.7918684569840907,1.0119198685818211,0.3534469174812334,-0.24230451766611524,0.11768569667417773,-0.12996990909785502,-2.9679649677042295,8.451475802569147,5.199543266366249,0.8243766315861408,0.7396885976038542,-0.7884662830854162,0.055319055674940824,0.45579475455048674,0.49302530566340547,2.616673843763002,-6.192550442082197,7.537732178292034,0.4714178733968398,-0.2935386068140081,-0.37672656728414083,0.48362023847900215,0.25475321630204,-0.4112170135625217,2.91880703428418,-6.742119451331515,6.487975170391408,0.43040736783149064,-1.0518836147042077,-0.4466590629240357,-0.04255346824617277,0.5219321498347155,-0.7312767405750945,-0.8630985188516829,-6.110997432956374,7.884397598802247,0.7687075143583094,0.8006284326990029,0.4070473769747293,-0.07402815630284175,0.36141395681293376,-0.49799201810894617
-1.4437329732569768,-5.951825307021031,7.256540439062998,1.0588159637817922,0.9913599938527493,0.35258784145672317,-0.22698976359206693,0.10080268410399836,-0.13565438763212595,-3.7540618275497795,9.008752784013334,4.587172046791533,1.1259366621985336,0.7797530122541201,-0.5294442635064155,0.06117140380692488,0.47421606455362114,0.45439151594364735,2.6014478387478577,-6.016982592127402,8.582983979366553,0.8586700077914474,-0.024701367049085005,-0.38221317747605454,0.46540476793995184,0.26731656198173825,-0.4275399758970184,3.293443455760137,-6.481626141713362,6.946812793916191,0.7946273967077527,-1.0810758422217501,-0.5038112106434247,-0.07069950532056202,0.5169800988386958,-0.7414241643338583,-1.689738476471691,-7.046109615336779,8.380466524247842,1.0238252331573165,1.0729784199857533,0.42585243091503283,-0.04538965975182806,0.351073240823572,-0.5182110562939076
-1.6743240623645652,-5.905088740501864,7.960186257145628,1.3109896694480925,1.0415335638439598,0.48039004952005565,-0.1954507836356567,0.101014091544229,-0.15413323086441105,-4.102266170275629,9.029696547506768,4.624930601565116,1.3137096899379437,0.7432149677748187,-0.2656069040134821,0.07100798176659208,0.4754218543692073,0.4075063065065123,2.432453311746919,-5.757902225716311,9.420127442536412,1.1257060960934653,0.1474593890737592,-0.3466724604522309,0.4467391065480712,0.2533329549742505,-0.4399962163356016,3.885872899706603,-5.775287574703956,7.530900582929434,1.0428370960494078,-1.0003150732167885,-0.5342388870491639,-0.09897004940130165,0.49054396539254974,-0.7511024652072823,-2.4007494779824463,-7.409887674447826,8.970237137016122,1.2786248140389214,1.3012520440161761,0.5742047185400497,-0.014943097450137494,0.317991185346255,-0.5346673482032351
-2.091023931797481,-4.728156922021396,8.743109339793504,1.3844291505514743,1.1815406204501053,0.5138131311067318,-0.16078805450389888,0.09288064720555843,-0.1680178562222713,-4.418802979309601,9.380624095932507,4.794196342787288,1.2422392368859827,0.7038789145428539,-0.05971824050410031,0.09009015738842677,0.48403096685426694,0.36319919584967697,1.9469666280838098,-5.518152154913356,10.215324967201683,1.0960175782065031,0.16845794838108744,-0.291868284473642,0.43191574047113146,0.262368794089725,-0.44673733246190406,4.230003793610091,-5.121072207289039,8.194562963946582,1.0020844465834933,-0.8299887568443989,-0.5022918675086657,-0.11564216084595778,0.4811232547367105,-0.7547074676644137,-2.97412406002081,-4.309818757642733,8.398841634292978,1.3625516535091247,1.2406024812887064,0.6250145234551394,0.021979011763106144,0.2989894722672336,-0.5454553525278475
-2.6640236548666376,-4.650079202422681,9.398410707509862,1.0784780143555783,1.1496642487124742,0.4315174021392783,-0.1397531677387581,0.09023269941247206,-0.18971276659919598,-4.868158776942394,9.73589808650892,5.0732668397225735,0.9632725976344213,0.6591584676102955,-0.012176904544310935,0.1119720537600991,0.46685673005099126,0.30956085959281304,1.6330934356905789,-5.787862228220749,10.804525249460104,0.8417979126456407,0.06643375386465526,-0.23045981482656072,0.4196373368946986,0.2534456615492048,-0.46025766771213183,4.663762389098586,-4.932535161148806,8.278304336645892,0.7613995677511055,-0.5192794323633413,-0.4074681937401196,-0.13091294202796605,0.4602194310027137,-0.7575968979524142,-3.079366940305126,-3.8919297825748593,9.176585978254531,1.0681178400403357,1.2629236588386394,0.5204004111135876,0.05835565326199672,0.270703007152927,-0.554343113021825
-2.689221833002612,-4.892739766909391,9.68917118523615,0.8649409292866256,1.1146322197256135,0.3773659996983572,-0.10357213138090993,0.09694046112155853,-0.19642052493758166,-4.740816771492352,9.736324227352025,5.257761607566931,0.7855311189384133,0.5880643754688298,-0.014218576539840376,0.12602495781436676,0.4488718230176052,0.26764253677758093,1.9576638112791696,-5.909259259300303,10.59937081151554,0.7150996000394642,-0.09027204547809167,-0.13137460545554355,0.3913632371311875,0.25956524263975356,-0.45791075168482753,5.056947433942301,-4.850020549824644,8.357012649664714,0.6546598598485243,-0.1706877658812214,-0.289930345209997,-0.14144402709667608,0.45099924813308423,-0.7521929318971745,-3.5137584911323874,-4.359390965682363,9.409680673377817,0.8496748157188403,1.3407286662706548,0.4429724433384835,0.0873360178633021,0.259253437875501,-0.5525967599828239
-2.83813107018917,-4.7796539584687014,9.255434412651864,0.6583462222258493,1.151221736041311,0.3696774120351176,-0.07547398578550635,0.08987488686838528,-0.21983632931352393,-4.605006434866512,9.63644394611795,4.860142542562274,0.5583795198726524,0.5119017004051225,0.04107730941931559,0.1443174856524173,0.41333444259273155,0.21186406948210973,2.4138065942177955,-5.943746937429944,9.978671336161137,0.5832417911552283,-0.1803070584909525,-0.02502371082356456,0.36281023298702963,0.26130205717632254,-0.4694089181303644,4.949982724127161,-4.9071888652087745,8.028185907520307,0.5534044133961832,0.09597276053685214,-0.16330181545397002,-0.15151106562419564,0.44740475482811204,-0.7611895860622487,-3.846715703624354,-5.082638324799048,9.504174384582951,0.6429346068236949,1.3478772375880113,0.4048230380074396,0.12115504700188269,0.24732941492730445,-0.5591775832485498
-2.94962396983306,-4.099928840974695,8.686853795189611,0.6850024644885749,1.312198306728145,0.4204027852849785,-0.03659921076636964,0.09586912783267182,-0.23166925137333544,-4.4653806474161275,9.156708449509663,4.437563590598431,0.4946650549935474,0.3748650955059884,0.19799672159285095,0.16550714687048304,0.37883832633904985,0.17389758677859773,2.902643696945008,-5.968883066786407,9.041920720498545,0.5356749524948732,-0.1280828643654966,0.0601687635201617,0.33430211787457587,0.2686762080362596,-0.4651297918375362,4.715881856769594,-5.1095256357938945,7.73516879533636,0.5004908759974411,0.19143757291461258,-0.055954050835274195,-0.15466173138314995,0.44595080873555787,-0.753121432863697,-4.2035363404865125,-4.518139696202423,9.322621857542389,0.7052352335091955,1.2830463260740572,0.46219032848610636,0.15336188601175324,0.23923995390195404,-0.5515664083516226
-3.3145096597196426,-3.548462896568217,8.455516784192962,0.787268868434388,1.5206588847725098,0.4131890639567626,-0.0038960127671993226,0.09038030500425713,-0.23748478329959433,-4.421897498396213,9.133154927209247,4.194982708085906,0.5877223807271194,0.19765482281713026,0.4246045731908404,0.1889680827264843,0.33234841117820363,0.11904321115460652,2.9472175563973386,-5.897837067074285,8.52605909302134,0.732498187401266,0.027247103912425706,0.17220172669066147,0.316222454932715,0.26729940032245797,-0.4826822124520246,4.4101807336211065,-5.088877596050327,7.391928004002491,0.7092215643530114,0.15093279503914517,0.013880298892269131,-0.15326927786941952,0.4374026694372873,-0.7587510948206413,-4.383245906334596,-3.100321165042545,8.317638722488207,0.7987769256710855,1.10825817949049,0.4719437953759684,0.1888727809073561,0.22313682140615085,-0.555494174578889
-4.3039082085730636,-3.1497360114564517,8.635739084532881,0.9511386728857646,1.6270605487381804,0.35875514886328425,0.04007822066774906,0.08784024638000466,-0.2547301872668556,-4.884681768524893,9.830350276804772,4.015961233715266,0.7838817306756175,0.01975371456905721,0.6096300252667374,0.20438776492480903,0.2786140464292534,0.07088842206847883,2.680371430315088,-5.8062603172758696,8.570775357268861,1.1257582021558037,0.2552208312563231,0.3053623027565203,0.2951432647447952,0.25680966417641,-0.49177916142449885,3.937711054730125,-4.967861228645893,7.188091345918405,1.1140555833832304,0.09556646836182982,0.057921483255328275,-0.16145798837229713,0.4191451706348033,-0.7648390613758511,-4.9834084352471235,-2.7054547774339315,7.851680231479357,0.9510306339660293,0.8768438944930336,0.42066719771627337,0.21313590375664979,0.20393555638894947,-0.5584107020242052
-4.919818708342255,-2.629666245374464,9.27097276524927,0.7393698359484856,1.5395214231718515,0.3366163651271678,0.06231819434339075,0.08803734131943773,-0.2639530977885734,-4.5595838520070275,11.099968032150043,4.072075104315837,0.6731685408317096,-0.16068366976119727,0.7069178456331268,0.21911546144825086,0.21626881290903585,0.01897099868843294,2.3815916399171155,-5.229255063252155,9.128431365438567,1.1461760730688948,0.5290234147623978,0.40212766544780215,0.27940461381496906,0.2426224563117491,-0.5149762873222042,3.9772659037507596,-4.317973913350818,7.748537785742512,1.1772649861078412,0.05196490352057751,0.14632978691845724,-0.16626941101809456,0.4028342616140542,-0.784366655007437,-4.874030946937909,-2.0647284646462363,7.320316674100181,0.7120332105525479,0.7970135375859286,0.3588319741717484,0.23812582280514974,0.19040307118989505,-0.5710621497392611
-5.314760823085061,-2.849527087245486,9.642631913663845,0.35925370417552377,1.1689795916689647,0.3290752877209501,0.0960059375042549,0.0828047363393727,-0.2724507341570143,-3.960017865448175,10.963761789992857,3.9746095373338095,0.32384762211265883,-0.328926064551412,0.6083274366192083,0.234070810791682,0.14773375863242805,-0.008914083332575286,1.9709734473181522,-4.917191415940311,9.47866378962598,0.7730926338618161,0.6724906015712381,0.47383861730018817,0.27055270141921706,0.23446087646021985,-0.5106858464048809,4.125062875969389,-3.8692904366410024,8.476787563951609,0.8581711241565219,0.054954169804920225,0.2779791665412779,-0.16974121498602246,0.3889318981176572,-0.7772860444107209,-4.738216034652059,-3.461423187402819,7.330396393178626,0.35083331019868164,0.911175513145975,0.3199456944501749,0.2691250008450829,0.17959568497115408,-0.5566252316135841
-4.9855554246077824,-3.9684337145807578,10.075525387331009,0.41446382878542487,0.8337428373808261,0.4513231812157397,0.12463853580835342,0.08839624535493491,-0.2901707508411211,-3.447686841916794,10.003374946602243,3.4128882102280107,0.33768426432384485,-0.4711624463693661,0.386008044002062,0.24730675308106112,0.08376822543398953,-0.04054104569622449,1.268989556363336,-4.269755777287409,9.601098925257233,0.6358417358676387,0.6715193939263974,0.5293469187919695,0.26708717963155865,0.2284895807416913,-0.5188865166324383,3.822085965981424,-4.090018968768328,8.870025189721396,0.7303188637031636,0.11230685046619704,0.36748812713703183,-0.1607555101067125,0.3835115692766372,-0.7812337680683688,-5.381056041472238,-4.93686598839041,8.56819250936591,0.4703145931228087,1.1244805902011283,0.44528102236413464,0.30519443304188354,0.16857502697565138,-0.5536901293416758
-4.6405306647565805,-3.5864837001691976,9.185364082049418,0.7650381042423469,0.8225168329142549,0.44984715256738006,0.16078751865682375,0.085134123855125,-0.3032882603738592,-3.0469571919822305,8.771167965136163,2.6979946812024824,0.554881305880792,-0.43990788325024976,0.255625088980545,0.2529583157386453,0.023216768380651794,-0.0707727243337927,0.8686422583427497,-3.675458669157209,9.49659625174264,0.78194634144186,0.6067385172155281,0.5523816343224968,0.25944712107103035,0.21943457339436226,-0.5236146368859339,3.5726635475010227,-4.122384481675023,9.16286972965628,0.8666306468338967,0.1576581099607925,0.3461886572850886,-0.1613494745922876,0.3681374166041492,-0.7851520300290994,-5.844608676033447,-2.710741409019131,7.230938188118297,0.8003797809482548,0.778096094623064,0.48006081231293973,0.3312144252569752,0.15275020412954976,-0.5517107493841972
-4.910211823504201,-2.5636907029205385,8.119666558109042,0.971252767556936,0.835269841811581,0.3753774565621235,0.19151595922660553,0.07357010340763137,-0.3120766738961815,-2.9720915215466,8.84829237020401,2.4073175350469,0.9183083910883572,-0.3659124407616077,0.19291929608672043,0.2471493910803876,-0.041280891409674135,-0.1007136720957801,0.5658703193648666,-2.981370297784263,9.665161464780281,1.1619625740049087,0.5132662288501,0.5749612677632158,0.24392940508071537,0.20210488414313763,-0.544806618527581,3.4970328302993914,-3.630276791303886,9.533845694646132,1.2411696154726304,0.20169651285339518,0.25545685146870256,-0.17326897542927286,0.34625086614670386,-0.8031917765592147,-5.368968147162367,-1.7927633442566453,6.90729281598367,0.9481172208697894,0.4223752031085835,0.4172775184635876,0.3400369475060241,0.13003968578179595,-0.5616547087335396
-5.185320324417054,-1.1087793981970895,7.0013861170838965,0.6980255739391956,0.692699230089092,0.35969403490582885,0.20521016501521105,0.0689829562114974,-0.33062818969463637,-3.056983908820622,9.345909189082091,1.7232401815834355,0.7388229210141923,-0.33623850969148567,0.18029027569313127,0.24514655075129063,-0.0850298971304187,-0.11732145169036778,0.2727901630111646,-2.52857637256765,10.387538021570172,1.001994695035463,0.396950878804078,0.5124713688699685,0.23140836044205493,0.19345638785980154,-0.5566222713319672,3.5418027344799574,-3.26557909710967,10.082256953664476,1.092148315925944,0.2533182049387211,0.22007609637974734,-0.17211377244588036,0.338192226800069,-0.8078430275681399,-5.097049916955401,-1.1076643685869438,6.0556907217322316,0.6713551969968431,0.49607940166228015,0.3783776336911633,0.3582776204340405,0.11841735715923107,-0.5588810821324558
-5.022626070592695,-0.6429502535947494,7.020188350052015,0.39084966583935055,0.543672937620981,0.40075740520399733,0.23960619625683705,0.06344624692831345,-0.330092840146589,-2.863040830359884,8.878767737684193,1.0111262137812047,0.36853886481009945,-0.36385686024109004,0.21690289574364638,0.25269684298561657,-0.14057303314627473,-0.12590165831377667,0.2705510996177191,-2.4150368473879675,10.07359408599235,0.5002496137952939,0.26875299716711265,0.35789982932568337,0.22788665138037867,0.18006952569997484,-0.5556627486387979,3.450814280105041,-3.4666510182691535,10.101559419224566,0.5695765740570571,0.30633615071184295,0.22173287793305904,-0.1648789736649031,0.32154536057363003,-0.8056904197455637,-5.047753172921028,-0.9401730775386294,6.70078187529084,0.40198741352286393,0.6639289917190735,0.392132889889502,0.3884758529772601,0.10277469714150589,-0.5515504068678238
-4.932146004096319,-1.3732250388750893,7.895810703370822,0.27666370677666624,0.515440892203828,0.41596524905178867,0.25794453975288195,0.05957472657259682,-0.3493608035562579,-2.4264013071298085,8.601358411278719,1.0268802283385374,0.3059194132469261,-0.3362164467326975,0.2195291942819808,0.24776166190259444,-0.1836054281489559,-0.14277041066867846,0.3503087219462277,-1.9483017408899697,9.696949279736103,0.4039829355586814,0.14034825248797644,0.245064168906761,0.2142311522972391,0.1823785901650178,-0.569859958614235,3.4391720301545567,-3.2967099906599335,9.679413143565036,0.44798428416248964,0.3221290281379745,0.13310818585010356,-0.1675936625854814,0.3171679309082959,-0.8064158365840381,-5.395552779509521,-0.6450359499226722,7.41538577452208,0.27866099915989573,0.7041351691587168,0.40641207607308366,0.4050181133594952,0.0921362160208878,-0.5480307776412447
-5.094765844095549,-1.7249955141430748,7.9313602396035225,0.2575873518275679,0.4676604345399415,0.3362162647617956,0.28625188184598344,0.049763890158670075,-0.36351511839249406,-1.9947867127114125,8.594509110217277,1.089909818960827,0.32954589566842424,-0.19455857140052574,0.13775546628966326,0.25651226052856996,-0.22742774557308051,-0.16619578778979088,0.43993388799471467,-1.6607289244219543,9.353313590919539,0.4004258768699236,-0.0056989487743473,0.12900310882230784,0.20708862638436146,0.1747355778212796,-0.5919494538528624,3.3676071403069123,-2.9834426754635053,9.467991606299515,0.41738622665560504,0.3387654983017279,0.02706314217857724,-0.1618537677747753,0.31104971472099496,-0.8276845237613767,-5.47227223441547,-0.1791551723980325,6.601942900259251,0.250562079347568,0.6683538995984663,0.32250121822955385,0.43300935124089684,0.08686778301686778,-0.5582061583981961
-4.592682168641531,-1.8610992010708112,8.674334224984745,0.4416960039758748,0.45355835143461715,0.19370586222842173,0.3058412889416135,0.05970875748424645,-0.36780010421724996,-1.724019231741514,8.726448201602519,1.588043584247474,0.4581221304549906,-0.0066888848370480185,0.03535470910666977,0.24372447736097963,-0.27032142096355716,-0.15841862280792823,1.0221399629447978,-1.512946478977805,8.847641943196665,0.4819360499927859,-0.12401602782721381,0.04009294574249592,0.17821287603220928,0.1662001139467516,-0.5900886526687453,3.396573047702642,-2.5427910131028604,9.214679784693136,0.4682041999930393,0.311733430014304,-0.0696863483574451,-0.17312242699779729,0.2969451422378587,-0.8161792210107595,-5.860347209124266,-0.3339369652171414,7.4964220061736775,0.43288634106328705,0.41710142765594466,0.20141761136805345,0.4332077514120785,0.06894135099876295,-0.5409795961041008
-5.190285511027743,-1.8173911162360157,9.176300876215583,0.23972962712483054,0.5618038446458847,0.14852189404155958,0.3194920020392737,0.054527973150135155,-0.3695090678238829,-1.7921831435384823,9.64381963688395,1.2873299065884438,0.32116752330795423,0.14372692090860378,-0.035187838856153765,0.24897608787032338,-0.30137268992472777,-0.1620407696794943,1.1842805455489722,-1.6128967295090135,9.071422054756043,0.38514329116141405,-0.15223217052632215,-0.018632077935621397,0.16964990573771704,0.16412042681718716,-0.601527940241788,3.429765077105664,-2.335956046880959,9.162093173221262,0.38622180361120434,0.2212614677983928,-0.12173422148684838,-0.16878471161680225,0.29082049396228515,-0.8215732353576066,-6.028047467800865,-1.4503211184397289,7.91119565243063,0.19641300522468982,0.01269636159157855,0.14959240997103382,0.4497578513846835,0.06494312133922799,-0.545720613345832
-6.067245600990099,-1.06712313620254,8.314941826319023,-0.10193311858912565,0.30218961946928863,0.17655409122901056,0.35099769951266224,0.05320245694311802,-0.37652337181645784,-1.7959213026573222,10.251768838002821,1.3387045093346344,0.047286590356956794,0.24103509004648768,-0.2276310791581302,0.2498537369003145,-0.3364074666487625,-0.16926715806354808,1.3144628207903468,-1.5976800067766364,9.01017295320945,0.08470661183080236,-0.16648087621261778,-0.10629341167553524,0.1510934623161308,0.16426560701689408,-0.6159314157685866,3.5373654389465665,-2.0784278343614204,8.984894216062372,0.08944112363377558,0.14505792866166836,-0.13486241881826827,-0.1747017564795748,0.2852458477955245,-0.8276581621613865,-5.3045413579546405,-1.4087870151773583,6.751817438106084,-0.15718239484118407,0.16194303621859296,0.15503752135948767,0.45556674760727395,0.06028514516043914,-0.5494382564961372
-5.829288714251522,-1.42548109743003,7.650934006852596,-0.22579579606976644,-0.20929079925874028,0.2740598011855408,0.3651873325578332,0.05104420125258019,-0.3933484328985952,-1.9855833500920013,9.835857570172351,1.2740968809186757,-0.10793071224656828,0.23524881163179326,-0.4438266733768685,0.2633798198459702,-0.36035114888822345,-0.17323931049805547,1.583956541782932,-2.137356954491049,8.886147751459054,-0.15270715823648753,-0.16102554117837267,-0.16297119080545672,0.1406732899915073,0.1744799684671987,-0.6231816398263437,3.5092377549764633,-2.590335137822599,8.843016878187067,-0.16432099133431227,0.07196581148955075,-0.13128572492300647,-0.17561931783748672,0.2955058700623243,-0.8281338061871429,-5.156911481474603,-2.363888165125707,5.800923324697115,-0.2322181083864022,0.716625719796894,0.22629646242048196,0.47932813934881663,0.06666473370498058,-0.5424334197737501
-4.948894228170345,-1.84184619997117,7.88286629448794,-0.33453155867809264,-0.48441317999704664,0.40306773173196936,0.3659884302667698,0.05483890879777841,-0.41505221012992416,-2.2924992410193816,9.798132571261538,1.499238142269037,-0.14976726187683462,0.23750526571134523,-0.4730511308572245,0.2668999083517473,-0.3820241507126865,-0.18507944423160408,1.731379885961775,-2.000434864868943,9.078674464812403,-0.21269820163724013,-0.0643050246824168,-0.21129061788654438,0.12510459460007295,0.18212080162392305,-0.6406425831708435,3.420129160415432,-2.4719457071908417,8.903674197317129,-0.2369469466629086,-0.06646491402809339,-0.16079790897074156,-0.18857039421520844,0.3016972143654503,-0.8400387940652791,-5.663876535050531,-2.975483288680469,7.248257713807934,-0.3776919148839401,0.9011341032482155,0.33032527433476383,0.4964257368607256,0.06850234691476417,-0.5437251190467983
-4.189350314171462,-2.376564722326721,8.458189679395208,-0.4608442268335365,-0.16694935337408567,0.5212451417194932,0.3750230644324148,0.05455984369296723,-0.4162524322594643,-2.7898579485961035,9.342063845923176,1.9610737554983044,-0.28193400610685093,0.2942019073621019,-0.24578051674012594,0.2755625871790999,-0.41416780514328594,-0.1818405906720335,1.5809260009604744,-2.5714164548032414,9.646442991242953,-0.4411736941109796,0.1131439666800254,-0.273708006107569,0.12194939927619446,0.1845736343379269,-0.641416146448984,3.5145467649525335,-2.8035117963179235,8.721537710578618,-0.47788493440737567,-0.1513862806527501,-0.1414760396448282,-0.1907306876216848,0.302678710888101,-0.8322172516359395,-6.986538469945098,-2.6088451272865116,9.662679315268546,-0.5172401474533753,0.5776440715903963,0.4373239012641311,0.517181924349615,0.06120385310774018,-0.5321484384312286
-4.221631695888622,-2.1299170089212294,7.96864059618161,-0.48857313580336953,0.4009589209899638,0.5427293494356338,0.4004184387668255,0.05324635185268449,-0.4205951789249589,-2.49880487827423,8.819898399300756,2.3986717429306283,-0.3062985305489071,0.3138569717499893,0.052519718435142505,0.27784264168920864,-0.43260250939295153,-0.18958641597720904,1.4419414949033404,-2.758516680118565,9.707623986372235,-0.39832830691077503,0.20283302942093712,-0.24446379884662003,0.1162309341872667,0.2029611730612574,-0.6541770587880269,4.00798128381655,-2.643036709035051,8.402308036372114,-0.4410262644320556,-0.12377750207867187,-0.1406286776808732,-0.20213612561930905,0.31813202357451614,-0.8375285168428586,-6.328846725341543,-1.764832197070058,8.424785609331817,-0.5560238634480712,-0.04703701581075762,0.46465746530094526,0.5255103657057789,0.07022354720447088,-0.5399475949226923
-4.926284516291289,-2.3650728695572183,7.597168164321433,-0.36194617502659193,0.4953497771472919,0.5844314125179686,0.41583112485985424,0.05566912091279673,-0.42908840254612424,-2.077371131652446,8.673315341854115,2.473319631949145,-0.17301507883095452,0.2725615797101542,0.11692455571018366,0.28351471949658963,-0.44982671681697545,-0.18416090936849389,1.5635183989092953,-3.164161330992672,9.576327597562221,-0.24112978204227412,0.11742829019975806,-0.19704831499661904,0.10655344271822799,0.21446777343398282,-0.656809589838001,4.499330641276603,-3.003858586356766,8.060360072133948,-0.2831020930453374,0.06174917120317448,-0.12422441232732857,-0.20352195510779816,0.33010156999580303,-0.8355586668238235,-5.153424617094399,-3.059156475166188,7.124129627851407,-0.4322462409552865,-0.08220402626026159,0.5191012084224295,0.5326391947307536,0.07356001199938951,-0.5348345672086127
-5.623892242566573,-2.4632309869893887,7.362771867360065,-0.40470772708362324,0.16489397376399423,0.6871231069823854,0.42391423273254275,0.058354212292635675,-0.43515541345763536,-1.9280247744251062,9.488274641822922,2.871277071147454,-0.14348869941835615,0.21979566692486385,-0.005331116795096895,0.2817117142176443,-0.48632427701641034,-0.19063423999906737,1.5862219960074146,-3.037499632620928,9.321292302329596,-0.195269531269111,-0.047659020287745754,-0.14573034593094852,0.09328596281132694,0.2038517157014966,-0.6698130756837463,4.3470608383928715,-2.9123860757266034,8.308225304501791,-0.24066720666901076,0.26255690631092077,-0.10359470175918295,-0.20921762177173533,0.322819528968075,-0.8448201149138255,-4.921473896314044,-3.107686318986257,5.815284342537183,-0.4860717641325557,0.31108393740397927,0.6125952527756824,0.5417746538607813,0.05519492031136771,-0.5369408560715533
-6.2200627050908155,-3.190002211054739,7.899081318506678,-0.3976452110967478,-0.2522072547535112,0.6874509348684604,0.4424051372632269,0.04387361379709822,-0.43691115798579516,-2.639640877258484,9.839577591690997,3.1295376596065227,-0.21203136281494725,0.25528100852051006,-0.13628694749897166,0.2866439773755197,-0.4997152895695296,-0.18942470912154968,1.6391569504857457,-3.838513660083576,9.139162281738686,-0.32900361663826677,-0.08960354959749803,-0.16028894014394476,0.08459188834808913,0.21625767421956363,-0.6766126086438602,3.589251692224144,-4.367960636215291,8.710087470837697,-0.3654148717094464,0.301237878085309,-0.08315930236136743,-0.20671672437735447,0.3318366163233939,-0.8433564462869407,-6.455277829741313,-2.2810167361882514,6.141101687437066,-0.4453905959471719,0.7160452656728178,0.620234257017755,0.5574457530838752,0.056502606426517166,-0.5294396508241154
-5.727488023397241,-2.9502878825538645,8.84043018747442,-0.1423832640256983,-0.28484183666156704,0.6260218835557216,0.4409815300583773,0.04374833509945112,-0.45473874160708877,-2.7609828170590127,10.41656994335595,3.171111418753256,0.04268413045156765,0.2994879747798276,-0.09948667661486586,0.29285212192974813,-0.5293949793102031,-0.18427895008218828,2.0259795306397113,-3.9768651623250704,9.239953938221504,-0.010751164935706773,0.080359995064449,-0.14013423845287404,0.08110765721580251,0.20785814169782474,-0.6840392724192749,3.6332237655059316,-4.386004715318859,8.554378100706657,-0.04548987539392849,0.19755641074531335,-0.1450558805118699,-0.2089617091327011,0.32599365817333376,-0.8465271314660316,-7.585325975397614,-2.1150667323338928,6.823184286010356,-0.2286083732217364,0.48694766593773686,0.587949961766902,0.5725268723978807,0.043161055952664534,-0.5212900436439888
-4.912583753647233,-3.0500699486137623,8.450460810520248,-0.3380162503874131,-0.14823918662379634,0.6159886713155924,0.4597585727821302,0.035886468376489664,-0.4610903947132296,-2.2683284885463864,9.843642592178922,3.178377918051264,-0.09392227220214291,0.36173946434946785,0.028833521820038663,0.2963033401756506,-0.5379338209291374,-0.18461831629427064,2.118694972048754,-3.945275211438206,9.059904380348424,-0.1256940231547325,0.27239632820734855,-0.2012317573752513,0.0762789394738004,0.21518311896841885,-0.7007646933991293,3.8561001508172805,-4.598685048914557,8.696910810409273,-0.15830621828959082,0.048521594247782344,-0.16220200990586398,-0.21114316379147138,0.3350484497338603,-0.8560319927152633,-6.982891077460415,-2.5200951341420676,7.0832462621739465,-0.4592458978461338,0.004252652086287798,0.5328405300235066,0.5793353397921361,0.045856185555212606,-0.5310717492808821
-5.562946365315997,-3.2544738241380933,8.29671268260963,-0.5326677144785716,-0.04448747797897563,0.6149159637838694,0.45269040481040534,0.034504003229335126,-0.46892910542612026,-2.5669885880918994,9.777633957029183,3.8553471918673905,-0.24031984639553297,0.4035837373537573,0.10976992906074423,0.30149143580090715,-0.5568441315965695,-0.17770020555185,1.6064702824161352,-4.374278781977938,9.497664268684403,-0.23074927945198223,0.34255537610169,-0.24260173010764108,0.0807112341745186,0.22000655157829294,-0.7023123369446489,4.018582470522452,-4.430371052264817,8.564717489227686,-0.2716066827258168,0.004802358191587456,-0.1835233865546219,-0.21553229263113982,0.33654019338604874,-0.856989220956043,-7.0271441597606055,-3.1206401593527606,6.028745395255565,-0.6634168121427646,-0.43809110459178024,0.5186637698431283,0.5805053823557246,0.040738138018028516,-0.5340379690648015
-6.248052956566641,-3.3988534517636584,7.669063459216003,-0.6329665161403352,-0.25788995432521544,0.6306395758532011,0.45905934308171487,0.03356538156694347,-0.4796620387936176,-2.6031054241108986,9.368844075539338,3.9921329070005718,-0.4921165319849364,0.39583331092365903,0.014362355633144879,0.29912168289889834,-0.577292091889368,-0.17345549625113718,1.1600736664367046,-4.714531438760448,9.572665353133601,-0.6486312723387023,0.2604788481487277,-0.2813881846531378,0.07439818484046312,0.22449420388150507,-0.6997008335632119,4.062050690239927,-4.7258214008034525,8.636367926748976,-0.7089342529373778,0.12852975711134884,-0.11040121698613556,-0.22037003653286905,0.34193657698125046,-0.8535469350825691,-6.341639618488843,-3.0911654033734433,4.634028762369605,-0.7094124506957296,-0.5679890460450159,0.5362795880562229,0.5767902921927465,0.03615038328725036,-0.538198735533995
-6.58327131205835,-3.727024050973293,7.108196791918129,-0.5357285078036313,-0.7263222217592392,0.5757853607432348,0.45961314291010047,0.033977035180613416,-0.5067587457347281,-3.0090583317096744,8.783132968332335,4.223870173143603,-0.4173250983103358,0.40143781516531873,-0.21125414598431894,0.3006180707566801,-0.5815920907374186,-0.18265933177149762,0.5992416829039215,-4.6619239532057195,9.10854109639701,-0.6093908767545224,0.06180209112929997,-0.2541741986598957,0.0635502582637764,0.24263228224291078,-0.7151425396976493,3.5036918584737826,-4.879566678382672,8.04687332718013,-0.6831269906832372,0.31418524853556684,-0.11049026179581777,-0.2224719915236465,0.3646633572943222,-0.8632831474784713,-6.243940199624495,-2.8196649373266722,4.236954163086354,-0.6125337184643573,-0.3630567586062179,0.4868937513786492,0.5733722251416278,0.04578245662536611,-0.5525293462970858
-7.147794320281474,-4.575252631262536,7.376071932997342,-0.6497125112207821,-1.0240847884781938,0.5303948456223517,0.45521032419288554,0.029154781301841157,-0.5131466388045915,-4.474931800129333,9.41030454748881,4.956775074799813,-0.5250507411467237,0.4700611276500607,-0.3323651002250831,0.31507114823393667,-0.5956500279154202,-0.17971433690974067,0.13625204915014702,-5.568774731736105,9.614362307385022,-0.721795213974464,-0.045962898929214596,-0.23892190647695036,0.06460299501744071,0.2524589439364113,-0.7111567401180198,2.7251904422630218,-5.147942926031616,7.49149727101394,-0.7830669698357245,0.5686024644829847,-0.07537230434431824,-0.21140895534525087,0.37362579236479204,-0.8572143676074329,-8.246534717545625,-3.942328818646504,4.652201705421206,-0.7293948617821338,-0.3516338691631531,0.4169928188796213,0.5774922027995577,0.042095216390552005,-0.5533030462059167
-8.096327112848599,-5.043810469111721,7.023961198300268,-0.6513777169186034,-0.9428942974962057,0.4612995380748226,0.45335225457745076,0.04026299460603144,-0.5311488072432217,-6.07317943818522,9.769035219333414,5.957108665032439,-0.6006239704347573,0.5223909011690722,-0.16567752458602333,0.3150962610438356,-0.6052961202732757,-0.1724708854830725,0.04559118661436268,-6.681741890996941,9.545951507893056,-0.7308274141378629,0.10903170418588339,-0.1315683556022748,0.05683883167098567,0.25864199355868595,-0.7100376070168862,1.7687466054171415,-5.721338226109852,6.9035806997219575,-0.7592072076263937,0.8063672411088403,0.018700550998608317,-0.2035300175707068,0.3833433565410811,-0.8547953043539052,-9.770090888623074,-3.5995297789703735,5.437686576329575,-0.7263791924555991,-0.8180505101777865,0.36182200868854686,0.564507037795959,0.041752964508467855,-0.5622763557669719
-7.766647358713618,-4.413339098213188,6.2523176591782015,-0.4392894251239025,-0.8072787181741695,0.27629995240568034,0.43776325435621266,0.036091559049040337,-0.5548936976303366,-5.899669270874567,9.532495745509328,5.9462922755769325,-0.40230573610830006,0.5462326545178785,0.15736380403291836,0.3119593453907679,-0.6131926326151818,-0.17673966727881513,0.4455122555710115,-7.303548614238119,8.661821331897666,-0.3639773787223703,0.45234349405170154,0.03767417397223876,0.0581532585946167,0.27095804673975543,-0.7175714335282616,1.4707480838441147,-6.160706080831382,7.104543699728652,-0.37664248417807356,0.8905257181574459,0.10353649161206414,-0.19348077354930357,0.3952546777778763,-0.862636832201982,-8.636017231349769,-1.9486991212975466,5.467507981649414,-0.499339388623732,-0.9841705864581758,0.21753034934336868,0.5503078586631194,0.05052449185110817,-0.5831538214903504
-6.884197335407977,-3.5425106794554364,5.761759771241672,-0.5143408794996558,-0.8217933277203634,0.08690759306189436,0.42631414243298393,0.04175606460537956,-0.5541534693063834,-5.3091069443131484,9.008655055116613,6.19828228679017,-0.4586242269900057,0.46933392293744003,0.45612260423155165,0.308395579483993,-0.6372026370747096,-0.1807395427037703,0.4478014494872655,-7.293070495270647,8.253075285012665,-0.24407252381447017,0.7781219329861385,0.18618772841073716,0.07710005698023686,0.2586645299470886,-0.7283570577477065,1.522361477416277,-5.752464556398893,7.452597518240966,-0.22642923631844503,0.8442539349164039,0.25261354524928836,-0.17525111113404354,0.3897868811021465,-0.8751652444612642,-7.4224970564527935,-1.704376593892327,4.190245182445841,-0.5504546408109322,-1.0028194627786475,0.006910932140626753,0.544293726265279,0.042386363875397196,-0.6031932657578993
-6.517514509471191,-3.3652476795629553,5.463275677620034,-0.6632153927933376,-0.933939210471663,-0.025559500612216235,0.4234268584925296,0.039230470659197186,-0.5773697209561697,-5.228765612933137,7.679591640397885,6.258894412658506,-0.6151907020692969,0.2585913704088928,0.6148487855753936,0.30498872272323246,-0.6410843524431897,-0.1784820270759696,-0.4093079854559915,-7.397219428330845,7.833224120756003,-0.28903636150808976,0.8901861658567615,0.3588371957049649,0.09769880670850674,0.27025959353861956,-0.7263605998993021,1.1542535946014747,-5.715750469344958,7.373704054903375,-0.23819770923333813,0.8375175384066876,0.429409180739295,-0.15370725064342067,0.3989369651683574,-0.8737767914581511,-6.601863115394397,-2.6068942456744235,4.071337081036838,-0.6812231282707498,-0.9715105406605238,-0.11540144370201944,0.5365703273116359,0.06055862188735553,-0.6115931763139516
-6.519022694838844,-3.4034506318878335,6.210019285978057,-0.9193325793867138,-1.0405350785035778,-0.02028299760205012,0.400089986506234,0.05648132888287285,-0.585374383000372,-5.731001102142725,6.9216869058867285,6.3063731113556925,-0.9210750441357638,-0.041631064704047205,0.6032860593647994,0.2884492188790759,-0.6520924541697862,-0.19053445931871774,-1.515321981105333,-7.654649842784057,7.740829901752721,-0.6097469517276426,0.7839317987315957,0.526620949867448,0.11166786610311015,0.2770194698437119,-0.7245249493416267,0.3782951424405521,-5.720005198198237,7.229349808854253,-0.5172573874581747,0.9668760327293888,0.6501357446313974,-0.13583069943171922,0.40982026173637204,-0.8762782177688895,-7.051260244062991,-3.927839142679244,6.377499964333321,-0.8982085653703403,-0.7125475435432758,-0.14507073664526046,0.5258700944523319,0.07487082936045998,-0.6241520346618862
-6.644803075768186,-4.445406030950185,6.787804132356088,-0.6899509252450223,-0.9133479872374723,0.03579024073397562,0.38817420879067505,0.05883131237849141,-0.60076941979811,-6.031355336670673,5.410814521675139,6.387441711552805,-0.7193631946955394,-0.3903965026514209,0.5120814847658197,0.27116952162834346,-0.6588039637768934,-0.2082768292482604,-2.2912622652341055,-8.16455519967337,7.363908857836702,-0.4491264385665082,0.567280964534627,0.7669490620903243,0.11853167369579554,0.2807320528785444,-0.7328905099648048,-0.477636841477647,-6.253193921021236,7.430159230820045,-0.3355418398094309,1.1524904143838373,0.8581815515796603,-0.11703347366924878,0.4165555260955508,-0.8868442869834412,-8.12587828533532,-4.911527055855009,6.544867290648614,-0.6538067075209071,-0.6613282418027735,-0.05241518001231597,0.509732962073036,0.08314651739332315,-0.641360100217195
-5.771059174938625,-5.325920509072433,6.97141835272381,0.05630428868774512,-0.7140473357804931,0.026393472567035895,0.37184948373431886,0.061647193428399034,-0.6093358998072591,-4.736207282091715,5.002685924140314,6.225463817386364,0.042870879681681164,-0.6368082470178268,0.34533632966197053,0.26483083696975646,-0.6640881483452156,-0.20160617116626434,-2.2624678269118457,-7.644772271511,6.867439493761074,0.2715630479277989,0.2616846932988249,1.0101861510228025,0.1314405026778147,0.2766935610100219,-0.7347792563058627,-0.8628972681538303,-6.5482732304194196,7.177709549662836,0.3999889487845122,1.366747274046043,0.9760806730736817,-0.08238755300456857,0.41537834242063987,-0.8908895090901009,-7.5569906123579775,-4.156278761632297,6.3189883326708784,0.04707869093375361,-0.8817486637150022,0.03256247851088948,0.502875206712593,0.08667169251623282,-0.6510726028694023
-4.7474697921577,-5.110882065935946,6.137445399907231,0.31084244433267383,-0.5963994467209106,-0.17993500692550118,0.36820123613341943,0.05639626966940218,-0.6257349065796137,-3.0216521217588155,6.009787207690689,5.963765671391759,0.3509036581361085,-0.5827100878990773,0.2154044811658911,0.2692765730314789,-0.6784446394446675,-0.19964920229046165,-1.416808862690061,-5.675445514889178,5.906939286086596,0.6024035163012885,0.07568126655084023,1.0954591882234153,0.1476441900933001,0.25706932055837683,-0.7471509148380586,-1.0956822742602064,-5.380932122327766,7.04542944244559,0.7186179944686523,1.4299510773475743,1.0258774057339226,-0.03884219877511397,0.3956001454046964,-0.9010896311888722,-5.579076940980354,-2.228258057820573,5.610850829996551,0.2682663983975633,-1.1035189069827651,-0.11747755620272098,0.49198286743699976,0.07757606458187077,-0.6686534000522669
-3.6698212716492105,-4.882600445526811,5.295092295011047,-0.18267644448293338,-0.5570154078964061,-0.3355769532030978,0.35773411924675586,0.058938380819926084,-0.6338011170888492,-2.1127759047418353,6.34683956437119,5.058934823136671,-0.17536356859950394,-0.38277964778857143,0.21325046579293624,0.25442361203993774,-0.6896941493487453,-0.19728871278575916,-0.7715044602164272,-4.12472119940381,4.583207959024875,0.06118369075273607,0.1655448377754489,1.0457600220035062,0.1502156754459113,0.2422156246304042,-0.7434829522754586,-1.5440769044143154,-4.593496707202203,7.14114198610102,0.16788462458030806,1.10740237656375,1.0510186456217072,-0.01813377911225246,0.3871758468327315,-0.8997145389602555,-4.2532008933458965,-3.2188617683527854,6.516648733899538,-0.16899341326702802,-0.9413322160155868,-0.3491276975671569,0.47310633346486863,0.07436009366669367,-0.6798137979964138
-3.234154874867725,-4.945199796899951,5.089507476843218,-0.7416001122865111,-0.39096270526051896,-0.4398713316437102,0.35682120719161886,0.06923803002230815,-0.6403308434910393,-1.9253109457497588,5.133530786986717,3.925485182555362,-0.8080391431626418,-0.10343920645254673,0.31207565169915297,0.24929089972067536,-0.6793205047476485,-0.21822488855732322,-1.2357659807049861,-3.2309102399044085,3.660157620313377,-0.6128034411544424,0.4255616631124838,0.9468753530492864,0.1647708398695027,0.2617779413917996,-0.7496761925040506,-2.070165440871944,-4.360473473079029,6.80724160531111,-0.5194901707579601,0.5176868963861289,1.016945643089621,-0.0021768738810626622,0.40833193192949796,-0.9090356850711802,-4.101643328081363,-3.5136101091846514,7.0913077343275726,-0.6702522328623178,-0.680990249435212,-0.5381592043431428,0.4629843847228692,0.10235040550870005,-0.6940028273025917
-2.641139196211932,-5.115621829491743,5.3872491446052075,-0.7845579310762393,-0.08777347012083397,-0.5161609581616168,0.34325604591480985,0.09610173241502175,-0.6314045195393849,-1.6942209797543923,3.2102705250420787,2.7636870390192745,-0.835660101901752,0.24386961704696017,0.3146737403659901,0.23709985506598968,-0.6837523513884878,-0.21768322945831275,-1.885788302606048,-2.6050302498215014,3.8044158139842086,-0.6750263584576256,0.4858351378309808,0.8242717621204727,0.171609470177253,0.26190175474502075,-0.7391806360267844,-1.8877076426130766,-4.019805547412244,7.095112175273406,-0.5824094002033074,0.0010430286672814073,0.9293829114310327,-0.002581044262342122,0.4127148324000874,-0.8943808083822481,-3.808414424581316,-4.482767065760009,8.228482583609226,-0.711162041505165,-0.4881424163103699,-0.6233993683144694,0.4481989693010539,0.11587298708477277,-0.6918984662777661
-2.441141938930913,-4.498306935773514,5.400965369914023,-0.17265259646018563,0.3136597268408419,-0.5497270464136587,0.3588908722865839,0.09364356503760099,-0.6404168377466536,-1.9683069984352821,1.2751119501863244,2.2297445575618564,-0.3063413013305323,0.534267935343189,0.1309491275848834,0.24444633627649312,-0.6874715956584041,-0.22273632602224422,-2.422447235406037,-2.822516665306331,4.044543311998362,-0.2708298680727759,0.17896150195505317,0.7481445515919195,0.18752464990011958,0.26796846723116335,-0.7485654297378544,-1.6178519651812056,-3.885222537799335,7.498535490076006,-0.2039285566505124,-0.28008675676046874,0.8021308472280821,0.006902549010786056,0.41291231531165606,-0.9044282249223103,-3.8931183487616146,-4.343640553575663,7.284190779670487,-0.09074203557622466,-0.48420276581440336,-0.5742855003838815,0.4491553944566396,0.1227876585115067,-0.7062661821011692
-3.0676739309814813,-2.4619176850232187,5.116176244189751,0.34019934724634643,0.5510956772334571,-0.5377400135202486,0.3608160884853705,0.08994387560579342,-0.6360403501485788,-2.4605243323451917,2.1316084704305154,2.165881510796038,0.2836426677461191,0.6450252772605098,-0.2320629977029236,0.2468799011257079,-0.6902080316451447,-0.21169887807377638,-2.9531619181060558,-2.171506942749347,5.021888258630766,0.347905544947655,-0.4090958540602064,0.782479205686276,0.17963030595258747,0.25751636279035217,-0.7493643968188024,-1.412126931730414,-2.5777522624578144,7.181953832969916,0.4399473376300325,-0.30182184790291305,0.720236142646783,-0.003400588494539689,0.4058946037527797,-0.9063471326904856,-3.324438759876405,-2.489043958625751,5.6597754098670805,0.3295418590845112,-0.5730308450887123,-0.5196086400292438,0.42835622588315203,0.11905545517626961,-0.7103392748960972
-3.862168025071346,-1.104523757649415,4.769523384489955,-0.087226133004497,0.4592245136475043,-0.4813017200689137,0.3640251192319204,0.09797795656272587,-0.6347612759344876,-3.358137638094181,4.14350776074121,1.9844884062862642,-0.11337534836699033,0.6711051689071253,-0.6288771606234418,0.25954943734346886,-0.6851996101480607,-0.2071216526986839,-3.6288095588657825,-1.9580688101884183,5.742962728474706,-0.04981681579422507,-0.9820212375730049,0.7559029537756209,0.16203476147838805,0.2553901782586719,-0.7532303873766948,-2.3076244919836957,-2.383652136739713,6.420529523740405,0.034265021454637834,-0.09225269002894092,0.7150028679013373,0.0019433247241432208,0.40391375296326426,-0.9102771862093149,-3.328757963617055,-1.788385597072868,6.515898906782728,-0.0919042238082344,-0.14834829008136105,-0.5126886099867465,0.4271480975137078,0.1234827903005488,-0.714458202734779
-2.9827740836431764,-0.6940399759261595,4.5262695241452455,-0.7072677173265638,0.6231615151068572,-0.3114010119835808,0.370665497073441,0.11905291124052997,-0.6133727708803624,-3.3835249385663073,4.784113316878476,1.5042649666305115,-0.7624210070646246,0.6016057218648162,-0.6752638198216139,0.28051036621250347,-0.6737328256355862,-0.21240588725931295,-2.564947926419937,-2.3530637730133086,5.224206519422107,-0.7174239954402346,-1.193999946002432,0.6809463808103839,0.14897111899988347,0.2707336184711879,-0.7471373787078384,-2.6016528903383978,-3.064174414161824,6.298014449883383,-0.6415053860778438,-0.01873862212208508,0.7057141071029277,0.0062189627915605825,0.41999464888324683,-0.9024657879012563,-3.7212229241659234,-2.9419409423332468,7.370216633336254,-0.6684202512681879,0.23393120060703382,-0.3795496225832984,0.4363593179134212,0.1431479586568944,-0.7068155854956071
-3.0712470424988565,-1.2309480676074787,4.457620446690077,-0.9173439064027642,1.1081367272639349,-0.04015938232209632,0.3995138156118567,0.12721892432768886,-0.6134967296091814,-3.457565498487816,5.066257336953521,0.7393934848896886,-0.9594374833719671,0.4641012468971296,-0.38671783503530793,0.2902998601524334,-0.670404740685854,-0.23466520155619644,-1.846660505534906,-2.384649039516312,4.634110699939148,-0.8949989184248347,-1.007429234850734,0.6282320098916012,0.13517451985720258,0.2863363257757641,-0.7549655127041303,-2.546279613265134,-3.283011714245358,5.465081953072078,-0.8442590454424223,-0.2585509059675874,0.6357822814147857,0.005831015598531146,0.43831004623126685,-0.904399900348753,-3.9891777974984084,-3.654826596655848,6.950828836698813,-0.8880359860471513,0.09362616997261902,-0.10949162839469462,0.4413090981538563,0.15633033346837852,-0.7126207080525345
-4.293613588884455,-1.99252188068668,4.365259461819031,-0.37842436739059665,1.4863412500271473,0.1422625715139584,0.419228073935617,0.12503770643014106,-0.5919788905627655,-3.99080977073189,4.881566300845966,-0.043272707783411045,-0.36980633028694165,0.4559543138894098,-0.10142755254536617,0.29612000809842,-0.6584874574789429,-0.23876134606696509,-2.139817734759856,-2.732429215533789,4.1513110379597675,-0.2751840368367972,-0.6326962972764688,0.5307632469725558,0.12573886720185992,0.29758062455233564,-0.7585708298872524,-2.872861348034159,-4.203482270898095,4.408108393134719,-0.25033688348105615,-0.5639275364056828,0.5187559414121533,1.2251352667564872e-05,0.44811450150269677,-0.9087626175618658,-4.059436981869598,-3.043389245554914,6.402676620212217,-0.3675399053494885,-0.024575152070307978,0.1073462102098172,0.44113568498334804,0.168066606036859,-0.7152349087086868
-4.774186857438604,-1.244077075027579,4.550542256740983,0.27880285163435947,1.482133535011225,0.2738541812163524,0.45435851080200795,0.12239221190514925,-0.5858075284526024,-3.7821679500387395,5.567334315535447,-0.19495450902764083,0.31301072841913397,0.5146657302684595,-0.04880255247173475,0.30005304072786554,-0.6697814636294349,-0.22879934745180933,-2.286494953595645,-1.7439730116917265,4.548495348301628,0.37273171142573697,-0.31076750904999995,0.37751520612883843,0.12072997623739522,0.28130538104124875,-0.755854015767566,-2.466496689840553,-3.7069050560589534,3.8535069814489975,0.3676363312517052,-0.6987968038349803,0.3640148282911049,-0.011543419801420984,0.43475469485594564,-0.9092175719991348,-3.6607878686435393,-2.754379398680383,5.840120863335055,0.2772153229898041,0.32422899699851393,0.22424919293276446,0.44811862045523326,0.15212565440857664,-0.711701287565971
-4.063893991996079,-1.2663393677109587,5.5495077642686095,0.07780793519709313,1.497354090703779,0.48737690968287,0.4760241292330178,0.11778586054016167,-0.568450337720685,-3.406667967083694,5.260517151575771,0.45069444107953704,0.18971223767274129,0.5520883561668553,-0.13173437203775212,0.30640407254241564,-0.670257374874533,-0.22951277255464828,-1.9328272001954785,-1.150904827039648,4.078213819866407,0.2631899000189075,-0.12056004425195825,0.25236694158309114,0.1243930744376581,0.2816045856197151,-0.7653823953357537,-2.0423891406611143,-2.289267089323936,3.800701977278785,0.2933936739361916,-0.7101846324950404,0.24139374613089754,-0.02086652334189923,0.4343316860028615,-0.920167178059799,-3.445685810640177,-4.065390897822973,7.166257880258501,0.11305176646185404,0.5789232024056186,0.42885607642923473,0.46248033016429513,0.146902835808251,-0.7130220657838148
-4.916005751491507,-1.4418984317178563,6.402791881521842,-0.2203110387090863,1.652573582582389,0.7738436217090194,0.5084474821045308,0.11774918319413694,-0.5481097529370158,-3.6758764911237662,5.781643899732593,0.5759582636567747,0.041420610716421405,0.5599113810853948,-0.27993536151748394,0.3115093071791077,-0.6664987042192476,-0.2249273970837173,-2.032776492418832,-1.3386124019814563,4.108941179393644,0.11652228217566711,0.04793791583465204,0.19554098498014177,0.12489914303475436,0.2838015277216411,-0.7651754992849984,-2.0193894363367355,-1.8590290286411235,3.5782331401422467,0.17697758411735112,-0.7179859887167379,0.1888234987718272,-0.0362591073032921,0.4322239597350563,-0.9198642754822672,-3.4795611190720392,-4.348908092489957,8.428777320151926,-0.15336471548665526,0.6950190850814895,0.7441271578716817,0.47593814408847956,0.14282637826147593,-0.7006592867980296
-6.57793926537936,-2.1727274206885427,6.496429178350947,0.16137895048458084,1.4700176290352769,0.9940652522380002,0.5363652793743952,0.09622545182091798,-0.5240075982745739,-4.079149716157147,5.866278818488411,0.6198551999550126,0.44742798097840547,0.5421031730700157,-0.646383341879266,0.3268549691004404,-0.6618627588253679,-0.2139915265879073,-2.2059068211205064,-2.2998157848504595,3.9256906583607285,0.42202778824722714,0.21675585991369875,0.18213966213932267,0.13221595665571953,0.28280593798103904,-0.7629633960992347,-2.1857429284759897,-2.5619397793914,3.6953456882946893,0.4681175147166665,-0.7129004933748895,0.17814637398311153,-0.04894619391493454,0.4342522939904162,-0.9205451627396142,-4.79939668552953,-3.3026909989393873,5.583910866746524,0.2798857139575175,1.042343976001174,0.9296831074180893,0.49788302738863355,0.1303865180444167,-0.6881419400854609
-6.0886313158664676,-2.139543650060061,6.960243156664847,1.0697851110739136,1.1696464373661988,1.11325033832114,0.5562656713299154,0.0741170944028601,-0.5175066348619659,-4.157672123224434,5.8164339224010355,1.1104120358816951,1.401220893646931,0.47794105639105844,-1.1142650816507245,0.3436757250444708,-0.6657873471827915,-0.18972405995671277,-2.0310781462293725,-1.95942992328446,4.217262679048212,1.4243631216865018,0.37861426230065925,0.3035894439996416,0.13539718363479103,0.2523749899578392,-0.7705088671459579,-1.842916196622564,-1.1732391271032967,3.6492108752323587,1.4779411976525019,-0.7133963096606716,0.15825849694415745,-0.06776743512825927,0.39824326059943704,-0.9344209614350836,-5.057980929293293,-3.0637578680336612,5.419185686802141,1.172177903352034,1.0342183694387759,0.9494391031543986,0.5105867419147678,0.09265362118242765,-0.681103594282577
-6.13703783828669,-1.6201141301442892,6.848473975432938,1.4014523271039654,1.1648765639728957,1.19552457852843,0.5841453000638376,0.03754411024679553,-0.507415274568184,-4.476106760108926,6.905454437721759,1.3650859129084265,1.8650885114549687,0.3879237643582863,-1.4540655891815146,0.3797063967467551,-0.6517177295349569,-0.15962141716698508,-2.2072222270461848,-1.1232671024410634,5.109858845169497,2.0590085308490758,0.5351662602883716,0.4912132892590442,0.15739398022195955,0.22412891899645315,-0.784690155139193,-1.6959557357099566,-0.7169269415128642,3.9735218543311808,2.1413622235384437,-0.5930413513033573,0.18386609974592727,-0.06700779723801908,0.3682175446648245,-0.9444615236648428,-4.924927623433958,-2.172392473694958,6.08419997419551,1.4513193351773694,0.6836372839939474,0.9975563614286148,0.5345459009466393,0.060227967208773193,-0.6767733884137617
-6.852285850563132,-1.3579231141359447,6.064217295924812,1.007875739078423,0.8554755429773203,1.1852047949518183,0.5937815461914839,0.014977901621204609,-0.4980126060196429,-4.430477497462734,9.235441859291114,1.687495380928439,1.3909339105978866,0.42262124995095485,-1.7356837630155335,0.40795686546439486,-0.6459889996194789,-0.13012443629115358,-1.8045551924102183,-0.799896740071704,6.528530733826485,1.4668225796969605,0.785107676723821,0.48400219819694834,0.175230818877112,0.19446534211104854,-0.783462262980349,-1.2426333516581263,-0.8568696786685627,5.631086349478786,1.5536800074188555,-0.5055436514647528,0.2547737534845957,-0.08064306844324955,0.3382756914391114,-0.9524930380656063,-4.8210613759601735,-0.9395459954729495,5.254439073985513,1.0901648153032626,0.9199344129582726,1.0218376719929254,0.5497690208671758,0.028289680965183615,-0.661899257121229
-7.122275921401391,-1.4113263558229268,5.94144043777934,0.24136279076261635,0.39430141352055004,1.0667849016737054,0.605887161019062,-0.008009756624430521,-0.5010569695045451,-5.226506471026048,9.951978846003474,1.9008586414652657,0.4316276098409018,0.5779814604585441,-1.839676979587514,0.4364673696397194,-0.6324211028335156,-0.12834909027579572,-1.9266157755201452,-0.8843428722233042,7.735119922999627,0.37979476314402677,1.1704112335281074,0.4055371584905469,0.1930161608862314,0.18967768936003876,-0.7841195359482999,-1.291491134588632,-0.7815369374122146,6.3674431823064035,0.4633854203395602,-0.5058658342043761,0.3379977521440633,-0.09707796953911943,0.329344852750939,-0.9585405346794803,-5.697063984301849,-0.16640374491165977,4.992916235671906,0.4047873713230703,1.408432962922726,1.0044129671803674,0.5650155513628815,0.0027292552311119047,-0.6518703129526474
-6.917131797281424,-2.4910804801950426,5.588203783478774,-0.1300989586352453,0.3008435376488892,0.9333174880408736,0.6102145071236265,-0.01785189719041695,-0.4920751721470739,-5.864876161567428,8.385829434771512,1.462460417854715,0.010103613551201611,0.7897195976188337,-1.6714587657911144,0.47958930775093556,-0.6132677333130955,-0.11712120821608898,-2.543898437601033,-1.6222892957889548,8.310662342845463,-0.006900918371227312,1.6026938104078587,0.3775739856438365,0.24287036653242935,0.19560749373289477,-0.7715350753128072,-1.285618164511203,-2.4105299892459104,6.255637229124061,0.10580811567924928,-0.3958404147676657,0.3704450693003877,-0.08821809881859105,0.33709900015231514,-0.9522201820078918,-6.4852757348258905,-0.47698402585314925,5.4241963099509425,-0.002571251532891828,1.242811284456928,0.9028193474345106,0.5970377414639642,-0.007896519427083273,-0.6281599241949031
-7.028152552810362,-2.515232043419833,5.380229746564107,0.21293284396190484,0.5159000262224477,0.7789002486685782,0.6240662385312123,-0.028212745423903896,-0.4855149589725841,-6.434016448839392,7.608838535815767,1.386829172136242,0.3877387049680003,1.0396057522589817,-1.3547697062219743,0.5039320734367884,-0.5950865670267217,-0.11591915654045432,-3.6224502603276876,-2.040550565558323,9.175508879698635,0.3992371639250402,1.9459671021253346,0.36178830697110304,0.28046703928017824,0.19530379615176233,-0.7722732210151547,-1.1211062589368241,-2.8013156796380203,6.859451769003691,0.49578467072203336,-0.1406318502073676,0.26536732286454834,-0.08948497365587232,0.33834011944164183,-0.9658861059084675,-7.114910538438174,-0.15891202167394258,5.872001872715122,0.24224090022504577,0.8142382130721167,0.7247524038727196,0.6094383922468114,-0.016545029451769486,-0.6258296792475264
-7.969282468269964,-1.8621439448829245,4.388273152123378,0.2622196243542335,0.6801868249410944,0.5675224749946716,0.635753257218101,-0.032210270420406105,-0.4798970213514765,-7.311825245185227,7.40509024063016,2.090400714778378,0.4457561657527376,1.215989791038618,-1.077005575209932,0.522681696123345,-0.5921768579800782,-0.09225086274103494,-4.907570926046113,-2.2525445534601114,10.061541668178794,0.533337772575851,2.0895739906670023,0.40293157440167193,0.32407685665112773,0.18305215193336286,-0.7547421956937942,-0.976800828126378,-2.501558875688529,7.8748085083842865,0.6395386745381814,0.32228673323138707,0.20545907298288602,-0.08443478290807405,0.325615426637068,-0.9661621556142771,-7.5406620584036075,0.37908504689031475,4.644753725634269,0.2549011819795337,0.4871697604619438,0.531466210713239,0.6125422396173192,-0.03347717706231651,-0.6152032468831231
-8.188673892159715,-0.7816996423845008,3.908965398763054,0.2787277106411927,0.5219604013299938,0.45877202712256926,0.6413022519726906,-0.04060700598757147,-0.4687061941242946,-7.418872198124493,7.192291833963467,1.85715140460676,0.43634925244803213,1.2085330650591726,-0.9449580180165281,0.544072244293978,-0.5775447109064892,-0.06901929916953398,-5.4226146563971485,-3.1916368585662753,10.397712825098125,0.553942931979962,2.000648999249177,0.4433012354761832,0.36799417260371226,0.17904884919894273,-0.7402805912275721,-0.39918469303351034,-2.9686686070676966,8.880137596629654,0.6847887074475449,0.9002750921736675,0.2093341916792747,-0.05780512641033139,0.3259431906184877,-0.9623611702703544,-7.272265434975899,-0.282703954306862,3.6272767182611068,0.2641170214229568,0.6284131923826904,0.4177738999459647,0.6279639435811664,-0.03634816640139133,-0.6025976422143108
-7.804362540794485,-0.15964238781798468,3.9455616264648095,0.026814854583414552,0.26032414905388396,0.45573697148469483,0.6456327376763474,-0.05164507561190363,-0.4638819836667357,-7.346330327276607,6.378837095098085,1.5324674541374748,0.2021619080943986,1.046819394512044,-0.8966346668934171,0.5659717605572866,-0.5635783429911891,-0.056519255462107544,-5.454404019342091,-3.7053064108144467,10.097711077100357,0.28674076435420287,1.7628855027652965,0.43134766191613433,0.409277672826399,0.18178607667494023,-0.7327677717762565,-0.30110299548245173,-3.5785503347821126,10.044067823786152,0.4437406481428085,1.3985883047575614,0.2777569906774098,-0.021950912826383413,0.32671835182356235,-0.9722673699141524,-6.894944756997037,-0.18716615243255427,4.827645547998283,0.010347577624505408,1.0003373276275047,0.4271485727734169,0.6468217904572716,-0.03803682633529677,-0.5878053221858303
-7.72080366872924,-0.06976497896683456,4.015334260064145,0.14335343652275356,0.3027510791253409,0.5044242085215166,0.6531777103073794,-0.06114645780009054,-0.4727127734112026,-7.931057712331004,5.44843563837817,1.4188471942279601,0.36108094135364016,0.7918059700627527,-0.7690660235260378,0.5661856987349586,-0.5604609403464301,-0.04533846974702545,-5.735234936910015,-4.043505742431321,9.440859056209913,0.394323478290965,1.5160338784157164,0.4698890614233486,0.4243189116978397,0.1691640725562041,-0.7213276568188414,-1.271826388954747,-3.505340243583958,10.84328741098506,0.5398988547948573,1.6652504416639624,0.3033426430625602,0.0011859646479075872,0.31730456052882816,-0.9728568401838275,-7.7269948555442305,-0.5048991885089038,5.265692426883764,0.16888397291483995,1.1323532449568725,0.4590155360117356,0.6492164668018907,-0.053267916333900774,-0.574967286679611
-8.114365370802792,0.3761071433588677,4.259838269267967,0.2704462207991231,0.6329532792542073,0.5650238005905746,0.6648350949652928,-0.06353049937618843,-0.4517034403018228,-8.470909020127136,5.307263619562008,2.0061284528223187,0.42034842765184227,0.4223396399511782,-0.5613102778370739,0.5866751922117163,-0.5597302344771647,-0.03554874722805069,-6.007396251302858,-4.124928425522047,9.58996688103231,0.5232648105044212,1.286422518065254,0.6042489558339541,0.4625764532349397,0.1594997984612058,-0.7121409407704479,-1.4594822407903316,-2.7232784344462075,10.537884958444073,0.7083294838144506,1.873740384555208,0.3881816836174207,0.05583089027239515,0.30990280243347496,-0.9728350550490409,-8.593094967426579,-0.1179442793923132,4.7686144770872,0.27992858612568844,0.7461754444519751,0.5357387184734461,0.6718892922424459,-0.06447604911259278,-0.5651321421886881
-9.447070355664277,0.23738512677500836,4.038824620770286,0.2895664929949153,0.7395937321386729,0.6381859070990324,0.6740004334342564,-0.08219465277673042,-0.4413003993238024,-9.136621728808665,5.766513307364124,1.8580210053844461,0.46558893162207576,-0.0021263495615974903,-0.47856769230544177,0.5983705518331149,-0.5512397450325369,-0.04153191539523624,-6.943552929803834,-4.244883462102134,9.303436153976572,0.6401519426864246,1.000233124755602,0.7715225512377724,0.4886300638457995,0.15047698815841534,-0.7139492901220801,-2.728249605746052,-2.828075592086954,9.27356883532702,0.8770010077171769,2.209965183605932,0.5097692076181667,0.1055371391428728,0.29863193228338764,-0.9813434703707098,-8.940468132747752,-0.307559468000959,3.8649448352303675,0.27009478673987225,0.518264481648285,0.6176157763867252,0.6789116378232177,-0.07135233729718168,-0.5669157622005453
-10.651813178510327,-0.5173189669973559,3.478766239470473,0.25070458802215817,0.5823991512467973,0.6886324113695567,0.6876197351575715,-0.09107714305980771,-0.4366845123082505,-10.03436399309786,5.543827211421518,1.4807849486351639,0.42227619810583206,-0.2707564385608205,-0.5191471508851269,0.612253495665717,-0.5414638320165481,-0.04411341829948326,-8.222618117666467,-3.021177233305319,6.807517356437717,0.6151323552309478,0.8741581875156549,0.8513207353179956,0.5137103743333675,0.1418167164481133,-0.7091705474264615,-6.30922376909521,-1.2103103953740022,5.755726546359519,0.9153023532216176,2.695356231543236,0.6926284881753086,0.173165148221246,0.2921210200126796,-0.971852128026309,-9.889870207523831,-0.3630357665726229,3.6553383476932138,0.2701389668168473,0.7203471003000549,0.6536557453235066,0.6950535061110208,-0.07766344794193941,-0.551650050438271
-11.905284273519504,-1.319121935902132,3.345592810878362,0.148554930932027,0.48395577248279686,0.6248058318912846,0.6990260077928161,-0.10143562319842032,-0.42866608591721594,-11.392285943509084,4.781063323024085,1.993195232000173,0.2793200015888155,-0.3420103158027411,-0.5608470779160157,0.6198269568708091,-0.5452382192554712,-0.037933621187472386,-9.713189661602934,-1.2298959821666926,4.309830450287128,0.5582517697285513,1.093839299497717,1.0359098420530064,0.5344609358757598,0.10973267550037522,-0.690811251657308,-10.303696028534008,1.2005753252510567,1.0532015317601169,0.8246820983714531,3.258382473210115,0.8765014617721937,0.24343460400578068,0.2665362143958068,-0.9450541809912811,-11.481423393291692,0.25061360460491944,4.503033241112168,0.1676517682234427,0.9822762446920257,0.597764739253065,0.7060154121822066,-0.09766357532534123,-0.5271620412310243
-11.602982072166164,-2.4147224505938363,4.288654758581266,0.34139333757117807,0.7435364162829694,0.5382480356788035,0.7074945127086317,-0.11059757752234048,-0.4145420265695211,-11.293199061304067,4.612298339899924,1.2224959514789107,0.501309690511336,-0.22638948283725938,-0.5261661083584791,0.6137151859345794,-0.5423646566807191,-0.03994529192395979,-10.465116820665436,-1.0852232272465492,4.068682054277519,0.7846742341237064,1.4968876474684336,1.16029797430565,0.5520959674026731,0.08516281798679443,-0.6772163293034617,-12.485691089367982,0.14289402255582148,-1.1808981758203316,0.9915185091440156,4.134357194386686,0.9769619221591376,0.32031787171197473,0.2462850827288068,-0.9209633651058958,-12.272208613879943,-1.796291303295984,5.230666029716688,0.3353439432072729,0.7982344480755138,0.5145352421960785,0.7039932695161355,-0.11283690062548479,-0.5186977014236868
-12.819324372734464,-2.7521099725979052,4.803697288744711,0.10463626802077318,1.0521895361695555,0.49904713976835957,0.7228070077440947,-0.11856576853324563,-0.4013721728572487,-11.800361713282753,5.443567066550284,1.3099531648179776,0.18378341945301796,0.06631147961298262,-0.5614337893355664,0.6415320293608296,-0.5324794904489164,-0.05373770285784307,-11.754273395361066,0.16041460631266602,3.9431198649093284,0.33933644240147426,1.9026113566682346,1.0998242825453397,0.6054935597649893,0.07591440074130616,-0.6653543263376361,-15.546238048593757,0.6287269439156137,-1.3082398342117023,0.4344954503634972,4.9988228676070054,1.0861114005845378,0.43982813260845005,0.23992933353000354,-0.8806698863955846,-13.011687232192005,-1.1489516133071136,4.877447853829041,0.12280631852433041,0.2778950029526208,0.4694430081825307,0.7248996846507848,-0.11829561724974463,-0.5293284060115182
-12.919263435621,-3.2059875477537805,4.6063077179944205,0.10878919480145831,0.9963695879469318,0.3191438986897791,0.7327702840417865,-0.11897654277192304,-0.38230754920660476,-11.150335213289589,4.92420309356737,1.1961298652478163,0.14606534190115855,0.4929935117248139,-0.8430678822197732,0.6482929208585876,-0.5220772142114163,-0.0319242501225633,-11.810525906084866,-0.20196559565266822,2.599030912037967,0.3228905706659022,2.215927629108109,1.0402130098342188,0.640771409358027,0.059194378396598274,-0.6269908478993677,-17.63242397962234,-0.6708647449709989,-1.828620822072759,0.3458301523581745,5.724242928410517,1.0619419177093048,0.5507029499656464,0.22796547003276094,-0.7929851686437,-12.166346855226875,-0.8106696681758556,4.009552613449385,0.11258410239357823,0.22909972173052373,0.2971775466505316,0.7232225945628492,-0.12349610516024656,-0.5149470180280977
-12.209789744704239,-2.3434904767228186,4.80181932978758,0.0556362152767758,0.6455064457704875,0.1972187502760042,0.7356812583313859,-0.12313874272231184,-0.38257071504457457,-10.832199084908037,5.3764240205819664,1.0280068271761167,0.05749620835051882,0.8789463244369305,-1.29332717269882,0.6604237413292136,-0.5055360842869001,-0.023878392211208323,-11.843517686445706,0.4724604522817666,1.402686769961298,0.17154900492201167,2.5356174767309096,0.9517217463439844,0.6792619854124288,0.047708835407246214,-0.5953093338850398,-19.21913739830519,-0.15279837608026714,-1.3191716827142175,0.10029385937200519,6.058174840705634,1.0101485943120148,0.6425847501611732,0.22172480077645848,-0.7013128470026357,-11.405315174771754,-1.7997804416846377,3.8454119210068525,0.06885979304517344,0.4418345868208619,0.1699932903135124,0.7202696807747258,-0.1266475004743499,-0.5151957362103011
-11.01114061902951,-2.358959377615432,4.254938779133799,-0.04771913691575963,0.3927893504246,0.2433121751660525,0.7461130230568729,-0.1289083495782001,-0.3659796395688686,-10.709201468891704,4.038809652264363,0.607313920681841,-0.09820729346839366,1.1132882332172003,-1.6657841695408016,0.6922702785529192,-0.4779879803536015,-0.004507828163165979,-12.198719259863223,-0.37900588846261335,-0.3214531080013622,-0.11199452597520343,2.9832774536717475,0.9229716432368901,0.7368220592390257,0.039151834287297904,-0.540486005092363,-19.840752934563536,-0.6432035017874336,-1.5139020061165724,-0.2921265749735565,5.882452534047289,0.96445713956705,0.7387383326203737,0.2215420083892404,-0.5879225016455246,-10.423247513966144,-2.8374003858284276,4.842074312698663,0.005318744545041663,0.6541420942191546,0.21201203687772857,0.7405801652576383,-0.13005559467649586,-0.5004206144517952
-10.687060784071726,-1.1696942260521104,3.7998357216085767,0.14572411433217625,0.42299009829819245,0.29012217023658904,0.7500041580990318,-0.13475195691144684,-0.3713781281924101,-11.484176146990604,3.1894979642694006,0.49104868017268977,0.1960590319641011,1.2250905221251673,-1.8667047023003893,0.7199334215712538,-0.44191098446526295,0.01471396444366349,-13.667650042943652,-0.5412122301209349,-1.5797882537719707,0.20567322023173193,3.5606962087247855,0.9278467721382913,0.788277162782381,0.030381732483642156,-0.48663357636629634,-20.61415814190699,-0.17997516004233866,-1.322912259027577,-0.014004274034880464,5.2667971959810735,1.0147853668868365,0.8096936132567926,0.21760836380082596,-0.4820050811517311,-10.64641464713645,-1.4008813111059075,5.473123058325262,0.17472247927510967,0.7422170683805536,0.25698423792430436,0.7523442721915884,-0.1282250862532641,-0.49387366340882377
-10.571728904590934,-0.31328333762010335,3.0403021326505053,0.1725049755768697,0.6936279758816727,0.4244825118300133,0.7677390362772126,-0.14374441678520228,-0.35234878728359315,-11.94538037048215,1.822017929876723,0.2859584443471802,0.2522875990886733,1.1272754365955036,-1.9537006461135467,0.7307991959627169,-0.42118010511542353,0.040023032171579195,-14.926393857055865,-0.9138318972911489,-2.3712515827191822,0.198153779953666,4.113495997931401,0.9854157963181939,0.826142979512568,0.0002768227476229552,-0.40091967869420336,-20.726556722720254,-0.21679661742885728,-1.110685729752615,-0.05530392294527319,4.3955461781509895,1.0695089997242153,0.8436183627254075,0.19021622475739303,-0.38255545342936625,-10.691329658654748,-2.5204091827365165,4.662304927770357,0.1994589114082414,0.6001473758476773,0.3901760878962037,0.7512952344671417,-0.14832610224518394,-0.4790951959326181
-11.427877183128908,0.5101578868701616,1.7827847543183277,0.10847979146583525,0.873160549410397,0.7001159796504167,0.7746700599703861,-0.16852088658691214,-0.33881634257727233,-13.060274787923992,0.107819979863591,0.3333410014836647,0.2655386108267515,0.8445934146892862,-2.138781021529013,0.7613683266093996,-0.3817999248051598,0.06627545665460866,-16.573279368853065,-0.7283866561586714,-2.6297753153721,0.16870795348712148,4.345341218122041,1.0745581103248223,0.8794780994362331,-0.018608197311588318,-0.3088059951390907,-21.151988424227753,-0.11569758420762424,-1.099235593850851,-0.08588291256284161,3.6080409053319245,1.159524926704601,0.8804784563292335,0.17062943677027248,-0.2933631220220935,-11.187490597221423,-2.0446849144400114,3.2401055688029192,0.12244578754429124,0.48342901148571843,0.6658591933168749,0.7619978316798494,-0.16165652100246597,-0.4675075174482086
-11.247761817619406,0.88499830375914,0.7506422144107455,-0.23323545538598753,1.0159801656068301,0.8770904416936769,0.7765376844783601,-0.17357681486090765,-0.3127200095976097,-13.05651780714467,-1.6049312776527285,0.3916389388544703,-0.1427995803647204,0.5670434059178553,-2.4218482871717497,0.7741207008875867,-0.33103821471230016,0.06178505971029426,-16.633860163230807,0.002419179185853333,-2.4229654199489055,-0.31322676069736977,4.123987187542353,1.204003258325971,0.9021147771947259,-0.028932324585364738,-0.23001407495628878,-20.106706254696473,-0.02052873751213914,-1.006317104535591,-0.5501052270520566,3.130570135263495,1.2129562161382035,0.8904212233805759,0.15561682425248557,-0.2265221427896382,-10.547248362233145,-0.47731200901996035,4.0317288157514435,-0.17164307243520963,0.6485091460219365,0.874485638228496,0.7592825413679778,-0.16800437783728125,-0.46411434177828753
-10.288132899046287,-0.004416338743150946,-0.08896851654123004,-0.4658410500702529,1.3421296944241876,1.035809642925901,0.7942287525713408,-0.19353657001442273,-0.29668862681441693,-12.407721124739831,-3.192815956948146,-0.10479253890994472,-0.49562690806136256,0.4050179332217993,-2.6309542496646108,0.8037059541771707,-0.2824321958849099,0.07054399729099078,-15.61603188375982,-0.10650343952015247,-2.1166456367576276,-0.7162871857861773,3.5993066502506745,1.3008835140571913,0.9251045745664763,-0.05662925230769275,-0.15312696161764147,-18.306739582449577,-0.6161619771533094,-0.956407882161394,-0.9375280246956986,2.935081497744261,1.2608490187482742,0.9025157815672257,0.12568736630079816,-0.1489607339384065,-9.717998408185418,-1.617080371516678,4.463262629147785,-0.3312908141377365,0.8898207288300919,1.0422740123874523,0.7712118314050043,-0.18381359882443585,-0.4476631725495727
-10.181533936732821,-0.885149045921199,-1.148802944280544,-0.3921839487911911,1.8544578431894074,1.2128506489159494,0.8073047359243269,-0.1999079209576555,-0.26398165391091216,-12.258558673385185,-3.9273833393691584,-0.4562438564149661,-0.5002371661889582,0.4011551006675637,-2.679635282127521,0.8213396025875135,-0.23585318713552844,0.07760844735206829,-15.026730789410623,0.33778338668405544,-1.9552567316797669,-0.6899119819005397,2.973167345204797,1.3114871069697684,0.929774460510204,-0.08534102050460349,-0.08696133064294706,-17.130877659281104,-0.9183448806486303,-1.0589604462769509,-0.8990595536442999,2.8776372803376686,1.2768444804018764,0.8979322759048672,0.08976338826566731,-0.08159310942948857,-9.168356828716764,-1.7392925106306112,4.313526672255655,-0.2212591047180249,1.005999079299256,1.2025857777025417,0.7743201248314708,-0.20617042591407767,-0.4280358756277131
-10.061340016816398,-1.6731083989567834,-1.9938702332557285,-0.159087481900917,2.3361122154254157,1.2539856076640519,0.824872694470402,-0.23393176130018112,-0.2243582426257929,-11.944711101830373,-4.0491053782277495,-0.5114527534810576,-0.25010408457892186,0.6164097863553111,-2.620912372699122,0.8365631851725215,-0.19852748781372612,0.08677594267063003,-14.25469961569844,0.609276933120636,-1.9901201741500136,-0.3359314171426945,2.373141436968492,1.2158333877063998,0.929733363337234,-0.12293039819684562,-0.042621023554110335,-16.065427808405992,-1.2606431553994861,-1.0593773752747089,-0.5236905290047674,2.846694640921261,1.2118704983928283,0.8820407170061789,0.045855013650315565,-0.02200138205556982,-8.319563465292319,-1.228304702452907,4.07215303866374,-0.01024103631174683,1.3401118304423545,1.2263651527084842,0.7805108372797777,-0.24223017513700423,-0.40703904083382036
-10.297921947767223,-1.4901236045155621,-2.3847078112646543,-0.1534255099341002,2.6870727902379175,1.261236479454775,0.8324123551509854,-0.26434384873795197,-0.16935375826770582,-12.143882441033709,-2.938235918105813,-0.28251987795561856,-0.15165227788265764,0.9264109134878811,-2.5031551508153767,0.8455936717193624,-0.14389663212793374,0.11005045984640513,-14.029936383450025,1.3686606988448822,-1.8047916538685718,-0.1002938267935735,1.8972007858172015,1.0487068953805414,0.9286160027390484,-0.1418337628450653,-0.005675147853701488,-15.593962087070524,-1.1852780873737145,-0.6447787701683992,-0.2679168398745084,2.7160486868511287,1.0684224812862726,0.8643145313165466,0.021733311268585673,0.03810537197510399,-7.938598538783418,-1.5577180383148537,2.9662237905310342,-0.0009832131161663883,1.8487246521413425,1.2349008505166885,0.792296503645527,-0.2591491047006265,-0.36788914617577007
-10.749023679900489,-1.6121650023406424,-2.5234056245612924,-0.2186519234710876,2.885928654110384,1.2642301371902285,0.8475631977963248,-0.287684921362989,-0.11843685799040193,-12.560671327877866,-2.604816917069036,-0.17046641157083411,-0.36726238974570213,1.2564812476884895,-2.351820739017847,0.855156927416013,-0.10356776528423808,0.13942501908708044,-14.292026404827125,1.2310974070326381,-1.9920498493029297,-0.4106552415135681,1.5499504226970344,0.8826498851734575,0.9247828659035657,-0.16428274191983788,0.022539931332806025,-15.536097056300855,-1.4167199674016038,-0.6715734066500081,-0.5930286955574463,2.425922176248234,0.830341645474599,0.8460116330855251,-0.0057862476941811436,0.0811210440242499,-7.842209271047513,-0.8840476334666966,2.641613908383161,0.03959042071100554,2.4378322848239984,1.2191977609131877,0.8074802634604269,-0.2856738952187186,-0.31880151725712336
-10.492868975703685,-1.3826879876309344,-1.9180835885946772,-0.2833890964267318,3.027520657073675,1.203527373154689,0.8467756435984767,-0.31595627672994486,-0.048058468351957234,-12.562927913062264,-1.7131928638859957,-0.010562015246804543,-0.39095933193220544,1.6099973381827204,-2.19378990574888,0.8552083945896052,-0.06781964407649818,0.1744769743427688,-14.116030788820229,0.9900318887830724,-2.082354642721785,-0.44171970390379156,1.3515196753315006,0.7333016748917066,0.9216391447195873,-0.19229150770942638,0.039859905988139155,-15.025329571944676,-0.9788320784817444,-0.6339336294486264,-0.6054597684393994,1.9793985180338693,0.6583399606256868,0.8285920555706019,-0.03426846707380429,0.1019151245139613,-7.031225146274156,-0.43203160759479825,2.757756258409184,-0.014374443055151537,3.092702221350036,1.1632853547399309,0.8261226457370646,-0.31325989962582573,-0.25972744303752365
-10.570012980358058,-0.6169689508156951,-1.1496258040647602,-0.36759695904034484,3.1177663863390923,1.1430621203527704,0.8504566526324523,-0.335131480400359,0.008960332185145681,-12.961837532536908,-1.1215135237638625,-0.021263595327922578,-0.4160704720706457,1.8505511201395546,-2.0770633708041144,0.8447534348205787,-0.03274143808394224,0.21562627660382605,-14.372344529928183,0.14985977911036194,-2.206931544615164,-0.5001375461788098,1.2946410385372367,0.6593568045803908,0.9115094960340299,-0.20789518999570533,0.051114005090957246,-14.978109016939355,-0.6545581811178697,-0.5334531075977093,-0.6445305860620898,1.390142297801804,0.5672169871167291,0.808981297747013,-0.05222552169466516,0.10856673822252645,-6.973986953949062,0.7102185155063595,1.9133698249826718,-0.09010489291237181,3.5456719641522363,1.1097578956078984,0.8321490204930785,-0.3344493668786798,-0.19347474870861123
