# sampling frequency: 40
# units are seconds/meters/radians/a.u.
seg1_acc_x,seg1_acc_y,seg1_acc_z,seg1_gyr_x,seg1_gyr_y,seg1_gyr_z,seg1_mag_x,seg1_mag_y,seg1_mag_z,seg2_acc_x,seg2_acc_y,seg2_acc_z,seg2_gyr_x,seg2_gyr_y,seg2_gyr_z,seg2_mag_x,seg2_mag_y,seg2_mag_z,seg3_acc_x,seg3_acc_y,seg3_acc_z,seg3_gyr_x,seg3_gyr_y,seg3_gyr_z,seg3_mag_x,seg3_mag_y,seg3_mag_z,seg4_acc_x,seg4_acc_y,seg4_acc_z,seg4_gyr_x,seg4_gyr_y,seg4_gyr_z,seg4_mag_x,seg4_mag_y,seg4_mag_z,seg5_acc_x,seg5_acc_y,seg5_acc_z,seg5_gyr_x,seg5_gyr_y,seg5_gyr_z,seg5_mag_x,seg5_mag_y,seg5_mag_z
0.7834731491071555,0.13281901033335514,9.714674565146234,-0.0027272788532585177,0.0015946609521086195,0.012949214821926036,-0.3548362981829567,0.10798270598262603,-0.5801683481546418,0.06248810529790812,2.351556527224714,9.536010675667269,-0.010119631238578968,-0.00627748446499516,-0.011126152721714778,-0.8753421330002057,0.16016806818803436,-0.2768713964597344,-0.3173299823734386,-0.48055161637502974,9.696161918115756,-0.0037218751097714826,0.002783844617795875,0.005393712711225213,0.022523792405203708,0.19449994603446438,1.223283142735678,0.24641262237995618,-0.47731568316307826,9.892102769779456,-0.003929426951814153,0.0050795173572842165,0.005646954687918516,0.5468574183763061,0.18948223334422293,-0.42296767100180027,-0.41972691228143405,-0.6140916405298714,9.784963496177594,-0.007492439366225661,0.0037027563181643644,-0.0024233416993329473,-0.12100077500800992,-0.16149066771664278,-0.1295244056110424
0.7917622500883363,0.1417623965976646,9.718822528146449,-0.003606986960707837,0.00181368356488563,0.01035135498337041,-0.35092823712835924,0.11183260583327033,-0.57548357111261,0.07369885527183141,2.3304716915037065,9.532969851331611,-0.009993481510540055,-0.003762378397562788,-0.011238080000251238,-0.8714405232534116,0.1606961208975204,-0.2756526267030839,-0.314227194652879,-0.5061321795588339,9.71449742499614,-0.00541505099487139,0.0024688133998696754,0.002128300523790359,0.014446270438143265,0.18842616413720803,1.2218056102195496,0.24113242015100841,-0.4671487761113934,9.88503177187083,-0.0031844539818926287,0.0025689133966647903,0.005905405896095911,0.5394752115684321,0.18172343104595218,-0.42247701068943666,-0.4153980985262344,-0.6175137637607216,9.792906680996396,-0.006944249560158151,0.003773556388893885,-0.0015051993974492138,-0.1290859376208735,-0.1673209702410881,-0.12835509171092851
0.7822885517507238,0.12581811211844057,9.72763554455705,-0.0029330708601494194,0.0021721746201699703,0.010859845153078003,-0.3519576717322322,0.10327592151482011,-0.573357582431846,0.07135057503485544,2.337165115881331,9.531213633796778,-0.010093389584855556,-0.005107757917940755,-0.010384593431619887,-0.8714112885460109,0.15366215955399132,-0.27284938605169096,-0.31075199669154563,-0.4814589529993635,9.701497883878291,-0.005449513337253638,0.0028263800016894345,0.0039089407098528315,0.01619106457665789,0.1984306219950474,1.2232662684221833,0.24915423027023176,-0.46714772064775634,9.881035288879858,-0.0036638282570646994,0.003742707763459559,0.006731556662472194,0.5399913506460731,0.1898056492504802,-0.41813169777240444,-0.40667374905539433,-0.6025287394329101,9.789960557915881,-0.007490430006677774,0.0037037497612363115,-0.002424329396184269,-0.12856316649247304,-0.1582899258378781,-0.12834166284051218
0.7740850284917113,0.13072284699909548,9.729732634895905,-0.0025364595241805475,0.003100536490985264,0.011445706642678842,-0.3519259039531369,0.10551298433552404,-0.5784671302341896,0.048370154810669766,2.3374506946741493,9.528516536083877,-0.008356061413595333,-0.004962484018229985,-0.01038515859392793,-0.8699553505505628,0.15678035786854042,-0.2765617278765441,-0.3115049540776721,-0.4827811042769603,9.701407329067116,-0.0056503472830813145,0.0030689679757427797,0.002419305922044767,0.015453144987033063,0.19378995156564935,1.2176524236037938,0.23457857312866315,-0.4808739027099635,9.896020649432295,-0.0030688339691462064,0.004392125758694855,0.006659182186246559,0.5370806486342785,0.18538221624432394,-0.4256909934564336,-0.419191339696691,-0.6079963279981846,9.796485760197635,-0.007026498181227639,0.004818602062329716,-0.0037974752763008887,-0.1305081230542193,-0.1653549374268609,-0.13470880256101925
0.7934767002253661,0.12585612214668718,9.721315800658193,-0.001978692689863419,-0.0001942365752659941,0.009880041416507827,-0.3609386559760092,0.11140021122810399,-0.5760145272313589,0.06432608860244719,2.3424701426176924,9.538234191159795,-0.009783531092440262,-0.002807708680368482,-0.01156476724060792,-0.8790084273790125,0.1606599293742425,-0.2756645144847964,-0.3030097598249273,-0.47391422238319764,9.702516497264552,-0.004834676829109988,0.00350017218622024,0.0028887200668941968,0.014781768460766148,0.20623914688190595,1.212025858084965,0.2507039312244207,-0.4606798624572654,9.891477294883508,-0.0030728822915400992,0.0050145283434067465,0.006712055938049806,0.5376773824640191,0.19706895860659746,-0.4299142776872525,-0.4169066101260085,-0.6258845984475979,9.779067323410212,-0.006479308352319315,0.004889405990167911,-0.002879338524535682,-0.1292304066294746,-0.1538818914921475,-0.1371293735097612
0.7738187511025749,0.12918385252078468,9.729773529244705,-0.002928916155051005,1.5153669665024614e-05,0.009446910845508014,-0.35948819437703444,0.112813440827488,-0.5703825099862393,0.06710572400345305,2.335305362751796,9.517647850700385,-0.011076994209492931,-0.00566669244975596,-0.010215832857028291,-0.8778248771583342,0.16708539064131409,-0.27137555862345963,-0.3044931747043564,-0.49945553824346584,9.675250939734555,-0.004738382975062363,0.0025932267746410723,0.003432665389595063,0.010595543126751684,0.19991231443078689,1.2169049571399466,0.24108905502141215,-0.4720478015485384,9.893725150398868,-0.003651690244475894,0.0018745000549252736,0.006572941951857231,0.5359164767831239,0.19541207634781113,-0.42381066151620195,-0.4128923259992095,-0.6016199939135288,9.816255498462969,-0.007707676990545252,0.004184996854941112,-0.0027669807974672164,-0.1300077863436692,-0.15828000628761268,-0.13201273476681005
0.7902206813679428,0.13724877660903623,9.719013089104044,-0.004255500822238013,0.0021970266753788712,0.01125183031953492,-0.3558438245335769,0.10816973268515113,-0.5721135536404813,0.05930238788900202,2.3469955897782975,9.500670793548046,-0.008450838582015487,-0.003408998730201441,-0.010164299479954503,-0.8724172500612746,0.15907265908743548,-0.2702552871275154,-0.30822012181036723,-0.49062263978219905,9.694328770534778,-0.00521621833363879,0.0022242307919476856,0.0036149325968767836,0.017930029893192534,0.20232439375385017,1.2164308493334777,0.24485509686746917,-0.4610807931807317,9.88267813400193,-0.004181901588922068,0.004546112422479764,0.004403757707089055,0.5410559843776284,0.19511816733674842,-0.42597305560129534,-0.4166498024068457,-0.6249835663525745,9.813602356187944,-0.007270157022149892,0.003223495749715962,-0.0020856600933152445,-0.1241355446877794,-0.153420783329071,-0.13099743718776552
0.7749408345142742,0.1528651846209155,9.710272712113607,-0.001982848601224996,0.0019588237194528824,0.011287944501136108,-0.3484993761767591,0.10841145113155047,-0.5767218214849871,0.06274699737253878,2.331537738458662,9.526999075130519,-0.008602078532592025,-0.004199951413286436,-0.011424481740768492,-0.86702700038307,0.1568107311511422,-0.2755802637863967,-0.30508968706563494,-0.4776243507530177,9.702270011660875,-0.006500483544926764,0.002993328760354392,0.0037285335742851533,0.019625499204781578,0.20061133068717282,1.2196099115761911,0.25677964233447964,-0.4624425308633412,9.887453650192768,-0.0017339153733164732,0.003152342744423442,0.006897132643342281,0.540518099441533,0.19050045367291338,-0.4232600385880142,-0.4024302025219765,-0.5845864855681221,9.776943829714439,-0.006806221346121353,0.0043393480426916035,-0.00345880478662653,-0.12562008090120597,-0.15805366759042994,-0.1305230748242944
0.7727589325628481,0.1262783099913093,9.729896587248348,-0.003330674190095873,0.0012408651530128583,0.010267956423333106,-0.35809252207726283,0.0957566415277907,-0.575637807359509,0.07324872263830817,2.3415917033762703,9.521478257901357,-0.00879077792007988,-0.003987867799277921,-0.010353193226020576,-0.8747972078559231,0.14844190386711256,-0.27740719857420354,-0.3081960192887471,-0.48460527789785374,9.689854929006373,-0.004027252612871086,0.0023600735475927098,0.002956390069337293,0.017922948258198422,0.19914843772082078,1.2139914040836903,0.24241579614481262,-0.4759122024251969,9.902434711458758,-0.0029329932082089384,0.00310032533396963,0.007148609351765303,0.5415259058349469,0.19144652237829587,-0.42692181169377735,-0.4106033431813294,-0.626151109923108,9.785166123493632,-0.006369705205463585,0.0033768508026928907,-0.002777490819398419,-0.12315035396987889,-0.1590332467416897,-0.13636959212702215
0.7933265197928481,0.13695384144006834,9.727626380688825,-0.002531302179119003,0.0009425259805935073,0.010030768467764253,-0.35536160714392034,0.10887809051941154,-0.569420996200471,0.08661600829795833,2.3423945321122943,9.518323431580635,-0.010225367515257046,-0.004734932885814951,-0.010898127579761304,-0.8729239441172637,0.16134057226751417,-0.26589948674856656,-0.3010332548566453,-0.48450182378418666,9.69526533868925,-0.007273442829399883,0.0037748583712597407,0.0018772241966216205,0.020830766130031805,0.20036812542429727,1.2264477317580187,0.25904780257381305,-0.46520720665966475,9.896197149370437,-0.002123230725600135,0.003910745145641819,0.00516450188224445,0.5412300688856839,0.19272869193688183,-0.4178988145906809,-0.4153008032440006,-0.6014769147342053,9.792827909626093,-0.006040777297462549,0.003927903358648205,-0.002200012238052602,-0.12272087943405523,-0.15733980028930625,-0.12464604416849061
0.7922170422237347,0.12545016290797545,9.708652156758612,-0.002258152036637852,0.0025267075820244005,0.011362308047855802,-0.3538602832038443,0.10797564508471603,-0.5799205379363922,0.0661871848621449,2.3464476048658773,9.528625293367831,-0.010990051623973594,-0.004331239607579537,-0.011061173435225106,-0.8724039025046016,0.15916943555729626,-0.27904713068604237,-0.3031858737621953,-0.49465515370511515,9.699460934995408,-0.005216223960195403,0.0022222299964855382,0.003613934205239945,0.01694389648619221,0.1989090309142869,1.2149664851104347,0.24501374742389442,-0.46537301047500457,9.891399841673005,-0.0037966345590322984,0.0044101126059732775,0.006189262219990135,0.538863046905766,0.19291714807470203,-0.4289020824793903,-0.43109272984973523,-0.6183187439390622,9.78735147519176,-0.0076371507352330035,0.004468888636169784,-0.0037452739559133146,-0.12755953782577015,-0.15779928802218332,-0.13297459085993818
0.7807718224045452,0.13879170322914197,9.721260931566226,-0.001857391318563339,0.0013000170804490629,0.010539250783630981,-0.3531338546070362,0.1111016541968423,-0.57427696419942,0.06651940959535825,2.3308662789879397,9.518625361187453,-0.009222507079475669,-0.0030102544354813016,-0.010322273267196829,-0.8734100384952267,0.1627130699768607,-0.2712950379060992,-0.3173970287597729,-0.49293880512638844,9.700705834666518,-0.004158016596922311,0.003622585576798028,0.00419308653839788,0.01987956538125334,0.19913984287762507,1.212775636193656,0.2529167388087039,-0.4750726835894259,9.885705437257704,-0.003667883534051464,0.004364110393772842,0.006784436959070222,0.5435164552477597,0.1933618011502585,-0.4305835165236099,-0.41895408674360274,-0.6019023665403604,9.805901331650649,-0.006693540444828608,0.005371643835243044,-0.003223972056445134,-0.12411084232342774,-0.15756221419905186,-0.1383262444674233
0.7848509091202611,0.14035957251861264,9.729769655880528,-0.003675326444290118,-0.00035489645717706096,0.01109512672449418,-0.34881991452526595,0.09763105525432196,-0.5716803386775811,0.06941932027971112,2.3327496191269486,9.532070512132817,-0.009745155194584841,-0.0033740618925196596,-0.009442918912015647,-0.8706438207625016,0.14657756650041046,-0.2732175279624113,-0.3207964218118661,-0.4724668767246144,9.698874875248613,-0.005320757997100044,0.0015588717397879812,0.002667243939947438,0.007915740400527551,0.20016517829025582,1.2149459555531437,0.2515784262790776,-0.466395879887504,9.88740153456958,-0.003540125508716236,0.004319115047268619,0.007379598538605905,0.532510145651113,0.19198245746290737,-0.42918166808140046,-0.41229857816850163,-0.6012944147032032,9.777611553546704,-0.006542784333224273,0.004608495342674642,-0.0019080028420998595,-0.13413693462819506,-0.1585034452259071,-0.13594199442802504
0.7835902848575594,0.12355954841717345,9.723642841972849,-0.0034551247990548093,0.0018957215317725814,0.011009622904392788,-0.3653876885374112,0.10527474863605174,-0.5702208631661102,0.056341919911204866,2.3450551085258766,9.523404622435004,-0.00913470789392413,-0.00456970530202796,-0.010539043416994624,-0.8848440655261995,0.1541226676777967,-0.2706819643418195,-0.3106620896082081,-0.4938527446448683,9.70605214499994,-0.0050782210877982755,0.0025280231096230107,0.0027769821282559426,0.023015587925398952,0.19547403899308355,1.2232834152873888,0.23273318423472222,-0.4690021244371602,9.895318255332436,-0.003065806464769411,0.003766730222084739,0.006606321454078021,0.5458837628944229,0.18973136647369096,-0.42321971997799385,-0.4379679646815314,-0.607383123218496,9.804154300741757,-0.007920894146014735,0.004668233165603925,-0.0031136075602402257,-0.11952026253053134,-0.16027405224453556,-0.13146779532930777
0.7800066929213332,0.13090977385745514,9.734195665898776,-0.002202052763509908,-0.00029675231835545377,0.011367413192466836,-0.35609482751806515,0.10574060322771248,-0.5735986302650303,0.06453791433407721,2.3463069137057486,9.528575920068278,-0.010662077787373759,-0.003762292434526578,-0.010864132127928817,-0.8770335817847211,0.15510317176564883,-0.27263876899681416,-0.30744660732683043,-0.48056775885679515,9.714025337416336,-0.004167256769863293,0.002052285800586594,0.003790339431599655,0.020823252631624063,0.19450342794786396,1.2193724545155877,0.2415517071657749,-0.47473757293763885,9.868142808991799,-0.0034500600166128682,0.0039037164911940587,0.004819817054427353,0.5451613262595616,0.18948117350890492,-0.42493189105267704,-0.4159714812429106,-0.6018937813231391,9.790675663759838,-0.007156459479744631,0.004255791181379905,-0.0018538217646964477,-0.12074634814129177,-0.1612456191512296,-0.13123173427596924
0.7759936324944969,0.13274136967460395,9.712870337840968,-0.0021856340604697127,0.0025353451191539277,0.009195578822482956,-0.35467878514760565,0.09621421712215514,-0.5739116698358637,0.0702028731894747,2.343431944727116,9.52084832305895,-0.009233603169157976,-0.005917113230233583,-0.009687521485659292,-0.8735792350016086,0.14754857891274245,-0.2727505684995624,-0.31147387083928346,-0.484438420097649,9.684988697025963,-0.0050782189267335395,0.0025280222983544713,0.0027759821309201248,0.016177003655391698,0.19183431676958979,1.2179005751153409,0.2615798327005412,-0.47926915477245113,9.890437208684055,-0.003921337646997154,0.003832705688565043,0.00554022031719714,0.541223751549727,0.1846221824571311,-0.4254137555183249,-0.4231240816813591,-0.6089856355685468,9.80528490396355,-0.0070478618646991975,0.002743238685606499,-0.001750979625784002,-0.12540490549484348,-0.16342727244578076,-0.12906311852253505
0.787264463180992,0.12875609419887638,9.719368898760042,-0.001333333223004831,0.001567561859743662,0.01037641066710009,-0.35146886008751277,0.10834848447244332,-0.5667236616291128,0.055357372605133605,2.3426551700299867,9.54633043449953,-0.010515818949518144,-0.002976312663949828,-0.009600874374106089,-0.8685101161916036,0.1569877042264849,-0.2645981205971517,-0.31905710423645256,-0.49016508282369003,9.696017984413018,-0.006129183507850054,0.0026969718524815756,0.0025965733869892853,0.013784402597542829,0.2033173401538608,1.2161770841422674,0.24237682069875438,-0.4626466244783242,9.901778000220808,-0.0026845947118664063,0.004252133035891535,0.008444706263577125,0.5388537051024818,0.19366359401896405,-0.42670996838952036,-0.4122551633273043,-0.6069044210134789,9.798502593237208,-0.005793138235413214,0.002983139808735375,-0.0040517675484819885,-0.12925293468418853,-0.1533990162522338,-0.13273486511980118
0.7751755258574173,0.13126992147058544,9.712955582859927,-0.003978172270161027,0.001624234325419699,0.011164435822962587,-0.3536447470905234,0.10236152056699636,-0.5802076739379549,0.06028551907040409,2.3443311616115206,9.515073076027718,-0.008435343262892999,-0.0044239207083828225,-0.012482605601520352,-0.8748393560031007,0.15746536143976642,-0.27804647157395024,-0.32532927013798285,-0.4872152264247324,9.70275705468489,-0.004974688345404745,0.0031893828403866324,0.003720671843033392,0.017435577994463616,0.1964611988949631,1.2088655172610197,0.2463000013422908,-0.4706858270066411,9.887331129301923,-0.003322308945870513,0.003857721190291227,0.005414985178757814,0.5427574564932136,0.1882304458499114,-0.4320197465442533,-0.4136842633428294,-0.5984524452399266,9.78889335030819,-0.006907774241410605,0.005854880506793353,-0.0035676044176555432,-0.1241227545151166,-0.16171232625884155,-0.13906415909045036
0.7906121089441961,0.12934917571371635,9.72795110046828,-0.00240799818938905,0.0024357848055921,0.010687977877070372,-0.349270801583238,0.10326559193187725,-0.5738350665699696,0.06068040150824744,2.3423120354910023,9.515568611666925,-0.008686713571832587,-0.004384538398801673,-0.009822303362774598,-0.8682436802507321,0.15420615955041062,-0.27041092225421987,-0.31001055745400075,-0.47386378050973105,9.692778301221434,-0.004732153168848916,0.0041575334068563174,0.003829410836855568,0.01741742090310977,0.1945121757541806,1.2137500722168706,0.24511382171952667,-0.46198806164418954,9.889030087983668,-0.0037935865762547985,0.0037867103876622118,0.006135388441527603,0.5388486175252344,0.18875185145109466,-0.43107281987261464,-0.4128032467670465,-0.6133891243702554,9.784819771126338,-0.007810279912697599,0.003155676451834348,-0.0030137542727718533,-0.12605681389580328,-0.15926082146851486,-0.1407810727676581
0.7857207628433506,0.12118883138745146,9.732358024088963,-0.0017329326421252206,0.0006392393009747695,0.00978753756436961,-0.3500095768617862,0.1047056997559037,-0.5701645633969722,0.06092389545694287,2.35340320472568,9.526689848140656,-0.008930749736947154,-0.0036179968361887537,-0.010861690385448597,-0.8731418523660383,0.15666023038847476,-0.2682628009237083,-0.309730494793325,-0.4780106230469173,9.709320314728801,-0.005321757558865215,0.0015578740172193892,0.002665242583918709,0.015217081105164041,0.19867802201207577,1.222774961564068,0.25706066800534344,-0.4731885821477047,9.892097519201057,-0.0036719388110382297,0.004985513024086122,0.006837317255668249,0.5356212668439921,0.19153207522775534,-0.4201248700950546,-0.4102924862447958,-0.6039157934440459,9.79668194886748,-0.008095038260519138,0.003354022515680807,-0.002380094646235206,-0.12928790038205412,-0.1575529659248437,-0.12932184541323677
0.7741165751804863,0.12890345162392797,9.71307186668807,-0.0022825383282210265,0.0017789624110742224,0.00994129979027828,-0.35092945751884197,0.10941366591061281,-0.578432637432858,0.07413842129068374,2.341126279470896,9.512908307324121,-0.009695430741148179,-0.003215286659607162,-0.011023719628154148,-0.869478968919594,0.1592243211891999,-0.27660187546609005,-0.31282251999200783,-0.48491661095228694,9.696898202178128,-0.004696680887696613,0.0038019620858963385,0.0020477712119648813,0.02280021528513995,0.20255453599207354,1.2227882043493825,0.21605588386250824,-0.46636162274431286,9.900879537118593,-0.0025985771567790176,0.004460143609425646,0.005938791943111482,0.5466286564904967,0.1941388024733207,-0.4205587586029085,-0.41789517532051795,-0.6010705876683894,9.801815117081368,-0.006866671326365908,0.004059430477382784,-0.0024914512026046306,-0.12124046935557534,-0.15685460899094428,-0.12707929475228363
0.797609094096758,0.1265025760965357,9.713156876514509,-0.0014841807264659762,0.0014786207654411431,0.009705092179015775,-0.344848338162043,0.10667940293089018,-0.576232945789449,0.06907520759238077,2.3395128474127156,9.521735219073934,-0.008262849177188995,-0.00246719779574883,-0.010476805453556882,-0.8680046525524925,0.15751032772114595,-0.2773028374059737,-0.31141180178875516,-0.4802312246355041,9.709157482385933,-0.0038810186496654347,0.004232167926814073,0.0025191861543354364,0.011784322080063355,0.19380677927508694,1.2208184898231722,0.25066910802765024,-0.4637859564536057,9.885030257701139,-0.004258781379514002,0.0024689083294074043,0.0067500440607812,0.5387619251023207,0.18441436763046568,-0.4224994320049399,-0.41048724347781634,-0.6105718631680872,9.78300288970945,-0.007263093934367679,0.0032254803877903057,-0.00209561870781198,-0.12833965193172195,-0.16536938653661046,-0.12956969152756975
0.7776203337143781,0.12988386863427157,9.72163671856198,-0.0034021708958261714,0.001224348032596419,0.012418627343256205,-0.3527026056818141,0.1051887146470293,-0.5677303256539714,0.05595193430438114,2.351774011230429,9.513123003560857,-0.010921175251294381,-0.0059105940886556635,-0.011266639900594311,-0.8731526590211757,0.15909368762909906,-0.2687916459617467,-0.3025694689379628,-0.49879841023257504,9.699680628965114,-0.00759815884702931,0.001943551184825093,0.004920016252745026,0.018647815990045773,0.199637344454956,1.2186315862974235,0.24482389065043256,-0.4671083572823186,9.8977273052141,-0.003200661180653944,0.005056523826715138,0.006116913992898461,0.5437381785696371,0.1938738350260165,-0.42667926549702206,-0.4176714470611209,-0.6178535694963888,9.79758873273692,-0.00824277177960848,0.004120161743384014,-0.0036980436175963185,-0.12244662962771341,-0.1575781945170445,-0.13026088906714123
0.7814995517983085,0.13130262117443778,9.730165485957512,-0.003028956518959281,0.00140889661786051,0.011591515592295742,-0.3504597987686332,0.11082247551986056,-0.5715834828760354,0.08311380741624858,2.3336067908365177,9.54263025780814,-0.008387863390307693,-0.002085407640119919,-0.010994478828942524,-0.8724334536381055,0.16272182835336912,-0.27104953778861895,-0.30177680719472844,-0.49155394804638297,9.695310453111254,-0.004402564311186443,0.0026484387855354023,0.004079348046580385,0.014974436524933374,0.19427707412088518,1.2142329847866056,0.24833646760568986,-0.45602532843305366,9.886718860789035,-0.0036658424601053153,0.00373971513236077,0.006730563110652843,0.5407570076530673,0.1855880247028268,-0.4276212826169944,-0.4158128705687745,-0.5981654327668866,9.800004040076065,-0.006251985093384145,0.004412133112382965,-0.002547626697676933,-0.1265911442789376,-0.1639038765831694,-0.13566236939239404
0.7869569550058975,0.15358463578165138,9.73199665642301,-0.002380442574439084,0.0010225849738241702,0.010687016848546034,-0.35654469039725567,0.11065082028310785,-0.5767360656601948,0.05919225934627193,2.338268900332931,9.516496995746559,-0.009917330744446964,-0.00418289456448449,-0.0106898344219007,-0.8750996991247988,0.16041728422016469,-0.2766311357984008,-0.31915690138271224,-0.4799277951577457,9.71572051604665,-0.0055488188624559405,0.0037253298512731872,0.0033559953413057736,0.01693302831666009,0.19964617506183377,1.2213138805123795,0.2386124511505734,-0.46744573585295185,9.888932343642855,-0.003665849414698188,0.0037387151779621603,0.006730569655447623,0.539514732153842,0.18856716631311501,-0.42130080377042955,-0.42018172986374536,-0.6115012464778096,9.787810034535294,-0.009031540968088524,0.004998107513592021,-0.002772386882149316,-0.12514368763698558,-0.16001038824072764,-0.12978969718998576
0.7854842156502422,0.1369537268789641,9.725870329231224,-0.003454102322353807,0.0018918026042717383,0.010998595821884751,-0.3566215485776541,0.09962706049615902,-0.5719395358750526,0.06245807498832512,2.3269301698551583,9.519329673692342,-0.009340337979331892,-0.0043755327882107125,-0.009457481443341203,-0.8770055753551497,0.14994015694240148,-0.2747495583218844,-0.31547768329685694,-0.48243704110832486,9.692179440029692,-0.004602386585498127,0.002894022843813869,0.002589713014430435,0.0120637882632419,0.19721548385043344,1.2105623010685485,0.23776235666309664,-0.46849405928015014,9.888903666921486,-0.0045152769060222316,0.0025608992520125026,0.005558701240666214,0.5349883620340522,0.19045397956264887,-0.4362366201625809,-0.4179521836678352,-0.6020798347700425,9.799673589744128,-0.007123054214277294,0.003794264303017385,-0.004049209436336244,-0.1301919166724315,-0.15997411068059733,-0.14397792458259234
0.7847208529838611,0.13108914670389232,9.738770871499273,-0.0017065382431393562,0.0013780839960079712,0.011194483495215379,-0.3504909766020523,0.11051920484500145,-0.5640176904627799,0.05766404650883644,2.338293748907946,9.538826218797794,-0.009921319729547075,-0.004185879744832557,-0.010687790725210727,-0.8729194456826329,0.15966864066496542,-0.2636731647861172,-0.3148748817713647,-0.47489182655086126,9.687822609920232,-0.004836688938499495,0.0034931743467934173,0.0028817213770767334,0.01688729613339265,0.1881726616421479,1.2218110911073008,0.2545231803263548,-0.45822581093273623,9.88269183055814,-0.003793600485440543,0.0037847104788649917,0.006135401531117161,0.5423752716491583,0.17927516349988695,-0.4204887381852105,-0.41241519213784145,-0.5983664748919271,9.78480143384082,-0.006073866754836761,0.003183475089539847,-0.003422083283435404,-0.12273826361674245,-0.17100429129923353,-0.1310101679282716
0.7770670529921471,0.14119329282402937,9.728000366410386,-0.0026812963448756455,0.0030016895483899967,0.01075833368910087,-0.351924177276735,0.11276398943114785,-0.5691329657230068,0.04974983924401641,2.3369045952140026,9.511292519965563,-0.009281656042980268,-0.004205816664131417,-0.011044451470649067,-0.8709737114548268,0.16278198818906162,-0.2678736860048409,-0.3036180268026249,-0.4874884471210829,9.690701163623507,-0.004403563872951614,0.00264744106296681,0.004077346690551657,0.013496998393201733,0.19379874127757185,1.21911319300531,0.24397759901453053,-0.47347813791572646,9.906379100354375,-0.0033223159004633854,0.0038567212358926175,0.005414991723552594,0.5351382960447141,0.18784304161226667,-0.4247429302062744,-0.40615901439243685,-0.6148714680513272,9.78882001441436,-0.007980342445027397,0.004387312916711253,-0.0021472495967988408,-0.13050987601546563,-0.16194009429132997,-0.1320197893057815
0.7800113587523483,0.13194578593374423,9.717517157745833,-0.003703848893487019,0.001050457832520704,0.011077021743966693,-0.35100248001722495,0.09912187349753393,-0.5736303586362009,0.07357736783692667,2.345533296050936,9.525622378618765,-0.00928264817060108,-0.004207804396291592,-0.011043419674330299,-0.8689505999490224,0.15046352659470646,-0.2749890607513655,-0.31641310753865476,-0.4770889808381186,9.687665067777198,-0.004976693095491701,0.003185386599787301,0.0037156707393390955,0.017171220848534837,0.19842563093884863,1.221803386755042,0.25759299264076463,-0.46720226817132826,9.868222529683598,-0.0029360282292666515,0.0030943397509726176,0.007147628819580662,0.5417458382039527,0.19146897042597877,-0.42325835624321995,-0.41546941910447704,-0.6090255395744485,9.807331409400726,-0.0071494130559157446,0.004257772323233071,-0.0018607804275120564,-0.1254025963020561,-0.16001257622416482,-0.12710609466429762
0.7759631437740658,0.1341201040451992,9.740944097670623,-0.003330643707372452,0.0012339986291701973,0.010250902100681011,-0.34874325329301287,0.10406382774016056,-0.582616067560509,0.05020373407377374,2.3588634631362075,9.533637695217921,-0.008826678982824843,-0.004015684030715345,-0.010331783626248467,-0.8687212138830783,0.155956189165625,-0.28240571612388893,-0.30958563748078366,-0.488554521214049,9.713990194149103,-0.005558056874332187,0.002155029263793215,0.0029522482371717317,0.01204995883090175,0.19624225504660844,1.2152020730933581,0.2507665755247733,-0.4552360721497556,9.905836450805063,-0.004990609813393282,0.003111291079696769,0.006331984800034029,0.5370940359351442,0.18684293332078183,-0.4261885539077556,-0.4201461168525853,-0.6120488809581565,9.78569756011193,-0.006248960796796446,0.004414125021042593,-0.0025506076253918133,-0.13050497842337294,-0.16242666853324933,-0.13324034881710914
0.798506578436391,0.12064597214593817,9.72202388762457,-0.0031054421698034286,0.0034845902639715712,0.010165417828217446,-0.35098773700439934,0.10084227294254257,-0.5750818800425834,0.0665532219175598,2.337271676265569,9.522162648770138,-0.012465488654413968,-0.005119059131339869,-0.011579488944531296,-0.874324303238165,0.15069814926297778,-0.2740257237574793,-0.31371173736708047,-0.4923908087669073,9.684939312242694,-0.003962212038724682,0.0033680106677611717,0.005674720160680362,0.012804235519515185,0.2008767849844341,1.213246938076943,0.25574534597654364,-0.46936086983009667,9.868168616021551,-0.003924399924338312,0.004453101453182109,0.005593113773339573,0.53422548556769,0.1919642071385872,-0.4301473211745244,-0.43457008289325016,-0.604482642903367,9.79611542555337,-0.008374753989408571,0.003553357443715545,-0.0017534059695565552,-0.1338791615401172,-0.15703769093160544,-0.137403877933575
0.7903889131346972,0.12552424706090864,9.724122109944453,-0.0030289511129764856,0.0014039595062030966,0.011583476630966217,-0.3626981344466897,0.10140449561714471,-0.5765887988883617,0.056060842483084364,2.353449627032512,9.52654302258813,-0.00797509343466666,-0.003074942578493865,-0.011015228996589322,-0.8821591178704077,0.15599417903365564,-0.2763246729405821,-0.3118519953264934,-0.4879511638384401,9.697209762212097,-0.006618251679703601,0.0007556782146339544,0.00236909078340787,0.014510368303605786,0.20013813922999155,1.2132512243918199,0.2486699004140043,-0.46684555417402984,9.9040741132642,-0.002728397119839012,0.005126534354146108,0.005397523846377515,0.5374032047083763,0.19365923974547677,-0.428916563877371,-0.4124307553995209,-0.5989369311195359,9.782704648807186,-0.006792116946728371,0.004346310302044647,-0.0034727185518417486,-0.12971246300899883,-0.15656257277611865,-0.14006522253529483
0.778979354269668,0.13881149037445195,9.736744600848873,-0.0018819373924106487,0.002699366220627136,0.010519114395137254,-0.34950259147732915,0.10377398490331566,-0.5762740938415656,0.06958374319846444,2.3367412355757433,9.536202522325143,-0.01060707270615539,-0.0024466546551233466,-0.011689190716422443,-0.8689730573105545,0.15510490933008556,-0.2748228020053168,-0.323453459861221,-0.48074602939365985,9.710790881579884,-0.00449886552453662,0.003552382598287079,0.003533405137756353,0.01712578749466635,0.1837723893894385,1.216444162006536,0.24870551499387428,-0.48295876809126864,9.879133461511309,-0.0031925303249898413,0.0031863372640758857,0.005957285956170112,0.5384893603744563,0.17682426469410314,-0.4261133564486084,-0.4146081907755593,-0.6076185388827311,9.805388801663954,-0.006246955287826961,0.0044141184722323035,-0.0025515965090484685,-0.12760144650431143,-0.17220132632716997,-0.13543264747530734
0.778399155757438,0.13222045351733078,9.704885453734823,-0.004053499667771773,-0.0005472538348210756,0.011901156905261258,-0.34605331449675303,0.1093745415348594,-0.5767046129795137,0.05103634788447217,2.3491699790829963,9.536026741503026,-0.010882654512303785,-0.0035830051648850494,-0.009771343958445073,-0.8665549531166884,0.1597630513989271,-0.2744087602512673,-0.2927533068123899,-0.4889086379158705,9.68462977896758,-0.005559056436097359,0.0021540315412246227,0.002950246881143003,0.024249766957075918,0.19546433479820102,1.2171820740457955,0.25142148617042676,-0.46624004645899836,9.89133364681936,-0.004524435534296304,0.004427092908354921,0.005718348841824052,0.5463607994411794,0.18629727838308469,-0.4251470373153866,-0.4154784078821533,-0.609441024864591,9.805238841558207,-0.008344365319372127,0.0030918386404578703,-0.003945810339870804,-0.12220020441934287,-0.16318925748813276,-0.13441612635894074
0.7897057583099325,0.12253096409053864,9.72421496760269,-0.004227898921566344,0.000776991652511534,0.011229815122295895,-0.35268245280883664,0.1088524627245751,-0.5679455554985333,0.05901494003435671,2.341855378141142,9.50705330426532,-0.008741855983291759,-0.005580148485437728,-0.010548474716652313,-0.8716968004066953,0.1598898226297098,-0.26538409291660636,-0.3058263812810492,-0.49027341303668653,9.70248068196453,-0.004742398101792884,0.0025832334979802615,0.0034216647905696298,0.007679306605411033,0.20480765990519129,1.2193356900001817,0.259227515633643,-0.46646831690980384,9.887365258907286,-0.003922358465014249,0.0038297127366668186,0.005540233336831852,0.5332409480253061,0.19468418064712212,-0.4260215361655225,-0.4166495772609763,-0.6012330729139311,9.795653747345746,-0.006642366809367326,0.0035801668563452686,-0.00215775843192471,-0.13242503062281036,-0.15387420496629683,-0.13324104694701935
0.7901580696022577,0.13162859136648164,9.698547030162317,-0.0018809399924502716,0.002697376705311541,0.010517102673951787,-0.3553622212899113,0.10766861272489697,-0.5708945293990794,0.06519459689552723,2.3346966593755223,9.522749612197856,-0.009632552838622835,-0.004795636188730741,-0.011227179047137138,-0.8733952505607508,0.1600070296773892,-0.2724708628142511,-0.3051085549047115,-0.4827136340162514,9.69813908865612,-0.004603391773819912,0.0028910243257831295,0.002586713266764867,0.012303260400026257,0.20039484754285536,1.2183732600754191,0.24043409237053476,-0.469147240498046,9.89523379698383,-0.0036678632323608913,0.0037367290917601523,0.006730569515537929,0.537130256711443,0.19344428779623735,-0.4247667606229397,-0.4144128268694683,-0.6089328017960692,9.768735764846536,-0.006928128984926457,0.0037775167854181657,-0.001524105542311923,-0.12731714613786074,-0.157069376393301,-0.13199637805913514
0.7984229029472059,0.1405537602728088,9.702738756271422,-0.003978141787437606,0.0016173678015770382,0.011147381500310492,-0.36173657210294097,0.10064342745284119,-0.5736608489044362,0.059685398223762356,2.3636734562233896,9.529470204912224,-0.009604322371306508,-0.0036238836339891195,-0.010484650265761234,-0.8819059750504041,0.1533465457190906,-0.2740825985563821,-0.321580064985339,-0.48667445719785685,9.6870176763183,-0.004846926512140913,0.001921876036744852,0.002475972916913962,0.02108636430561104,0.19914004572986446,1.218881260266183,0.24846484449035874,-0.47873377018382884,9.889543486361942,-0.0027233076777374494,0.0038797434193197514,0.005290769631407262,0.5456236445743061,0.18950354328152552,-0.42102283216732816,-0.4180803101602863,-0.6146995270177233,9.804799253523168,-0.006789098204791783,0.0043483010452972145,-0.00347469949566292,-0.11927615629946134,-0.15954256804801753,-0.13097757903194793
0.7818598244020503,0.13602614916021855,9.745418496578976,-0.0037322285696812295,0.00030472582256089477,0.009657013517476292,-0.35319575386615165,0.10566396684925329,-0.5657754759890188,0.06267410832322917,2.352365910423578,9.53227289896019,-0.009393402147726488,-0.0026631932979722965,-0.010810436603057381,-0.8736334727272725,0.1566946891294939,-0.26606687856269745,-0.3075953316209221,-0.4937247378325495,9.702249658484067,-0.005324759709652605,0.001552879242782927,0.0026572401268598654,0.017158116500680873,0.19329609649218976,1.218633511420489,0.24738223041298302,-0.46993760257060113,9.891260477648897,-0.003538064133079514,0.00306733848384386,0.007271857246656232,0.5412345986391377,0.1878073008796915,-0.423725602689071,-0.4096150607201162,-0.5995406670947194,9.801990896040502,-0.00639267174621161,0.005183251126771929,-0.0038705308036502363,-0.12734399243921574,-0.16439303257947932,-0.13224906629146088
0.777839577981364,0.13782673625576775,9.724098897454502,-0.0013049543381236776,0.0022944905462019085,0.0117712706327228,-0.3609677398133772,0.1053032249714359,-0.5767954310131428,0.05813321935293112,2.324216492444501,9.519825049957305,-0.01046288279781778,-0.004571573766382536,-0.009796099318486504,-0.8809389388702336,0.15600819045018166,-0.27583482409885557,-0.29588079435863873,-0.4949008284872347,9.68422988047482,-0.005784129869270966,0.00431948122949131,0.003643005567313847,0.015236608486534227,0.1998934665305407,1.2159379994971913,0.24242557402131887,-0.46929058581784505,9.882477271871014,-0.0031955856477381265,0.003807732983091562,0.006010172867517766,0.5349672256790244,0.19391687634258784,-0.42942328623960424,-0.4325540363108209,-0.6017557899620462,9.79224473954003,-0.008370716902286761,0.0035543489996054385,-0.0017593824856393689,-0.1287570699874776,-0.15583846792023182,-0.13566500091222744
0.7928804269225539,0.13052223575357375,9.707210452631434,-0.0019798415556386843,0.001940020249833985,0.011260808045819816,-0.3556562681815213,0.10394686917955086,-0.5631125447288163,0.07405690669812373,2.342289203745037,9.540252569546821,-0.008844628688857449,-0.0040296005197713106,-0.01032157875556344,-0.8777871940880014,0.15601655574882353,-0.26166675549902696,-0.3077746628243198,-0.48754055245061084,9.697813242083265,-0.004031268167920408,0.0023510818855657823,0.0029473886621340065,0.019139833497029995,0.20256819488659747,1.2220482809750566,0.24543683502599936,-0.4717544034302179,9.891222669914251,-0.00417684712845265,0.0039226897910753155,0.004348897201421338,0.5439559504261439,0.1924243028358689,-0.42422717560302564,-0.4197868941144102,-0.6130853090349034,9.781515280247298,-0.007579919543799804,0.0026793989870479693,-0.002688024512114445,-0.12147486463409403,-0.15611925201013624,-0.1282997594032199
0.7731267232243744,0.13408252188992625,9.715662624354241,-0.0022364254492885523,-0.0010523347598379814,0.009932303547667642,-0.35540892507922794,0.09912017099125997,-0.5704736592496547,0.06869404853278728,2.345171869149596,9.525613369245445,-0.009093676148544321,-0.0032620160330221423,-0.011356990952963842,-0.8767658528571972,0.14882373053447298,-0.26862559904706435,-0.3083348273096862,-0.4886504397078275,9.697738931750187,-0.005362241063021335,0.0019044559456806538,0.00443587864272789,0.00956537993140241,0.1896675420080886,1.223503059730697,0.2403296828636956,-0.4617146272935594,9.884163647183245,-0.004392581451883034,0.0031353069478237787,0.0062057496349354185,0.5350584889067678,0.18054834083630508,-0.42030018641331063,-0.4190521274887043,-0.6006000608069869,9.80681331947355,-0.007933154585344304,0.005135704634933003,-0.0009400958609409654,-0.13129860006448338,-0.1690231845988988,-0.12690534270137496
0.7939909313548813,0.14470923933517932,9.713425208562386,-0.002503896906710784,0.0016685226479391303,0.011417616977893346,-0.3589951278267568,0.11668518153092126,-0.5662000729810502,0.061195130349172525,2.339132162911288,9.521606568572789,-0.011386788128670585,-0.004964770038579237,-0.011213240324580247,-0.87759046027741,0.1676490849597688,-0.26698899055248665,-0.308945169439997,-0.49007214757961304,9.697647765905316,-0.006646503684925774,0.0026725514881849374,0.004546480430978297,0.015216329228782377,0.19549968977349536,1.2174065241176706,0.23924969736963553,-0.46258725010718377,9.884149302924394,-0.0023461852040297473,0.00498356218124034,0.007184054285297606,0.5375746613422366,0.18438901684072442,-0.4276342866378824,-0.4185601513940576,-0.6056029023560495,9.793253003475858,-0.008299188523309627,0.0038402357420828513,-0.002736667736462565,-0.13027403346928534,-0.16511315659021591,-0.1327541890203784
0.7843389008524353,0.12885231749337261,9.72218420267602,-0.0038772256705805882,0.002370784392352471,0.01039465287849329,-0.35488148596432595,0.10282059630569043,-0.5755697854718349,0.06951738808885474,2.3403219318810704,9.526800116677203,-0.009185550644152106,-0.00461245701766463,-0.010509407196598345,-0.8780190988022807,0.15681132655941807,-0.27242497140883853,-0.31141676946239705,-0.47297447275720444,9.712489593353324,-0.006028660275546464,0.0033503352099812445,0.003530263058584724,0.018617833727015275,0.19573692115657146,1.2254707040151793,0.25185407918340336,-0.46002472190427024,9.867505494877495,-0.0025965704704193184,0.003831755120917306,0.0058859442305776565,0.5448681305085573,0.1892855386306013,-0.4178522212689947,-0.42468658605097237,-0.6059075037637056,9.784986485141214,-0.0076855095262108675,0.004193939895259825,-0.0027908476270606434,-0.12492567158928887,-0.16147958521148897,-0.1261281394253107
0.7768325778854872,0.13867162825263005,9.71142004930806,-0.003330622498391376,0.0012290928502560377,0.010238863293288892,-0.35416216427544034,0.10713978504500893,-0.5664997615500339,0.07504352219680505,2.337632638225637,9.519031175214185,-0.009953222296801385,-0.004212710492578575,-0.010668391313416193,-0.8741331716872968,0.15866959309000356,-0.2646355738096438,-0.30682561137316827,-0.4785989600901531,9.70555705964326,-0.00540982076989386,0.004027115047615455,0.0025140486532472233,0.020335475563625176,0.19646108475665128,1.2227878213115475,0.2678530512154668,-0.47267002901197125,9.879352447357741,-0.003797669671613053,0.004404113200381054,0.006188294917304746,0.5466161999434209,0.19095529872281192,-0.42200192203957526,-0.41164348750679425,-0.6097403247759762,9.82253807302315,-0.006567814133802495,0.0038680455074823084,-0.003138024610462786,-0.12296165205647909,-0.1600219914264388,-0.12709254682497367
0.7805594774709076,0.14023403985870475,9.719967340952397,-0.0018789438202863145,0.002691421263380223,0.010510063639352174,-0.3470748762848913,0.1054260514643953,-0.5706353445988551,0.06511141123411592,2.3361585401955254,9.53624190372353,-0.0097443084537596,-0.003251013125914959,-0.010993197688257853,-0.8675226371644085,0.1559470209645755,-0.2687296476174229,-0.30602322176021723,-0.49842331214037033,9.690521836475707,-0.004801211906898921,0.003136599788662477,0.001096082565692265,0.014751884223914703,0.20087155690567562,1.2161811591305525,0.2398590454967885,-0.4664774832738744,9.892886322711982,-0.003070903423551889,0.004382140037303967,0.006659234404695099,0.5388482378262787,0.19194823303502762,-0.4276757410354778,-0.42175369501363535,-0.601014843017139,9.783373452289064,-0.007397732436452738,0.003997584574665934,-0.0034264881974184615,-0.12631446641751778,-0.15682373775416125,-0.13662859686197407
0.783889882331271,0.13607373789101035,9.69662401177673,-0.004127968269430973,0.0015294527246169033,0.010472074929532017,-0.3600071604128356,0.10526555981655296,-0.572640771153255,0.0603268802918826,2.3343938794554635,9.54509681203109,-0.008730573583996681,-0.004422324384248558,-0.009796739352197745,-0.88264296633885,0.15455568759650995,-0.27459213634793983,-0.3038875300256302,-0.48221239130745297,9.681938277565575,-0.004744405012944576,0.0025792380686494695,0.0034176636842111504,0.016200253249356332,0.2003830119002671,1.2225317024099758,0.24780420143229817,-0.47599736228327155,9.887204010875514,-0.002723314632330322,0.0038787434649211416,0.005290776176202041,0.5358942214101405,0.19174702058649654,-0.4242756733061903,-0.4168739166824026,-0.6147363596505624,9.800743846375461,-0.008259080473205997,0.002041793090355424,-0.0016635235836273056,-0.12976117103337118,-0.15584039020772666,-0.13078750202504702
0.7755742715791857,0.1358760044290202,9.711559184768625,-0.0026547339301664225,0.0015815814644941793,0.010746314197490765,-0.3543861004764244,0.10259024456999942,-0.5777667172632751,0.05782674442546831,2.3410156646016986,9.54346556124517,-0.011827492337926656,-0.003995064527615408,-0.011174201600851637,-0.8748279872672563,0.1538652431834671,-0.2743236356532433,-0.3060871352662101,-0.4921225614790488,9.68610257497998,-0.005691840745478233,0.0034085473614433918,0.004181945457907251,0.013502068855192333,0.19550832243084962,1.219844818982687,0.24665484082066425,-0.4673047074198647,9.888925246074466,-0.00439563677463132,0.0037567026668394554,0.006258636546283072,0.5375328659334607,0.1841852563682935,-0.42152895398407225,-0.41817241679056016,-0.6063159471769486,9.791185292915689,-0.005230821753504364,0.005605753036099832,-0.00300457079818783,-0.12710990670486022,-0.1641522517347166,-0.13029445393762534
0.7950455173281807,0.13074676248565295,9.70315360899604,-0.002181655075887986,0.00042332851133991984,0.012748187443763876,-0.3564186508127884,0.09761166861373397,-0.5641422211412954,0.0655935855344632,2.333870425804144,9.514452932672192,-0.007392606874424917,-0.004282533855507192,-0.01210019798915043,-0.8777521716167458,0.14962045080426956,-0.2644899839638805,-0.2967114188979464,-0.48643373491424735,9.703900268760286,-0.005926140937414863,0.004007698053154401,0.00447295382321773,0.014753686377344673,0.20282671972676194,1.2188645840121701,0.24557117160151984,-0.4682813443000408,9.888905562889798,-0.0031986475397013723,0.0044291352926054085,0.006064059735569857,0.5371177095166363,0.19419495644850313,-0.4220856742493949,-0.4191710665768322,-0.6076999609292166,9.791057130760931,-0.00577500741576765,0.002994088937996786,-0.004067654333789184,-0.12877531783435253,-0.15389089009757104,-0.13102375779849548
0.7925963232411884,0.15397589186289878,9.719927536463972,-0.0018779424695763677,0.002689439581250442,0.01050705195665106,-0.3560852431978066,0.1079336827100742,-0.5730933941570082,0.06842635606241998,2.3357834242403994,9.527896475885157,-0.010642986580650396,-0.0024724376965550928,-0.011665814908558635,-0.8775320275217541,0.15729850468844514,-0.272676361620032,-0.3080223551672166,-0.49485520904104735,9.685901609220082,-0.005551834427421291,0.003716334297180969,0.00334699609830907,0.01790288450362783,0.19548864572961927,1.2166803369625272,0.26113330308406296,-0.46179091140433143,9.90424068263326,-0.0036729874474268156,0.004978520254593459,0.006837356454482077,0.5414892113274814,0.187795952531959,-0.425188918647413,-0.41788454152152205,-0.6225801408928144,9.786932869065426,-0.008691572340116882,0.00300627838190509,-0.0023478129284517707,-0.12513075488001632,-0.16122667933505064,-0.13296509397112477
0.7823569179418465,0.12750638831841193,9.709611345586318,-0.004359151213305785,-0.0007220602415204533,0.010551528121895432,-0.3475634517715883,0.10349483931660723,-0.5730944970207342,0.06609338904607709,2.3293695388052327,9.515552288243793,-0.009466083381170044,-0.005759796276579072,-0.00858938427787709,-0.8670233555100874,0.15491526749938056,-0.2721300265105342,-0.29286057408285854,-0.4932094134683376,9.696887068895618,-0.0041357939888849015,0.0016887219984279508,0.001998697599320375,0.02063469413349223,0.2054855375649168,1.213504121954134,0.23936953386188004,-0.4782806872152842,9.87836026708505,-0.004393581791499426,0.003134307314224605,0.006204749608276135,0.5425373358741531,0.19607534265337892,-0.42743469582959265,-0.4123099438639315,-0.6189329561842327,9.772085845334813,-0.005734875385142956,0.0037394983570760744,-0.0028525431380273243,-0.12093512552419046,-0.15464647212769497,-0.1365961785772441
0.7797748551699774,0.14529316465298958,9.739220611120365,-0.0031797774074565546,0.0013101126329864178,0.010900119335489787,-0.3546103555964282,0.1096367960697622,-0.573318235094901,0.06144365815373783,2.3406460759910233,9.535125540061678,-0.009324535088593846,-0.004239598474086953,-0.01101895290670133,-0.8773015077840056,0.16045584553135706,-0.27370500171850615,-0.3108857809060968,-0.4785010410892217,9.700710193002516,-0.005027426711358858,0.0019596734711773522,0.005084559130178266,0.02059551239161259,0.1971871781356871,1.2166847779516317,0.24240346614796648,-0.47116783058473144,9.88884677438904,-0.0030678003661194536,0.003136356288973262,0.006551460458726376,0.5434319334766734,0.18631752157377166,-0.4251664119170416,-0.41677389432487283,-0.6044521143503199,9.789329203449272,-0.006851559691089923,0.004065391218559034,-0.002507360572294073,-0.12464600429404267,-0.16171784199381978,-0.13271896979102663
0.7878273679878427,0.14852864863747006,9.711522702793125,-0.00307787058587514,0.0020654846978606983,0.010152410138460126,-0.36120445619276265,0.10942564095687668,-0.5731019324279646,0.08028503696667724,2.323474173940064,9.536385391790894,-0.010007321389574244,-0.002493360099545357,-0.012020465466019398,-0.8787577508347723,0.15780512551145906,-0.27122166312838075,-0.320897040718209,-0.48984025142009807,9.69933675350748,-0.0056553528989992646,0.0030569721168053387,0.0024003047858251886,0.013270319236389262,0.19770486827352637,1.2181335316090398,0.2373864485508967,-0.4705784360522272,9.88005755158405,-0.004270954550445082,0.00433110972105186,0.006907698083460403,0.5346816330705941,0.19002722673321112,-0.42720143143375283,-0.4208470598986743,-0.6000810278122276,9.815983101826147,-0.005733866002754256,0.0037404956572566956,-0.002853536384997173,-0.13123034786457236,-0.1629098456304585,-0.13495396868934065
0.7786368612932145,0.13764458321543394,9.707414978412787,-0.0041279550449390585,0.0015274998128742155,0.010466059452756391,-0.3529575077585097,0.10420156865832608,-0.5662740091608,0.06395345437003257,2.3446153284162126,9.525737881879907,-0.010306103347685575,-0.004806505481498253,-0.010849055297266735,-0.8743540650178069,0.15518144595312183,-0.2687281030628074,-0.3016803054210971,-0.5012224327730026,9.707725538471365,-0.004745408468520421,0.0025772403539840736,0.0034156631310319112,0.021083422922358465,0.20231976442637814,1.225958693159493,0.24423367410076122,-0.4842864366423435,9.895832558021155,-0.003675055954366542,0.00559992224330787,0.006892249893988231,0.543902551714781,0.19124841116065652,-0.4173834803770683,-0.40675155693343396,-0.6139977928837568,9.791864790274532,-0.007353574428008453,0.004743983218820999,-0.0022153535499519973,-0.12100535044322586,-0.1588088186307913,-0.1268362622841139
0.7865301257660666,0.14158446102810543,9.724468680819678,-0.0009287568691379594,0.0024690942633615186,0.010935092418295527,-0.3571016697572484,0.1056845547098801,-0.5657907466036887,0.06742565922092092,2.3332127052003493,9.528518963193088,-0.009541426901835848,-0.005207266201446707,-0.010690059138479728,-0.8765618245454451,0.15666433259356666,-0.2670473427944427,-0.311464311016161,-0.4734213485414487,9.69622580981953,-0.004549595246593103,0.0023276694617739343,0.004902292725746034,0.01374817131232052,0.19428380745037754,1.2166723357844345,0.24253206318671017,-0.45635411295198397,9.901060518192596,-0.0031986614488871174,0.004427135383808189,0.006064072825159415,0.5400274907142245,0.1878028548293461,-0.42568758808408497,-0.42485119831747303,-0.6076899092223039,9.780794426031077,-0.006633299916688332,0.0035831437720845005,-0.002167704759379059,-0.12756342040723354,-0.16267911809978375,-0.13566634276888284
0.7771593953176851,0.1310433004877813,9.720367930726477,-0.003501008613827061,0.0025513643425273454,0.009561521671658163,-0.3555863535402809,0.11036725470626313,-0.5723393315276604,0.05204714787925373,2.3367817690207784,9.530587101089823,-0.009457541537498577,-0.003860779134169187,-0.011532589151775626,-0.8712071144937882,0.16219785814552892,-0.2734800828971102,-0.30164197026738165,-0.4948490666989775,9.703322439074071,-0.005692843772735281,0.0034055480321441138,0.004177945712905864,0.022289188623176425,0.19596349767018356,1.221572443850707,0.24550344659165618,-0.4684204597675945,9.908068864515814,-0.003925420742355408,0.004450108501283885,0.005593126792974285,0.542195800573047,0.18855342681240672,-0.4205510682452858,-0.4175894669929771,-0.599688605123943,9.800847410170514,-0.006885630257320376,0.005867815356791599,-0.0035844666127716742,-0.1229539319904168,-0.1597755716186787,-0.12831223640799203
0.7933985281867354,0.13902040871872384,9.709692162794699,-0.0029270281564367055,0.0021474887696482357,0.01081567395753318,-0.3543813739912654,0.1062243961791869,-0.5740760895738736,0.06265612917761894,2.342165051250584,9.548673021974459,-0.009737024746799152,-0.0020951241167220026,-0.010236435806263364,-0.8738764254086511,0.1578448383877397,-0.2702371312742687,-0.31441159810799796,-0.48458569404472784,9.70029450866335,-0.0050832292930997605,0.0025170296765879905,0.0027609801811943275,0.016679636937710178,0.19818452275397647,1.2230235232645383,0.2453556094271202,-0.47514979126566853,9.884836237118945,-0.0041452172973654305,0.004283128333947022,0.007502866067881171,0.5373178326919029,0.18858235043395463,-0.4213153363753582,-0.41039769997040604,-0.6092979941600133,9.781988855335994,-0.009120030528051366,0.003973752882295005,-0.003036076447960965,-0.12735524385385913,-0.1609801822900195,-0.12785008057798075
0.7804171032496631,0.1314746781637237,9.728971511279399,-0.00333060919090944,0.001224171404970251,0.010228824408928073,-0.3548840875355494,0.10378125459229015,-0.5736091952830871,0.060190675623142696,2.3358611158121736,9.536302770652876,-0.009546408014556767,-0.005212239113954953,-0.010686983645470986,-0.8743470057013878,0.15418106010651636,-0.27017654337015984,-0.3096985325189163,-0.4902346568312339,9.69336125825754,-0.006602789935960062,0.003884278991600035,0.0031615881732128133,0.01327548945689135,0.1967255084113396,1.2139833262491622,0.25216835853394115,-0.46966983270208856,9.904101709984902,-0.003923359190008554,0.0038277065581708647,0.005538239898262911,0.5378695856146234,0.19171099649952753,-0.4276806067159364,-0.41272807677002593,-0.6082057366217336,9.795238397231543,-0.005912010468328401,0.0024233027909356837,-0.002122049199669679,-0.12926340345879422,-0.15998783362198363,-0.13542764529516668
0.7886703391639666,0.13483523553045915,9.701258375095854,-0.0018084484345401932,0.0006019243631461866,0.011915028800664317,-0.35780408109519035,0.1047832188969753,-0.5748339300069326,0.06272571767090594,2.34227202496423,9.526328181405185,-0.009589552754266971,-0.0034809551637450674,-0.01204624058041044,-0.8748175353480476,0.15166757655779559,-0.2742868095783177,-0.30912440255386375,-0.48284630933962147,9.689032493523065,-0.004267580897565341,0.0029442363524838514,0.0032333975294491692,0.01571678785462636,0.19842737139022315,1.2169172292016,0.23816625707590125,-0.4696041971417838,9.89925108458894,-0.0010194036157435155,0.004357236169276434,0.007478910765168834,0.5420142665867602,0.19242653743872012,-0.42594902021692843,-0.40690678981237205,-0.614420760421966,9.789810401992119,-0.006596839934595144,0.005673457328260564,-0.004221099243294008,-0.12536889230219767,-0.1582978994147528,-0.1319869877669642
0.785573210227859,0.14736885249226894,9.69898822990055,-0.00280556691988247,0.0014916795806919432,0.010069988047987342,-0.3507082995876615,0.10960855518659571,-0.5723260020794425,0.06806384425643565,2.339581932739375,9.518564943782993,-0.009982131111091919,-0.004237560690482878,-0.010651020414751118,-0.8697328941865473,0.16002045582472935,-0.272709076010568,-0.2940928421081595,-0.4812520000860407,9.700026713575944,-0.005693847228311127,0.0034035503174787173,0.0041759451597266255,0.018371818061183147,0.19182694970722208,1.2193693281410474,0.25100525526263345,-0.4765589969475003,9.880886467216841,-0.0030708692126755715,0.003756758644088498,0.0066053538715732454,0.5409886339723912,0.18264843155051658,-0.42882043954879584,-0.4203233704055869,-0.5996093103150788,9.77745093987126,-0.006631279447838226,0.003584139545970566,-0.0021706924240177993,-0.1232034864904694,-0.16685001976501718,-0.1322289302913931
0.7843098064755714,0.13640887233315907,9.724722377309599,-0.002654727151940423,0.001574667941536638,0.01073525964393256,-0.3578098539337483,0.10404642113981383,-0.5743507056911363,0.0683171366446363,2.350228574261961,9.529894670313478,-0.010499739597301124,-0.004609359769932276,-0.009772524029143987,-0.8758133547546169,0.1553488876085477,-0.27288490456830056,-0.31066365891549685,-0.4853164736383344,9.688860170597906,-0.005225240789562457,0.0022062481148849645,0.0035929276289203564,0.013987109236969214,0.19501882285879432,1.2203342656059295,0.2400774031526668,-0.4725003075481011,9.908008105268811,-0.0030708692126755715,0.003756758644088498,0.0066053538715732454,0.5385545367433864,0.18782102687860402,-0.42447633155616965,-0.422419830532651,-0.608623178057363,9.800089154559265,-0.008217576168107995,0.004132096684244591,-0.003724890188099293,-0.1310176546079381,-0.16364975585664654,-0.12982656696568323
0.7914435474802178,0.1297229189861316,9.722720111563001,-0.00212968359166027,0.0018431682395013006,0.010577431098348347,-0.35314674412307623,0.11228435816224668,-0.5693855625403255,0.07085353955996787,2.3565530372852144,9.519953535734437,-0.009469510143478655,-0.003869717928538885,-0.011525458203303656,-0.8717130703430293,0.16516595867713788,-0.2710892853496626,-0.2994921661933132,-0.4707119292408772,9.702472500975212,-0.004034276373583208,0.002345087930301055,0.00294038700526047,0.011578227065277094,0.19892795407919076,1.2125128676628103,0.24408969409772757,-0.4805331914060963,9.893551777682035,-0.0030708692126755715,0.003756758644088498,0.0066053538715732454,0.5369208925199511,0.191690391358585,-0.43183688303498546,-0.4171603826690531,-0.6050097827370555,9.7852443409387,-0.006666355545878975,0.0053865663759047454,-0.0032468040307202187,-0.13142726281134634,-0.1563124059282655,-0.13885343658633179
0.7797983068572004,0.13725753874941035,9.703460383012088,-0.004623601526346711,0.0019938755748535376,0.012024814473311711,-0.35806703776388776,0.10426301122042395,-0.5706878842083862,0.05568753413765402,2.334032308268463,9.500543900470365,-0.009009548866086785,-0.0036755954842683913,-0.01081484923915355,-0.8784983062001369,0.15439698315382133,-0.2706760825645459,-0.30142902897912166,-0.507741977450558,9.695874339023751,-0.005177527060790122,0.0034229673119397725,0.002217039989756118,0.014716513218671505,0.1947729624622022,1.221557044611664,0.24688483159408262,-0.47321748092455435,9.904066380600202,-0.0025996532261611813,0.004450157567235323,0.005939850733014084,0.5405026321365708,0.18781235994953885,-0.42373044468579735,-0.4230798594728342,-0.6151444083283635,9.786370667487043,-0.007133288630105647,0.004262732711639589,-0.0018796853855694326,-0.12881060953967324,-0.1602411146059953,-0.12907832309433728
0.7831909514152583,0.1333145499375336,9.724855723722909,-0.004006480583892909,0.0008697377121752351,0.009714358066434928,-0.3575937278747511,0.10036608876793895,-0.5721815970817872,0.06353534543912526,2.3485300252083685,9.516432315913915,-0.009654181050468447,-0.0036636142757882637,-0.010454062879235823,-0.8772741956012342,0.15390672383180184,-0.27115391939739464,-0.30087304552646454,-0.4730776979579821,9.702314435658195,-0.005509265943552584,0.0015846858027474514,0.005257822521708232,0.022560516410704837,0.19619664292281627,1.2093658085435106,0.24144853828112828,-0.46287418043547635,9.89704119675861,-0.0036750629089594145,0.0055989222889092595,0.00689225643878301,0.5449477563369306,0.18773050014565715,-0.43151404120770703,-0.40216496422008186,-0.6164022286568258,9.795871529584122,-0.006016600473580278,0.003937839842038865,-0.002224866764497351,-0.11948396842729488,-0.16246164472513402,-0.13952727297223844
0.8001391736847419,0.146381113435689,9.701327129241877,-0.0016771695278368821,0.002091133366606601,0.012573238032343137,-0.3543280412405673,0.1191341343457756,-0.570312609656586,0.05650225464757855,2.3379779124951012,9.535826165459698,-0.009139567967902764,-0.003293778999506071,-0.011329530893311448,-0.8734455566876862,0.16864886915559515,-0.2667548585519614,-0.30545547470226436,-0.4885445856410507,9.694083058601583,-0.00421986500772827,0.004160954738270119,0.0018565098929491123,0.012266096314757849,0.19478563570055574,1.225457749212892,0.2361686149710704,-0.4526310264105665,9.890007699800348,-0.0034490262368759837,0.003277321641784204,0.0047649497241454685,0.5348607208776365,0.18812411440781449,-0.41937537367557776,-0.41189690236398574,-0.6002905000007734,9.80503539638133,-0.006772978891199804,0.004356257913129264,-0.003490600941623169,-0.12979989874633677,-0.16097133194928168,-0.1273756418272932
0.7796624213523836,0.14486496268471727,9.722639174611093,-0.0036322780808079854,0.0010542575270522324,0.008890250109548975,-0.35978050106024717,0.10450554036432316,-0.5692286977410734,0.06716006620288002,2.3349722515051248,9.519717812009855,-0.010231218600773997,-0.006384965394573976,-0.01106252795943445,-0.8787442208784831,0.15487965609802923,-0.27092860741461733,-0.3133728651162386,-0.49408098495981323,9.705063469368758,-0.0051622261478315706,0.0032091954925056033,0.006314257398105159,0.01642633493985337,0.19281015673137936,1.2176553216147272,0.25316136393147975,-0.4808123124355937,9.876894489791196,-0.004401815633212746,0.005621888815886786,0.006420310449893442,0.5392859386673113,0.18634137953497407,-0.4259268380070921,-0.42756383147387095,-0.6172045388590033,9.799329568416159,-0.007456162390280178,0.0037156651384105885,-0.0024641258062387188,-0.1285530705262597,-0.1634096248249083,-0.13371865989776155
0.7781073232811355,0.12812689812941522,9.716459680624421,-0.0034041254413410328,0.0012016885931978546,0.01237644050220389,-0.34853122761561134,0.10907266133796802,-0.5676834201026201,0.06251711513799021,2.3330777035880153,9.52860013308032,-0.008808627258831036,-0.0027168689333159197,-0.011135618483683857,-0.8665696250110512,0.16107381259660244,-0.26905897784277766,-0.3169931863544364,-0.47378210401010007,9.703349173209507,-0.005983952163053395,0.004560058025868903,0.002144374573388985,0.01618787441472086,0.19231894533712457,1.2137491943838106,0.24294777866055878,-0.4634710396144346,9.8842974274416,-0.003794505355688635,0.0025349347866357595,0.0060246274352157405,0.5402967558186113,0.1867920382132224,-0.4305613684517388,-0.41224137441352754,-0.6066289770552583,9.79134487554986,-0.005618177468827141,0.004774779862246586,-0.002618684630849529,-0.12585406181580625,-0.16610083739336148,-0.13810187480149327
0.7791641233766112,0.14277592562363361,9.72270984486481,-0.0031797587769818443,0.0013032226095863167,0.010886064897384634,-0.3565809674637995,0.10864627096981062,-0.5701596579002544,0.07034862580786178,2.347640250421041,9.544482435065976,-0.009228418528695388,-0.004648255270951338,-0.010484874982340261,-0.8765683864899805,0.15812500745931707,-0.26731685323477655,-0.30694377504752285,-0.48367537379635805,9.689571880031208,-0.00569585240671688,0.0034005556915132676,0.004172943247854474,0.019122303892715593,0.1991518063071771,1.224004019911464,0.25119588103399393,-0.4733081637866213,9.878596195709918,-0.004396582424970688,0.0031323149583238614,0.00620274294020794,0.543901987136139,0.18977382288687392,-0.41883882882471707,-0.41322851911765696,-0.608153026633087,9.791208613972632,-0.006627244064789121,0.0035861299283356375,-0.0021756677694015703,-0.12197152741175656,-0.15977820141115673,-0.12928379820634506
0.7821888263182812,0.133580245411219,9.712195358593684,-0.002804560246179749,0.001487729320447847,0.010062960811541899,-0.3558819321858448,0.10253677348786766,-0.5699607453609129,0.06532806643687568,2.337455338330635,9.519146123568186,-0.009356445515558948,-0.004264446271850818,-0.011000586862021247,-0.8738547191430314,0.15344231586089052,-0.270652426637376,-0.30684735007221386,-0.48799852134590693,9.706090639654404,-0.004982719027184588,0.003170397901698894,0.003700669836804673,0.011555524650663557,0.1952691526468755,1.2164227972886807,0.25807732599109645,-0.46785959501245694,9.8978753273194,-0.0036729532365504976,0.00435313886137799,0.006783475921360225,0.5371163954796664,0.18657481004322235,-0.42984879842947815,-0.41883401079461,-0.6182908633402834,9.79233668088458,-0.007167377622206055,0.003521305944472497,-0.0030997584528673437,-0.130004786001202,-0.16242599040297354,-0.13543460497374676
0.7901007102743269,0.137454947643398,9.7292586243971,-0.0023999805224934547,0.002410049292053207,0.010648806454318056,-0.34830451275433016,0.1061386753767612,-0.5672164888966427,0.05750569205493506,2.344499169000674,9.525888205258628,-0.010561842086930317,-0.0028909637492790328,-0.011119594701746189,-0.8697333779840536,0.1577024954460455,-0.2653442158320723,-0.31563260898662104,-0.4906648622241775,9.70045080223408,-0.005891657412704051,0.003651124953283133,0.0026843128556192264,0.01572271038024241,0.20184811729296698,1.2203324759558698,0.24012572868018045,-0.47621200181121154,9.88246277864454,-0.004525443213883482,0.004424086775460357,0.005716361948049889,0.538595283703026,0.1936797597000594,-0.4245146775087809,-0.411427621747068,-0.6103161684241218,9.81243343824169,-0.006229830442424685,0.004422072648362736,-0.0025684923887839,-0.1275650528021165,-0.15536143695559754,-0.13028673711351102
0.773725573949456,0.1378139365840884,9.71434016823427,-0.0027751855825514865,0.002223550503519922,0.01147089487096341,-0.356790676519123,0.11282223461347178,-0.5733018962360489,0.06573142391605105,2.3328275258696665,9.520278450186305,-0.008717799186425087,-0.004280405326688883,-0.011358316054082114,-0.8763450452132796,0.16367899635228436,-0.2710720271389943,-0.3165211193970045,-0.49187148427849375,9.700360860760457,-0.004308084727412428,0.0032878215497288586,0.00500803598615009,0.01743125076418223,0.19670717808435578,1.2113073148598108,0.2429264904404947,-0.4692473965189441,9.892969732136628,-0.003924366098839907,0.0038267135150698603,0.005538239828308063,0.5410685351425482,0.19018872928129246,-0.43302079083580314,-0.41273569045341807,-0.6019987565280194,9.802905712090608,-0.008425102952701564,0.0032694258133392773,-0.000807001293338609,-0.12507170420205277,-0.15926288370775515,-0.14223962672224744
0.7781951901629833,0.14439462741372405,9.710034208630589,-0.002215027866189909,-0.00032929066742916276,0.011317105116077442,-0.3549049924337143,0.10398126037857126,-0.5679924950355496,0.06878219790385245,2.3345124844967864,9.533779180259167,-0.010773725906959512,-0.0038596409074260186,-0.010792676041994081,-0.8728962924236209,0.1564133480592196,-0.26850229503674966,-0.2887837116436127,-0.49027100456617184,9.693474486328832,-0.006859539303099888,0.001345838374022899,0.002638091283529685,0.01815052764658337,0.1979312478482655,1.219852898981422,0.2675511897814661,-0.4620932555082809,9.904439844331646,-0.00342049268533846,0.004255169267073485,0.007973831594540945,0.5407697331583452,0.18950833249877477,-0.42544894174904924,-0.41558322690930155,-0.6079832258812353,9.767841355919522,-0.006409646559778969,0.004452773849753744,-0.005103496254692743,-0.12293516039615178,-0.1612354377621305,-0.13270890429065635
0.7794945304341272,0.11442715052599294,9.706129450911718,-0.004174858923885989,0.002194982862701961,0.009039047748413225,-0.3553307046784008,0.10748964687571064,-0.5791971262776484,0.06331455721624328,2.3370930168864192,9.519283887095616,-0.010261112799057046,-0.003489815195499872,-0.01166814719766107,-0.8733688751748675,0.15671904756300353,-0.27925171666568444,-0.2940254847119093,-0.4905748483696383,9.716826467230751,-0.005554843937511232,0.0037083379239170157,0.0033369960551270597,0.015954865499295943,0.19622744853863008,1.2156985251841503,0.22778888409539239,-0.47030421664828526,9.88807304291278,-0.003199682266904214,0.004424142431909965,0.0060640858447941265,0.5402894940194234,0.18876586080440105,-0.4274012878127637,-0.4251805123174112,-0.6020622271425005,9.78638224534617,-0.00669473189065511,0.0058440833244514205,-0.0010593932268587933,-0.12854294592647378,-0.1621884961258829,-0.13469419625940865
0.7893513207258526,0.13897362742767388,9.716566071382934,-0.001435254851704273,0.0007765360596089438,0.011079838819169996,-0.3568664680965573,0.09817679878998088,-0.5736609299068923,0.06616325145838142,2.3390220894107774,9.532727187371613,-0.007126020373149986,-0.0027313772790615864,-0.009554374171073552,-0.8765235333712238,0.1504682089217249,-0.2725602957444705,-0.30678551684979527,-0.4801484974293635,9.71381642538547,-0.004035283294650929,0.0023410886089049714,0.002936388063108574,0.01520493116965757,0.19501525915548412,1.2218019041991404,0.2354346244477742,-0.4608901358058075,9.885907132167794,-0.0046511738977481724,0.004472061572067027,0.005120194006924685,0.5360994357327676,0.18686738773662728,-0.4235091328100224,-0.4060455621825245,-0.6005940848102588,9.809291613286549,-0.007992260564648006,0.0036528315369125193,-0.003393191835088264,-0.127359851773226,-0.16464016088210587,-0.1295633991334598
0.7847719760075476,0.13587297331161782,9.708100365741727,-0.0028946388776830752,0.0028763962836454364,0.012210565268947888,-0.358581297564095,0.10107360400319247,-0.5682738062352124,0.06584335416942846,2.3417246661287843,9.509789152172235,-0.010166294090871235,-0.005050383155199275,-0.011893888323151348,-0.8794619738277527,0.15147912164705551,-0.26965166373866445,-0.30449723940528217,-0.4910769963323491,9.694507185005165,-0.004934005308328284,0.004387113206688412,0.002324784361847017,0.017904045774070627,0.19524385504863634,1.2157035354607089,0.24338561797460345,-0.4803791226905453,9.878450483246002,-0.003925428082326193,0.004448102001988495,0.005592139925859406,0.5419998306370135,0.18826124740561087,-0.4281187576534483,-0.422246211746492,-0.6073848145808444,9.794172466852691,-0.006405947122580988,0.005649724130513329,-0.0016950258734874182,-0.12316810499886352,-0.16293978375235063,-0.1358862356485238
0.788973738029073,0.14231185849725206,9.703820238117382,-0.003179752081745866,0.0012992776201718743,0.010879033751411627,-0.35949132248374227,0.10966635612563747,-0.5738253065376386,0.06319878386130144,2.348419655889776,9.508210444477443,-0.009804138868753927,-0.003298689896073932,-0.010956492824427358,-0.878531381201601,0.16239962393696977,-0.2739836231221456,-0.3084808816852423,-0.4823850460251221,9.713651575594628,-0.004891429893475826,0.0022594679257162665,0.004239607563191493,0.01452366654233962,0.2011105659912433,1.2088554525197992,0.2380380675130127,-0.46057649364164954,9.873184616858351,-0.003673967099974722,0.004351145863878376,0.006783482396200157,0.5384050732791557,0.19166095614795453,-0.4347570655707838,-0.4117816407927412,-0.6052721410570049,9.787472948113589,-0.00716334223915695,0.003523296326837568,-0.0031047337982511155,-0.1260458632631879,-0.15852712125478313,-0.1422441804465442
0.7878380923505853,0.13128541810966377,9.729527368631539,-0.002487323464703396,0.00023859304902502178,0.011389480468348537,-0.35388319843830324,0.11107109342568464,-0.5698859950738386,0.06420168310937832,2.3413993242306943,9.532202064316353,-0.009400616007010148,-0.005451155839644214,-0.01173589045197071,-0.8729299095255393,0.1637239619035013,-0.2693579001502543,-0.3059748733426144,-0.4933823920496552,9.69434386160246,-0.004749420129759068,0.00256924868405395,0.0034066609209791356,0.012291951721994548,0.19599770321010432,1.2156907957549188,0.25860162140877785,-0.451961372744781,9.87589504267514,-0.004399712915396701,0.0043751054339569075,0.006311536477265436,0.5354107734952163,0.18682900224253776,-0.430105689402398,-0.41744014893926906,-0.6154417509349389,9.788581683197506,-0.006838459119434532,0.004071357343138515,-0.002521281074433151,-0.12829238902850545,-0.16365186496856718,-0.13689154531478004
0.7839761488480866,0.13332625310833823,9.70819927650187,-0.0013313533131921263,0.001530897627395133,0.0103321295873546,-0.3482740437854718,0.1088560712573579,-0.5713462415853703,0.05893672473768232,2.3442758494760576,9.517646140235172,-0.009216141094107951,-0.0034903761475606203,-0.009730138471883868,-0.8716766322294186,0.15782672476612175,-0.2719424382452608,-0.31461205943178006,-0.4957672983662707,9.688715115887641,-0.00393377605635412,0.0029964569824868885,0.003881078263905612,0.024275012167031592,0.2018120866791914,1.2169329782072968,0.24387409664857584,-0.4754997635047971,9.888921988129328,-0.004524375046560146,0.003801685153146772,0.005660468481884452,0.5468981754752738,0.19116219017198996,-0.42737366577207897,-0.4156050951976503,-0.5958377803950784,9.791212765263435,-0.008278013777410616,0.003848184978442121,-0.00276254127076727,-0.12121898709156892,-0.1583139064157512,-0.13196395477507794
0.7848325496239366,0.1483011193284845,9.714478202476895,-0.002669273524110327,0.0029769329069612737,0.010719185758299683,-0.35243038846138713,0.10765891619004292,-0.571616050183811,0.07778383045359402,2.3401747868944853,9.52957961968734,-0.010787677117501466,-0.0038725719127905784,-0.010784481359286627,-0.8724150224813267,0.15812034114881054,-0.2687741255625061,-0.3122130136125654,-0.4794163300579754,9.680221012724951,-0.004760636491685146,0.0010039550299200401,0.0030019054768486626,0.020558762022948294,0.18937761689227114,1.2196210420057896,0.24250248144039047,-0.4476643935969046,9.894202757373622,-0.0030739654922252667,0.004374167726506075,0.006660266875508889,0.544113152605464,0.17947999039813406,-0.42462885083143936,-0.4079702817914009,-0.615294071131166,9.781720346601967,-0.005972100906789839,0.006034125988860132,-0.004281209678313213,-0.12249029297157372,-0.16856439086002506,-0.13002893125657355
0.7876929113801523,0.13904723566316252,9.703971611320279,-0.0037057758667449103,0.001030821758965932,0.011031858579890034,-0.3582384973369972,0.10899871023621292,-0.5828589343868483,0.06024457290454647,2.3347696471458472,9.542237978503783,-0.009249352477301225,-0.00466615200650568,-0.01047260808981338,-0.8787539519550498,0.16055478833590248,-0.2820112323468615,-0.3132659046274653,-0.4922576749102921,9.700968210412702,-0.004270589103228141,0.002938242397219124,0.0032263958725756324,0.020591594555392334,0.19401003440551645,1.212781336602207,0.24576435518507306,-0.4791309538902688,9.897649714869416,-0.005375789516599011,0.003252237944210944,0.004538447909523558,0.5449312437675674,0.18651760282322005,-0.430285102877164,-0.42478602037196905,-0.5948373167459187,9.796181014394694,-0.00878002681025644,0.004525778152228907,-0.002471535419124237,-0.12266165409507811,-0.16342539433926467,-0.1395460473704478
0.7758227506206781,0.14169109605163732,9.697536177473948,-0.002383416686188496,0.000993954572239995,0.01064177909037401,-0.34828339194770797,0.1098043425848313,-0.5676767093125383,0.07315110190503724,2.3277574462442026,9.5047844107475,-0.008736748879789301,-0.004294326597922871,-0.011348112754192764,-0.867291279858692,0.16026792451841423,-0.2731972590906282,-0.30225966801992493,-0.477691448261679,9.714629214876508,-0.004802209755388899,0.0031315956075583552,0.001086084442374952,0.017397668945153568,0.19011820104761173,1.2149745974874102,0.25340879105760244,-0.46009675809365935,9.897266471386603,-0.0022235648856106277,0.004921621937942289,0.007782293922709716,0.5407429482175413,0.18240612903387152,-0.4288204566177785,-0.4021648055615411,-0.5991828680317266,9.792314540739945,-0.0057568616362414626,0.0030060403899545515,-0.004085539900078465,-0.12489794901103263,-0.16659658518839576,-0.1346790865479978
0.7839215275493866,0.14535283248331088,9.714596513331252,-0.004277741936446704,0.0014366945342291157,0.009776729859236236,-0.3519500193285134,0.10546517056931907,-0.5723633651426717,0.058093452054065214,2.3393146023407088,9.54119316686367,-0.011308255580698087,-0.004251350783723347,-0.009903872688769048,-0.8721666398765373,0.1578448220061465,-0.2707233775430525,-0.2943827517372195,-0.49305224630299155,9.68846562943014,-0.005839874279823143,0.003083777093748763,0.0049988912002493675,0.025494727366988955,0.1998519728855931,1.2140071964746415,0.2355557317165876,-0.47775197728305285,9.88006580277923,-0.0039253733930491716,0.003824713927072076,0.005537246346443558,0.5481271723982779,0.18966952162580752,-0.4302848808404797,-0.4197073586401314,-0.6029863146752212,9.790599637793731,-0.008023646688564208,0.004106361254663331,-0.0012068024126974614,-0.11631754293629021,-0.1612554574991643,-0.13731124319224375
0.7906627697724792,0.13329094061131097,9.72542307990417,-0.002758613844747387,0.0008074714500783369,0.011461867583988065,-0.35758752282878514,0.0969960548785599,-0.5783122066013896,0.06564649704405472,2.345312054067759,9.52296661630793,-0.009383365319412586,-0.004286320853763098,-0.010985262801637504,-0.8769851998330949,0.14694618867809126,-0.2786059317309832,-0.3077902586892259,-0.4945587657748816,9.706259924538763,-0.005219033917894257,0.0037635531798855017,0.003987678701455654,0.01035806919575541,0.19575378020375966,1.2064097896703565,0.256175998519188,-0.4593590634950578,9.884570238301796,-0.002599639493685568,0.0038227828557208035,0.005886983246186228,0.5349794003151016,0.1880050504678747,-0.4374405914979381,-0.42236396332136217,-0.6019567968691627,9.803845294427308,-0.007050683556468642,0.004555587457760773,-0.0028659011324948824,-0.13019952663833825,-0.15948710633084767,-0.1422683717604357
0.7917665693859907,0.1481425912684355,9.731691017696772,-0.0021276793520171302,0.0018312913968554121,0.010560345325547043,-0.3529215844796196,0.10741367663561358,-0.571131893150798,0.06809987493616351,2.3518492266197457,9.513029783112989,-0.009385362189560277,-0.004287313519772967,-0.010984249330470618,-0.8731463524513489,0.15833217873769803,-0.2704881230277556,-0.32061070774600053,-0.48424218449768053,9.703244841167852,-0.005463554375483671,0.002796406333300506,0.0038739345896917333,0.007394019816606165,0.196512042741352,1.2234928145255175,0.24625981777641684,-0.4706067706544839,9.886685316345861,-0.003926441945750417,0.004446109004488882,0.005592146400699338,0.5302517390033492,0.19058419336148777,-0.42137495078691506,-0.41009736875121083,-0.6027761998516301,9.78376015264529,-0.006870527642684833,0.003330926349857489,-0.0037443418063698025,-0.13540213296558315,-0.15801941370979983,-0.1276473244732598
0.778274869655774,0.13526508583330765,9.719038356547513,-0.0029240094245817257,0.0021346458666729766,0.010793584432840337,-0.3411630818177066,0.11129597530087518,-0.5759372124142282,0.06148606631563892,2.328062898535252,9.521608422444952,-0.010287046881164892,-0.0035086854502491367,-0.011652871829550243,-0.8641073243851604,0.1587774419358019,-0.2756083841835044,-0.3229444891572019,-0.4942268755370203,9.707355908933486,-0.005413833307240847,0.004016119345052223,0.002500048865063827,0.019599924479720806,0.19010766906239562,1.2125373587552062,0.23618291218347545,-0.472460412104699,9.890560503185874,-0.004274989525741273,0.004325131049352454,0.006906710936526136,0.5444300668627451,0.1855514523696223,-0.4293059854117464,-0.4123418308726898,-0.611838457885627,9.8063644882938,-0.007552692738736063,0.0052341806234297945,-0.0025748940940465157,-0.12389280047035886,-0.16561923954248284,-0.13906743497304297
0.7789215405896274,0.1442693839037733,9.693409457410768,-0.004652931193506455,0.0012502270784390847,0.010594818429818997,-0.3478247074417657,0.09983811121351228,-0.573612192930353,0.06344595004465395,2.3474456183868457,9.522531192147197,-0.009824087095613976,-0.0033135823044652584,-0.010944274624173392,-0.8682221877357656,0.15073552401928647,-0.27352720643283696,-0.309858173867573,-0.48646957391176154,9.685179836972132,-0.004128581072257322,0.0032470223521914626,0.0023924500358769468,0.01424409325957726,0.19672448267148246,1.2174034294086125,0.2609726198737061,-0.4750661971392689,9.900298947157397,-0.003799581450692497,0.003153344465050817,0.006077520751448478,0.5356576824395607,0.1902660782615623,-0.42695258293216115,-0.41000661675111716,-0.6194925045366654,9.779395105136778,-0.007553707733619794,0.002688335922188458,-0.0027198690123834365,-0.1299931942623172,-0.16047215201359114,-0.13616527533701964
0.779233250111843,0.1487361572580403,9.72534190686231,-0.002368858129809797,-0.0004201610277995955,0.010638759461119161,-0.355097003117335,0.10770940651665105,-0.5762653687364166,0.0585883176666523,2.3454783211686134,9.531430379544668,-0.009232095580672619,-0.0035032832239322094,-0.009719947213963676,-0.8755849696414713,0.15992293834448398,-0.276867691670968,-0.3081051161071191,-0.48191646637179414,9.697507964494916,-0.004659130557815475,0.0016573209855027312,0.003943597291337226,0.016229701728983473,0.20306086044099672,1.2137405701745947,0.2390344114538568,-0.46248343726605934,9.87961300808516,-0.003800711647263638,0.004397127662985431,0.006187320929914885,0.5381647607682983,0.19288841766043163,-0.4340337024997656,-0.4081163264632255,-0.5997578031407477,9.782074647157625,-0.006508544490082225,0.004620404892813623,-0.0019427993326857646,-0.12872472687714095,-0.15412407663554933,-0.1403008979609353
0.7818009266664508,0.13462598078351085,9.727645612131775,-0.002246143148687483,0.002482131995293704,0.011300003925377352,-0.3560685911795026,0.11038321905651882,-0.5740501775168829,0.05624013142236963,2.339342237932715,9.51901650465065,-0.009263308443038451,-0.004678083163541909,-0.010464430161462125,-0.8765621959602667,0.15875877766971216,-0.2731872878011232,-0.3166800007086844,-0.4844886277683849,9.691865505295265,-0.005698864077871557,0.0033925601295178537,0.0041639432020082814,0.01493357269642301,0.1874464760293404,1.220830455503426,0.23310204054580558,-0.4850366177496158,9.88871806796884,-0.003674987917991819,0.004348152911980151,0.006783495415834869,0.5367853377083432,0.1812556182150552,-0.422247587996448,-0.41858106054944905,-0.6183254122986619,9.784394917758993,-0.00722882290982467,0.0032353981120142278,-0.002137417459264515,-0.12857948116243698,-0.16780657966259505,-0.13201590341674616
0.8016088989338166,0.13417376327433517,9.706433509831914,-0.004382628856690474,0.0006784089142297646,0.010515404112519763,-0.35806879298184746,0.10957449027818751,-0.5630779924786604,0.07718297937936844,2.3571594488672707,9.531247427427108,-0.00960021909109241,-0.0052619873677494985,-0.010656234998566308,-0.877085742426103,0.16260286735965976,-0.2622649811512553,-0.30486169229250165,-0.47325825219599715,9.72213901522859,-0.005179528793174744,0.0034169670308041374,0.0022070405050817112,0.017451116734062272,0.2045230777688676,1.2161840299903974,0.2585402072580743,-0.46447693068530804,9.88056832532649,-0.004400720209605966,0.0043731058459591235,0.006310542995400932,0.5398412319554697,0.19610516264882266,-0.42574353042445584,-0.4030163562799067,-0.6078208874290884,9.776497489109982,-0.006867503346097134,0.003332918258517116,-0.0037473227340846823,-0.12511663589453884,-0.15439329522739023,-0.13076001635538795
0.7700411156382945,0.14131988882863988,9.708420846836319,-0.0019758500026238256,0.0019093060424697865,0.0112215817157529,-0.3529081239782153,0.1088900791228131,-0.5725843309328366,0.04163231314805535,2.327272069665197,9.510966387119934,-0.011582260911137562,-0.0034976325279037646,-0.01092409171904394,-0.8729081119552544,0.15978584807772608,-0.27124518109414364,-0.30645145051115813,-0.498522366511099,9.694606002286312,-0.0045059022711079035,0.0035323945867057837,0.0035144060959195244,0.006698254466552011,0.20554742444453122,1.2229959794869814,0.24343371288542096,-0.4687267912384434,9.897111812475453,-0.003926510544213185,0.00506749717060808,0.005647053069704744,0.5309937023499398,0.19573164297916548,-0.4174978330654904,-0.4174402176498847,-0.6001726943254238,9.786953451257425,-0.005643195275237162,0.004040327647533554,-0.003846699310593039,-0.13686593144264947,-0.1531355016785186,-0.12447571253463224
0.7859177067647359,0.14432358749493296,9.710616184287804,-0.0025478095430696832,0.002317170895404725,0.009967468664296484,-0.3531722323872009,0.10377798063642762,-0.5743344857299326,0.0777475317179136,2.3522576156833823,9.532454619662989,-0.008727484218946731,-0.0031344286310605457,-0.010591414748031713,-0.8736085177389395,0.15435083582989872,-0.2748178247377424,-0.3086779384849293,-0.4813295486511686,9.709568282571679,-0.006629223087408387,0.0007446943424255144,0.002336075896397856,0.02232106415347593,0.19790737087827995,1.210339905807085,0.2460144476703685,-0.4809005364893073,9.904103299623179,-0.0036761867130257284,0.006213324276033966,0.006948202263306682,0.5420417135087853,0.1887106114233543,-0.4339806978445974,-0.4133047963641938,-0.6033841141019829,9.79493280798642,-0.006146219394544393,0.0047179223476148955,-0.003553699041281114,-0.12165867986404204,-0.1587894930632846,-0.14100009690579518
0.7919883602512576,0.1268801052028156,9.73428544077742,-0.006726654435894036,0.0009161723684579936,0.012620086897139067,-0.3553961492420697,0.10228638433286681,-0.5694727687194688,0.07123328557863659,2.328585626347257,9.540964498810622,-0.009735238326410399,-0.0048811444021821,-0.011167908177140263,-0.8709099747328223,0.15075130393802919,-0.27182266601013716,-0.291681277805855,-0.4985920865065956,9.705558007325468,-0.005322545906278022,0.0031041885657042538,0.003037987396964319,0.0198586780872852,0.19988174968075306,1.223761018436274,0.236767106914126,-0.4882672029409929,9.884753264085031,-0.0036759948268231704,0.004347159868879148,0.006783495345880021,0.5434250481917061,0.1892747385291043,-0.4210357678423307,-0.41901452607991346,-0.6133805015064976,9.79602146010362,-0.006327373639258604,0.003396742250498021,-0.0028232332374242427,-0.12222156056233481,-0.1578271208892635,-0.12684187391990603
0.7730540281610659,0.14068812716505188,9.71707213433186,0.0014202299248038245,0.0022015407876959004,0.008800194720618576,-0.3519573179445784,0.10206836285082982,-0.5750761062017881,0.050921841245139085,2.3636307329924153,9.505055997556505,-0.009809833462339686,-0.002150694375076841,-0.01018961874390663,-0.8714096278019652,0.15387750247936965,-0.2745622321237064,-0.3069097917825378,-0.46652718584285957,9.70101207216461,-0.004375101081695876,0.002278881675103166,0.002276702403877715,0.016449998679154417,0.20038027598729052,1.2203352384937973,0.24025108595244013,-0.4386689373589755,9.880969109976615,-0.0024749230586230135,0.00377180851671774,0.006482164250241707,0.5420276538876259,0.19388725451517805,-0.42644658066825053,-0.3987886404925258,-0.5942114315286943,9.786925001100691,-0.006003499901924887,0.003943805966618346,-0.0022387872666364294,-0.12514158494626834,-0.15805754154012705,-0.1288113938921046
0.7772458917727555,0.14809609522273762,9.712793558667308,0.0002487223644381683,0.002321419834823972,0.009852545921532877,-0.35244466982648726,0.10110837070259227,-0.5767946175396972,0.07059067563121955,2.341661325444,9.529550847441014,-0.01081757971009256,-0.0038993930961805498,-0.010765078805900734,-0.8714094157019916,0.15294563223031912,-0.2718602434497945,-0.31279953847631586,-0.49082373681296515,9.69691104414225,-0.00676202772248023,0.0019962134314280263,0.0035717768710538432,0.01690134624850815,0.19232342064198005,1.2227837566816775,0.2552659297232848,-0.48434926748550344,9.908957013597078,-0.004401788762307213,0.0049945009233759285,0.006365443049656712,0.5397421802024261,0.18464999608441232,-0.422738555760364,-0.4143822050138683,-0.6109136344444158,9.781120825941308,-0.006541614694564419,0.0038809765831164483,-0.0031648644440419,-0.12810693584902338,-0.16829930389419795,-0.12957181345147029
0.7799096741412451,0.13324341690389918,9.71509282730112,-0.011016151469962458,-0.00127609286424151,0.011046907204854935,-0.35312456066423953,0.11232834150058889,-0.5750003464506911,0.06896627606615924,2.330367359232345,9.540620869946096,-0.010383839021275307,-0.0048771141223426795,-0.010802994631947468,-0.8746130609957018,0.15973679670301044,-0.27368851994336535,-0.3138939360966591,-0.5040769592336379,9.717613486155615,-0.005375270410264631,0.001882485623417721,0.004409868239999819,0.013997655232468563,0.19379208872733947,1.2132552647475665,0.2499127138237243,-0.47428052878094473,9.901936185196384,-0.004401788762307213,0.0049945009233759285,0.006365443049656712,0.5363701848616319,0.18708654889207466,-0.42717095712273345,-0.4250705539532637,-0.6124415038190009,9.822419340468151,-0.007044633259220541,0.00455857244860485,-0.0028728641586236846,-0.12878109766544138,-0.16243013004861295,-0.13591682040304923
0.790128190982708,0.1167712551363168,9.747291407739757,-0.00921703137028116,0.004593052617127719,0.010497968059369834,-0.3563287762959663,0.10310482275006763,-0.579724436844003,0.05265544933547519,2.338732969309185,9.519366840318662,-0.007582256538431176,-0.0027745580837216003,-0.011822725329866746,-0.875556041640069,0.1533564720422805,-0.2752924543959008,-0.30453758020885113,-0.4832428721737069,9.698125751888137,-0.003221653920019022,0.0027623014938135087,0.0034068059053755507,0.016904089418337872,0.1920780361124265,1.2210749571300403,0.2583732992753811,-0.45110380580525017,9.880164075814813,-0.0017503414419807125,0.004988645462374334,0.007065929895436046,0.5414458162149904,0.1834140241929946,-0.4232072388305928,-0.3935090426992208,-0.5963920168852193,9.758477327968361,-0.006110117692594606,0.002913498669249924,-0.0024835841614330887,-0.12467136528893406,-0.16513737465473105,-0.13052606049037163
0.7906629850367661,0.13187580030581106,9.708880359061771,0.009827581388450496,0.004354193355916879,0.009868313294209436,-0.3548351562122282,0.11330091888783379,-0.5732904204005297,0.05420833417317519,2.3710457452016422,9.531213949620287,-0.012881451311304276,-0.0034925475842169456,-0.010192217790377014,-0.8726817385323548,0.16346073960210425,-0.2705732544929005,-0.31526501835020876,-0.478857806125405,9.7283440922409,-0.00499794878309525,0.0015961117742695175,0.003285912988135096,0.01718186703127798,0.19573172931827945,1.2120395692271746,0.23974760071509857,-0.47283389200340936,9.88434611275416,-0.0056014501416260225,0.001838496732834194,0.006334360510283243,0.5451998152900115,0.1894425597801267,-0.43079063738397394,-0.4123639987067647,-0.6075424202442634,9.779470938636472,-0.007869520052240895,0.004689098049162637,-0.0031662987276499382,-0.12388767050767459,-0.1614705504447123,-0.13710854001579723
0.7838056959291727,0.14867734647946657,9.730033691335185,-0.0059521206490883724,-0.0015340742891914961,0.010974890334483412,-0.3587947449213677,0.10089301298367434,-0.57633337428253,0.074700507540257,2.3228800617002383,9.534029789377088,-0.009877235544597001,-0.004506267015132816,-0.01167549239153859,-0.878982575764011,0.1548212491131228,-0.2743465067069691,-0.30869114406125,-0.5026912389541587,9.706363575562936,-0.004129586260579105,0.003244023834160723,0.0023894502882113792,0.015691448941034608,0.19476955970552556,1.2220471555771677,0.25185286031514986,-0.49406457507471563,9.885640611630604,-0.003926517498806058,0.005066497216209471,0.005647059614499523,0.5436666814943817,0.1873088780706308,-0.4227302978671012,-0.4338770895566754,-0.6402193510490956,9.797589650821935,-0.00643198036630773,0.0023664295697263683,-0.0030700189997712665,-0.1253961417845794,-0.16220642927148485,-0.12979365883022345
0.7951950505603426,0.1385386405406468,9.749333012177424,-0.0038460200631858926,-0.0004681670312275466,0.010351536470710191,-0.35657510119592495,0.10575847360447699,-0.5755534629545433,0.07093355728160732,2.347569461659274,9.519918107818476,-0.008742444927210834,-0.0031453647219464656,-0.010583255144832337,-0.8763145275825299,0.15895583960528203,-0.2761205944622514,-0.31595749028827447,-0.46929584611759806,9.707403782658085,-0.005712081296073916,0.0018242702268814173,0.0037541858513340217,0.012512403468916602,0.191849559260302,1.2191126465405313,0.24629788911411982,-0.4549479796504372,9.883987250396922,-0.0029513519516888875,0.004940602149121152,0.007311367454954076,0.537065550888944,0.18367651693070475,-0.42519082957368626,-0.3928844594222489,-0.5901743589938546,9.770263233240172,-0.006215726043031704,0.004429034907715779,-0.0025824061539991183,-0.12905295340426742,-0.16438644078075493,-0.1322585514440232
0.7792719569558195,0.14436834679132432,9.721574700933896,0.0004833111395496001,0.00597500889322244,0.009769088753220538,-0.3516771487522183,0.10769521341557213,-0.576739987190835,0.05056107848205345,2.33831462563447,9.519586420140511,-0.009414275759046084,-0.004311163869348938,-0.01096689518616174,-0.872897780831354,0.15898446040217903,-0.2753823292739119,-0.3149725909112164,-0.48905400116036274,9.69225289989426,-0.004843722667368445,0.003471182294675819,0.0028577239542597944,0.020832116540492693,0.19474445515409405,1.215710268376548,0.21844136715145684,-0.4581782880958045,9.89561604773334,-0.00380158869914024,0.0031513517883506393,0.0060765206548343475,0.54588207611309,0.1853086016067418,-0.42758577186573504,-0.42302146119441847,-0.6153192103315814,9.8070781216739,-0.0073644810187346674,0.0040124979575603,-0.0034612866777068933,-0.12121567335436013,-0.1634350283648006,-0.1361199714981086
0.7819210789604544,0.1345238552867345,9.666336927430429,-0.008352623451008992,0.0007921593173417159,0.01166865506824173,-0.35438340457712464,0.1098441609183905,-0.5686765355080696,0.07151890914125238,2.343169669168693,9.520997908837293,-0.009722967297697985,-0.003722248683788544,-0.010412188562638017,-0.876330807435813,0.16028196245562348,-0.26979393364060306,-0.3069465773664088,-0.49194854347627925,9.714339651723353,-0.004416622637934367,0.0026184716072947868,0.004052341905105828,0.013758743670983042,0.19916993767398677,1.2205744050640814,0.25731104892302825,-0.4767620767365378,9.885284420139715,-0.00332638564872394,0.003845742792200161,0.005414037300592222,0.5395691659902782,0.19244663758107827,-0.4254761946070458,-0.41538185732010113,-0.6247233146869428,9.788213293556025,-0.008298991088553415,0.0031127266666686284,-0.0039985348079916785,-0.1265938241686008,-0.15756161879740127,-0.13077191419915746
0.7945373994431972,0.14001475894872745,9.73665048859363,-0.004737671945683358,-0.0023322268160858033,0.01132544973117691,-0.35483279603902995,0.10919790983597019,-0.5794257868239723,0.06375729849892767,2.3502428255986048,9.527801608445223,-0.0089523112056315,-0.004117065354071415,-0.01025828279722437,-0.8719193894897168,0.15990365823650973,-0.27905862832648787,-0.3190360646143896,-0.46981038782620693,9.690557502209609,-0.0065175103020638945,0.002960357056648453,0.003681523402022961,0.01302262839626643,0.1977072043953906,1.2198419989895462,0.24717779800234735,-0.4498250634687705,9.894499723281264,-0.005127384242373738,0.0037756709802197206,0.005781683879302304,0.5358856358200326,0.19028047931097955,-0.42451007461772144,-0.39418312697094937,-0.5816061585448986,9.795431410402303,-0.007255850017938657,0.005044798689882905,-0.003217476292956223,-0.1305128962293702,-0.16096452518440402,-0.13079764946275224
0.7321826684071798,0.11641907437221594,9.717471573196983,0.0022383263813340786,0.004031165294751231,0.009967803538243374,-0.351976313837265,0.10299750553854693,-0.5689646679077428,0.01707930098707189,2.338246011338263,9.51174419106614,-0.015288194186005613,-0.0036795497194398396,-0.009806004201159324,-0.875090846345328,0.1563783077359487,-0.2699705386338632,-0.36428596854363376,-0.450736963896935,9.696883257422108,-0.015066092322668779,0.0040131306227058254,0.0030321935508673646,0.013983725184152314,0.19306425388627863,1.2183828387741304,0.20238396530451186,-0.48411491426718734,9.788795873656662,-0.027335175931050115,0.009205361161220789,-0.004150418257239443,0.5383102658125652,0.18708592237077687,-0.425205123072948,-0.48887962197203744,-0.6381357752036798,9.61746965809322,-0.018870336987310932,0.030118324380870688,0.03082377842630548,-0.1297812263435864,-0.15999221075426506,-0.13005944025989663
0.8496940684020831,0.12889603473622363,9.690075511339248,0.0022301719249717216,-0.00445608404689017,0.012121371999576568,-0.3504801635993184,0.10329306228114937,-0.5765257328246309,0.11314226744088202,2.311161276828863,9.53642883478748,0.0018302444803442119,-0.004790352497549958,-0.011658407185005437,-0.8704351247843214,0.15553367532694698,-0.27800684666927616,-0.2491262620171362,-0.5144833197610535,9.718752898680622,0.017893682952975918,0.0017858433218080401,0.0043642322358385735,0.02105679834898169,0.19426104574544525,1.2237681675710381,0.27185308880932785,-0.5835986306210377,10.053884355667668,0.020857093318395723,-0.0020469044467112778,0.006759797518695809,0.5458427302680381,0.18731461219098286,-0.4195419026822892,-0.46945498630551497,-0.4016248406346851,10.031344852674295,-0.002563058191590622,-0.01794193108879737,-0.0221985040827387,-0.1185910714966116,-0.16248305388696271,-0.12438509430736441
0.8029981826520255,0.13455699158310633,9.734510080951154,0.005552700128211668,-0.004189371145651872,0.011852577343773702,-0.3534326227438024,0.10374675899773751,-0.5701855993647177,0.10740179273253406,2.3145873676957454,9.52179791176483,-0.016430712713942336,-0.000964361610155018,-0.010748493959469524,-0.8728862480254663,0.1542207674704564,-0.26822152026608015,-0.29826608513605346,-0.5068183393941397,9.716982481267596,-0.01605604095726595,0.005182030494682502,0.005568112672241723,0.01958928520931768,0.1952461169164935,1.2266942048183886,0.27767128960553217,-0.5280465739724776,9.811093949204377,-0.01892962325470437,0.013259033716112005,-0.00553397599831809,0.5460606766651583,0.18635528054656342,-0.4166040212748805,-0.4930743518316952,-1.0710292139023039,9.60826571252162,-0.004693986433768653,0.02395792455670534,0.001132865523710098,-0.1229821193098562,-0.16392909832115166,-0.12612019822245163
0.7619762293813779,0.1636894985409544,9.69144155636287,0.011809134938304744,0.0024698295898411735,0.0036161407337180836,-0.35485558969310804,0.10794445653629924,-0.5752855360737306,0.05127858171213215,2.3511341041447555,9.544542454597917,-0.003995052444126508,-0.003977987980357611,-0.012079686941175635,-0.8753201216792673,0.1552980673665341,-0.2760576885881139,-0.3370216627701558,-0.478172661867727,9.626734248180737,0.013834910895323385,0.0027793935205933824,0.002792650743674517,0.012781521870018646,0.19355066380014319,1.2105668253025976,0.21084933650358806,-0.3368609306362473,9.897300705167893,0.011382097845478134,0.002575550789513878,-0.0052574303387297894,0.5378436407798783,0.18682017876334797,-0.4288685956624429,-0.2874574110479342,-0.3443055189890612,9.750210058010868,0.001435781551267074,0.0008046783644844051,-0.03218760537950551,-0.1268197150369468,-0.1665825084945179,-0.14030483549265677
0.8153816722470726,0.1378155652700187,9.72810328346908,-0.011049650408229968,-0.0019667867898884596,0.014591500936470641,-0.35164986606025683,0.10944047539235247,-0.5813653864478855,0.09672304052435356,2.392938680969666,9.537030317501557,-0.022025351893134006,-0.006189495369164407,-0.01103126534259378,-0.873128925904797,0.15861976425478275,-0.2824576052173008,-0.26191984516557476,-0.48382532751199864,9.759774488343638,-0.029423328972044343,0.0012073354026801105,0.0021884406385121054,0.01542663140705078,0.18670961162122762,1.2171701090783003,0.2844027676419555,-0.39025051344011896,9.962449578072972,-0.027341349431618436,0.012867984533117561,0.0111920669366112,0.5377611049806778,0.18075767887896352,-0.42272591701272594,-0.2913342026228591,-0.5866934224688359,9.957374379861337,-0.011044963364289373,0.0228864162066975,-0.006488783437233793,-0.12809348319524244,-0.16902888330119414,-0.13250263618834696
0.7686254074278394,0.15595487285037563,9.778970607338719,-0.007672819675634911,0.006075818617704008,0.008614611154889762,-0.35464664767253445,0.10835756889640984,-0.565760108030332,0.0018775660231695572,2.2909686076156333,9.52869823782008,-0.014745937800150183,-0.0031368958214944478,-0.01225354332424677,-0.8731553326417175,0.15981738748160285,-0.26929284090908673,-0.35812403714975166,-0.516628243216916,9.713368073195218,-0.012679159198690216,0.004295796432575348,0.0017341190916837829,0.017159811983259332,0.1954956540952119,1.2218057391040462,0.18389193416656818,-0.5009897741031883,9.835291622321552,-0.009910114201271854,-0.002280941360704212,0.009357336000528075,0.5399926780071063,0.18906724371398567,-0.4191038646828611,-0.48165104868795605,-0.4054906898390914,9.880334170292908,-0.01944305941648903,0.001637643481274936,0.013681129461967501,-0.12539906665754771,-0.16367084749490954,-0.13028438962406041
0.7322787366067832,0.12330288816620913,9.647186170042769,-0.018400634454043427,0.011280101438532204,0.012455142159971259,-0.3592845837968585,0.10838393157251118,-0.5660222349385255,0.038269608667774915,2.3037075657742014,9.539201461477008,-0.0003502691675740875,-0.004988777010238768,-0.013928004934388848,-0.880727620812516,0.16005786520575213,-0.2673560932945088,-0.3337966203296106,-0.5430426393854905,9.666707951175352,0.014988341196801147,0.003261818214818156,0.003928755032036749,0.011803433583764693,0.1972225740059367,1.2181307528369465,0.22086795624834155,-0.6117371271883791,9.79829280410215,0.020707768751827664,-0.002350397531776988,0.0030136545527725176,0.537849773236149,0.19025571838538313,-0.4262060820195846,-0.5282816267760466,0.2243344700493164,9.918678773977286,-0.00042027522083691506,-0.02375647035751263,0.06732006383606136,-0.12730651766212212,-0.15853095102350145,-0.1349270695536221
0.7816400244546724,0.08602072707120481,9.598655278354236,-0.006888670384700691,-0.014028134053876633,0.012682387681245766,-0.3612176642373289,0.1103662592618104,-0.5684554377543444,0.10578858512646433,2.4207834355984987,9.49718533280176,-0.01138925579429677,-0.005480879090057155,-0.010617516934399098,-0.88095405845587,0.15709035030841034,-0.2695040752142947,-0.3280036325592465,-0.11069947502108601,9.88007829224708,0.00349194474102111,0.006137152330134794,0.004609579720796254,0.011535042856945878,0.1925869365383433,1.221062941385932,0.3024132463297448,-0.08602027312444822,9.967434079743738,-0.016366432363123778,-0.005340640714534739,0.014176296641279364,0.5363124480313495,0.18714447278049107,-0.4183823376474359,-0.3584971271283049,-3.0606135735198015,9.132204898820717,-0.026100045684213362,0.01882961903666947,0.10703869151954293,-0.12908685899463926,-0.1643935544254438,-0.1261546497568234
0.9191197368129056,0.14986971176056396,10.141888473207086,0.023349954015635735,0.0005592994683425682,0.01087004924424947,-0.3504369024944862,0.108452341485651,-0.5806353064724447,0.06894490313106563,2.111580987555543,9.539123566804458,0.010129124076544607,-0.008216242481590948,-0.020183543269843982,-0.8694682783045696,0.15818614305037174,-0.2802469879283893,-0.23634792971846708,-1.3288393477790141,9.25311693437001,0.07749319311350289,0.005366211521816196,0.001137117397842613,0.018178938816377638,0.20427781122084607,1.2181388070459502,0.16411244375723838,-1.1858691042333938,9.84726190082912,0.10513032901409225,0.015609706579929737,-0.0109807274293287,0.5427491498150027,0.1916804713869243,-0.42715932806504225,-0.9443757500614937,-1.9372610527001692,11.624247848004394,0.06574172725013357,-0.08174072734112069,-0.2966618669848109,-0.12290406466703602,-0.1587899054976181,-0.13661194438766527
1.8396356873507629,0.6387048655737896,10.896567381123418,-0.1251542328987035,0.29090442770647634,0.10508829965940344,-0.34777345515512337,0.10670440294846745,-0.5774643537543063,0.15515742097557744,2.50182034313835,9.764092519736247,0.014208985611225536,0.005143407762302313,-0.02381105208701778,-0.8718827856553831,0.15140083290339576,-0.2764748079933634,-0.2569681626751248,-0.6421955449210004,9.608208266224924,0.27448676564596275,0.010999022857475933,0.005898276222680417,0.021623411591028187,0.20890030185257563,1.2142354902942294,0.2674823423401773,-0.93868604554694,9.711533023959227,0.31812939031377024,-0.012718901749053123,-0.012507857285993868,0.5478917691541969,0.1911377492579403,-0.43005209352785745,-0.9776074470584099,-1.1184806738412498,11.481199165971496,0.17571088397281306,-0.3298814424908944,-0.405983972401152,-0.10478264955973386,-0.16714231500918403,-0.1521462704065161
0.3822013495445355,1.0675325745596431,10.117504528437406,-0.6032173920240796,0.5160944194822491,0.23420951603414436,-0.332808780744629,0.1190897364407828,-0.5790172752178803,0.08801307470650388,2.665255271338032,9.425996820719734,0.04638394274512245,0.027114844920745666,-0.10187394358883489,-0.8652961084229559,0.15148551096581206,-0.27329090274012974,-0.2639269120605597,-0.9083593050579796,9.583605092654526,0.7706163877390574,0.018033849840069165,-0.005802293852669605,0.0170588324334807,0.23236151035735822,1.2220196133411498,0.36869484388505147,-1.2620886692351068,9.496861000692013,0.7766438483645699,-0.009022189384423444,-0.04469753409509768,0.5446319778061481,0.1846082081312359,-0.4239272096888068,-1.1519703047346859,-1.1220363703926166,11.497263756037766,0.4436194067555363,-0.6419455887270087,-0.38743821708344717,-0.08618693655705546,-0.1696440473413722,-0.16132404106502035
-0.2993970469818111,0.9030600793476191,9.660879787342001,-1.8815994950247192,0.5327848296352572,0.34817407342628315,-0.3218806061939592,0.15660840929615955,-0.5759950936943264,-0.2323741404712573,2.3086380989935233,9.326406013886743,-0.007363361925658509,0.015964348006011483,-0.10254402431587477,-0.868474213562858,0.15290649006703763,-0.27502919158655526,-0.5846448932221544,-0.23143409083431954,9.840252515961058,1.0196670319616086,0.008493016997741664,-0.0332064121199463,0.01273189171611684,0.24726773480726494,1.2173591571749125,0.06788696895749302,-0.3185387765426369,10.11718132237638,1.008240703213223,-0.012357365856679252,-0.058198728638945756,0.5437940810204187,0.16775677224072835,-0.42553072408056586,-0.6318082607663573,0.4295717078147133,11.365475207094976,0.5783182599540322,-0.8727941914016393,-0.313238849463631,-0.06784555470087529,-0.18458906011583578,-0.1771088323457724
0.314686278063948,0.17978947873004433,9.26534914202607,-3.9131037455819175,0.22280593281011388,0.3150907133928015,-0.32382348774122477,0.2233197683635432,-0.5510652476523649,0.034063125052859716,2.1037065254613125,9.530206596588664,-0.04734361861180361,-0.02071945161334722,-0.0680528033778348,-0.8740865168392191,0.15192423385856205,-0.2738008322437501,-0.42913907080847485,-0.21452473760009252,9.650590350789285,1.2491988125430524,-0.020118443549746373,-0.04377019564913028,0.0038321563666955474,0.276348136083255,1.2080393074262494,0.3052996180567885,-0.26520378757873303,9.947988107639869,1.2558821048309747,0.008703573792805893,-0.0687071760921201,0.5361674776487916,0.15213491257257752,-0.43304619442649156,-0.2647827837915465,-0.3083634687288758,11.133698177635637,0.7399889173156264,-1.1108115296177048,-0.21054255839716132,-0.04766481925230015,-0.18829125815789485,-0.20873955942265124
0.5231644380259077,-6.365844336736748,6.155614944979721,-1.6574159694317707,-0.2139516220173692,0.10911224087461807,-0.32298204343355386,0.2527657076307389,-0.5393558171730586,0.3588784036903433,1.7145413847648072,9.367163898020703,-0.012276787489086177,-0.02370510646035226,0.08593988556922322,-0.8709208910221977,0.1545790236854468,-0.2765264516525591,0.01871772422442841,0.5009635244191671,9.740864985706937,1.5234203879491948,-0.0540991170306002,-0.04705602637532345,0.01718246943122874,0.313885999819778,1.198760680309203,0.4889060381945017,0.8753724459468113,9.786658307237412,1.5646316178060176,0.04169237710065437,-0.053194675198002854,0.5492723420600842,0.13810912536554873,-0.4357977879620235,0.5145444601521885,-0.20112738999009022,10.12167974239555,0.9819464098730075,-1.2618877636777872,-0.17318903262558158,-0.014838347363636433,-0.19376051633837116,-0.23248997626737342
1.1886398013521404,-2.5911094707437887,12.807301256921749,-0.6269249603002646,0.2593801029051564,-0.16303532528388495,-0.3307677532925108,0.26035068873151723,-0.5361530387397327,-0.222860441636174,2.575955182592632,9.803911659587968,0.031358117743054185,-0.027004127900835225,-0.07676487819913531,-0.881420240163565,0.15221083847302522,-0.2691790831163185,-0.47156239971802394,0.13191790746544801,9.809672037033252,1.5907598732558605,-0.05018081026136889,0.030770527156844907,0.016908101084950767,0.3671077094920557,1.1952989010599806,0.15935918438885066,0.46374185893023223,9.83743449212938,1.6077063868545798,0.03183024872312396,-0.03670999772836052,0.5511850601675088,0.13789025904734045,-0.4299235261380762,0.186267769270245,-0.3136046848529532,10.433809225325206,1.013610645839401,-1.3314895996411276,-0.19480561147601072,0.00016420464127670127,-0.18428067399394066,-0.24557880526253636
0.14275712092631682,-1.707518212663762,9.493197029726886,0.7507764344104539,0.34661220767102474,0.42656462356639907,-0.32197040474376565,0.2550033547428867,-0.5451935171964256,0.35665497068042346,2.807586853816051,10.10453976206305,0.05330882631672954,0.021845634921283885,-0.14427127445412943,-0.8816515806580886,0.15091935811348672,-0.2733084216900516,-0.11691951652429815,0.5912258462963581,9.352825604059388,2.023622386472057,-0.11807941534737948,0.03378006308990371,0.018784253020418352,0.4005339290349555,1.1781857923130314,0.3793814809010363,0.5490398784967692,9.36565428345957,2.022092887937656,0.09726562145319778,-0.07349064786945901,0.5526709015609711,0.10417772083479385,-0.43140064685794244,0.21457695437155117,-0.38720128265423803,11.000029822690735,1.2823508732741093,-1.5442776951187285,-0.14883109754321508,0.014644664329006499,-0.20310378100947124,-0.27237673955818525
-0.11906175880544141,-1.6729713934294967,7.10680442178246,-0.8781005506910843,0.2224074744494242,0.19718859237553077,-0.31191558089550264,0.2644645294124125,-0.5441036400230128,-0.3037815230704641,1.6510357128529172,8.59954487423522,-0.09576481647407317,-0.08075646837957672,-0.01604594682608369,-0.8747991569763943,0.14683538477519253,-0.2712754296933482,-0.3990807950292887,3.55189960713237,9.902965399466499,1.7162943256726506,-0.10955493845010049,0.0010619044481956332,0.02658498540915402,0.44931643715921893,1.15887602304187,-0.2304956892626044,2.840403154975653,11.041236189010936,1.9447104157201818,0.0641915867958227,-0.10155723075720254,0.5609163387852019,0.09409632729880474,-0.4334771293052043,1.2924776019749824,1.2845255959285828,10.056447229408175,1.2973638127565643,-1.665764966171142,-0.1838188515484878,0.027504497491310682,-0.20531331019876797,-0.30355838489321124
0.1984973774491414,-1.3644520019971669,10.60360928039131,0.0617725016114133,-0.03587210521247492,-0.01975870558242797,-0.3031940290018789,0.25486220164605533,-0.5397492325967063,0.39856292940047283,2.84274616427989,10.020782277265415,0.0660308197345846,0.0006037695459549983,0.031913403477444535,-0.8684128270765039,0.1392733561659907,-0.272603437119298,-0.03416948231105843,3.6015269849776637,8.905121076866799,0.7058699018766245,-0.00452856180687687,-0.022422955305798888,0.023935652722894964,0.45493730103050967,1.152029719392605,-0.3729390095620445,3.4490331610277285,12.836803013355583,0.8965877756357733,-0.39105662148317033,-0.10105523946666342,0.5519940848661224,0.07609993493594189,-0.4321970808977745,2.3256763262397993,2.3906095760196666,11.204559817761956,0.3022006223177864,-1.1051846946220718,-0.1617149756511755,0.031522871260114736,-0.21579442781145364,-0.33089271925209474
0.341165969747907,-2.7378164163000434,9.459407075744332,0.1584780109427362,0.11188613261527354,0.23458955982743865,-0.3060479128467259,0.2615496675799859,-0.5499625164654058,-0.21907617872194454,3.3067623644773856,8.920878280474321,-0.04415914107599893,-0.022436358506434093,-0.019813963823545923,-0.8735760112240576,0.14751587265742805,-0.27470329195876536,-0.3288827562020182,3.248615096209778,9.487226039549435,0.06288904461553169,0.012471409744558888,-0.05955136902145062,0.023751559240334487,0.4739864480760952,1.1586058851010812,-0.29265111211981126,3.994389469289059,12.494975472445141,0.08940642356448265,-0.9115057823282194,-0.0941864706506683,0.5362304171625586,0.08962473486640841,-0.4340988533269749,2.9306760226717525,0.6725079818841377,11.57450105065199,-0.6791598457337534,-0.610393243096722,-0.3223390442713547,0.045915503923664995,-0.19018708583781752,-0.3549523177328957
0.48013223894355284,-2.504354533289279,11.437717980995052,0.38442675487051775,0.35244450547288303,0.241767841415474,-0.30195403915173435,0.25320230109081515,-0.546837608808382,0.32905185994711983,1.8671221142682175,10.065216286923244,-0.10680805633773341,0.022638210793517324,0.07285689574380613,-0.8762779503440383,0.14836165553627423,-0.26715284691799,0.012909887749000714,2.7045180977075067,8.711461017577069,-0.6358305457236398,0.058392696066791414,-0.04181255452408628,0.01928049430169141,0.45447210007524735,1.1591000555334627,-0.04340237857182111,4.646818626405769,10.77923472382672,-0.7403073664173369,-1.3440847199154902,0.05837247692984205,0.5100433015236242,0.09134855436906378,-0.4596733502103027,3.913110488444386,0.8589975246093593,9.99044195426001,-1.5701388751874212,-0.16605472699471507,-0.7395300060814912,0.060865668208040055,-0.1743240673264914,-0.398309486235688
0.20182443282330628,-2.03739873063808,8.885761997747121,0.8510555664880112,0.5094445531819407,0.10665098565425016,-0.2954242637742322,0.23130171911959713,-0.5604118850263364,0.06911757690571409,1.9752717901194845,9.078327329792797,0.02083279060282942,0.012753774343748745,0.04678042897075013,-0.8789161287623191,0.1383495225938521,-0.266500439394594,-0.2857229441300091,1.01214807708321,10.285273812173376,-0.7767056974340504,0.09511364881110745,0.0019333311466658031,0.014565419051594152,0.4437611142827055,1.1749675977104317,1.4168905021436693,1.6780099084087448,8.55233621526318,-0.9102578936546404,-1.3746438375995125,0.16140689612622833,0.480626946462619,0.10765472302945954,-0.46168314535996346,2.0229671708964037,-0.8150818550963806,8.309403808368087,-1.7046059960232713,-0.0783360742617145,-1.039633529640986,0.0708792620207927,-0.13991383193380888,-0.418965094969719
-0.44363892825951834,-2.4897292430286893,10.03482796575684,1.610905275943089,0.5601816338203734,0.06088563329765943,-0.2776610605634555,0.2158714512817255,-0.5660777932628154,-0.2984576884177988,2.042576134518036,9.84338378722351,0.07622137534553644,-0.022850483532030508,0.03620161276500329,-0.870938055788166,0.15359125559900988,-0.26259196506071714,-0.6357383594703939,1.4018991532954443,9.48076707006334,-0.23865890388102473,0.023093775965987197,0.026531578089902624,0.017440471731456405,0.4315455799215798,1.178401730113263,1.0960462794924941,0.9423622672333827,6.804010110266034,-0.2906988405012115,-0.9426408031739683,0.13117148845990706,0.4625453091157859,0.10091171977183928,-0.4666407024121148,0.804296614072147,0.01546875881661733,7.646038763805592,-0.9136844852076951,-0.3867059179192805,-1.0760041987826798,0.07787328707727889,-0.13405179328545175,-0.4433348064451225
-0.16111268088191993,-2.2768723899911856,10.254999976665816,2.3395353543100015,0.7667683768725198,0.1313532125106127,-0.26726339023537776,0.17357988730117554,-0.5973751968105165,0.02489429283847241,2.121910122120027,9.495614713935199,-0.028268588007739553,-0.01983519915241666,0.014696592245573565,-0.8745617852670052,0.14992321017222116,-0.2764544820187304,-0.31048816164416876,1.596828960589522,9.900184933781963,0.1787145616922076,0.007751450348450783,0.07133311527374667,0.020425620250194215,0.44202635331333856,1.1713196596228148,1.796971120548818,1.0259940741680487,8.342124054456129,0.24209859170744952,-0.6118348065751036,0.058946245974406494,0.4548492275427124,0.10945400535799327,-0.47529293214699725,1.4607620558254832,0.05556034721772554,8.132188753393246,-0.2528579715224782,-0.6485021738775503,-0.9482945803317813,0.08147374324598625,-0.11621922255511886,-0.4638013546036394
0.2077884523151258,-0.7183878058364013,10.232060429180628,3.0015936474737694,1.0287700650678204,-0.07150265984187816,-0.2528159004772574,0.12454378002740532,-0.6118627848818384,0.36724470243797147,2.236442352290279,9.536494579349403,-0.05710097831452194,-0.03291485184512611,0.04498332842885121,-0.8753307459347885,0.1547092787238678,-0.2675016343538619,0.004501347383990523,2.070659281167419,9.280000590586132,0.2527275243724721,-0.0053612986635447,0.05457665539589084,0.014569632698684009,0.44131498364171995,1.1686215743782644,1.6009084789744903,1.903147160044672,9.977247994622138,0.31164929523577733,-0.5359953411528527,0.0006867972627863424,0.43477373401936237,0.10055234258230446,-0.47634319145871246,2.2563976505222,0.7876857659423163,9.108648182802858,-0.14756610074097387,-0.6316351122203061,-0.8112538565144367,0.06813609396049504,-0.1124895255817776,-0.4775433153088767
-1.030783853168121,1.5081243575100864,9.507471938350104,3.165397118807125,1.0222111270120888,-0.2340581465709446,-0.23987257194097372,0.06166887374624751,-0.6352550600926307,-0.24261821970303993,2.5825709926745923,9.468342737134144,0.010365941015290337,-0.0006674739976726956,0.09509975474905259,-0.8777640094779522,0.1548516220306433,-0.2728797962064401,-0.6573608910483543,2.1589306340345336,9.84983216980611,0.004016352720420625,-0.004056434191622167,0.01150500110709288,0.02067499317694777,0.4405562558537894,1.1661943775229853,1.346640376413075,2.5837035845677203,10.490947687845935,-0.005478147867853799,-0.656853243965893,0.022553979458647778,0.42599164875797185,0.10085325055995946,-0.47713490027554556,2.6494300019206656,0.25579981549430014,10.192423932355872,-0.4693948888896392,-0.45532728538503164,-0.8172941300499968,0.06922963979758023,-0.10368700891664365,-0.4924202221400104
-0.5968105798394882,3.253840661756819,11.278132120970858,1.6153652576892463,1.1730127147541463,-0.24446007773389833,-0.2197620872041515,0.028160539765948484,-0.6410533087519051,0.04598873690524517,2.8773655821115294,9.290687150089967,-0.049286056385098725,-0.013265801494779803,0.0667632561047315,-0.8750685299690711,0.15104082861979734,-0.2679278275275149,-0.3488668758354129,2.3025983233423957,9.46965027939346,-0.05341246482682655,-0.037248637282922305,0.020774846201315353,0.02041220410572587,0.437631001582047,1.1696141918965588,1.784608089431077,2.2424872567263043,9.532647087318521,-0.08930078780397475,-0.6863703086008326,0.029327155927352133,0.4130640911404335,0.0999480183141524,-0.4798999779645769,2.6125260354011806,0.4696944982537302,9.201659260526394,-0.5693647019300629,-0.3886705108823518,-0.8748366720042904,0.0690589561886641,-0.09635244933552,-0.5007137560584672
-0.9854499640294496,2.6477836015713785,9.879137507124247,0.8716400592023148,1.331107068427896,-0.2481761103029003,-0.19369377065120602,0.008587340147121775,-0.6533111116046593,0.2936866158944098,2.6769093531152195,9.739425535618604,-0.06644885178144036,-0.0071289750548050035,0.005794521343142907,-0.875079189233058,0.15416936564619105,-0.2706666255219962,-0.009709854585051306,1.6060021614434634,9.480806375944603,-0.03194488007337997,-0.037811344124850654,0.009425665311769412,0.02624859627041084,0.4334599998014753,1.1730481976691913,2.2752268450448168,1.7775339750521302,8.607633292146557,-0.03756730027351913,-0.6323041457982135,0.015955102429969083,0.4059759235741026,0.09877600598049771,-0.4799388191975046,2.6369270256723407,-0.00014542657620316042,8.884971144078069,-0.469458696996401,-0.4286338046274234,-0.8299485795271062,0.06964940995603718,-0.08267220368508059,-0.5094836744898
-1.5770747029600316,1.0020613789935617,9.293562362494752,0.6863752442398859,1.2865998796119245,-0.2619282075115589,-0.16957990561417827,-0.0032460579028801327,-0.6547735932511157,-0.04925343434846151,1.8142049018099229,9.553094497972042,-4.130902207935658e-05,0.009010853619308758,-0.0444252605464063,-0.871674452679401,0.156642702401124,-0.26972529226703856,-0.42062986408282155,1.8062813367860764,9.837719821891147,0.1278120603058137,-0.04888476042010578,0.04895299922427535,0.023121514285261362,0.4422565297218823,1.1671742878454419,2.2358660656520883,2.0715539975916264,9.42475236193533,0.13853002355863203,-0.5284587589999985,0.0317442143709112,0.3916178979914541,0.10669625393711181,-0.4788642920113614,2.856530760514748,-0.01496886746359642,9.006068641296318,-0.24692558178102222,-0.4954185714642893,-0.821233176777696,0.06144328226514616,-0.06895947701141318,-0.5170813981287645
-2.0787280672249744,-0.23904631691226896,10.364508843165932,1.8791375268107817,1.4116093310068445,-0.4219718393505266,-0.14455924011798468,-0.03648258729070415,-0.6673865761806174,-0.39896954612343605,2.0561640207236542,9.431238963565582,-0.010956458821234355,-0.022655758540216096,-0.03713793564626366,-0.874358727522481,0.15801695223109397,-0.2743923981123817,-0.6888459256345064,1.6523502562290233,9.907164254074301,0.06291141987546502,-0.08576355673430613,0.06487670576974755,0.0272498987140615,0.42977937494903495,1.154742298753488,2.1124342942310146,2.2942669421163036,10.05355294711795,0.05100295759641774,-0.5034197624600935,0.07424205076667156,0.3852377064641092,0.0947277885822939,-0.48639565278647495,3.074690031548819,0.21685236801756846,9.066404577825628,-0.2869279809752823,-0.41735384327150776,-0.8600450240783617,0.0580890817891585,-0.07210433420287105,-0.5307759151488066
-2.881968857273536,2.9626545226240864,9.1462320729633,3.6159701770868367,1.5392072412247686,-0.5318837802535704,-0.12160646873127409,-0.12236706267780062,-0.6589353193419798,-0.38642074280164607,2.3394654003417177,10.116597366974112,0.017096510102868827,-0.01900229217333674,-0.1486005954747882,-0.8764950394867176,0.1418154699205359,-0.26435718256252255,-0.7157150278476889,1.6986350434661035,10.273108613755765,-0.07165982528821635,-0.18308542877829057,0.09589392540579306,0.024580352656074833,0.4356515517553836,1.158149774857479,2.269633316709039,2.1491542091409612,10.04089243834536,-0.08245865037101577,-0.4587192215761538,0.13296525639639117,0.36866305950314476,0.10563230890360771,-0.479252092141989,2.96251306760159,0.33988761817045243,9.184953769465215,-0.3685477674288019,-0.28720032689896413,-0.8804160397904924,0.05132251110158695,-0.04986456200300654,-0.5278575356963996
