# sampling frequency: 40
# units are seconds/meters/radians/a.u.
seg1_acc_x,seg1_acc_y,seg1_acc_z,seg1_gyr_x,seg1_gyr_y,seg1_gyr_z,seg1_mag_x,seg1_mag_y,seg1_mag_z,seg2_acc_x,seg2_acc_y,seg2_acc_z,seg2_gyr_x,seg2_gyr_y,seg2_gyr_z,seg2_mag_x,seg2_mag_y,seg2_mag_z,seg3_acc_x,seg3_acc_y,seg3_acc_z,seg3_gyr_x,seg3_gyr_y,seg3_gyr_z,seg3_mag_x,seg3_mag_y,seg3_mag_z,seg4_acc_x,seg4_acc_y,seg4_acc_z,seg4_gyr_x,seg4_gyr_y,seg4_gyr_z,seg4_mag_x,seg4_mag_y,seg4_mag_z,seg5_acc_x,seg5_acc_y,seg5_acc_z,seg5_gyr_x,seg5_gyr_y,seg5_gyr_z,seg5_mag_x,seg5_mag_y,seg5_mag_z
0.432471,-0.823932,9.809761,0.00635,0.003928,0.000513,-0.065918,0.409424,-0.591309,-0.189799,3.483223,9.147874,-0.00362,0.010625,0.003652,-0.653076,0.009277,-0.466064,-0.313574,0.999959,9.810099,-0.001252,-0.000867,0.002418,-0.355713,0.294434,0.8396,-0.097987,1.100042,9.796161,-0.000856,-0.00108,0.009219,0.647705,0.021729,0.003662,-0.116834,0.402301,9.784756,0.002093,-0.008908,-0.002178,0.153809,-0.246582,-0.372559
0.449819,-0.808104,9.812018,-0.005855,0.000254,-0.001218,-0.061035,0.411377,-0.587646,-0.197274,3.486883,9.153654,-0.013331,0.003548,0.004365,-0.64624,0.01123,-0.466797,-0.314758,0.985272,9.777659,-0.0087,0.009986,2.8e-05,-0.364502,0.284668,0.8396,-0.091035,1.10496,9.806728,-0.008939,0.001203,0.010879,0.637695,0.011963,0.006348,-0.185096,0.410711,9.789166,-0.000475,0.013072,-0.004743,0.145508,-0.25293,-0.368652
0.435605,-0.833515,9.80034,0.002574,0.002953,-0.000954,-0.062988,0.404785,-0.586426,-0.156213,3.486052,9.147849,-0.00726,0.008249,0.004737,-0.649658,0.004639,-0.463623,-0.337719,0.994026,9.79412,-0.003629,-0.002251,0.002843,-0.364502,0.294434,0.840576,-0.105167,1.085344,9.79866,-0.005904,0.005151,0.01062,0.644287,0.020508,0.00708,-0.184721,0.412224,9.765339,-0.002286,-0.01582,-0.002501,0.146484,-0.244873,-0.368164
0.431092,-0.802887,9.789336,0.000954,0.002143,-0.000645,-0.058105,0.405762,-0.588623,-0.218306,3.499548,9.170379,-0.008139,0.008412,0.005327,-0.645752,0.005859,-0.466797,-0.330301,1.003946,9.792562,-0.005133,0.009037,-5.4e-05,-0.365479,0.287842,0.837646,-0.126863,1.081412,9.804642,-0.00352,0.004134,0.010526,0.637207,0.015869,0.000977,-0.130592,0.419672,9.766061,0.00537,0.006389,-0.00419,0.14209,-0.251465,-0.373779
0.4478,-0.837492,9.810136,-0.002821,0.001168,-0.002113,-0.06958,0.410889,-0.585205,-0.158552,3.48231,9.149234,-0.009527,0.002816,0.004134,-0.655273,0.010254,-0.463867,-0.336855,0.998871,9.800115,-0.004602,0.004669,0.002879,-0.36377,0.299561,0.828369,-0.108206,1.091887,9.795209,-0.005654,-0.002132,0.009613,0.639404,0.027344,-0.001953,-0.207899,0.424015,9.814053,0.00079,-0.001661,-0.002931,0.144043,-0.239014,-0.381348
0.430746,-0.80877,9.82545,0.002674,0.002619,0.000826,-0.068604,0.414795,-0.582031,-0.184892,3.500491,9.15349,-0.007723,0.0114,0.005242,-0.655762,0.016846,-0.461914,-0.317065,0.990565,9.797224,-0.005726,0.001128,0.001442,-0.368408,0.296387,0.838379,-0.092213,1.099323,9.807351,-0.007651,0.003218,0.008739,0.637207,0.023926,0.001709,-0.14769,0.402936,9.784658,-0.003787,-0.008935,-0.002096,0.14209,-0.243896,-0.373779
0.442748,-0.821409,9.81277,-0.003823,0.002478,-0.000975,-0.064941,0.407715,-0.583252,-0.181603,3.478574,9.162454,-0.011013,0.000801,0.004399,-0.651611,0.009033,-0.458984,-0.340291,0.985845,9.781139,-0.006698,0.008048,0.001478,-0.360596,0.300293,0.835693,-0.111272,1.097254,9.791892,-0.00727,0.007088,0.012487,0.644043,0.027832,0.001221,-0.177244,0.395119,9.779934,0.005597,0.009578,-0.003861,0.147949,-0.24292,-0.374023
0.446258,-0.823676,9.796532,0.003882,0.002016,-3.5e-05,-0.058105,0.406982,-0.589355,-0.173964,3.487393,9.161644,-0.006537,0.009151,0.003149,-0.645264,0.008301,-0.466064,-0.312579,0.989058,9.776556,0.000748,0.000217,0.003314,-0.361572,0.294434,0.84082,-0.106845,1.078574,9.79939,-0.002303,-0.004586,0.010648,0.643311,0.022705,0.001953,-0.176977,0.42114,9.797861,0.001866,-0.012096,-0.002507,0.147949,-0.24707,-0.373291
0.424055,-0.816013,9.790097,-0.002129,0.001395,-0.000641,-0.067627,0.398193,-0.585693,-0.194735,3.497814,9.144053,-0.010919,0.007921,0.005957,-0.65332,-0.003418,-0.463867,-0.321653,0.990898,9.810757,-0.006024,0.007764,0.000243,-0.357666,0.297119,0.834473,-0.101795,1.098046,9.793664,-0.006268,0.004646,0.010569,0.644043,0.023682,-0.000244,-0.137844,0.418241,9.785783,-0.003195,0.005108,-0.003074,0.148926,-0.243652,-0.377441
0.440877,-0.829863,9.790387,-0.001151,0.001812,-0.001532,-0.064941,0.407959,-0.580078,-0.18395,3.479277,9.1582,-0.010563,0.004046,0.003722,-0.652588,0.010498,-0.458252,-0.332025,1.001174,9.785535,-0.005429,0.003571,0.00097,-0.358887,0.296631,0.844727,-0.111383,1.099338,9.779689,-0.005479,0.003186,0.009309,0.644043,0.022461,0.009277,-0.19421,0.405471,9.792646,0.001285,-0.00231,-0.004975,0.148193,-0.24292,-0.365967
0.423602,-0.814464,9.819421,0.006193,0.003055,0.001129,-0.062256,0.408936,-0.59082,-0.190423,3.489758,9.157474,-0.008883,0.009602,0.003556,-0.648682,0.012695,-0.466797,-0.30883,0.999921,9.788517,-0.005102,0.001373,0.003209,-0.362549,0.293945,0.833984,-0.111852,1.086519,9.805053,-0.007081,-0.001811,0.010011,0.641602,0.024658,0.001221,-0.143085,0.409401,9.777072,0.001801,-0.006343,-0.002139,0.14502,-0.244873,-0.376465
0.435596,-0.82675,9.806775,-0.004514,0.002251,-0.002448,-0.061768,0.411621,-0.585449,-0.186207,3.474732,9.15988,-0.011689,0.00246,0.004941,-0.649902,0.01123,-0.4646,-0.316828,0.98147,9.813305,-0.005414,0.007303,0.001212,-0.360596,0.296387,0.82959,-0.097891,1.076059,9.801516,-0.005478,0.003187,0.009312,0.643555,0.025146,-0.005859,-0.178022,0.417774,9.781606,0.0003,0.002871,-0.003008,0.148926,-0.244629,-0.380615
0.421798,-0.82264,9.797056,0.003652,0.003036,-6.4e-05,-0.059082,0.397217,-0.585205,-0.172821,3.475823,9.137232,-0.005919,0.009286,0.003332,-0.643066,-0.001465,-0.465088,-0.326852,0.992506,9.788019,2.9e-05,0.001411,0.001597,-0.371094,0.296143,0.834961,-0.1211,1.086895,9.791182,-0.001503,0.002606,0.01038,0.635498,0.02417,0.000732,-0.1745,0.409721,9.776993,3.7e-05,-0.007803,-0.002279,0.137939,-0.245117,-0.378174
0.430559,-0.810441,9.809423,-0.002285,0.000521,-2.8e-05,-0.073975,0.405762,-0.583252,-0.19971,3.488855,9.164954,-0.013017,0.003728,0.005893,-0.661621,0.005127,-0.458496,-0.329485,0.994512,9.801446,-0.009684,0.007131,0.000927,-0.356445,0.292725,0.838379,-0.102869,1.09133,9.794403,-0.010532,0.000775,0.009731,0.647705,0.020508,0.003662,-0.168114,0.417001,9.809556,0.001541,0.002929,-0.002735,0.154541,-0.246338,-0.371826
0.442793,-0.82995,9.80358,0.001932,0.00256,-0.001535,-0.067627,0.40625,-0.584717,-0.173594,3.478465,9.132292,-0.007615,0.005777,0.003637,-0.652832,0.00708,-0.463867,-0.336723,0.995107,9.785993,-0.004349,0.001971,0.000566,-0.35791,0.291504,0.83667,-0.103194,1.083852,9.807198,-0.004508,0.00175,0.010444,0.646484,0.022217,0.002686,-0.179473,0.414409,9.765344,-0.001696,-0.005659,-0.001356,0.149658,-0.246338,-0.372559
0.433608,-0.812013,9.793264,0.004037,0.002891,-0.000648,-0.06665,0.39624,-0.584961,-0.192936,3.497695,9.18173,-0.00801,0.009396,0.006462,-0.65332,-0.003418,-0.4646,-0.311073,0.984859,9.798658,-0.002848,0.00581,0.000684,-0.359863,0.289795,0.838379,-0.117508,1.092097,9.810979,-0.001525,0.004076,0.008717,0.643066,0.016357,0.00415,-0.155309,0.411401,9.785202,-0.000126,9.7e-05,-0.002605,0.145752,-0.25,-0.372314
0.429007,-0.816595,9.816391,-0.003257,0.001481,-0.00242,-0.061035,0.408936,-0.576416,-0.168099,3.4803,9.155632,-0.011622,0.002975,0.003755,-0.647217,0.007324,-0.454102,-0.351045,1.011373,9.787472,-0.004617,0.003965,0.002077,-0.364258,0.299805,0.838135,-0.120199,1.100094,9.807384,-0.005086,0.002228,0.011047,0.637451,0.027832,0.001953,-0.170067,0.413523,9.793289,0.002949,-0.000254,-0.004682,0.142578,-0.23999,-0.373291
0.445911,-0.829935,9.816729,0.004061,0.001165,-0.000894,-0.064697,0.402832,-0.587891,-0.182758,3.480093,9.156398,-0.006872,0.008937,0.0051,-0.651367,0.002686,-0.466553,-0.325013,1.001025,9.800164,-0.003443,0.000925,0.001622,-0.359863,0.291748,0.827637,-0.094772,1.08377,9.809057,-0.007463,-0.001579,0.009122,0.645508,0.021484,-0.003906,-0.151815,0.417338,9.77762,-0.001272,-0.004439,-0.000911,0.147705,-0.246826,-0.382568
0.419739,-0.805995,9.812878,-0.001973,0.00227,-0.001255,-0.060303,0.404785,-0.58252,-0.203733,3.485381,9.162269,-0.01233,0.004377,0.004891,-0.647461,0.005127,-0.459229,-0.326017,0.999713,9.800265,-0.007386,0.007633,0.001909,-0.365967,0.291748,0.831055,-0.092703,1.078852,9.800335,-0.007442,0.007074,0.010119,0.640625,0.021973,-0.004395,-0.172533,0.408142,9.800865,4e-06,0.004658,-0.002546,0.145508,-0.248779,-0.38208
0.435742,-0.820665,9.783972,0.002829,0.003495,0.000214,-0.062012,0.404053,-0.580322,-0.177227,3.479405,9.163114,-0.006962,0.006168,0.003229,-0.648682,0.00415,-0.458496,-0.320494,0.99946,9.779514,-0.000783,0.001018,0.000488,-0.365723,0.29541,0.841064,-0.104642,1.083587,9.795244,-0.001918,-0.000256,0.009689,0.636963,0.022705,0.006592,-0.172128,0.410303,9.77701,0.00252,-0.007685,-0.001733,0.143555,-0.245117,-0.371094
0.42712,-0.80858,9.809727,0.00157,0.000979,-0.001198,-0.05957,0.408447,-0.589111,-0.20349,3.497666,9.16736,-0.009827,0.00721,0.005178,-0.648193,0.007812,-0.46582,-0.312003,1.003681,9.801001,-0.003631,0.006829,0.001172,-0.357666,0.297607,0.842285,-0.095775,1.106686,9.821497,-0.005355,0.001596,0.010242,0.646973,0.027344,0.006104,-0.162777,0.409877,9.804933,0.002061,0.002778,-0.002021,0.151123,-0.239502,-0.367188
0.447625,-0.839677,9.778195,-0.002335,0.000688,-0.000918,-0.056396,0.40625,-0.585938,-0.178349,3.48022,9.141296,-0.010457,0.002729,0.005296,-0.643066,0.007568,-0.462891,-0.332366,0.989809,9.794579,-0.007184,0.002435,0.003156,-0.365234,0.289795,0.839111,-0.102567,1.078053,9.78659,-0.007587,0.004848,0.010233,0.638428,0.015869,0.006104,-0.192222,0.417141,9.773444,-0.002215,-0.002403,-0.003768,0.143799,-0.250488,-0.372559
0.430971,-0.802505,9.815932,0.003471,0.00389,0.000797,-0.063721,0.40625,-0.579102,-0.185588,3.483642,9.147176,-0.008528,0.010035,0.004509,-0.649414,0.006592,-0.456787,-0.315648,0.990759,9.781995,-0.00416,0.005149,-0.000651,-0.359375,0.295166,0.837158,-0.110086,1.091424,9.800933,-0.005992,0.000456,0.009373,0.643311,0.023682,0.000977,-0.156081,0.408798,9.768917,0.000365,-0.004434,-0.002528,0.148193,-0.244141,-0.374268
0.434572,-0.811546,9.806544,-0.001769,-0.00031,-0.002361,-0.062012,0.411377,-0.583252,-0.192937,3.487068,9.153051,-0.010387,0.003244,0.004115,-0.649658,0.01123,-0.461914,-0.340839,0.989665,9.779154,-0.004806,0.006844,0.00218,-0.361572,0.289307,0.836182,-0.098678,1.090009,9.793688,-0.004161,0.003732,0.008849,0.641113,0.016357,0.000488,-0.179745,0.394492,9.799723,0.00092,0.004453,-0.003721,0.146729,-0.25,-0.37915
0.429714,-0.831242,9.814077,0.003881,0.002018,-3.3e-05,-0.064697,0.410645,-0.588867,-0.179329,3.489985,9.147343,-0.010067,0.00981,0.005503,-0.652344,0.009766,-0.463623,-0.340064,0.999022,9.798432,-0.002458,0.000762,0.001271,-0.362061,0.292725,0.840088,-0.101549,1.092359,9.802687,-0.002238,0.001589,0.010272,0.643311,0.019775,0.003418,-0.16751,0.428053,9.790342,0.001477,-0.008159,-0.002739,0.145996,-0.246582,-0.370605
0.43853,-0.798037,9.805949,-0.001874,0.001935,0.000524,-0.067383,0.399658,-0.584473,-0.214229,3.496801,9.153324,-0.012489,0.005447,0.003888,-0.651367,0.000977,-0.461182,-0.312321,1.001658,9.793971,-0.008075,0.007215,0.002341,-0.368652,0.291748,0.824951,-0.104233,1.093683,9.811803,-0.012545,0.002321,0.009906,0.637207,0.019287,-0.005859,-0.16378,0.394661,9.767785,-0.002904,0.001766,-0.002688,0.140869,-0.249023,-0.384277
0.441965,-0.821358,9.81021,0.000904,0.002311,-0.001534,-0.060547,0.410156,-0.574219,-0.181301,3.487161,9.165956,-0.00828,0.005392,0.004037,-0.648682,0.009521,-0.451416,-0.342184,0.982861,9.766073,-0.004335,0.002678,0.001361,-0.362061,0.283691,0.839355,-0.099183,1.064391,9.769551,-0.004419,0.002364,0.008876,0.644531,0.012695,0.005615,-0.169366,0.410686,9.777042,0.001902,-0.004609,-0.003567,0.148926,-0.256104,-0.372803
0.428189,-0.809445,9.793715,0.005065,0.003143,-0.000647,-0.057861,0.413818,-0.579346,-0.187722,3.497936,9.165165,-0.008742,0.008543,0.004547,-0.645264,0.01416,-0.457031,-0.310972,1.006277,9.800038,-0.003443,0.003953,0.001065,-0.365967,0.290283,0.835938,-0.111329,1.090423,9.789075,-0.002925,0.002925,0.010792,0.638428,0.016602,0.002197,-0.153775,0.40745,9.792781,0.001508,-0.003002,-0.002525,0.141846,-0.246094,-0.375244
0.427668,-0.823404,9.807405,-0.005163,0.000479,0.00025,-0.058105,0.401123,-0.582275,-0.190086,3.484308,9.139048,-0.011706,0.002468,0.00492,-0.64502,0.002686,-0.462891,-0.338107,0.978371,9.781814,-0.006603,0.006618,0.001417,-0.360352,0.29541,0.839844,-0.100344,1.083166,9.79443,-0.008481,0.002345,0.009394,0.644775,0.022217,0.00708,-0.182983,0.42641,9.782204,-0.001043,0.001078,-0.001854,0.147705,-0.244873,-0.371338
0.444448,-0.823021,9.794075,0.004243,0.0036,-0.000369,-0.056885,0.404053,-0.592285,-0.182219,3.495087,9.15515,-0.00688,0.008939,0.0051,-0.643066,0.006104,-0.471924,-0.327577,0.995321,9.786189,-0.002377,0.001646,-0.000135,-0.365967,0.29126,0.836182,-0.10299,1.084672,9.803526,-0.004777,0.001122,0.009651,0.63916,0.019775,-0.000977,-0.161614,0.406567,9.788712,0.000759,-0.007592,-0.002721,0.143311,-0.24707,-0.376953
0.444705,-0.800222,9.802891,8.1e-05,-0.000518,-0.002639,-0.062988,0.40332,-0.58667,-0.198152,3.487486,9.162574,-0.013995,0.005482,0.004286,-0.651123,0.002197,-0.463379,-0.325891,0.984652,9.795993,-0.008062,0.007922,0.003137,-0.369385,0.296875,0.831543,-0.108379,1.089185,9.82155,-0.009277,0.004544,0.00983,0.638428,0.022217,-0.002197,-0.164331,0.414728,9.793336,1e-06,0.005434,-0.00297,0.14209,-0.244873,-0.37915
0.438986,-0.835483,9.794824,-0.000378,0.004809,-0.001316,-0.07373,0.404297,-0.588135,-0.172614,3.474265,9.170063,-0.005872,0.005405,0.00595,-0.658936,0.00415,-0.464355,-0.338102,0.98182,9.787945,-0.00243,0.002172,0.002867,-0.366699,0.298096,0.829834,-0.120009,1.066801,9.804442,-0.003921,0.000542,0.010696,0.637939,0.025879,-0.005371,-0.175914,0.396786,9.775925,4e-05,-0.007026,-0.002703,0.144287,-0.242188,-0.378906
0.426293,-0.800343,9.816313,0.003469,0.000604,-0.000585,-0.059082,0.405762,-0.588867,-0.190622,3.501918,9.155838,-0.005379,0.008908,0.004696,-0.644775,0.009033,-0.467041,-0.327449,0.999105,9.792301,-0.003848,0.005273,0.000232,-0.363525,0.28125,0.835449,-0.097053,1.092638,9.801816,0.000174,0.004384,0.009155,0.640137,0.011963,0.000244,-0.154263,0.404481,9.776517,0.004188,-0.001746,-0.003562,0.145996,-0.258301,-0.376709
0.438563,-0.812748,9.803665,-0.002746,0.00256,-8.9e-05,-0.056152,0.409424,-0.588379,-0.172687,3.483025,9.141406,-0.014045,0.000877,0.005169,-0.643311,0.009277,-0.463379,-0.333454,0.993716,9.799875,-0.008213,0.003514,0.000546,-0.356201,0.29126,0.837402,-0.106914,1.082868,9.812974,-0.010056,0.000444,0.009901,0.647217,0.017578,-0.000732,-0.183782,0.407883,9.792747,-0.005289,0.001827,-0.003811,0.152344,-0.246338,-0.377197
0.446775,-0.830272,9.814072,-4.9e-05,0.000167,-0.00089,-0.059082,0.407959,-0.578125,-0.164682,3.495672,9.17438,-0.005977,0.011081,0.004069,-0.649902,0.009521,-0.456299,-0.312129,0.982076,9.78369,-0.003525,0.00307,0.002469,-0.371338,0.297363,0.837646,-0.09501,1.080561,9.805835,-0.007208,-0.0002,0.009115,0.634277,0.027832,0.001953,-0.144478,0.404191,9.780663,-0.003063,-0.010279,-0.001687,0.138184,-0.241455,-0.373535
0.424468,-0.829522,9.81445,0.002393,0.003809,-9.1e-05,-0.063965,0.406738,-0.58252,-0.200285,3.499102,9.146485,-0.010373,0.005554,0.00366,-0.6521,0.010254,-0.462646,-0.351683,0.985981,9.799343,-0.003332,0.009277,0.000702,-0.365479,0.299805,0.837402,-0.098118,1.082585,9.81487,-0.001773,0.007535,0.010799,0.640381,0.026611,0.003662,-0.164753,0.411105,9.777104,0.008236,0.007237,-0.005965,0.144043,-0.240723,-0.372314
0.441109,-0.814843,9.787493,-0.00051,0.002207,-0.000949,-0.070312,0.4021,-0.582764,-0.174784,3.485634,9.154071,-0.011429,0.004481,0.003695,-0.657471,0.004395,-0.461914,-0.322386,0.985796,9.781536,-0.004527,-0.000499,0.002571,-0.357422,0.294189,0.838379,-0.116521,1.08132,9.799318,-0.008208,-0.002581,0.009014,0.647461,0.022217,0.005127,-0.179419,0.426928,9.782248,-0.003555,-0.008078,-0.000491,0.1521,-0.245117,-0.373291
0.414862,-0.826412,9.817732,-0.00259,0.000148,-0.002085,-0.062744,0.405762,-0.574463,-0.204134,3.482226,9.178128,-0.007469,0.009067,0.004325,-0.650391,0.009033,-0.452637,-0.320274,0.991533,9.787522,-0.006398,0.010505,0.000999,-0.362793,0.291748,0.839111,-0.097824,1.08534,9.80262,-0.00621,0.002184,0.009221,0.640381,0.018555,0.003418,-0.146083,0.399314,9.788232,-0.001665,0.000272,-0.001566,0.145264,-0.249023,-0.372803
0.445259,-0.829982,9.814166,0.003519,0.000437,0.000305,-0.068604,0.406738,-0.585449,-0.182374,3.492062,9.137378,-0.011058,0.002861,0.004504,-0.658203,0.007812,-0.463623,-0.341404,0.991321,9.813565,-0.001943,0.004766,0.00174,-0.366699,0.295898,0.831787,-0.118555,1.098515,9.770844,-0.00441,0.007197,0.010928,0.640381,0.025635,-0.000488,-0.193339,0.415271,9.793324,0.007585,0.000499,-0.005467,0.141846,-0.24292,-0.37793
0.44008,-0.807088,9.780769,0.004859,0.005724,0.000462,-0.064697,0.407959,-0.57666,-0.176709,3.486007,9.150031,-0.011309,0.007507,0.00498,-0.6521,0.006836,-0.453857,-0.317873,0.990395,9.816596,-0.005623,-0.002628,0.002724,-0.356689,0.299316,0.838623,-0.115234,1.094739,9.815551,-0.007632,-0.003056,0.008413,0.645752,0.026123,0.004883,-0.148541,0.422065,9.789866,-0.003653,-0.00593,-0.001185,0.150391,-0.240723,-0.372803
0.443803,-0.815055,9.800645,-0.005212,0.000646,-0.000642,-0.065918,0.397705,-0.582031,-0.193437,3.471532,9.163878,-0.007122,0.005142,0.005577,-0.6521,0.000244,-0.46167,-0.336086,0.989803,9.792953,-0.005816,0.011661,-0.000181,-0.368408,0.286621,0.84082,-0.081786,1.080126,9.765319,-0.006994,0.003647,0.010494,0.637451,0.013184,0.007324,-0.153759,0.399,9.784146,-0.001172,0.000399,-0.004035,0.14209,-0.254639,-0.369385
0.443378,-0.828985,9.814335,0.005245,0.002292,-0.001504,-0.067139,0.415771,-0.578857,-0.177848,3.489392,9.144866,-0.007831,0.008643,0.003367,-0.654297,0.016602,-0.457031,-0.354866,1.003089,9.801822,-0.00108,0.001604,0.0004,-0.361572,0.290039,0.834229,-0.1321,1.083042,9.803819,-0.002147,0.007763,0.009913,0.642334,0.016113,0.0,-0.180089,0.408619,9.792785,0.006768,-0.00222,-0.003173,0.143555,-0.249756,-0.373047
0.439556,-0.783182,9.81888,-0.002565,0.001708,-0.000949,-0.063965,0.404297,-0.584229,-0.192401,3.490646,9.162613,-0.015983,0.004324,0.005481,-0.651611,0.005127,-0.464844,-0.306092,0.998733,9.79449,-0.008688,0.001628,0.002465,-0.361816,0.290283,0.842285,-0.106818,1.098821,9.805027,-0.01139,-0.004176,0.007517,0.644775,0.020508,0.010986,-0.149969,0.428982,9.818332,-0.001595,-0.003927,-0.002782,0.147461,-0.24707,-0.367432
0.442487,-0.828957,9.814378,-7.4e-05,0.001895,-0.000643,-0.062744,0.406738,-0.576172,-0.174181,3.475621,9.181819,-0.00511,0.006568,0.003778,-0.647949,0.006592,-0.453369,-0.331407,0.980769,9.795457,-0.003738,0.00757,0.000423,-0.355469,0.29541,0.840332,-0.080506,1.066712,9.769465,-0.004138,0.002264,0.010543,0.646973,0.02417,0.003662,-0.1611,0.412047,9.777125,-0.005191,-0.001099,-0.002691,0.1521,-0.245361,-0.37085
0.433407,-0.811053,9.804035,0.005886,0.002687,-0.00092,-0.05542,0.40332,-0.580811,-0.207261,3.495925,9.157407,-0.007511,0.008811,0.004913,-0.644287,0.005859,-0.45752,-0.33723,0.992686,9.79912,-0.001471,0.003628,0.000367,-0.36377,0.297852,0.835938,-0.128562,1.093553,9.811116,-0.002297,0.0111,0.011231,0.641357,0.024414,0.0,-0.175816,0.400637,9.788181,0.007909,0.000765,-0.00402,0.145264,-0.242432,-0.377197
0.43689,-0.819948,9.794673,-0.003001,0.00202,-0.001256,-0.073486,0.405273,-0.583252,-0.166964,3.487652,9.15851,-0.014283,0.001437,0.005332,-0.658447,0.007568,-0.461914,-0.311245,0.982228,9.811867,-0.006905,0.00115,0.002429,-0.365723,0.297119,0.839111,-0.10792,1.094965,9.805446,-0.007873,-0.006628,0.01094,0.638428,0.027344,0.004883,-0.172221,0.42049,9.777629,-5.7e-05,-0.00643,-0.002548,0.144775,-0.24292,-0.371826
0.436732,-0.811829,9.817111,0.001414,0.003393,0.0008,-0.062256,0.403564,-0.585449,-0.19017,3.476444,9.160726,-0.006506,0.011672,0.005616,-0.651123,0.003418,-0.462891,-0.327809,0.991694,9.807478,-0.005711,0.0079,0.001116,-0.364014,0.290527,0.840088,-0.070421,1.072244,9.812337,-0.006741,0.00019,0.00844,0.639648,0.019775,0.005127,-0.159932,0.397189,9.803922,-0.006207,0.002029,-0.002634,0.145264,-0.247803,-0.371094
0.435692,-0.820127,9.794711,-0.001356,0.001105,-0.001809,-0.066406,0.397705,-0.577148,-0.19505,3.49667,9.170129,-0.008344,0.000789,0.004905,-0.654053,0.001465,-0.452393,-0.347976,0.994629,9.797122,-0.002647,0.003642,0.001373,-0.365723,0.299561,0.839355,-0.130752,1.082859,9.770674,-0.004146,0.014867,0.011299,0.639893,0.026367,0.006104,-0.183644,0.39984,9.784118,0.005821,-0.00096,-0.005607,0.144043,-0.238525,-0.373535
0.430858,-0.811884,9.774906,0.003979,0.001686,0.001749,-0.067383,0.405762,-0.585205,-0.155699,3.479597,9.160856,-0.009985,0.006244,0.00402,-0.6521,0.006836,-0.463867,-0.319588,0.997864,9.792702,-0.002866,-0.000947,0.000987,-0.363037,0.291748,0.836426,-0.118596,1.082306,9.81689,-0.004354,-0.007879,0.008795,0.643066,0.019531,0.000244,-0.150247,0.414303,9.781176,0.001905,-0.007711,-0.00187,0.145996,-0.247314,-0.373291
0.435536,-0.804428,9.810364,-0.003157,0.001145,-0.000643,-0.056641,0.402588,-0.583252,-0.197952,3.482931,9.161584,-0.011901,0.007641,0.004198,-0.642822,0.004395,-0.463379,-0.313002,0.991117,9.795046,-0.007384,0.010674,0.001342,-0.358887,0.298096,0.83374,-0.070837,1.079939,9.787608,-0.007226,0.001282,0.007462,0.645752,0.027832,-0.000244,-0.16202,0.407922,9.784678,-0.002359,0.007545,-0.002183,0.148926,-0.241943,-0.37793
0.439208,-0.827869,9.814617,0.001135,0.001293,-0.001503,-0.067627,0.40918,-0.584961,-0.177932,3.480386,9.150839,-0.007662,0.003484,0.004061,-0.65332,0.009521,-0.462646,-0.338283,0.989638,9.792173,-0.005026,0.002262,0.001786,-0.362061,0.291748,0.833008,-0.127589,1.087993,9.79051,-0.00535,0.013473,0.011869,0.642334,0.01709,0.000488,-0.188599,0.403363,9.796299,0.002427,-0.007086,-0.00158,0.147949,-0.24707,-0.377197
0.434653,-0.804045,9.810435,0.003855,0.003749,0.000217,-0.069336,0.408936,-0.582764,-0.188157,3.513061,9.158916,-0.009527,0.009492,0.003361,-0.656982,0.008301,-0.458984,-0.302281,0.987156,9.790037,-0.002257,0.001618,0.001406,-0.366211,0.290039,0.836426,-0.127943,1.086907,9.790626,-0.003782,-0.008357,0.008191,0.637939,0.021729,0.001953,-0.143007,0.42387,9.78987,0.002947,-0.004907,-0.002139,0.141602,-0.245605,-0.376221
0.437935,-0.820394,9.80788,-0.004801,0.00206,-9e-05,-0.061768,0.404053,-0.580322,-0.193782,3.479611,9.169308,-0.014753,0.004593,0.005838,-0.650879,0.002686,-0.456543,-0.332473,0.982151,9.794562,-0.006884,0.010946,0.001567,-0.357422,0.294678,0.842041,-0.080668,1.078763,9.773918,-0.008108,0.002872,0.009489,0.645752,0.024414,0.009766,-0.187469,0.404031,9.796294,-0.002685,0.00728,-0.003631,0.150391,-0.240967,-0.367432
0.445689,-0.839076,9.789052,0.00342,0.000773,-0.001472,-0.064453,0.403809,-0.579346,-0.186615,3.486304,9.151915,-0.003847,0.009135,0.003712,-0.652832,0.006592,-0.454102,-0.328562,0.98497,9.787198,-0.002273,-0.002116,0.001158,-0.36499,0.290283,0.834717,-0.119406,1.086999,9.792492,-0.00297,0.012439,0.011772,0.638428,0.02002,0.0,-0.163172,0.404974,9.768408,0.002371,-0.013515,-0.004128,0.14502,-0.248779,-0.377197
0.441728,-0.806963,9.807288,0.001413,0.003394,0.0008,-0.065186,0.411377,-0.583496,-0.192801,3.499084,9.167982,-0.013212,0.00482,0.004848,-0.648926,0.012695,-0.463623,-0.314883,0.992346,9.801377,-0.007697,0.007527,0.001007,-0.360352,0.291992,0.840576,-0.11552,1.094639,9.812066,-0.00853,-0.007023,0.009234,0.646973,0.022217,0.008301,-0.159448,0.409095,9.784672,0.00228,0.006745,-0.002119,0.151123,-0.246338,-0.371094
0.449336,-0.825724,9.788462,-0.003411,0.000605,-0.00181,-0.064453,0.406738,-0.584717,-0.176082,3.470778,9.14337,-0.008735,0.00446,0.004239,-0.651123,0.006348,-0.461914,-0.344895,0.973562,9.773332,-0.005607,0.004137,0.00241,-0.36377,0.294434,0.838867,-0.065975,1.077343,9.799029,-0.005816,0.000489,0.011808,0.640869,0.02124,0.003906,-0.195109,0.416937,9.789278,-0.003652,-0.00438,-0.002032,0.143311,-0.24707,-0.372803
0.427458,-0.823689,9.818076,0.005416,0.003352,0.002304,-0.064453,0.406738,-0.58374,-0.193733,3.500147,9.146195,-0.005916,0.009497,0.006242,-0.651123,0.002686,-0.463867,-0.33321,0.984508,9.800808,-0.00066,0.004018,0.001479,-0.365723,0.294189,0.835449,-0.118012,1.100913,9.808714,-0.001087,0.013968,0.009027,0.637451,0.022705,-0.001709,-0.144121,0.407343,9.776553,0.005201,-0.003317,-0.004471,0.142822,-0.243652,-0.378174
0.435574,-0.812767,9.801204,-0.003592,0.001458,-0.00095,-0.067139,0.401855,-0.585449,-0.189326,3.487248,9.165225,-0.01294,0.002481,0.003922,-0.653076,0.003418,-0.462158,-0.337163,0.992782,9.791192,-0.00897,0.005952,0.002615,-0.36377,0.293457,0.834961,-0.123729,1.084784,9.801985,-0.010481,-0.003126,0.010052,0.641357,0.023682,-0.001221,-0.185704,0.418876,9.793318,0.001954,0.005705,-0.003143,0.14502,-0.244873,-0.376953
0.451959,-0.834687,9.779139,0.002212,0.001376,-0.000612,-0.060059,0.407227,-0.583008,-0.169266,3.484416,9.154618,-0.009121,0.008132,0.003579,-0.645508,0.008545,-0.460205,-0.328473,0.982582,9.780233,-0.004137,0.000508,0.002042,-0.361084,0.285645,0.835693,-0.083414,1.06439,9.787405,-0.005842,-0.003601,0.008927,0.646484,0.014893,0.000488,-0.158418,0.409574,9.784668,-0.005014,-0.012105,-0.000664,0.148682,-0.251465,-0.376465
0.430893,-0.810518,9.817478,-0.001258,0.00077,-3e-05,-0.066162,0.40625,-0.587891,-0.204018,3.491631,9.160383,-0.010692,0.005601,0.005002,-0.654053,0.005859,-0.465576,-0.318195,0.999539,9.784699,-0.004614,0.010035,0.00096,-0.364502,0.292969,0.837158,-0.114112,1.090233,9.791348,-0.003749,0.01464,0.012227,0.638672,0.020996,0.004639,-0.157983,0.409505,9.784678,0.004531,0.008336,-0.004451,0.143555,-0.250244,-0.371582
0.447259,-0.832311,9.795426,0.000954,0.002146,-0.000642,-0.062256,0.411865,-0.582031,-0.157905,3.474139,9.122741,-0.00838,0.004885,0.005194,-0.647949,0.012695,-0.457764,-0.343135,0.998921,9.781726,-0.000867,0.000133,0.00189,-0.367432,0.295166,0.827637,-0.126078,1.095353,9.786236,-0.003727,-0.00674,0.009676,0.63623,0.023438,-0.005615,-0.175741,0.420203,9.797393,0.002724,-0.008095,-0.002467,0.141113,-0.244873,-0.382324
0.425515,-0.809137,9.804539,0.002755,0.002106,-0.001808,-0.066895,0.400879,-0.58374,-0.205805,3.489191,9.178812,-0.01134,0.009566,0.005115,-0.653076,0.004395,-0.458496,-0.309181,0.999392,9.792982,-0.00759,0.006795,0.001749,-0.365234,0.292725,0.842285,-0.072322,1.081588,9.805162,-0.007842,-0.002792,0.009932,0.640869,0.020996,0.004639,-0.148122,0.411084,9.788737,-0.004343,-0.000989,-0.000526,0.145996,-0.24707,-0.369385
0.437868,-0.835889,9.805549,-0.005417,-6.3e-05,-0.000921,-0.065186,0.40332,-0.580322,-0.181008,3.471744,9.152806,-0.010118,0.003228,0.002717,-0.651855,0.00293,-0.461426,-0.340927,0.983609,9.778265,-0.006878,0.005593,0.003466,-0.35791,0.291748,0.830322,-0.124044,1.077736,9.802758,-0.005986,0.013815,0.009352,0.64917,0.019531,-0.004883,-0.198263,0.408974,9.780594,0.002645,0.001537,-0.004223,0.152344,-0.246582,-0.380127
0.446111,-0.838679,9.802366,0.009018,0.003273,-2.6e-05,-0.064941,0.417725,-0.579102,-0.162534,3.509953,9.171299,-0.004152,0.009169,0.005074,-0.650635,0.018066,-0.459229,-0.308447,0.987627,9.802842,0.002093,-0.000362,0.000854,-0.366211,0.293457,0.842773,-0.12055,1.085962,9.82227,-0.000448,-0.005275,0.010432,0.638428,0.022705,0.007812,-0.155913,0.397288,9.787612,0.004165,-0.010776,-0.001655,0.142822,-0.245605,-0.368896
0.437634,-0.79865,9.800745,-0.004282,0.001229,-0.002424,-0.067871,0.406494,-0.580078,-0.20803,3.490039,9.174631,-0.01601,0.004342,0.005446,-0.655518,0.004883,-0.458496,-0.323414,0.994439,9.785048,-0.011166,0.010084,0.000461,-0.365967,0.290283,0.834717,-0.077419,1.09524,9.798353,-0.012401,-0.000224,0.007809,0.63916,0.018311,0.000488,-0.161948,0.413602,9.796851,-0.002761,0.011477,-0.002415,0.142822,-0.249023,-0.375977
0.436674,-0.82857,9.798795,-0.00144,0.001623,0.00083,-0.057129,0.40918,-0.582031,-0.164284,3.455716,9.13343,-0.007607,0.006054,0.003028,-0.641846,0.009033,-0.458496,-0.336183,0.974549,9.780775,-0.004328,0.000358,0.002698,-0.361328,0.289795,0.830811,-0.115287,1.082073,9.792239,-0.00349,0.010443,0.011003,0.64209,0.01709,-0.005859,-0.188462,0.396841,9.787618,-0.001518,-0.011231,-0.002299,0.145752,-0.249756,-0.381104
0.427507,-0.825321,9.802057,0.001497,0.002877,-0.001838,-0.067627,0.407715,-0.580322,-0.179756,3.50344,9.156845,-0.006204,0.009594,0.004109,-0.652344,0.007568,-0.45752,-0.325162,0.991984,9.785239,-0.00047,0.00417,0.000821,-0.36084,0.293701,0.841309,-0.125194,1.105442,9.802903,-0.0005,-0.001327,0.010169,0.647217,0.021973,0.008301,-0.163508,0.409974,9.780605,0.005523,-0.000722,-0.004298,0.149414,-0.24585,-0.369873
0.440198,-0.829516,9.811853,-0.001694,0.001083,-0.000337,-0.062744,0.403564,-0.583008,-0.184002,3.477423,9.160512,-0.015817,0.001485,0.005693,-0.649658,0.005371,-0.460693,-0.340775,0.995695,9.803815,-0.007484,0.006061,0.002491,-0.365967,0.29126,0.831055,-0.092325,1.100938,9.802456,-0.00795,-0.001927,0.009855,0.637207,0.019775,-0.002686,-0.196194,0.423761,9.777627,-0.00229,0.002568,-0.002974,0.14209,-0.250488,-0.378174
0.439817,-0.814927,9.798251,0.006914,0.002941,-0.000915,-0.059326,0.405518,-0.577393,-0.170264,3.480148,9.15503,-0.006256,0.011382,0.004849,-0.644531,0.006104,-0.455078,-0.324271,0.980067,9.795109,-0.005019,-6.2e-05,0.003129,-0.364014,0.298828,0.838135,-0.099491,1.093253,9.79214,-0.006936,0.007491,0.00952,0.640625,0.02832,0.002686,-0.157103,0.391575,9.795231,-0.004069,-0.008707,-0.000777,0.146484,-0.240967,-0.375977
0.430433,-0.825293,9.815222,-0.004161,0.002456,0.000492,-0.067383,0.412842,-0.583008,-0.19781,3.489475,9.148991,-0.009804,0.003394,0.004257,-0.655518,0.012451,-0.46167,-0.329909,0.991232,9.798879,-0.006467,0.010336,0.003193,-0.361572,0.292725,0.827148,-0.122341,1.077383,9.823193,-0.008309,0.003871,0.010183,0.64209,0.023438,-0.005859,-0.171977,0.408786,9.776555,0.005245,0.009324,-0.00532,0.147461,-0.246826,-0.38208
0.420581,-0.845796,9.780448,0.002913,-0.000307,-0.003803,-0.064697,0.402588,-0.577881,-0.171021,3.485364,9.166774,-0.008535,0.00596,0.004197,-0.650391,0.002441,-0.45459,-0.357895,0.983526,9.789964,0.00039,-0.002026,3.2e-05,-0.358887,0.291504,0.83667,-0.098039,1.081484,9.796075,-0.000825,-0.005784,0.010372,0.644287,0.020264,0.003418,-0.177697,0.412339,9.788723,0.002208,-0.011048,-0.001484,0.147705,-0.249756,-0.375488
0.443076,-0.808255,9.804539,0.000492,0.004188,-0.000701,-0.062012,0.409912,-0.588867,-0.199602,3.486864,9.167478,-0.013029,0.008372,0.004949,-0.64917,0.008789,-0.465576,-0.310715,0.999095,9.792321,-0.006993,0.00866,0.001367,-0.361328,0.293213,0.835693,-0.092814,1.100969,9.790542,-0.007404,0.007111,0.010214,0.640137,0.02002,-0.000488,-0.153241,0.411384,9.784675,-0.003207,0.003547,-0.002222,0.14624,-0.247559,-0.377441
0.437231,-0.836606,9.789645,-0.001102,0.001646,-0.000643,-0.06543,0.400635,-0.584717,-0.181699,3.467855,9.153063,-0.00793,0.001735,0.004665,-0.652832,0.000977,-0.460938,-0.341415,0.976955,9.80059,-0.007595,0.003767,0.002293,-0.363525,0.29248,0.838867,-0.131873,1.076403,9.809484,-0.008146,0.006101,0.010088,0.640381,0.019531,0.002686,-0.197584,0.40489,9.78819,0.002748,-0.002162,-0.00268,0.145996,-0.248291,-0.371826
0.428474,-0.803426,9.794875,0.006937,0.004503,0.000223,-0.06665,0.400146,-0.580811,-0.190488,3.509923,9.171485,-0.006656,0.010701,0.004478,-0.652344,0.000977,-0.458984,-0.319408,0.995313,9.813328,-0.001961,0.001034,0.001488,-0.360596,0.290283,0.83252,-0.09232,1.082987,9.807067,-0.00432,-0.005522,0.009455,0.643311,0.019531,-0.000732,-0.137654,0.410303,9.776522,0.003246,-0.006691,-0.002602,0.149414,-0.247559,-0.376221
0.427742,-0.81733,9.808586,-0.006675,0.000706,-0.000954,-0.069336,0.409668,-0.584961,-0.182653,3.471041,9.148048,-0.014279,0.001715,0.004697,-0.654785,0.010498,-0.463135,-0.327278,0.980279,9.801514,-0.006099,0.009936,0.001075,-0.36499,0.294189,0.830078,-0.099036,1.076055,9.796663,-0.004563,0.00719,0.008589,0.638184,0.024902,-0.00415,-0.181728,0.431072,9.774123,-0.001349,0.005191,-0.002665,0.146729,-0.241211,-0.382568
0.440461,-0.82874,9.825204,0.00452,0.002418,0.000557,-0.063965,0.410156,-0.580566,-0.176021,3.472543,9.154022,-0.003894,0.008876,0.004306,-0.650146,0.012695,-0.460693,-0.341158,0.980605,9.806757,-0.004152,-0.000194,0.001237,-0.365234,0.289307,0.832031,-0.114001,1.07851,9.813034,-0.003085,0.001435,0.010122,0.640381,0.019531,-0.00293,-0.163553,0.39396,9.767295,-0.001193,-0.008638,-0.002124,0.142822,-0.249268,-0.377197
0.431397,-0.818114,9.821652,-0.001053,0.001478,0.000246,-0.060791,0.409424,-0.581543,-0.196107,3.485561,9.153146,-0.01129,0.00574,0.004212,-0.647461,0.009277,-0.461182,-0.311521,0.979978,9.789143,-0.00759,0.006801,0.001741,-0.356201,0.297119,0.837158,-0.113539,1.082703,9.800664,-0.009961,0.000365,0.009202,0.646484,0.023926,0.001709,-0.157163,0.415056,9.796867,0.005023,0.003809,-0.004377,0.151367,-0.24292,-0.371582
0.443504,-0.831864,9.779767,0.001801,-4e-05,-0.001165,-0.062744,0.40625,-0.581787,-0.163408,3.47368,9.149151,-0.009598,0.004892,0.004219,-0.64624,0.00708,-0.457031,-0.3411,0.991412,9.789851,-0.002062,0.004804,0.000193,-0.35791,0.284424,0.838379,-0.100104,1.072049,9.797092,-0.002649,0.004292,0.010843,0.645752,0.012207,0.005127,-0.192514,0.425368,9.77763,-0.000776,-0.004312,-0.003378,0.150635,-0.255859,-0.372803
0.443943,-0.807711,9.817842,0.002596,0.004522,0.00019,-0.069336,0.408936,-0.591553,-0.197197,3.488434,9.14826,-0.007849,0.010898,0.00642,-0.657471,0.009766,-0.471191,-0.321352,1.000048,9.783258,-0.004154,0.005167,-0.000663,-0.358154,0.291016,0.831787,-0.114516,1.080429,9.800904,-0.003769,0.003514,0.009818,0.645508,0.02124,-0.004395,-0.147571,0.404625,9.780038,-0.000846,-0.001667,-0.001313,0.150879,-0.247559,-0.378906
0.438307,-0.82937,9.79608,-0.005465,0.000103,-0.001813,-0.059326,0.410889,-0.579834,-0.183212,3.493288,9.159535,-0.012024,0.000546,0.002568,-0.644531,0.010254,-0.458496,-0.333974,0.980503,9.77891,-0.008583,0.003935,0.002633,-0.360352,0.286865,0.831787,-0.093703,1.081275,9.795333,-0.009758,-0.000617,0.008533,0.644043,0.015625,-0.000732,-0.194904,0.419738,9.785231,0.000909,0.002901,-0.002875,0.145752,-0.252686,-0.378906
0.429353,-0.833163,9.806157,0.004907,0.002274,-2.5e-05,-0.060547,0.405518,-0.583496,-0.176735,3.494615,9.165583,-0.007546,0.010867,0.005062,-0.646729,0.006348,-0.461182,-0.319827,1.004315,9.789424,-0.00145,0.002007,0.002515,-0.354492,0.294189,0.829346,-0.098489,1.085996,9.813362,-0.002039,0.001337,0.00883,0.649414,0.022461,-0.002197,-0.153116,0.407485,9.792239,0.000863,-0.007408,-0.003299,0.154053,-0.244873,-0.379395
0.434064,-0.80466,9.821112,-0.003205,0.001312,-0.001535,-0.068604,0.398926,-0.588867,-0.193862,3.479662,9.179365,-0.014564,0.00406,0.005612,-0.652344,-0.003174,-0.466064,-0.331524,0.978787,9.808052,-0.007992,0.008126,0.000907,-0.366211,0.292969,0.82666,-0.108348,1.082152,9.81188,-0.006918,0.006024,0.011211,0.636963,0.02124,-0.008789,-0.164877,0.401168,9.795756,-0.000538,0.007135,-0.004536,0.14209,-0.246094,-0.384521
0.441318,-0.838685,9.786716,0.001437,0.001667,0.000555,-0.0625,0.406982,-0.579346,-0.172635,3.482391,9.145466,-0.005791,0.006184,0.004174,-0.648682,0.006836,-0.459473,-0.333723,0.983937,9.78511,-0.002258,0.00162,0.0014,-0.371826,0.292969,0.84082,-0.096611,1.086358,9.792137,-0.003626,-0.000559,0.009329,0.633545,0.021729,0.005859,-0.173444,0.402187,9.767844,0.001489,-0.009706,-0.00189,0.138184,-0.244141,-0.368408
0.428552,-0.789096,9.794518,0.00586,0.004421,-0.000666,-0.053955,0.40918,-0.590576,-0.21464,3.49045,9.179326,-0.00882,0.008304,0.005116,-0.639404,0.009766,-0.465332,-0.320331,0.991541,9.799326,-0.00532,0.005887,0.001137,-0.358398,0.287109,0.832275,-0.101491,1.09132,9.810141,-0.006205,0.002209,0.009277,0.645752,0.013428,-0.001953,-0.151901,0.408227,9.792228,0.003589,0.001834,-0.002641,0.148926,-0.253174,-0.378418
0.431394,-0.827855,9.783218,-0.008089,0.000599,-0.000374,-0.058594,0.398926,-0.584717,-0.167324,3.481671,9.152275,-0.01417,0.002505,0.002921,-0.645508,0.002686,-0.464355,-0.331437,0.968841,9.781606,-0.008189,0.004943,0.002113,-0.36499,0.293213,0.834229,-0.113561,1.068944,9.792874,-0.009155,0.004472,0.009162,0.640869,0.019531,0.001709,-0.184631,0.421451,9.789288,-0.004673,0.000295,-0.002821,0.144531,-0.247559,-0.375977
0.43577,-0.827787,9.825493,0.005268,0.003858,-0.00036,-0.068604,0.410645,-0.585938,-0.186203,3.503675,9.161785,-0.001964,0.011829,0.003858,-0.652832,0.008057,-0.4646,-0.312574,0.997168,9.784669,0.002906,0.003055,0.001423,-0.365723,0.298096,0.830078,-0.099944,1.085679,9.801481,0.00315,0.000626,0.011007,0.638916,0.026611,-0.003906,-0.148096,0.401638,9.763782,0.003025,-0.009877,-0.002931,0.145508,-0.242676,-0.38208
0.430929,-0.803896,9.821313,0.000287,0.003481,-0.000978,-0.067627,0.410889,-0.584229,-0.20328,3.489355,9.175299,-0.014558,0.002015,0.005449,-0.651367,0.010254,-0.463867,-0.342715,0.992523,9.789039,-0.009276,0.00888,0.001161,-0.363037,0.284668,0.836914,-0.113432,1.099716,9.792784,-0.010746,0.003317,0.008826,0.638672,0.009521,0.005615,-0.177842,0.419669,9.777062,0.005984,0.011589,-0.003857,0.145508,-0.256836,-0.374756
0.451402,-0.828213,9.78303,-0.002539,-2.1e-05,-0.001199,-0.065186,0.413086,-0.576172,-0.164155,3.469441,9.149657,-0.011789,0.006591,0.005158,-0.654297,0.012939,-0.452148,-0.312568,0.968664,9.79824,-0.005251,-0.002323,0.001379,-0.361084,0.301514,0.835205,-0.092992,1.06732,9.787574,-0.00955,-0.00307,0.009536,0.644043,0.02832,0.00293,-0.171312,0.401533,9.791682,-0.007184,-0.016347,-0.00039,0.147461,-0.240967,-0.375488
0.442964,-0.823582,9.815532,0.002852,0.001773,-2.6e-05,-0.062256,0.407959,-0.585205,-0.197933,3.486154,9.165537,-0.004971,0.009855,0.00449,-0.648193,0.009521,-0.461426,-0.321914,0.996428,9.769269,-0.000243,0.011797,0.000666,-0.372803,0.298584,0.842529,-0.100079,1.081254,9.801968,0.000736,0.006359,0.010028,0.632812,0.024658,0.006836,-0.137591,0.403354,9.767834,0.006063,0.005063,-0.003799,0.136475,-0.23877,-0.368408
0.433855,-0.805966,9.805139,0.000771,0.003001,0.000219,-0.061523,0.405762,-0.585449,-0.170536,3.485624,9.143225,-0.0119,0.001525,0.003699,-0.649902,0.004883,-0.465576,-0.343024,0.996594,9.795164,-0.004042,0.002103,0.001427,-0.357666,0.295166,0.826416,-0.114878,1.089881,9.805758,-0.005389,0.004835,0.010906,0.645508,0.022461,-0.005371,-0.212105,0.441993,9.77873,0.003884,0.000825,-0.00353,0.149902,-0.246826,-0.384033
0.451068,-0.80458,9.821095,-0.004571,0.001039,-6.5e-05,-0.0625,0.403809,-0.579102,-0.187512,3.469925,9.15724,-0.016618,0.010901,0.004512,-0.651123,0.001709,-0.458984,-0.304966,0.989703,9.779964,-0.013946,-0.000681,0.003807,-0.357666,0.293457,0.840576,-0.100752,1.077867,9.802335,-0.018017,-0.006018,0.009113,0.643799,0.021484,0.008545,-0.14313,0.406137,9.780041,-0.012619,-0.010017,0.00036,0.149902,-0.24292,-0.372559
0.448954,-0.857939,9.781171,0.000239,0.003649,-0.001867,-0.061523,0.403076,-0.587646,-0.182765,3.462567,9.152793,0.000475,0.005674,0.005324,-0.647705,0.001953,-0.463379,-0.336778,0.974935,9.765005,0.007101,0.013755,0.000148,-0.361572,0.295898,0.8396,-0.095919,1.070369,9.784606,0.006662,0.008865,0.00983,0.644775,0.023193,0.004883,-0.159929,0.390506,9.774907,0.010378,0.003231,-0.004762,0.148438,-0.243164,-0.372559
0.427332,-0.803353,9.792346,0.021469,0.004225,0.001531,-0.060547,0.404053,-0.585449,-0.187008,3.538306,9.17872,-0.004971,0.00762,0.001428,-0.64917,0.002441,-0.46167,-0.345199,1.027907,9.787799,0.003758,-0.000814,-0.000714,-0.365234,0.288086,0.84082,-0.129383,1.122605,9.822121,0.002538,0.005053,0.011368,0.64209,0.017334,0.005127,-0.175074,0.446867,9.79495,0.010356,-0.001924,-0.004974,0.146729,-0.251465,-0.370361
0.432205,-0.768027,9.800436,-0.020999,-0.001597,-0.003369,-0.062744,0.410889,-0.584717,-0.199835,3.45428,9.177727,-0.033469,0.00527,0.006212,-0.650391,0.013184,-0.462402,-0.302219,0.984314,9.795778,-0.031954,0.002373,0.006885,-0.365234,0.290039,0.833496,-0.093652,1.064816,9.829445,-0.035295,-0.00537,0.007768,0.63916,0.017822,-0.000977,-0.174943,0.40473,9.803907,-0.023916,0.002196,0.00099,0.144775,-0.24707,-0.378174
0.456931,-0.882074,9.827651,-0.012356,-0.001279,0.000232,-0.066895,0.403564,-0.589355,-0.175179,3.432194,9.118518,0.002095,0.008467,0.003333,-0.654541,0.003418,-0.467041,-0.354217,0.907746,9.749054,-0.001549,0.011144,-0.000675,-0.361572,0.28833,0.837891,-0.093896,1.018656,9.780247,-0.002341,0.011958,0.01126,0.643311,0.018066,0.003906,-0.188943,0.355996,9.752431,0.00756,-0.006968,-0.004416,0.148926,-0.250732,-0.374756
0.417325,-0.824502,9.786689,0.027667,0.008669,-0.000604,-0.063232,0.411865,-0.583008,-0.194754,3.550993,9.156135,0.019303,0.006067,0.002549,-0.651367,0.012451,-0.459961,-0.315908,1.035886,9.789662,0.039153,-0.00312,-0.001645,-0.359863,0.292969,0.828369,-0.125344,1.139218,9.816973,0.040641,-0.001465,0.012162,0.643555,0.02124,-0.006104,-0.104872,0.453366,9.787293,0.029091,-0.009881,-0.006104,0.148193,-0.249023,-0.380371
0.435596,-0.747107,9.79306,-0.001981,-0.002399,0.000639,-0.068848,0.401855,-0.587891,-0.188752,3.503231,9.213409,-0.055518,0.005585,0.00645,-0.655518,0.003906,-0.464111,-0.324306,1.053559,9.820157,-0.047238,0.00733,0.004493,-0.363281,0.292236,0.839355,-0.096577,1.140585,9.83446,-0.049322,-0.008823,0.005941,0.642822,0.019043,0.006348,-0.212379,0.435567,9.810185,-0.03798,0.022773,0.000904,0.147461,-0.246826,-0.371826
0.460764,-0.858271,9.849691,-0.018992,-0.000927,-0.004255,-0.067139,0.408691,-0.588623,-0.185431,3.373863,9.092775,0.002474,0.004789,0.003981,-0.65332,0.005127,-0.466309,-0.348614,0.862126,9.745614,-0.015893,0.004096,0.005533,-0.366943,0.286621,0.835693,-0.082694,0.986978,9.761077,-0.01992,0.015934,0.008852,0.639648,0.016357,0.000977,-0.187385,0.314128,9.761377,-0.000939,-0.030543,-0.000678,0.142822,-0.248047,-0.376221
0.433406,-0.820839,9.80289,0.028883,0.011545,0.004344,-0.060791,0.409668,-0.586426,-0.201935,3.56837,9.184317,0.031708,0.012326,0.000864,-0.648438,0.007568,-0.465088,-0.33044,1.012322,9.785621,0.041108,0.005867,-0.007708,-0.354736,0.290771,0.835205,-0.152813,1.109686,9.829004,0.042647,0.00426,0.015473,0.648438,0.017334,0.001465,-0.091492,0.459441,9.783791,0.046641,0.011256,-0.011336,0.149414,-0.250977,-0.374268
0.42402,-0.753991,9.744658,-0.021482,-0.001119,-0.004569,-0.063477,0.410889,-0.578857,-0.18119,3.523266,9.201224,-0.058502,-0.002521,0.006583,-0.6521,0.008789,-0.456787,-0.33216,1.063616,9.824004,-0.023632,0.001132,0.006563,-0.36499,0.294189,0.836182,-0.107715,1.155266,9.804559,-0.021591,-0.017588,0.006554,0.639893,0.02417,0.002441,-0.26178,0.488022,9.814012,-0.033696,0.007522,0.001219,0.143555,-0.246582,-0.374023
0.436047,-0.889454,9.818784,-0.004589,-0.003815,-0.002587,-0.0625,0.411133,-0.591553,-0.166167,3.378596,9.110645,-0.000274,0.010976,0.003882,-0.650146,0.01123,-0.467285,-0.311189,0.949181,9.780787,-0.022766,0.003336,0.003325,-0.367432,0.292236,0.837646,-0.046755,1.0593,9.788669,-0.027462,0.014763,0.010135,0.637207,0.022949,0.005127,-0.104849,0.301347,9.73228,-0.022457,-0.032288,0.003561,0.141846,-0.246094,-0.373047
0.387745,-0.812669,9.825847,0.014584,0.018769,0.002559,-0.063965,0.404541,-0.580566,-0.271171,3.547782,9.160329,0.023576,0.021094,0.002103,-0.651611,0.003418,-0.45874,-0.407832,0.975338,9.783924,0.016461,0.028221,-0.002428,-0.364746,0.29248,0.837891,-0.226334,1.080039,9.679446,-0.002778,0.034044,0.005863,0.638672,0.018555,-0.000244,-0.220138,0.593586,9.76562,0.101302,0.07395,0.005116,0.144775,-0.248291,-0.373779
0.585283,-0.834093,9.720163,0.00035,-0.040322,-0.006856,-0.061035,0.403564,-0.587158,-0.048096,3.476844,9.18508,-0.05931,-0.041851,0.008793,-0.646729,0.003662,-0.464844,-0.233192,0.958185,9.802503,-0.048955,-0.061405,0.010466,-0.355957,0.289795,0.844482,-0.04988,1.041995,10.112281,-0.025914,-0.069977,-0.002377,0.650146,0.02002,0.009033,-0.262491,0.198935,9.688556,-0.182298,-0.074034,0.014829,0.154785,-0.246094,-0.362793
0.196745,-0.788897,9.873169,0.010466,0.025542,-0.002384,-0.065186,0.404785,-0.579834,-0.319939,3.431774,9.107089,0.023648,0.059886,0.007272,-0.650146,0.006836,-0.459473,-0.354661,0.978508,9.796575,0.051164,0.075767,-0.004849,-0.359375,0.289795,0.845703,-0.03482,1.053007,9.728477,0.038102,0.051053,0.014554,0.644287,0.017822,0.012939,-0.070452,0.263677,9.802399,0.096594,0.042682,-0.021258,0.149414,-0.25,-0.367676
0.676163,-0.800052,9.763927,0.028415,0.005638,0.004803,-0.062988,0.406494,-0.58667,-0.151926,3.511531,9.210976,-0.0149,-0.032494,-0.005039,-0.650146,0.007812,-0.466064,-0.428344,0.998118,9.733344,-0.030974,-0.03035,0.00064,-0.36377,0.291016,0.830566,-0.242826,1.052087,9.621016,-0.033867,0.034269,-0.022673,0.640869,0.019043,-0.002197,-0.468878,0.298469,9.803849,0.027952,0.010881,-0.021755,0.143799,-0.249268,-0.379639
0.312965,-0.789648,9.869036,-0.02958,-0.024417,-0.003406,-0.062256,0.407959,-0.592529,-0.084222,3.53216,9.101398,-0.003804,0.033264,0.011847,-0.649902,0.008301,-0.472168,-0.141735,1.062559,9.855546,0.033613,-0.007836,0.010706,-0.366455,0.283691,0.835938,-0.01988,1.243158,9.958235,0.08449,-0.084078,0.028588,0.638672,0.01416,0.003418,0.470974,0.765346,9.963472,0.101303,-0.132384,-0.042303,0.141357,-0.257568,-0.374268
0.525607,-0.841179,9.930569,0.022811,0.034611,-0.007541,-0.061768,0.4104,-0.578857,-0.330881,3.496348,9.175918,-0.055714,0.006154,-0.00332,-0.648926,0.010254,-0.45752,-0.415988,1.05862,9.842257,-0.066805,0.060696,-0.019072,-0.364746,0.291992,0.841064,-0.018227,1.220604,9.751939,-0.11452,0.077887,0.005072,0.642334,0.020264,0.007568,-0.394464,0.743153,9.823588,-0.101914,0.249119,0.046253,0.147217,-0.248291,-0.370117
0.292987,-0.767566,9.685453,-0.04126,-0.00206,0.016802,-0.070801,0.411865,-0.576904,-0.169107,3.30672,9.180138,-0.010082,-0.00644,0.010584,-0.656494,0.009521,-0.454346,-0.451381,0.754572,9.754913,-0.047607,-0.046087,0.039687,-0.367188,0.292236,0.837158,-0.391634,0.747468,9.731719,-0.122821,0.025869,0.015719,0.638916,0.022217,0.000977,-0.763256,0.307309,9.664157,-0.041498,-0.148104,0.030892,0.142822,-0.246582,-0.375244
0.499281,-0.893609,9.648768,-0.014227,0.007539,-0.020957,-0.071045,0.411377,-0.578613,-0.16611,3.477749,9.080868,0.076083,0.02149,-0.005886,-0.658203,0.009033,-0.459229,-0.118876,0.805159,9.49518,0.125642,0.008625,-0.027118,-0.366943,0.286621,0.839355,-0.043621,0.847236,9.605067,0.294368,-0.095625,-0.003395,0.640137,0.017334,0.00708,0.747553,1.033351,10.05306,0.034996,-0.231053,0.241671,0.141357,-0.250488,-0.372803
0.614515,-0.979831,10.352183,0.046465,-0.072257,0.012671,-0.061523,0.408447,-0.59082,-0.086672,3.763134,9.503839,-0.064856,-0.023126,0.01191,-0.645264,0.007812,-0.468506,-0.344292,1.415601,9.927375,-0.09403,0.005727,-0.010223,-0.359375,0.296387,0.835938,0.253679,1.473593,10.401462,-0.181298,0.038495,0.023367,0.644287,0.025391,0.001953,-1.009783,-2.555087,10.685883,-1.076705,0.600738,-0.263997,0.152588,-0.228271,-0.376709
2.008539,-0.68166,12.138532,-0.08159,0.10365,0.087067,-0.061035,0.403809,-0.588623,-0.287965,3.057246,9.094712,-0.072696,0.011757,-0.01813,-0.645752,0.004395,-0.463379,-0.305249,-0.179492,9.723279,0.050362,0.03652,0.095604,-0.354248,0.297607,0.835449,-0.480537,-0.105209,9.433549,-0.055274,0.09655,-0.02479,0.649902,0.026367,0.002197,-2.093264,-1.974853,10.300562,1.238591,-0.706688,-0.498165,0.155762,-0.243652,-0.379639
-0.489928,0.54955,10.2986,-0.238161,0.968527,0.286685,-0.038574,0.412354,-0.588623,0.149931,4.006944,9.072331,0.430572,0.033052,-0.110239,-0.641846,-0.001709,-0.463135,-0.080391,-0.586198,9.543211,0.68445,0.013387,-0.064896,-0.359375,0.307617,0.839844,-0.087453,-0.940446,9.384237,0.6561,-0.220959,0.016808,0.647217,0.025146,0.006104,-0.029354,2.043539,11.311361,0.931201,-0.751772,-0.417752,0.149658,-0.251953,-0.376221
0.575728,2.077339,9.265779,-1.84613,0.243541,0.355919,-0.032227,0.449219,-0.580322,-0.784533,4.439805,9.052847,-0.247774,0.107637,-0.055773,-0.644775,0.00293,-0.467285,-0.745569,0.744209,9.693252,1.667918,0.209251,-0.072889,-0.369385,0.325684,0.836182,0.156699,0.498119,9.7276,1.841443,0.141069,-0.054833,0.649414,0.007812,0.005371,-0.97593,0.999553,10.724106,0.136592,-0.763843,-0.14661,0.141846,-0.263184,-0.381348
-2.172246,2.268502,8.693985,-4.030888,0.380986,0.106752,-0.030029,0.518311,-0.552979,-0.300749,2.413023,9.044126,-0.427,-0.191609,-0.084879,-0.649658,0.005371,-0.463135,-0.718751,2.447399,10.080039,1.25059,-0.090824,-0.110655,-0.379395,0.340088,0.828613,-0.779325,2.739093,10.334377,1.378629,-0.00822,0.083877,0.646729,-0.000488,-0.001709,-0.477742,-0.143102,10.414739,0.688873,-1.314874,-0.095585,0.128906,-0.275146,-0.390625
0.795452,-6.796204,3.507933,-6.471792,-0.273166,-0.003286,-0.029297,0.623047,-0.491455,0.582951,1.948185,8.816563,0.035461,0.0905,0.166429,-0.64624,0.010498,-0.464355,0.285949,1.157802,9.3355,1.229018,-0.15293,0.091956,-0.36499,0.359131,0.818115,0.610389,1.157181,9.137423,1.105412,-0.289463,-0.144007,0.659912,-0.008545,-0.006104,1.29776,0.408664,9.632016,1.368095,-1.477018,-0.116464,0.132324,-0.28833,-0.394531
2.13701,-14.864086,13.279126,4.242623,0.125688,-0.495464,-0.043457,0.555176,-0.531738,-0.961518,4.385263,9.466589,0.931088,0.049897,-0.149971,-0.657959,-0.005615,-0.458496,-0.334122,0.963196,9.282129,1.761105,0.278531,-0.101341,-0.373291,0.4021,0.822266,0.353878,1.838607,9.603872,2.19777,0.38754,0.122841,0.662598,-0.001953,0.006104,0.769823,1.928957,10.161966,1.297285,-1.083237,-0.091259,0.124268,-0.285889,-0.388916
-1.361079,2.568682,9.721426,0.619051,0.703864,1.089925,-0.023682,0.552734,-0.54248,0.624952,5.242739,10.387546,-0.421048,-0.217258,-0.073099,-0.657959,-0.000244,-0.459717,-0.812966,1.864355,9.699153,2.22713,-0.16059,0.116174,-0.372559,0.42334,0.809082,-0.83794,2.431446,9.289809,1.734324,-0.103195,-0.007618,0.66748,-0.027832,0.0,-0.497327,0.571999,10.361713,0.572173,-1.433016,0.016337,0.115479,-0.310791,-0.395508
-0.145825,1.5772,9.278027,-1.340161,-0.141461,-0.155,-0.020752,0.567871,-0.532227,-1.404325,1.611133,7.629619,-1.002901,0.309729,0.038645,-0.647461,0.007568,-0.466064,-0.228385,4.299147,8.529289,3.196666,0.05669,-0.147105,-0.373047,0.481934,0.790527,0.15866,2.677051,8.618289,2.817878,0.083244,-0.109935,0.680908,-0.032227,0.003662,1.125763,-0.046524,9.452976,2.117091,-2.140595,0.00055,0.101807,-0.327148,-0.394775
-0.599569,-7.484976,7.403012,-0.881071,0.364718,-0.166568,-0.008789,0.575684,-0.525635,0.906949,2.077773,9.557031,1.204172,-0.575487,0.006665,-0.647705,-0.012695,-0.457275,-0.347426,9.162808,8.59079,1.46458,-0.031708,-0.175205,-0.378662,0.495117,0.783447,-1.686187,8.680652,11.045222,2.816568,-0.019645,0.203635,0.682129,-0.052002,0.004883,5.003722,6.457176,11.933897,2.707924,-1.703618,-0.416135,0.085693,-0.366455,-0.385498
0.895789,-3.888612,9.826455,1.064427,-0.488036,0.613362,-0.01709,0.566162,-0.537109,-0.273053,7.442287,8.705385,0.602331,0.751807,-0.10642,-0.647217,-0.014893,-0.470947,-0.234078,6.519464,9.171938,-1.332848,0.030759,0.225721,-0.372559,0.48999,0.799561,-1.890551,9.521299,10.93858,-0.838943,-1.251695,0.006126,0.668701,-0.039062,-0.005615,3.443774,8.800218,13.135742,-1.481021,-0.218658,0.080064,0.094238,-0.328613,-0.396484
-0.54153,-3.474313,11.594315,-0.120889,0.873439,-0.146393,-0.009766,0.565918,-0.532471,-1.370392,3.615115,10.384058,-1.789255,-0.691259,0.257834,-0.655762,0.008789,-0.452148,-0.938132,2.690272,8.256517,-1.093793,0.017335,-0.149064,-0.37793,0.462402,0.79248,0.026679,5.183019,8.050102,-1.79182,-1.391458,0.216732,0.644775,-0.037842,-0.033447,4.513909,2.496474,9.723691,-3.336269,-0.799987,-0.482597,0.094482,-0.289307,-0.436279
0.934851,-4.005413,8.797359,1.112523,0.061021,0.630717,-0.005615,0.539062,-0.544189,2.1631,-0.938716,7.136217,0.003052,0.490441,0.023141,-0.652588,-0.000977,-0.460938,0.838387,3.39874,9.895441,-0.612749,-0.037749,0.077809,-0.376953,0.463867,0.80835,0.666495,3.316094,9.448465,-1.411436,-1.682069,0.522029,0.620117,-0.030273,-0.047363,4.02999,-0.62563,7.073038,-2.218271,0.625885,-0.963215,0.107422,-0.244141,-0.446289
-1.480384,-3.466778,10.15348,1.384052,0.982769,-0.267276,0.013672,0.526123,-0.554199,-3.06818,4.885874,10.213273,1.711552,-0.073575,-0.018894,-0.64917,-0.008057,-0.452148,-1.530437,2.268184,8.983397,-0.70931,0.336438,-0.042839,-0.379395,0.440674,0.810547,2.970094,0.967696,6.808859,-0.960472,-1.076755,0.10568,0.609863,-0.035156,-0.059326,-1.800109,-1.30462,6.632712,-1.099869,-0.148876,-1.049023,0.118408,-0.234131,-0.458008
0.193211,-6.256404,9.960114,2.108067,0.227276,0.593563,0.017578,0.490234,-0.583984,1.556396,6.221449,9.719141,-0.997428,-0.170597,0.044046,-0.654297,0.000977,-0.462646,-0.760647,1.35108,9.47234,0.145793,-0.315165,0.165882,-0.36792,0.450195,0.80249,0.937808,0.848368,8.328755,0.672425,-0.068446,0.336401,0.606201,-0.033447,-0.062744,2.155985,-0.05844,7.465119,0.395708,-1.687586,-0.923467,0.107666,-0.225586,-0.466553
0.202619,-1.574281,10.20596,4.222657,1.418451,0.077692,0.039307,0.417969,-0.612549,-1.132816,0.325577,8.456103,-0.874984,0.146955,0.185295,-0.650391,0.020508,-0.45752,0.687307,3.410749,8.60764,1.225633,0.026513,-0.043539,-0.379395,0.467285,0.798828,0.771678,3.907834,9.23891,1.392904,-0.906219,0.01481,0.590088,-0.044189,-0.070068,3.78369,2.120272,9.193817,0.463878,-0.369624,-0.7687,0.097656,-0.233643,-0.467529
-1.872728,1.604518,9.35924,3.141466,0.893467,-0.058679,0.05127,0.356689,-0.633789,0.822836,2.782897,8.766144,1.370196,-0.108585,-0.027762,-0.656494,-0.001465,-0.460938,-0.909685,6.214001,9.835682,0.292458,0.377506,-0.152979,-0.383789,0.471191,0.793213,2.227364,6.398734,9.877495,0.25174,-0.67125,0.194811,0.587402,-0.048096,-0.076904,2.192128,3.296371,10.621595,-0.576945,-0.696653,-0.728681,0.09668,-0.223633,-0.476318
-0.308698,4.043448,12.260065,2.478123,1.152253,0.073271,0.070068,0.307129,-0.641602,-1.604662,6.958437,9.689292,0.050976,0.238877,0.089592,-0.651611,-0.001465,-0.461182,-1.564102,4.052438,9.070931,-0.943275,-0.328007,0.263626,-0.37207,0.448486,0.804199,0.587182,4.561562,9.334131,-1.046106,-0.368967,0.191987,0.574463,-0.052246,-0.076904,3.826981,1.396665,8.70561,-1.138984,-0.640757,-0.727307,0.089844,-0.209473,-0.482422
-1.15622,3.575845,10.571565,-0.042548,1.439482,-0.356805,0.09668,0.306641,-0.648193,1.095246,3.455702,9.053937,-1.070598,-0.380758,0.10638,-0.653564,0.009521,-0.459473,1.145478,2.120542,8.963128,-0.240227,-0.256593,-0.012421,-0.364014,0.444336,0.80835,2.038013,1.772195,7.981696,-0.572117,-1.137606,-0.006954,0.567383,-0.046143,-0.083008,2.759593,0.152878,8.403991,-0.652978,-0.180245,-0.775789,0.096924,-0.195801,-0.485596
-2.196774,-1.597632,8.820422,0.437626,1.275974,0.076672,0.121826,0.297852,-0.649902,-0.613458,1.553342,8.907392,0.11728,0.45453,-0.076501,-0.646973,0.011475,-0.463379,-0.858246,2.524191,9.312753,0.45521,0.504622,-0.014199,-0.378662,0.459961,0.803467,3.331267,2.362595,8.530806,0.882779,-0.435008,0.244306,0.55835,-0.044678,-0.085693,2.579093,0.39387,8.77162,-0.02104,-0.914426,-0.736401,0.084717,-0.185547,-0.487793
-1.666435,-2.388014,11.054582,1.560643,1.480659,-0.400195,0.143066,0.271729,-0.657471,-0.974811,3.864637,9.060335,0.573644,-0.308029,-0.007539,-0.650146,0.004395,-0.462646,-1.497985,4.285714,9.637077,0.502593,-0.38192,0.049235,-0.369629,0.453369,0.793457,1.049817,5.556262,10.004015,0.793775,-0.077425,0.119766,0.554443,-0.063232,-0.092773,4.351776,1.983862,8.950863,0.236128,-0.615926,-0.870221,0.07959,-0.197021,-0.49585
-3.347274,-2.648075,7.004162,4.415014,1.664426,-0.101944,0.167725,0.17627,-0.654297,-0.046284,4.540627,10.017524,-0.191007,0.183305,-0.135672,-0.650635,-0.004883,-0.455322,-0.046016,3.891957,9.817537,-0.549036,-0.064277,0.187664,-0.370605,0.451416,0.801514,1.704662,5.114184,9.962596,-0.847168,-0.928325,0.276192,0.534668,-0.049561,-0.09375,3.347907,2.577155,9.519741,-0.644037,-0.180786,-0.822571,0.076904,-0.173096,-0.49292
-4.124862,11.707495,9.793373,4.086913,1.359541,-0.090621,0.19873,0.101807,-0.655762,-2.033344,3.306357,8.529411,-0.117742,-0.038987,-0.241639,-0.643799,-0.004883,-0.465332,-2.160995,2.627555,9.440382,-0.083824,0.04396,0.138607,-0.366455,0.438721,0.790527,3.308332,2.486976,9.137505,-0.456515,-0.217141,0.114008,0.530518,-0.053955,-0.096436,3.10579,0.709348,8.477851,-0.767704,-0.455493,-0.746744,0.080811,-0.164795,-0.502441
-3.05207,7.841653,9.328964,-3.070892,1.529414,-0.694011,0.219971,0.155762,-0.656982,-1.543877,3.230313,8.37037,0.001579,-0.001281,-0.219058,-0.647705,-0.010254,-0.469238,-2.404523,4.021209,9.71947,0.9871,-0.451914,0.197423,-0.369141,0.455078,0.77124,0.965797,3.515443,9.330036,1.188532,0.346945,0.209955,0.512451,-0.053955,-0.085693,2.794227,-0.102946,8.279806,0.385044,-0.222459,-0.962085,0.071289,-0.164307,-0.498535
-5.024477,-5.218311,6.081648,-1.390342,1.811903,-0.253911,0.258789,0.181152,-0.655518,-1.451549,4.036916,9.183116,0.157326,-0.246114,-0.097812,-0.637695,-0.018311,-0.471924,-1.129311,3.841456,9.323468,0.678771,-0.670932,0.499982,-0.368164,0.455811,0.750488,1.193318,4.555483,9.642544,0.924468,-0.283717,-0.091335,0.495117,-0.05835,-0.0896,1.892471,1.175667,9.354309,1.406554,-0.666009,-0.909649,0.061523,-0.185303,-0.499023
-4.797522,-0.517246,7.759336,1.961833,1.158177,-0.293125,0.28125,0.149658,-0.651855,0.88095,4.502128,10.126113,-0.306501,0.080264,-0.071303,-0.631836,-0.011719,-0.47998,0.416858,3.793995,8.025028,1.123581,-0.580777,0.192076,-0.370605,0.465088,0.727539,2.674151,3.627357,8.851789,0.544256,0.080482,0.015957,0.483887,-0.057617,-0.076172,3.70392,3.650514,9.787401,1.421664,-0.800504,-0.796008,0.057617,-0.19873,-0.491699
-5.302518,5.026059,8.933086,1.430406,1.266484,-0.225231,0.299805,0.118652,-0.639893,-1.114959,1.850966,10.264544,-0.655084,0.203873,0.057683,-0.625977,-0.010986,-0.48291,-0.029682,5.056313,8.85121,0.411275,-0.224203,0.085746,-0.387939,0.46167,0.705078,0.489119,3.798672,8.419323,0.455502,0.122055,0.157995,0.467041,-0.062744,-0.076904,3.368923,4.949008,9.974732,-0.03507,-0.163237,-0.5211,0.049072,-0.201172,-0.499512
-4.791782,1.428181,7.817586,0.628667,0.993848,-0.677335,0.315918,0.112305,-0.63623,-0.08725,2.021789,8.708622,0.659864,0.181854,-0.111527,-0.62085,-0.020264,-0.494141,0.125769,4.622705,9.446688,-0.490289,-0.501928,0.186234,-0.387451,0.451172,0.705566,1.431949,4.946286,8.35267,0.153577,-0.890293,0.112399,0.455811,-0.050537,-0.06543,3.313256,2.667063,8.828273,-1.078048,-0.530872,-0.335429,0.048096,-0.176025,-0.492676
-3.920156,5.766974,8.237028,0.900424,0.783284,-0.290539,0.337646,0.094238,-0.631592,-0.207675,4.495735,9.621009,0.13532,0.100917,-0.150726,-0.606934,-0.02832,-0.501709,1.207655,2.930598,8.789066,-0.534849,-0.321477,0.197524,-0.39624,0.421143,0.696045,4.128265,4.654111,9.385784,-0.492768,-0.641882,0.302784,0.439209,-0.053955,-0.066406,4.978365,1.100648,8.621456,-0.413985,-0.423995,-0.506141,0.041504,-0.176025,-0.498535
-4.63371,4.317244,8.383818,-2.059634,1.207784,-0.79401,0.354004,0.13623,-0.62793,0.10125,2.502276,9.388875,-0.459827,0.156716,0.085305,-0.601562,-0.021729,-0.509033,0.111134,3.891199,10.159591,-0.137175,-0.106516,-0.034089,-0.418213,0.409424,0.682373,3.844286,3.52378,10.745323,-0.842513,-0.052869,0.219031,0.416016,-0.052246,-0.05957,4.650011,1.696765,9.280413,-0.69292,-0.002927,-0.359227,0.034912,-0.162109,-0.500488
-4.619912,-3.404806,6.455537,-0.78604,0.757152,-0.613522,0.375244,0.148438,-0.631592,-1.248557,2.334955,7.709825,0.462784,0.091174,-0.030753,-0.5896,-0.039307,-0.517578,0.042951,5.684653,9.686456,-0.349212,-0.758503,0.119645,-0.414795,0.388428,0.662598,2.019611,4.505517,7.707759,-0.22217,-0.052454,0.250765,0.392334,-0.049316,-0.060791,4.076777,1.962313,9.714313,-0.508138,-0.051803,-0.462549,0.032959,-0.14917,-0.503906
-3.989981,0.869376,6.130594,2.163579,0.981364,-0.31361,0.394287,0.117676,-0.612793,-0.191143,3.754145,8.144401,0.225847,-0.368666,0.204901,-0.587646,-0.038086,-0.506836,1.717424,4.545205,8.265754,-1.344232,-0.50078,0.262118,-0.41333,0.358887,0.64502,2.083626,5.651616,7.700889,-0.515437,-0.679075,0.307917,0.378662,-0.044189,-0.064453,4.168334,2.375093,8.389254,-0.871672,-0.180233,-0.700478,0.034424,-0.124023,-0.509277
-5.795509,6.040808,7.508412,0.159465,1.106565,-0.854033,0.418457,0.113281,-0.615479,-0.509997,3.659529,10.698917,-0.611447,-0.001102,0.051314,-0.578125,-0.034668,-0.522217,0.423713,0.990886,9.30946,-0.937613,0.034313,0.321434,-0.425049,0.330078,0.631104,3.829145,2.96175,8.421957,-1.177087,-0.282442,0.22912,0.352783,-0.044678,-0.064453,3.384697,0.691591,8.560139,-0.623257,-0.278405,-0.672287,0.026367,-0.119385,-0.508545
-6.959345,2.099259,8.338798,-1.511284,0.95165,-0.670708,0.434326,0.144531,-0.602051,-0.219173,0.427976,9.800194,-0.013376,-0.435485,0.276389,-0.580566,-0.035889,-0.509521,1.14892,1.467001,10.49706,0.911326,-0.747094,0.289397,-0.416504,0.325195,0.609375,3.319312,1.424622,9.386914,0.396215,-0.241153,0.391123,0.339844,-0.053223,-0.063232,4.640858,0.544146,9.871007,0.222844,-0.744737,-0.79801,0.019287,-0.128418,-0.51001
-5.876973,0.039866,7.31948,-0.452013,0.609075,-0.81634,0.440674,0.164795,-0.605713,0.892319,3.920573,9.991741,1.997328,-0.255891,0.033917,-0.581055,-0.057861,-0.514893,2.633098,4.941644,10.893332,1.569083,-0.073677,0.259345,-0.425781,0.329346,0.580322,5.013885,2.850852,10.694223,1.210503,-0.642425,0.092014,0.314209,-0.055908,-0.061768,5.517544,-0.178113,9.146938,0.190597,-0.396811,-0.466987,0.009033,-0.125,-0.497559
-9.810708,-1.377152,6.636942,0.019505,0.695314,-0.301359,0.459473,0.159424,-0.602539,0.335018,9.208369,11.999993,1.625829,-0.279524,0.214119,-0.572266,-0.086426,-0.508057,1.203264,6.831276,10.240194,1.48574,-0.288845,0.109905,-0.42041,0.330566,0.525391,5.386377,3.935224,8.286009,1.214866,0.300607,-0.095651,0.29541,-0.058105,-0.070068,4.111699,-0.642601,8.551971,1.2553,-0.33621,-0.264603,0.004883,-0.133057,-0.50293
-7.461095,-1.234508,6.265161,1.914998,-0.133863,0.271206,0.455322,0.124756,-0.582275,1.559271,6.81853,9.187376,0.128079,-0.296753,0.410441,-0.566895,-0.084473,-0.490967,2.662992,7.014764,10.349664,1.146737,-0.276984,0.083302,-0.418457,0.311523,0.479248,3.596809,4.477024,11.955772,1.430763,-0.121061,-0.256038,0.266357,-0.076904,-0.071533,5.871558,1.512462,8.932187,1.596057,-0.966831,-0.212356,-0.01709,-0.155762,-0.48999
-7.158824,5.757927,7.58808,2.43082,-0.187869,0.597615,0.449707,0.077637,-0.58667,0.151932,3.972961,9.553027,2.268884,-0.140625,0.289338,-0.564697,-0.114502,-0.495361,1.081045,5.467421,9.768494,1.763173,-0.588176,-0.083549,-0.407959,0.305176,0.400391,6.208405,4.117125,6.344969,1.701059,-0.115724,-0.730503,0.237305,-0.078125,-0.09375,6.99427,0.236591,7.750797,1.170254,0.186763,0.148554,-0.022217,-0.165527,-0.496826
-7.465965,7.874328,9.719683,-0.323828,0.211258,0.949322,0.449951,0.081787,-0.585938,0.840186,8.552544,9.489001,3.479887,-0.559716,0.227875,-0.562012,-0.14624,-0.476807,4.357381,5.917688,8.361206,2.192708,-0.214235,-0.172599,-0.390137,0.285889,0.336182,3.697182,4.09901,7.724397,2.06614,1.071251,-0.591995,0.221191,-0.099121,-0.094971,2.347277,0.661638,6.623291,2.57787,-0.352882,-0.193012,-0.029541,-0.199707,-0.486816
-6.645302,0.974436,7.082453,-0.542703,-0.529459,0.927008,0.446777,0.08374,-0.592285,1.428751,6.333901,7.049514,2.057611,-0.34313,-0.067797,-0.544922,-0.175049,-0.467773,0.165912,2.757406,7.338273,1.887392,0.431327,-0.162684,-0.382568,0.263184,0.276123,1.741974,3.357492,5.450956,2.708541,0.123223,-0.704234,0.20874,-0.12085,-0.098145,5.523315,2.208094,5.95324,3.41523,-1.309143,0.099176,-0.049561,-0.248535,-0.464111
-5.158231,2.438757,7.78007,1.194517,0.046232,1.096827,0.440674,0.053711,-0.588135,1.117239,2.482942,15.136137,1.901675,-0.204972,0.014204,-0.545166,-0.19873,-0.458984,1.749568,3.364274,8.360119,4.061528,-0.931045,-0.0108,-0.375732,0.270508,0.22998,4.390212,4.930754,6.153966,4.126975,0.099266,-0.742792,0.190674,-0.136963,-0.096436,5.501899,4.407065,6.174929,3.57824,-0.391505,-0.076336,-0.064209,-0.280762,-0.44165
-7.93355,1.068974,7.985905,-1.143441,-0.192678,-1.521683,0.439941,0.079834,-0.584229,0.734105,-3.362926,6.57754,0.688832,0.058342,0.769018,-0.538818,-0.203613,-0.442139,4.669893,3.635574,7.919685,3.109292,0.479812,0.245071,-0.360107,0.25,0.178467,2.696964,8.734482,6.366511,4.294973,1.042748,-0.179906,0.186523,-0.16748,-0.095947,5.844939,7.524708,7.566862,4.292778,-1.562808,-0.1822,-0.08252,-0.33667,-0.414795
-8.014684,-0.029021,7.861317,1.550518,-1.037179,0.36066,0.427979,0.053467,-0.5896,1.291463,5.251075,5.249791,9.71115,0.016525,0.098158,-0.532227,-0.30542,-0.371582,0.005926,9.163289,6.645556,6.521467,0.524186,-0.172859,-0.347412,0.24585,0.12207,2.93528,9.603138,6.549968,3.770749,-0.107157,-0.201254,0.17334,-0.19165,-0.096924,8.115338,6.190587,6.0154,2.780709,-0.894584,-0.119396,-0.093506,-0.365234,-0.391113
-8.374615,6.767349,9.931433,1.210215,-0.420252,-0.492993,0.421387,0.032471,-0.581787,0.726105,18.347179,5.09393,6.090702,0.183359,0.614361,-0.526855,-0.355957,-0.314453,2.598557,16.621354,6.32338,5.293251,-0.106576,-0.157758,-0.343262,0.214355,0.069092,3.798483,10.39514,6.678547,3.496424,1.131322,-0.797461,0.155273,-0.220215,-0.088867,4.584625,6.438335,6.091357,3.921604,-0.359119,0.188403,-0.115967,-0.405273,-0.357666
-9.038552,1.132867,7.537585,-0.381099,-1.828087,0.863061,0.400391,0.044434,-0.575684,1.832301,5.622018,0.720452,4.551462,-0.685975,0.476482,-0.514648,-0.376953,-0.241455,2.55355,15.889746,5.316431,0.456815,0.727143,-0.13425,-0.315918,0.148926,0.026123,0.390791,13.474062,5.921621,2.269951,0.173302,-0.020056,0.140869,-0.249268,-0.092529,7.752516,11.171032,7.887679,2.619067,-1.399517,-0.211325,-0.124512,-0.43042,-0.331787
-4.701173,1.587843,7.183481,2.155721,-1.113489,0.403512,0.384521,0.007324,-0.578369,1.563086,9.34064,-4.969947,11.310171,0.776619,0.059589,-0.507812,-0.428711,-0.137207,-1.526475,11.02807,3.66303,-0.809962,0.365524,-0.345739,-0.299561,0.087402,-0.00415,2.416834,13.704035,6.202108,0.179889,-0.544863,-0.684257,0.115479,-0.262207,-0.102783,8.809927,11.251782,6.08312,-0.14972,0.343155,0.179287,-0.133789,-0.423584,-0.336914
-5.221097,6.438788,8.138817,1.206982,-1.885612,0.919478,0.34375,-0.026611,-0.57666,-0.948245,18.585012,0.436997,7.777855,-0.001241,0.234149,-0.508301,-0.45459,-0.053223,0.219812,9.111367,6.139673,0.183257,-0.763643,0.026907,-0.277344,0.016846,-0.039551,3.169403,11.410286,5.372793,-0.179913,0.681849,-0.167436,0.099854,-0.299072,-0.11792,5.326353,6.714992,4.777782,-0.780402,0.256084,-0.522573,-0.130859,-0.428223,-0.351807
-2.044509,3.425205,7.226543,0.832988,-0.578724,0.197489,0.328125,-0.036133,-0.567871,1.561111,15.542714,-0.702063,3.822364,0.366875,0.672656,-0.507324,-0.446533,-0.005371,2.367056,8.746289,7.233064,0.377715,-0.137129,0.07219,-0.278564,-0.042725,-0.075928,0.137371,10.527645,4.768583,0.289847,0.611172,-0.151653,0.060791,-0.324463,-0.137695,7.167371,6.862068,4.585071,1.373482,-0.43765,-0.92899,-0.148682,-0.447754,-0.34375
-5.607493,8.469795,10.766909,1.223643,-0.9706,-0.209002,0.321777,-0.058594,-0.565186,-0.811532,19.001731,-0.006515,1.122465,0.177677,0.337032,-0.481934,-0.451416,-0.000732,0.704934,9.287802,5.716046,0.935022,0.625224,-0.025996,-0.259766,-0.09082,-0.098389,1.974905,9.161113,4.979814,0.034631,-0.187686,0.069848,0.036377,-0.335938,-0.147217,4.977861,8.740341,4.922267,0.540216,0.689412,-1.476672,-0.13501,-0.445801,-0.342529
-4.13169,4.759324,7.572058,-1.081541,-0.50772,0.102714,0.314941,-0.036377,-0.569336,2.686025,16.411,-3.601153,-4.236058,-0.413917,0.911376,-0.466309,-0.44751,-0.040527,0.753052,9.308131,3.758906,0.368388,-0.300226,0.214845,-0.254883,-0.14209,-0.127197,3.714983,8.507509,4.328915,1.046337,0.679701,-0.154314,0.013672,-0.362305,-0.163574,5.113204,7.176786,4.518365,0.684845,-0.691918,-0.805025,-0.147217,-0.457275,-0.342041
-4.881621,1.24862,7.828603,1.022572,-1.174026,0.364622,0.305176,-0.056152,-0.560059,2.738459,11.015986,-5.661472,-4.682643,0.0304,-0.074664,-0.422852,-0.452637,-0.089844,3.069368,8.812756,2.218494,0.74969,-0.312682,0.412696,-0.240479,-0.189941,-0.142822,2.187364,11.434211,4.360331,1.511242,0.634354,0.267651,0.003174,-0.403809,-0.164795,8.664726,9.03593,3.289188,1.552588,0.049603,-1.520397,-0.129639,-0.487793,-0.333008
-3.743975,13.528245,12.438303,2.194541,-0.547498,0.498541,0.296387,-0.085449,-0.554443,3.513216,18.244142,-0.35494,-5.342976,0.376996,-0.314673,-0.390137,-0.443848,-0.165283,1.364629,11.368565,3.257767,1.529068,0.048574,0.063161,-0.243652,-0.233398,-0.159668,3.306157,13.070851,4.489077,0.387966,0.330935,-0.002438,-0.023682,-0.425049,-0.178711,5.195965,10.415381,5.934443,0.292167,0.953645,-1.249703,-0.128418,-0.496338,-0.337402
-4.450293,9.992131,9.369096,-3.832904,-0.856292,-0.147587,0.280273,-0.022949,-0.576416,-0.160716,14.922093,-1.38298,-10.087528,0.18511,0.326174,-0.370117,-0.398438,-0.281738,2.116172,13.921896,5.138369,1.128515,-0.847648,0.440833,-0.237549,-0.271484,-0.169922,2.093718,10.758514,3.93301,-0.461699,1.220484,0.033834,-0.033203,-0.444336,-0.204346,3.628279,8.645101,5.745619,0.321282,-0.173329,-1.349991,-0.121826,-0.506592,-0.343018
-5.516392,-3.678085,8.564019,-1.705767,-0.728571,0.599191,0.266602,0.008545,-0.581299,0.323762,-9.034058,5.62541,-10.302139,-1.000429,0.373133,-0.357666,-0.326416,-0.37793,5.151843,14.576774,11.501147,-1.337566,0.158611,-0.076163,-0.222168,-0.304199,-0.197021,0.189962,9.702409,4.778495,-1.01217,0.05761,0.019326,-0.040527,-0.455322,-0.221924,5.69487,10.254309,6.109962,-0.262421,0.31825,-1.066802,-0.108398,-0.51123,-0.35083
-2.942858,0.870333,7.645977,0.629143,-2.492221,-0.799871,0.232422,0.000244,-0.575928,4.704702,-11.361568,-0.818684,9.97411,-0.8471,0.472222,-0.357422,-0.407471,-0.259521,0.914972,5.945978,-0.351976,-4.044998,1.215516,0.281814,-0.21167,-0.313232,-0.25708,3.188225,5.717555,5.551926,-1.506873,-0.133345,-0.089165,-0.059082,-0.456299,-0.25415,2.439661,7.304739,7.03523,-1.695388,0.453841,-0.738559,-0.109131,-0.493164,-0.382324
-4.020322,6.577671,9.571351,0.155056,-0.688361,-0.338955,0.217773,0.003662,-0.568604,4.165686,35.818228,2.46191,12.392101,2.265073,-1.786502,-0.322754,-0.486572,-0.140625,0.714515,1.739315,2.438283,2.260788,-0.338885,0.112275,-0.215332,-0.342041,-0.254639,3.103134,6.190215,4.165741,2.54497,0.510993,0.35207,-0.074463,-0.483154,-0.248047,4.964581,5.036264,6.143922,1.506247,-0.73804,-0.895673,-0.124023,-0.508301,-0.374268
-4.645972,4.717847,10.397211,-0.265267,-3.522236,0.287949,0.1604,0.002686,-0.571777,-1.751283,34.626711,5.0218,-7.692788,-0.486267,0.865422,-0.314697,-0.466797,-0.244629,5.066395,14.913187,4.106762,5.197369,-0.04121,-0.885636,-0.196289,-0.4021,-0.219727,1.401667,13.397079,7.824502,1.630759,-0.183886,-0.345595,-0.075928,-0.514404,-0.23877,5.294186,10.71217,7.334963,1.994694,0.042882,-0.400304,-0.121338,-0.534912,-0.351074
-0.396234,1.224324,8.87001,0.255286,-1.807371,0.893667,0.13916,0.013916,-0.563232,6.080097,13.434789,-6.40753,-16.870401,-1.005705,-0.299964,-0.288574,-0.326416,-0.424072,1.750097,17.395662,6.826313,-0.464086,1.069936,-0.255211,-0.190674,-0.429932,-0.243408,4.485224,9.788944,5.318752,-1.347228,-0.347784,-0.298656,-0.089844,-0.524414,-0.265625,4.874582,10.470183,6.885671,-0.318122,-0.100822,0.405247,-0.142578,-0.536133,-0.361084
0.846451,2.654651,8.072507,1.266477,-3.374206,2.034551,0.072754,-0.005127,-0.554688,-0.159966,-14.745364,-0.071702,-5.791747,0.825431,0.480067,-0.273438,-0.266113,-0.482178,-0.770931,8.905064,4.349312,-3.302698,-0.751173,-0.001804,-0.195557,-0.429199,-0.294678,1.454465,7.050781,6.287245,0.470666,0.97815,-0.255762,-0.091797,-0.5354,-0.273438,3.843195,7.502044,7.683015,-0.325107,0.287988,0.161175,-0.156494,-0.532959,-0.377441
1.733562,1.859249,8.161981,-0.102082,-1.758802,2.002906,0.036133,0.012695,-0.555664,0.646053,5.746573,2.525349,8.523503,-0.304115,-2.329009,-0.253174,-0.374023,-0.42041,1.964879,5.264703,3.02109,-0.239663,-0.509267,-0.364452,-0.182373,-0.447021,-0.306885,-2.069593,9.96238,8.047829,-0.070419,-0.350503,-0.335295,-0.093262,-0.548096,-0.285889,1.575181,7.897706,8.079292,-0.656991,0.481011,0.249825,-0.158447,-0.524658,-0.395996
1.669702,-2.277493,7.032884,1.330479,-3.035692,2.605095,-0.015625,0.003418,-0.529297,0.225358,24.466618,10.208221,-0.042139,0.315905,0.391485,-0.241211,-0.381836,-0.432617,-1.519087,10.977348,2.873864,2.291294,0.303874,-1.234386,-0.171143,-0.486328,-0.294678,1.02722,7.424506,5.236231,-1.522644,-0.836404,-1.043336,-0.099609,-0.557373,-0.311768,0.637175,5.884228,5.943233,-1.097622,0.039151,1.430934,-0.189697,-0.509521,-0.415527
3.952643,1.174782,8.202847,2.775313,-1.69723,2.571419,-0.05542,-0.012939,-0.51001,-0.867145,15.32932,3.900899,-10.467434,-0.897219,-0.038715,-0.241211,-0.24585,-0.531494,-1.890608,14.848804,5.89853,-0.227147,-1.346027,-0.841196,-0.168945,-0.501709,-0.299072,-0.33675,6.573202,5.712114,-0.020924,0.250787,-0.946085,-0.091309,-0.566895,-0.317139,1.804837,6.648235,5.956493,0.331622,-0.047545,0.910449,-0.209717,-0.509033,-0.411133
6.127123,4.095374,6.398433,2.409349,-2.561437,3.261791,-0.097168,-0.032959,-0.48291,3.147961,-4.673322,1.076513,-9.325031,-0.389717,0.78354,-0.233154,-0.118164,-0.587158,2.724284,9.360277,4.756466,-4.303265,-1.628831,-0.384671,-0.176025,-0.494629,-0.36084,-0.800381,9.284065,6.609142,0.013191,-1.0757,-1.082626,-0.092285,-0.588623,-0.322998,4.288755,10.313494,6.002068,0.415982,0.021765,1.785234,-0.238281,-0.510254,-0.415283
9.491,5.037829,5.974285,6.705882,-0.498667,4.059443,-0.136475,-0.091064,-0.438721,-1.056843,-5.1639,4.408767,1.74222,0.138927,-2.051174,-0.225342,-0.154785,-0.591309,0.780225,-0.199876,5.355291,-3.856362,-0.325312,-0.609093,-0.180908,-0.465576,-0.412598,1.946781,9.422168,7.399396,-1.598789,-0.379599,-0.836182,-0.100342,-0.578613,-0.352539,3.68709,11.301943,8.089582,-1.295453,0.970301,1.763436,-0.263672,-0.473633,-0.44458
4.760853,21.994678,12.735209,0.865986,-0.027419,4.167852,-0.15625,-0.061035,-0.437988,0.28462,11.667855,8.158546,1.239398,-0.809713,-1.471649,-0.223633,-0.175537,-0.585449,-2.482901,1.023023,4.982799,1.992577,-1.101156,-0.852196,-0.175781,-0.488281,-0.395508,-2.253866,5.418744,6.953498,-1.909813,0.316742,-0.589794,-0.086914,-0.564453,-0.384521,0.572673,7.157028,7.03427,-2.750137,1.018175,2.182764,-0.276367,-0.414062,-0.488525
3.514577,0.071057,4.350422,-4.54955,0.341245,2.698156,-0.171875,0.026611,-0.462646,2.040217,7.045988,6.656614,-6.966963,-0.931845,-1.021084,-0.23999,-0.073486,-0.614746,1.501316,11.224292,6.20785,2.310658,-1.751402,-0.871096,-0.181641,-0.524658,-0.373047,-1.171358,4.286505,6.862313,-0.388329,-1.105945,-1.152942,-0.091309,-0.574219,-0.397461,1.185324,1.703617,6.139196,-1.527399,0.16128,2.570612,-0.30249,-0.373779,-0.51001
6.405775,-0.93337,3.171598,1.704804,-0.47349,3.50801,-0.187744,0.041992,-0.455322,1.236642,-8.417136,3.59771,-4.554956,-0.405807,-1.159699,-0.239014,-0.006348,-0.624268,-0.626255,9.692727,6.799652,-3.924823,-1.054275,-0.216362,-0.19873,-0.501953,-0.416748,0.331248,6.732162,6.85989,-0.121421,-0.235807,-0.389818,-0.103027,-0.585693,-0.402344,3.458532,5.82052,6.203323,1.521008,0.49082,1.8621,-0.32959,-0.375732,-0.500977
6.562465,4.625971,4.807843,2.807874,0.337113,2.862807,-0.196289,0.031494,-0.438721,2.263037,-4.835106,5.744896,1.721462,-0.375168,-2.427456,-0.243164,-0.04248,-0.615967,0.308951,-1.73635,3.462454,-4.244966,-2.582928,-0.07611,-0.231201,-0.470459,-0.46167,-1.380293,6.017559,6.330497,-1.609744,-0.450334,-0.681416,-0.109375,-0.582031,-0.428223,2.008791,9.54126,8.214571,-1.413915,1.155784,2.706931,-0.345703,-0.333252,-0.532959
3.842787,12.882638,7.776561,1.540851,0.288513,2.490074,-0.195801,0.027588,-0.442139,2.174963,-2.11435,7.826439,1.645182,-0.263575,-1.376197,-0.239746,-0.084473,-0.615967,4.772639,-0.492406,4.155418,2.221801,-1.547846,-0.593235,-0.22998,-0.493408,-0.428711,1.020133,2.456824,4.367125,-1.495722,-1.094094,-0.836189,-0.10083,-0.568359,-0.448486,-0.241406,0.806421,6.284425,-3.868285,0.876542,3.085969,-0.342773,-0.235352,-0.563721
0.157776,5.130091,4.659991,-4.141476,0.046724,1.579316,-0.197021,0.100342,-0.450928,0.600585,-5.080571,4.358455,3.535153,-0.817924,-1.614608,-0.243652,-0.14624,-0.60376,1.40167,9.901645,4.387612,2.633814,-0.155973,-1.354001,-0.223389,-0.529541,-0.404785,1.082787,2.279589,3.519755,0.34693,-0.414416,-0.716308,-0.108398,-0.579102,-0.452393,0.897161,-3.258805,5.17298,0.106507,-0.106023,2.933071,-0.370117,-0.197998,-0.569336
-0.128507,-4.268702,1.054978,-1.575865,-0.497411,0.938643,-0.20459,0.140381,-0.450684,0.963187,-0.384611,3.443236,6.380143,-1.11348,-0.737071,-0.255615,-0.240967,-0.559814,-1.459291,10.223124,3.631486,-1.534362,-1.53546,-0.164805,-0.238281,-0.517578,-0.422607,-2.014083,4.973851,3.297241,0.624968,-0.503677,-0.927485,-0.104736,-0.590332,-0.44751,1.06425,4.44305,7.05832,2.023446,-0.162843,2.527389,-0.385498,-0.194092,-0.564209
1.625577,-1.92923,1.358936,1.321602,-1.572109,1.110844,-0.232178,0.129395,-0.438721,1.337791,4.665569,3.824012,4.30499,-0.889921,-0.520179,-0.269775,-0.307861,-0.534424,2.655763,1.545089,-2.057596,-3.039261,-1.643604,-0.771073,-0.246826,-0.503418,-0.447021,-1.559139,5.117205,-0.214272,0.254733,-1.832061,-0.72692,-0.118652,-0.608887,-0.43457,3.879264,8.313893,8.390131,-1.005723,-1.177452,3.183448,-0.420166,-0.150391,-0.55127
1.767418,4.828429,3.127734,2.701269,-0.482507,0.93505,-0.242676,0.103271,-0.425781,-0.343403,-0.246542,0.328362,4.641654,-0.714459,0.251448,-0.283691,-0.37085,-0.483887,0.070188,-0.058702,-1.703609,2.086743,0.635636,-0.616435,-0.242432,-0.533203,-0.432861,-1.931839,7.460261,-1.752295,1.594697,-1.778406,-0.583498,-0.141113,-0.632812,-0.418701,5.816858,2.707697,3.605535,-3.69798,-0.582213,2.830781,-0.444336,-0.056152,-0.560547
-5.963641,7.135262,4.855628,0.370937,-1.390768,0.657816,-0.260986,0.101562,-0.411621,-1.816317,7.344143,2.963356,7.597897,-0.261356,0.397297,-0.289551,-0.458496,-0.405762,-5.16471,10.110274,-2.285061,4.017304,-0.012714,-1.317959,-0.215576,-0.585205,-0.37915,-5.884819,10.134211,-2.83968,0.578266,-2.19083,-0.140084,-0.155762,-0.647217,-0.402344,6.753267,0.4284,-0.149003,-1.726187,-1.185538,1.211794,-0.456055,-0.017578,-0.543457
2.445963,7.721182,3.16526,-0.015425,-2.416828,0.368417,-0.29126,0.114502,-0.386963,0.258974,15.667518,3.723542,3.633461,0.145669,0.827716,-0.294189,-0.478271,-0.371826,-1.705673,9.970887,-1.837712,-1.407388,-0.320697,0.220528,-0.226074,-0.571045,-0.402832,-3.359363,5.522156,-7.459993,-0.403051,-3.70696,-0.157957,-0.199219,-0.646973,-0.389893,7.532578,4.497249,-3.74008,-1.237918,-2.067734,0.316863,-0.491455,0.009277,-0.519287
4.744972,6.439446,0.698382,-1.350855,-2.771581,0.393515,-0.322754,0.12915,-0.347412,-2.845149,4.06219,4.157052,-3.647884,1.516466,0.476619,-0.283691,-0.446289,-0.423584,-0.768213,-2.63807,0.072333,-1.706186,0.435794,0.056678,-0.223877,-0.548828,-0.42749,0.38799,2.670531,-8.106328,2.7333,-2.128198,0.442104,-0.228516,-0.666016,-0.338379,8.817144,3.417345,-6.005495,-2.87409,-2.753781,-0.151417,-0.531738,0.055176,-0.475098
7.092779,-0.79674,-1.720021,-0.267245,-2.433099,0.111087,-0.341797,0.133545,-0.308594,-1.231016,-8.960604,-4.53783,3.306508,-1.053104,0.306807,-0.290039,-0.481445,-0.362793,1.259829,-4.328561,-1.325549,5.267736,0.880668,0.396314,-0.209961,-0.596436,-0.352539,0.643577,6.85569,-3.638663,4.758607,-1.717674,0.922406,-0.24707,-0.699219,-0.256348,5.099826,-2.074399,-6.320832,-1.828594,-2.881673,-0.594577,-0.561279,0.066162,-0.431152
6.241579,1.490633,1.861189,2.882978,-1.78175,0.046732,-0.372314,0.107422,-0.275391,4.766177,9.42668,-1.828764,9.043937,0.808513,-0.67277,-0.289795,-0.555908,-0.24292,1.196028,9.9321,-2.007999,8.412091,1.862462,-0.329315,-0.194092,-0.657959,-0.236084,3.289137,9.432131,-1.537535,3.342696,-0.972313,0.388168,-0.261475,-0.72168,-0.196533,3.062545,-1.492766,-2.702404,1.025474,-3.646882,-0.708204,-0.608398,0.041016,-0.373779
3.522949,8.587891,3.128255,2.289499,-2.200426,0.12097,-0.382568,0.091797,-0.236816,-3.815023,15.793329,2.836942,1.762976,0.469626,0.369172,-0.280762,-0.562012,-0.226074,-2.148196,16.260574,-1.028506,2.750287,2.335029,0.288945,-0.178711,-0.670654,-0.204102,-3.321892,7.697311,-0.596409,2.051937,0.991795,0.582207,-0.254395,-0.726318,-0.168701,4.946871,4.652455,0.451546,1.659341,-3.536397,-0.923123,-0.63501,0.007812,-0.309814
2.859118,9.753965,4.392324,0.472498,-1.84096,-0.299197,-0.403076,0.082275,-0.20459,0.148422,0.859098,-0.902535,-1.708171,-0.111706,0.391528,-0.293457,-0.549561,-0.243896,-4.82425,7.122122,-2.948298,-2.88075,0.979277,0.663085,-0.193604,-0.653564,-0.24292,-8.85418,6.446309,-1.432469,1.458051,-1.706312,0.675865,-0.281982,-0.731201,-0.125732,3.851348,6.98871,0.703913,-1.381346,-2.327126,-1.568754,-0.666748,-0.013916,-0.26001
5.716382,8.165236,4.863469,-1.71811,-2.205305,-0.798197,-0.410645,0.078125,-0.176758,3.774877,0.517545,-0.993331,4.011021,0.907457,-0.372914,-0.280029,-0.575928,-0.191406,3.402476,-2.723627,-4.163244,-1.076448,0.272844,0.82415,-0.207764,-0.639404,-0.261475,1.342449,3.758808,-2.527835,0.388454,-4.015519,0.511254,-0.302002,-0.717285,-0.090576,1.23932,-0.074951,-3.482698,-3.703614,-1.836344,-2.239667,-0.679443,-0.028809,-0.228027
4.518079,0.490957,-0.035562,-0.727364,-1.898091,-1.781902,-0.417236,0.059814,-0.143066,2.724441,10.499644,0.764942,2.419257,1.821229,-0.213543,-0.266846,-0.583008,-0.163818,1.95136,1.116179,-1.047381,3.820896,2.482291,-0.103819,-0.190186,-0.652588,-0.207764,5.938837,1.923634,-3.069106,1.344815,-0.851156,0.487934,-0.310547,-0.716797,-0.064941,2.386198,-3.965108,-5.508488,-0.162646,-2.538883,-2.555454,-0.697266,-0.080566,-0.18335
6.17269,5.488386,0.768055,1.105187,-1.624478,-2.194496,-0.426514,0.021729,-0.108887,1.02873,3.172903,-3.448674,-1.200573,0.784419,0.042013,-0.270508,-0.573242,-0.17749,-0.076853,10.099464,-0.805662,4.149909,1.387299,0.08273,-0.178467,-0.661865,-0.140625,1.158085,5.127628,-1.595297,3.316294,-0.527233,0.486895,-0.305176,-0.712891,-0.003418,4.393455,3.0601,-3.132829,2.087225,-2.301313,-2.237908,-0.695312,-0.139648,-0.132568
6.390807,3.63945,-0.242651,0.533057,-0.691513,-2.765689,-0.412354,-0.031738,-0.093506,3.40772,-2.84503,-4.636329,2.273197,1.097128,0.25806,-0.269531,-0.583252,-0.141113,1.425895,10.819559,-2.436895,1.091848,1.183462,1.051887,-0.187744,-0.651367,-0.124512,1.929317,8.896471,-2.721228,2.537292,-1.109517,-0.370384,-0.294922,-0.710205,0.046875,2.690334,5.094066,-2.252282,0.23341,-2.480382,-0.930364,-0.698242,-0.158691,-0.081543
3.415688,8.460314,1.873949,1.361147,-0.177698,-3.235891,-0.397217,-0.083496,-0.07666,1.090506,8.518048,-5.268033,7.28164,1.246066,0.484899,-0.2771,-0.586426,-0.027588,0.280848,7.420554,-3.156225,1.376107,1.368816,0.024422,-0.181641,-0.646973,-0.091309,-0.209332,8.636436,-3.001398,1.779742,-0.024124,-0.287854,-0.276611,-0.704102,0.088379,6.964533,3.903061,-3.314761,0.835329,-2.99775,-1.0457,-0.69165,-0.189941,-0.008545
10.46943,11.07112,2.694595,0.588383,-0.832493,-4.233444,-0.375977,-0.149658,-0.050049,5.915488,20.354236,3.422448,0.273713,1.50279,0.736916,-0.295654,-0.573975,-0.036133,1.148972,10.462334,-4.246919,3.617346,0.984055,0.434484,-0.175537,-0.632324,-0.045166,0.277438,8.899342,-3.007996,2.073432,-1.772434,-0.329626,-0.248779,-0.69458,0.126465,8.765703,6.770183,-2.754244,1.295287,-1.53962,-0.666303,-0.67041,-0.206787,0.015137
8.725382,12.727611,0.811856,-2.780871,0.375668,-5.025322,-0.32251,-0.204834,-0.090576,0.853571,-1.1305,-6.197332,-6.571047,1.752139,2.788458,-0.32666,-0.527832,-0.13916,1.503479,12.841665,0.123186,0.412483,1.414117,-0.209269,-0.183838,-0.626221,-0.044678,3.440827,10.66725,-1.930174,1.943986,-0.968549,-0.79534,-0.236572,-0.685303,0.157471,6.026629,8.608498,-2.289705,0.129939,-1.633771,0.323539,-0.676514,-0.20874,0.052979
9.076796,1.811302,-1.708708,-2.290338,1.416808,-5.049312,-0.268555,-0.261719,-0.126709,-1.080628,-8.919686,-10.780923,6.201413,1.488032,0.712205,-0.342773,-0.520996,-0.044922,-3.182836,1.9287,-2.770453,-1.551025,1.160013,1.883785,-0.20166,-0.607178,-0.061279,-0.539311,7.985178,-2.75708,0.892106,0.372301,-0.43034,-0.216064,-0.682129,0.173584,10.685768,6.024309,-7.865263,-0.031751,-2.307559,0.901152,-0.665527,-0.202148,0.099609
2.353066,6.919343,1.18805,3.08508,1.167707,-3.971475,-0.219971,-0.31665,-0.094727,-1.579793,24.958542,-9.841127,11.341118,0.956173,0.255612,-0.355225,-0.487305,0.096436,-1.696865,4.044759,-5.125552,4.855601,0.541517,0.079032,-0.196777,-0.583496,0.012695,-3.398505,9.641256,-6.966952,3.335388,0.00287,-0.072466,-0.203857,-0.656494,0.220703,10.589502,6.248633,-7.741643,1.673859,-1.083024,0.392114,-0.652588,-0.19458,0.125488
4.559129,17.695046,6.006025,2.883723,1.404352,-2.864753,-0.165039,-0.352539,-0.065186,1.223513,28.818151,-0.278243,-1.49021,-0.485589,0.072699,-0.347656,-0.468506,0.080078,3.407194,17.894161,-6.038687,5.052659,1.735204,0.600794,-0.205566,-0.544922,0.075684,-2.128896,17.049607,-6.058384,3.330924,-0.420091,0.433212,-0.198486,-0.618652,0.264893,13.655031,10.120538,-6.820152,1.608753,-1.97112,-0.444701,-0.635254,-0.19458,0.171143
6.260746,17.764323,5.185598,-0.369206,0.687123,-3.734359,-0.126709,-0.391846,-0.079102,7.901148,12.374498,-6.418702,-8.870415,0.014068,0.584392,-0.376221,-0.463867,-0.030273,-1.390358,18.806739,-5.901159,-1.355723,2.017589,0.510556,-0.223877,-0.514404,0.041748,2.987625,16.108726,-5.253938,-0.844005,-0.316959,0.480198,-0.206299,-0.596191,0.24707,15.120938,5.731291,-7.618127,-1.992957,0.019629,-0.471218,-0.631348,-0.202881,0.159668
6.194298,17.398501,2.222208,-1.990753,1.594457,-4.248324,-0.053223,-0.422852,-0.12207,3.401058,2.095255,-9.25212,-0.331773,2.253381,0.574424,-0.384277,-0.452393,-0.046875,1.365604,11.838246,-6.351295,-1.754851,-0.200781,0.788036,-0.222656,-0.498535,0.011719,3.560507,8.864548,-6.829404,-1.071376,1.190249,0.397202,-0.202148,-0.59375,0.213867,8.359931,-1.822923,-8.050116,-0.44906,0.68312,-1.729218,-0.606934,-0.243164,0.139648
0.895904,14.594815,4.291505,-1.785098,2.151206,-3.400148,0.004395,-0.429199,-0.166748,3.990252,19.560936,-3.998294,4.97001,0.221817,-0.05653,-0.401855,-0.435547,0.000244,5.159694,13.237442,-3.514277,1.698321,0.620111,0.151591,-0.222656,-0.479004,0.023926,2.692881,10.574473,-6.030708,2.132793,0.410537,0.085513,-0.195068,-0.574219,0.235596,9.785326,2.818089,-6.049106,3.287343,-0.782077,-1.747541,-0.58374,-0.262207,0.171631
-1.733724,15.233253,6.438108,-0.626732,1.811621,-2.627343,0.060059,-0.429199,-0.178711,6.391697,28.786276,-2.893529,1.350041,0.80096,-0.153444,-0.40332,-0.421875,0.007812,4.51482,16.682552,1.301628,1.006719,1.265994,-0.334061,-0.223389,-0.457764,0.01416,7.137195,14.130881,-4.851357,0.750261,0.172119,-0.62114,-0.188965,-0.555908,0.223389,12.204193,8.203654,-5.564087,1.459165,0.000853,-1.174566,-0.574951,-0.273193,0.166504
-2.576961,19.210539,8.000211,-0.697688,2.084245,-1.40601,0.096924,-0.432129,-0.207764,2.250777,27.156308,-2.119132,-7.249573,-0.083765,-1.316537,-0.390625,-0.429932,-0.093018,2.090231,13.438116,-4.064545,-0.279145,0.7886,0.726908,-0.230469,-0.44751,0.001953,8.134464,9.9292,-3.547705,-0.554269,1.756935,-0.824434,-0.183594,-0.556152,0.207764,11.905185,3.451391,-5.869317,0.203724,0.226322,-0.0038,-0.568604,-0.275879,0.167969
-1.31731,20.316181,8.124523,-3.918308,2.334695,-1.952464,0.14624,-0.402832,-0.268066,5.070912,9.122988,-3.694311,-10.064233,-0.037824,-0.145168,-0.388672,-0.404785,-0.193359,-1.253539,12.66816,-1.23883,0.448657,0.49498,-0.928203,-0.221436,-0.443359,-0.003662,4.253547,10.65227,0.319599,1.163213,2.130687,-0.701616,-0.18335,-0.547119,0.200928,14.807171,5.118613,-4.690264,3.438665,0.584765,-0.021527,-0.562012,-0.266846,0.172119
-3.305761,10.562279,6.135575,-3.768886,3.254097,-2.325768,0.214355,-0.364502,-0.325439,-0.243156,3.057463,0.615714,0.588542,0.948652,-1.182846,-0.369141,-0.41748,-0.202393,-0.677538,16.157848,-0.508538,-0.428278,-1.419628,-0.451109,-0.217773,-0.43042,-0.016602,2.563857,15.97167,1.814683,-0.712261,1.555663,0.052918,-0.184326,-0.537354,0.175781,14.367293,14.344001,0.715799,2.443503,2.573163,-0.140305,-0.567139,-0.253174,0.133057
-7.683769,13.203826,10.275184,-1.762992,2.496031,-1.560101,0.262207,-0.33667,-0.35376,3.472057,21.203334,3.516623,4.063285,-0.533183,-1.827333,-0.352783,-0.448975,-0.162598,3.872934,17.122082,1.423512,-4.196948,-1.255816,-1.499696,-0.207275,-0.436768,-0.049316,2.440971,15.732781,0.969257,-4.804187,0.869479,0.702941,-0.195068,-0.543701,0.116943,12.964635,14.694407,2.058678,-3.158984,3.255582,0.842828,-0.573975,-0.244873,0.065674
-3.493534,14.340677,8.521761,-1.970205,2.731885,-1.117904,0.313232,-0.306152,-0.372559,6.662164,25.748289,4.039692,-2.557037,-0.11061,-2.364428,-0.312988,-0.462891,-0.200439,3.378261,12.538221,-1.586751,-6.652582,-1.051863,-1.450433,-0.194824,-0.429443,-0.115723,5.481153,10.66167,-1.35347,-6.508064,-0.006272,1.482461,-0.209961,-0.5354,0.038086,13.491072,5.404679,-1.250373,-5.975635,4.573983,1.475094,-0.57251,-0.211914,-0.041748
-5.357808,17.25114,9.416435,-2.02117,2.726674,-0.195857,0.359863,-0.285156,-0.386475,6.750742,15.826309,3.448269,-7.181645,0.476348,-3.012234,-0.252686,-0.456543,-0.289307,3.782588,8.480425,0.684278,-6.153142,-1.139516,-1.67803,-0.180176,-0.419189,-0.186035,5.538141,8.44131,-0.644667,-4.56671,0.872549,1.742149,-0.226318,-0.520752,-0.024902,6.573907,1.161496,0.491687,-3.037701,5.178997,2.110309,-0.557373,-0.166748,-0.145508
-0.532792,18.896243,7.632369,-5.240184,2.30247,-0.433003,0.380371,-0.212158,-0.445557,2.536458,5.613244,2.389042,-5.881706,1.850061,-3.380312,-0.207031,-0.434326,-0.384521,0.176529,9.251679,3.981163,-2.697747,0.129728,-1.686137,-0.172852,-0.413574,-0.208496,3.89453,13.234871,4.189304,-2.580091,-0.136956,1.365597,-0.245361,-0.50708,-0.043945,8.726531,4.347957,5.174674,-1.898663,2.477382,2.148139,-0.555908,-0.120361,-0.184814
4.868653,9.584277,0.563436,-8.051922,2.45048,-1.275108,0.435059,-0.08252,-0.491943,-4.200251,6.579346,5.703824,-0.161989,0.496236,-1.989595,-0.16626,-0.435059,-0.381104,-0.900732,21.31949,6.959017,2.435096,-0.89748,-2.139062,-0.153564,-0.427979,-0.183594,11.76098,18.861579,4.78069,-2.198211,-1.783241,0.961524,-0.26001,-0.487793,-0.062012,17.112671,1.71102,4.46347,-3.774683,3.29552,3.607289,-0.533936,-0.030518,-0.24707
-3.583844,4.068641,2.722794,-5.625936,4.989668,-0.727524,0.515381,0.018555,-0.490723,-0.291682,18.545243,8.758635,-0.651167,-1.187026,-1.499105,-0.14917,-0.432373,-0.395996,1.424018,29.897337,9.818855,0.004634,-0.492423,-1.847188,-0.136475,-0.452148,-0.179443,15.982322,22.040593,3.727884,-2.738903,0.518727,0.804528,-0.280762,-0.491943,-0.085693,19.020098,-4.299722,1.794172,-2.876318,4.09532,3.575718,-0.505127,0.041504,-0.296387
-7.365147,2.827979,5.927119,-4.647415,2.31078,-1.059147,0.547363,0.091797,-0.484863,1.714395,15.654733,8.377278,-6.695231,-1.15195,-0.733649,-0.147949,-0.373291,-0.470215,-2.421653,23.527947,4.946875,-9.313034,-1.671303,-0.767994,-0.130371,-0.429688,-0.292236,10.074565,22.541737,2.4886,-5.686115,2.934062,1.001395,-0.288818,-0.469238,-0.177979,19.732255,-5.207765,0.759704,-0.988033,4.989184,2.494227,-0.448486,0.094238,-0.373047
-9.034232,-1.265686,8.692879,-4.453944,3.251563,0.100713,0.588867,0.148926,-0.463135,2.652005,5.392635,8.432225,-7.464781,-0.232278,-1.16954,-0.133057,-0.293213,-0.542725,1.49217,11.597811,4.93702,-10.848263,-3.596274,-0.189905,-0.157715,-0.369385,-0.404785,7.534369,13.687992,3.974759,-8.736828,1.648323,1.147171,-0.309082,-0.421631,-0.284912,9.657146,-5.452314,5.631387,-1.315542,6.873186,1.351366,-0.37085,0.128418,-0.456055
-2.344733,-4.239088,4.896639,-2.202978,1.116099,0.178394,0.612305,0.190674,-0.45166,0.25308,1.722414,10.779746,-3.154453,-0.651051,-1.576664,-0.119385,-0.242676,-0.568359,7.985341,3.345039,8.681661,-7.914253,-1.786317,0.190371,-0.166748,-0.292969,-0.472656,9.990756,3.257077,3.767885,-6.616086,1.944055,1.164017,-0.30957,-0.356201,-0.36084,1.158504,-7.879049,8.914641,-1.466381,4.876925,1.122601,-0.30127,0.170654,-0.502441
-6.228359,0.867635,5.395882,-0.310211,2.908934,0.341882,0.656738,0.206543,-0.420166,3.517305,6.198316,10.814462,-2.794799,-1.566935,-1.327184,-0.124268,-0.196533,-0.588379,4.588707,2.854522,8.096581,-1.671568,0.641861,-0.819265,-0.155273,-0.28125,-0.494385,7.222255,3.671984,5.358788,-1.866193,1.946619,0.8402,-0.310791,-0.335205,-0.391602,5.17292,-9.403863,7.360512,-0.481212,2.841304,0.449394,-0.268799,0.187744,-0.522461
-9.744192,5.806893,7.378841,-1.816998,0.866624,-0.219026,0.672119,0.233154,-0.414062,8.22225,3.862363,11.353485,-3.117725,-1.043144,-0.649738,-0.125732,-0.1521,-0.609863,3.912199,11.71548,8.435141,1.278565,-1.244079,-0.808312,-0.155518,-0.308838,-0.499023,12.009141,10.926576,6.159262,-0.73638,0.043465,0.163834,-0.318604,-0.333496,-0.412598,8.716052,-9.675214,5.900949,0.108511,3.54254,0.183694,-0.213135,0.190918,-0.55835
-11.100131,2.210073,4.486147,-4.042095,-0.0425,-0.666996,0.666504,0.295654,-0.400391,5.170257,6.669887,11.962843,-1.680234,0.109126,-0.533813,-0.119873,-0.125,-0.61792,8.777834,17.109879,9.966761,-1.96083,-1.635028,0.392871,-0.172119,-0.293457,-0.527344,13.739959,12.884612,4.310463,-3.643674,3.110603,0.209821,-0.289307,-0.293701,-0.477539,7.696162,-6.380165,5.364911,2.054654,3.417699,-0.159013,-0.16333,0.160889,-0.603516
-9.172612,-1.572936,2.46783,-4.07795,-1.413671,-0.814539,0.651855,0.354248,-0.398438,3.555316,7.028895,13.761518,-3.919585,-0.695453,-0.391026,-0.125488,-0.063721,-0.629395,6.517546,11.55882,6.062212,-7.281868,0.453382,-0.195286,-0.172852,-0.201904,-0.588623,2.53047,6.655657,3.320853,-6.33167,4.160625,0.184029,-0.250977,-0.214111,-0.552246,5.535077,1.363608,8.07262,2.003396,4.118838,-0.730149,-0.109375,0.124023,-0.644531
-11.734593,-6.429877,2.903222,-2.41168,-2.478167,-0.787353,0.606689,0.397217,-0.404541,4.188554,1.905845,10.768155,-4.282989,0.445094,-0.312762,-0.124023,0.01123,-0.636475,2.051005,1.46994,3.162132,-7.681204,-0.114534,0.300286,-0.172852,-0.088623,-0.613281,0.234618,-0.544822,2.164244,-4.447045,0.762094,-0.085343,-0.243408,-0.142578,-0.565918,1.483097,4.297714,8.875649,-0.311619,3.501975,0.378419,-0.046631,0.135742,-0.652832
-5.1955,-4.241093,3.704977,0.265464,-3.367143,-0.447157,0.575684,0.404053,-0.447266,-0.863871,-1.336165,11.831756,-3.414015,0.886227,-0.54368,-0.097168,0.068359,-0.649414,3.544103,-4.317569,5.030458,-3.759137,0.681863,0.055827,-0.158447,-0.015869,-0.640381,2.728464,1.45817,4.715733,-1.37195,1.012127,0.76283,-0.232422,-0.106934,-0.591064,2.002209,2.775353,8.397777,-1.001992,3.046638,0.60248,0.009766,0.166748,-0.671143
-10.772782,-0.474649,6.551031,-0.508133,-3.268901,-1.116617,0.526611,0.413086,-0.471924,-0.877362,-6.895845,10.376408,-2.497199,0.731507,0.097686,-0.080811,0.102783,-0.648926,-0.577666,0.035823,7.58328,-1.448062,2.017309,-0.490867,-0.130615,0.010986,-0.655273,-2.282647,4.891246,6.579912,-3.320425,1.308926,0.596333,-0.222656,-0.048096,-0.607422,-0.569031,4.247451,6.889863,-0.587539,3.563237,1.140406,0.071289,0.186768,-0.673828
-5.484099,-2.758597,3.790809,-1.530888,-4.36917,-1.25047,0.462891,0.456543,-0.495605,-1.355426,-3.731226,8.350098,1.750198,1.219791,-0.217032,-0.056641,0.085693,-0.665771,-1.549502,2.435622,7.588686,-3.125253,0.98081,0.135941,-0.116455,0.061279,-0.661621,-1.28808,-0.81804,4.836815,-5.292873,-0.371495,0.685185,-0.231689,0.040527,-0.603271,-2.019864,5.525336,7.050574,-0.913907,2.669694,1.949193,0.132568,0.201904,-0.668945
-0.51346,-4.4617,-0.457039,0.047623,-5.199956,-1.830212,0.373535,0.473145,-0.529053,-2.124864,5.156256,8.098289,1.489545,1.674609,-0.130778,-0.031982,0.071045,-0.680664,-1.34217,-2.018202,4.900857,-3.702239,2.087409,0.369524,-0.08667,0.116699,-0.671387,0.796578,-5.494457,6.089095,-1.62882,0.580525,1.086942,-0.225342,0.068359,-0.615723,-2.325066,4.057916,8.431113,-1.352945,2.29329,3.059415,0.187012,0.214844,-0.664307
0.990597,-1.919671,1.015612,2.354797,-4.518577,-0.522066,0.302246,0.4375,-0.54834,-4.832987,2.272234,3.319269,-2.932224,1.339121,-0.035003,-0.004639,0.116455,-0.669434,-6.349369,-1.929023,7.505096,-1.076481,1.536688,0.063186,-0.056396,0.143066,-0.667969,-2.28303,3.006435,9.540983,1.733564,0.714928,1.078801,-0.214355,0.055908,-0.626221,-0.177459,0.703936,8.272552,-1.143116,1.390595,3.038248,0.235352,0.231201,-0.648926
1.687602,2.050358,1.926372,0.774043,-4.898158,-0.770608,0.219971,0.433594,-0.559326,-5.28142,-7.845076,0.712243,-1.121641,0.54122,0.578552,0.010254,0.147461,-0.665771,-2.919396,1.650849,8.288732,-1.295273,0.286018,0.6472,-0.050049,0.172119,-0.670654,-0.168179,7.636154,11.0422,-2.022487,-0.291594,1.245858,-0.213867,0.101074,-0.614746,0.799074,0.293632,8.477856,0.342392,2.273571,2.864729,0.293457,0.218262,-0.641357
0.666183,-0.990493,2.095855,0.308699,-3.074424,-0.769284,0.16748,0.42749,-0.565674,-4.52688,-4.895815,-0.637221,3.816555,-0.289008,0.069266,0.003906,0.085205,-0.686279,-2.672962,0.846675,6.608574,-2.347644,1.004336,0.721379,-0.02832,0.2146,-0.660889,0.999119,-0.374999,7.676759,-4.751445,1.286575,1.114754,-0.187012,0.181396,-0.603516,-3.970658,2.966113,9.900549,0.496123,2.246963,2.822888,0.352539,0.192383,-0.63208
1.23165,0.561167,2.434608,-0.044904,-3.178063,-0.208678,0.114746,0.422607,-0.560791,-1.837488,2.33272,2.971297,3.794381,-1.120314,0.998782,-0.014648,0.011719,-0.692871,-3.125589,-1.469653,5.505566,-2.994451,0.510112,0.47643,-0.022949,0.259277,-0.651367,-4.133907,-6.185723,8.538259,-2.396461,0.692861,1.527381,-0.172607,0.225342,-0.591797,-4.017324,3.586596,10.077352,-0.940139,1.941091,2.919734,0.39624,0.180908,-0.611328
-2.366602,-6.450626,3.216132,0.173901,-2.777107,-0.258829,0.064209,0.423584,-0.554199,-1.084676,3.671826,2.30674,1.234719,-0.353523,0.400841,-0.023193,-0.001709,-0.695801,-3.796647,-3.636746,1.841003,-2.512528,0.13059,0.78302,-0.023193,0.307129,-0.643555,-0.058546,-2.633257,7.338367,0.117317,-1.804025,1.09868,-0.205322,0.23999,-0.601074,-4.542309,0.03064,8.598596,-1.712108,2.000551,3.460821,0.441895,0.189453,-0.59082
3.193634,-0.369427,2.227108,2.869377,-3.806645,-0.496621,-0.004395,0.370117,-0.557373,-0.675068,-3.870773,0.62065,-1.178009,-0.379354,0.950878,-0.034668,0.016113,-0.701172,-3.049081,-2.7069,2.551643,-1.79501,-1.135088,0.346177,-0.029541,0.333252,-0.619141,3.571901,1.812579,10.052246,-1.197502,-0.115341,1.630219,-0.187256,0.262939,-0.583008,-4.22018,-1.403726,9.474014,-0.675817,1.915258,3.095695,0.495361,0.167725,-0.561279
-0.503556,-1.749677,0.015148,1.500218,-2.3373,-0.294093,-0.034668,0.341553,-0.559814,-2.465097,-11.753523,-2.664316,3.09168,-0.238141,-0.079448,-0.027588,-0.040039,-0.706787,-2.009965,-2.690157,5.831478,-2.626157,-1.521534,0.858548,-0.047852,0.381104,-0.600098,-2.142962,-1.400448,10.053841,-3.957736,0.428829,1.422915,-0.171143,0.340332,-0.54541,-5.577098,0.940867,9.7675,-0.419132,2.367717,3.065897,0.543213,0.146973,-0.531494
1.756762,-3.499941,0.494277,3.163479,-2.625033,0.349982,-0.077393,0.297852,-0.54541,-1.445256,-1.892845,0.906933,8.162333,-1.465707,0.932171,-0.0625,-0.175781,-0.676025,-2.027701,-3.404653,6.763699,-1.928219,-2.109857,0.380661,-0.073486,0.416992,-0.574463,-1.82984,-6.621867,8.564957,-3.056685,-1.806443,0.962114,-0.192139,0.394043,-0.503662,-7.768686,2.282188,8.689521,-1.514362,2.71607,3.055192,0.596436,0.135254,-0.485596
-1.740951,-1.800547,1.775063,2.711048,-1.908042,-1.084153,-0.111816,0.245605,-0.532227,2.655727,10.530057,1.06386,5.499785,-0.981226,1.861171,-0.088867,-0.265625,-0.637695,-0.131022,-0.033225,6.87405,-1.151914,-1.741151,-0.06515,-0.094727,0.428711,-0.567871,2.10238,-5.672095,8.619793,-1.080751,-1.875948,0.95607,-0.203125,0.411621,-0.487793,-10.714282,-0.578205,6.971882,-2.763016,2.956681,3.146206,0.651367,0.12207,-0.44165
3.809295,-2.985677,-1.886055,4.637832,-2.084704,0.186676,-0.145508,0.161377,-0.527344,-3.09381,4.361392,1.224516,0.765947,-0.943558,3.042557,-0.127686,-0.283936,-0.638916,-3.983329,0.454655,6.411615,-2.659227,-1.484357,-0.268717,-0.123291,0.465088,-0.525879,-1.089981,-2.556943,7.604601,-2.16579,-0.511473,0.261697,-0.217285,0.442871,-0.450928,-12.158617,-3.650142,4.740747,-1.670905,2.710356,2.371559,0.686768,0.108398,-0.388428
1.733018,0.890712,0.536914,6.274645,-1.742641,0.389125,-0.172363,0.067383,-0.487793,0.983302,-2.671376,-1.339036,4.477676,-1.779145,2.049181,-0.167969,-0.346436,-0.583008,-3.607286,-5.111361,4.60392,-3.081862,-2.899814,-0.546417,-0.156494,0.497559,-0.490723,-3.480736,-7.700031,5.308269,-4.176351,-1.267871,-0.524667,-0.226807,0.487061,-0.399658,-13.914545,-0.936082,4.216692,0.205084,2.197578,1.364337,0.725586,0.080811,-0.36499
1.441974,8.517778,0.405932,8.100523,-1.416584,1.013046,-0.191162,-0.035889,-0.432373,-1.420736,7.235745,0.629497,8.224885,-0.029202,2.715471,-0.193115,-0.441895,-0.493896,-2.398804,-8.403161,6.091387,-0.877231,-1.513532,-0.933771,-0.189697,0.500488,-0.461914,-1.790135,-12.399163,3.472179,-1.398973,-0.692557,-1.245079,-0.260254,0.494873,-0.362061,-10.880123,2.344826,5.263671,-0.017789,0.613421,0.508372,0.733154,0.075195,-0.342773
1.083222,17.025163,6.385417,3.603037,-1.206994,0.266893,-0.214355,-0.088867,-0.386963,-2.045831,13.629691,2.645578,2.774457,-1.424606,3.365728,-0.253174,-0.467285,-0.446777,-5.696159,-6.506232,2.906431,0.797212,-1.63173,-1.478462,-0.233398,0.486084,-0.459717,-5.724587,-8.756904,3.579193,1.064374,0.033269,-0.861878,-0.282227,0.481201,-0.372559,-9.44584,2.979934,4.884191,-0.37459,1.045316,-0.624873,0.738525,0.095459,-0.31665
2.997512,5.556725,3.802536,0.507297,-1.305637,0.05952,-0.230225,-0.093506,-0.363037,-0.565461,4.478845,1.663154,-1.101946,-0.592406,2.59705,-0.286133,-0.437744,-0.454102,-4.594386,-3.05545,-1.910376,1.583828,-2.578605,-1.358911,-0.281006,0.458008,-0.481445,-5.4488,-6.140501,3.768778,0.382195,-1.347672,-1.996727,-0.325684,0.462646,-0.38208,-13.291513,2.491502,4.575015,-0.72622,-0.021284,-1.563907,0.73291,0.127686,-0.331787
3.333867,3.576811,0.362516,5.283605,-0.99561,1.659355,-0.246338,-0.130371,-0.304443,-1.192203,0.666939,-2.834092,4.492087,-1.273421,1.122965,-0.311035,-0.474609,-0.379883,0.021201,-3.262332,4.872455,0.561627,-2.943166,-1.548341,-0.330566,0.439941,-0.465332,-1.421732,-7.370883,0.277753,0.844284,-0.763701,-2.165466,-0.361328,0.437988,-0.383789,-6.873631,2.017708,4.6355,-0.205411,-2.597603,-2.587623,0.700684,0.181152,-0.371582
1.132777,16.308988,1.382402,5.126018,-0.139867,0.478817,-0.258057,-0.186279,-0.248779,1.50522,10.033832,-1.624331,5.752571,-1.457738,1.965502,-0.351562,-0.519287,-0.287109,1.60436,-8.506694,5.908662,1.961094,-1.182863,-1.065905,-0.355225,0.411133,-0.487549,-4.009774,-6.449338,-0.424068,3.279387,-0.299675,-1.658854,-0.389648,0.389893,-0.428955,-3.936666,5.004198,4.883729,-0.102087,-1.883254,-3.025169,0.661621,0.235596,-0.404785
3.76388,13.653939,0.462188,2.018642,-0.992083,-0.173265,-0.259521,-0.193604,-0.209717,4.248133,10.911861,-0.648564,2.813517,-1.022637,2.564407,-0.383789,-0.505371,-0.231689,-0.668031,-2.298851,1.154083,6.563027,-0.661301,-2.236647,-0.384766,0.308105,-0.534668,-2.200331,-2.29132,1.382681,4.730347,-1.813874,-2.071,-0.434326,0.308105,-0.452637,-8.455381,4.175081,4.616961,-2.229656,-3.174574,-2.932358,0.605469,0.298828,-0.421387
3.402698,12.741804,1.915839,2.776346,-0.504002,-0.466587,-0.264404,-0.220947,-0.161865,1.912039,9.440259,-1.152232,2.023096,-0.000789,1.379548,-0.406982,-0.501953,-0.195557,-0.813296,5.953983,1.679429,5.640949,-1.188159,-1.524479,-0.406494,0.214111,-0.567383,1.934777,0.507064,1.969222,4.460227,-1.27265,-2.125594,-0.463867,0.22876,-0.479248,-5.553979,-1.129539,1.616045,-2.068016,-4.373655,-3.250663,0.525146,0.369629,-0.460693
1.203592,14.119393,3.055685,1.77243,-0.857235,-0.194278,-0.259766,-0.224121,-0.134521,0.899005,8.259059,-1.742386,1.405988,-0.433824,0.635363,-0.405273,-0.491943,-0.172852,1.229369,1.678511,4.239892,2.117042,-1.603224,-1.114651,-0.427979,0.165039,-0.559326,-2.081374,-1.222379,0.335281,2.980079,0.28581,-2.239374,-0.46875,0.156006,-0.502686,-5.847475,0.521094,1.95476,0.094357,-4.107155,-3.943112,0.4375,0.404297,-0.499268
2.154123,10.781802,-0.957401,1.310514,-0.540015,-1.014485,-0.257568,-0.236816,-0.10083,-0.716448,5.486095,-4.584439,2.408332,-0.564839,1.048592,-0.421143,-0.48877,-0.124268,0.994172,-6.568352,4.673025,3.335639,-0.376856,-1.594047,-0.438232,0.098145,-0.571777,-4.155646,-4.565082,-0.825863,4.648316,-1.846401,-1.817774,-0.501709,0.067139,-0.509277,-7.959763,3.340955,1.095563,-1.201784,-5.368423,-4.520452,0.305176,0.459229,-0.536377
4.705968,12.062208,0.164248,1.754148,-0.118479,-0.550973,-0.258789,-0.245117,-0.081543,2.827525,9.613303,-3.124759,4.47591,-2.057938,0.311871,-0.426514,-0.479736,-0.045654,1.552759,-5.115171,2.325792,8.036629,-1.092234,-0.967508,-0.451904,-0.033203,-0.566162,5.245053,-0.570329,-3.380313,8.018665,-2.526841,-2.225232,-0.541016,-0.075928,-0.490479,-2.678079,-0.973191,-1.733188,-1.419315,-7.172519,-4.156022,0.144043,0.490967,-0.544434
3.666919,10.34586,2.2777,0.886269,0.39507,-1.196698,-0.246338,-0.246094,-0.059326,5.301446,13.513405,-2.061403,0.964961,-0.958664,0.958525,-0.4375,-0.449707,-0.012939,4.038989,5.038287,3.070953,9.524131,-0.378948,-1.911677,-0.448242,-0.189697,-0.537354,5.890428,6.618939,-2.547037,9.242655,0.746783,-1.47934,-0.519287,-0.227051,-0.48584,1.091768,-1.802179,-3.489372,1.192174,-7.479601,-3.837389,-0.01709,0.472656,-0.563721
4.00507,11.751693,0.255915,2.094443,1.047602,-1.214348,-0.231689,-0.268066,-0.041992,-1.809775,4.962365,-7.037552,-0.20762,-1.802152,0.876315,-0.442871,-0.433594,0.014893,0.597518,7.267257,-1.822569,8.757123,0.640535,0.198571,-0.429443,-0.304688,-0.481934,-1.632293,10.199823,-3.201348,8.278829,1.114256,-1.061773,-0.488525,-0.354492,-0.447754,1.689228,2.450924,-2.250751,2.967553,-8.603095,-2.959177,-0.182129,0.410645,-0.560547
0.408252,15.51982,1.131953,1.554119,0.96502,-1.485335,-0.219971,-0.286133,-0.037598,7.560161,9.42852,-4.016122,2.985237,-2.662585,-0.061935,-0.4375,-0.417725,0.077881,-0.022626,11.074796,-2.488176,9.278844,-1.223517,-0.944849,-0.428467,-0.409424,-0.38501,-0.580101,11.088384,-1.211996,7.973091,-1.524978,-0.849585,-0.492188,-0.450684,-0.360352,5.797245,5.696856,0.744688,1.612197,-8.315521,-2.18779,-0.332031,0.373291,-0.511719
3.975578,14.470064,1.166361,0.150504,-0.229235,-1.491967,-0.203369,-0.294434,-0.028809,7.561849,13.806628,-2.956516,0.717667,0.001541,-0.617854,-0.420166,-0.398682,0.085693,7.66734,11.953639,-6.38699,7.702376,-0.982907,0.163341,-0.424072,-0.470947,-0.277344,6.768062,10.712222,-2.662836,6.967105,-1.922133,-0.732537,-0.487549,-0.529785,-0.254395,5.503234,1.170603,-1.107111,-1.028968,-6.66275,-1.538635,-0.427979,0.360596,-0.421387
3.327603,11.116438,1.179176,-0.129423,-0.033241,-1.301072,-0.202148,-0.309814,-0.023193,2.404527,8.328945,-5.222342,-0.920114,-0.659812,-1.176383,-0.415283,-0.398926,0.093018,2.300967,13.218478,-0.970917,6.995781,0.616942,-0.979344,-0.400879,-0.516602,-0.189697,4.454019,11.74476,-2.831302,6.603042,0.133733,-0.944241,-0.468994,-0.58667,-0.17334,5.274847,-3.286074,-4.61455,0.539084,-6.796887,-1.444516,-0.522705,0.326172,-0.331787
1.917742,9.906691,1.410813,0.365657,0.249914,-1.461978,-0.1875,-0.320801,-0.014893,4.899955,7.04531,-3.659895,2.369243,-0.121301,-0.977235,-0.406494,-0.372559,0.125488,3.920352,13.572522,-0.857369,5.810565,-0.938663,0.245061,-0.392822,-0.522949,-0.104492,-0.104794,12.850827,-5.474631,5.7806,-1.310579,-0.034141,-0.459473,-0.611084,-0.07666,11.298027,0.989589,-4.965327,2.136573,-6.733219,-1.80429,-0.590332,0.276611,-0.24585
2.974563,14.575136,0.923351,2.591092,-0.10067,-1.988023,-0.166504,-0.355713,0.012207,3.163099,17.27332,-4.312155,2.974046,-0.368373,-0.373668,-0.401855,-0.353027,0.14917,7.159775,16.515295,-5.92838,6.454801,0.460937,-0.677008,-0.362793,-0.53125,-0.009766,4.474868,14.592925,-7.334813,5.411858,-2.957038,-0.429469,-0.433594,-0.625977,0.04248,10.568501,3.186977,-3.273217,-0.621524,-4.326151,-1.618897,-0.618652,0.233154,-0.159424
-0.281108,22.586112,4.131135,0.171215,0.311665,-2.572643,-0.140625,-0.381348,0.016602,5.127937,18.581031,-5.503877,-1.562793,0.230056,0.072611,-0.418457,-0.339111,0.141846,2.078476,18.627756,-7.27522,4.298764,2.383238,-1.363189,-0.34082,-0.51709,0.022217,3.599614,15.942412,-7.073578,3.718113,-0.754375,-0.612884,-0.412354,-0.62085,0.0979,6.897802,-0.656605,-5.370327,-1.092099,-4.579422,-2.015186,-0.648438,0.197021,-0.068604
1.897723,15.053259,2.790289,-4.292319,-0.23721,-2.240515,-0.102051,-0.39502,-0.054932,3.839595,10.918039,-4.412807,-3.600445,0.519608,-0.462718,-0.414551,-0.343506,0.098877,1.245221,13.564778,-5.380848,1.079779,-0.261011,0.339233,-0.344482,-0.498535,0.038818,-2.0165,12.209467,-8.07897,1.810814,-2.286864,-0.511128,-0.396973,-0.614258,0.147949,9.474956,1.629982,-6.506002,0.716913,-4.746382,-2.909793,-0.677002,0.131348,0.018799
0.797292,6.405524,2.263532,-1.310551,0.278937,-2.387871,-0.065186,-0.409424,-0.070312,6.403765,5.496134,-4.476724,-0.17525,1.098967,-0.689207,-0.424072,-0.331787,0.087891,7.990335,8.219383,-5.690769,1.738884,0.597663,-0.702972,-0.326172,-0.476318,0.049805,4.474426,9.463086,-8.738568,3.375636,-3.86595,-0.659231,-0.354248,-0.595215,0.226318,9.145417,5.074262,-5.56137,-0.5681,-4.243707,-2.962631,-0.677002,0.066406,0.100342
1.70881,16.03882,4.056954,1.191751,-0.087008,-1.838104,-0.040039,-0.43335,-0.064453,5.02593,17.906294,-5.160088,3.468252,1.319005,-1.452045,-0.43457,-0.330566,0.095215,4.55219,12.002898,-8.768838,5.508342,2.321609,-0.776674,-0.318604,-0.448242,0.085938,5.035391,14.910831,-7.168129,4.334266,-1.821851,-0.399735,-0.326904,-0.561768,0.289795,9.701255,3.631748,-5.776092,-1.299393,-3.974421,-3.213927,-0.661133,-0.005859,0.176514
0.320282,20.188935,4.573274,-2.012608,0.309606,-1.904279,0.00293,-0.443359,-0.099854,7.319421,23.826859,-2.576881,-3.04652,1.386235,-0.865713,-0.430664,-0.347656,0.050049,3.506694,19.359597,-6.712315,3.609439,1.16487,-1.21723,-0.300781,-0.421875,0.107666,-1.320281,16.694087,-7.324604,0.606083,-2.422372,-0.426945,-0.286865,-0.542236,0.312744,8.745109,6.746653,-6.42803,-0.04157,-3.172662,-3.433765,-0.630615,-0.071777,0.243408
1.452186,15.843815,3.534218,-2.900971,0.608558,-1.885044,0.039551,-0.438721,-0.143311,4.994359,10.861197,-5.201515,-7.17254,1.917534,-0.691431,-0.436523,-0.361084,-0.031006,5.035401,15.600083,-3.520835,-1.807592,0.875318,-0.447151,-0.303711,-0.415771,0.074463,1.325626,11.005349,-7.850146,-1.285178,-4.315022,-0.228694,-0.246582,-0.536133,0.323975,9.477574,11.582919,-6.639958,-1.641132,-3.564284,-3.66508,-0.591797,-0.15332,0.305176
-0.886594,16.796995,6.705159,-3.34701,1.358865,-1.804723,0.084473,-0.430176,-0.205566,3.183231,7.429126,-3.827291,-0.762541,1.418003,-0.942462,-0.432617,-0.383545,-0.055908,4.466961,8.989642,-3.579612,-1.251114,1.018433,-1.019484,-0.306885,-0.409912,0.040039,5.988473,9.130955,-7.248118,0.346908,-3.293759,0.076597,-0.226807,-0.510254,0.330811,11.03398,8.086542,-8.521065,-4.410525,-2.360012,-3.573836,-0.554688,-0.243164,0.316895
-0.205975,10.113541,6.062855,-3.431382,1.903319,-1.444905,0.117676,-0.399414,-0.268311,5.423513,19.349663,-1.422384,1.273763,0.788542,-1.253913,-0.431152,-0.400146,-0.063477,4.254707,11.742627,-4.301547,1.894648,1.327313,-1.661798,-0.293945,-0.398193,0.040771,5.151997,13.514337,-6.40117,0.292122,-2.599341,0.147776,-0.198486,-0.48291,0.337646,9.031435,3.748327,-8.891443,-2.902341,-1.583201,-4.072517,-0.496338,-0.31958,0.326416
-2.388654,13.746946,10.429047,0.635059,2.152085,-1.249697,0.182861,-0.409668,-0.255615,6.248007,22.848524,3.871994,-3.806956,1.460339,-1.090193,-0.395264,-0.420898,-0.121338,3.74535,15.631318,-1.726565,0.644179,0.542804,-1.468516,-0.285645,-0.4021,0.030518,4.713388,12.300627,-7.324265,-2.362844,-2.410833,-0.040822,-0.179932,-0.480225,0.315918,6.687719,8.055259,-8.686408,-0.47873,-1.761357,-3.920138,-0.432617,-0.373291,0.347412
-2.038952,22.401419,9.814647,-1.145433,2.459312,-1.774573,0.219971,-0.396973,-0.283691,3.721043,13.633685,0.34,-6.249286,1.376643,-1.095717,-0.388916,-0.421875,-0.218994,3.966151,13.960101,-2.583664,-0.5786,0.364381,-1.319053,-0.279053,-0.416748,0.010742,5.291069,7.95454,-7.256024,-1.249644,-1.94335,-0.491977,-0.159668,-0.482666,0.30249,8.222497,12.139079,-6.113934,-1.087894,-2.506476,-2.879014,-0.370117,-0.419434,0.360107
-2.218108,17.691472,5.671146,-4.037023,2.495308,-1.798744,0.284912,-0.360352,-0.33252,5.569689,10.605057,2.510888,-2.413795,1.243435,-1.166717,-0.354736,-0.438477,-0.256348,4.079973,12.934439,-3.251965,0.538692,0.327781,-1.688437,-0.269775,-0.428711,0.008301,3.272801,12.038852,-5.771316,0.723258,-1.979076,-0.548988,-0.144775,-0.458984,0.317383,9.902531,11.887345,-6.824371,-2.664514,-1.062295,-2.027245,-0.325439,-0.452637,0.347168
-1.240528,14.10801,5.510142,-3.465096,3.088941,-1.697906,0.340332,-0.315674,-0.375488,3.780534,14.295171,5.712035,-2.195338,1.685935,-1.052077,-0.324951,-0.443115,-0.307373,3.241851,13.441211,-2.514892,1.26285,0.188607,-1.581502,-0.256348,-0.441895,0.016602,4.840838,14.791966,-6.712328,-1.305894,-2.809061,-1.124427,-0.119629,-0.45459,0.310791,6.708095,8.328488,-8.055685,-3.231296,-0.84218,-1.371818,-0.286621,-0.47876,0.320312
-5.641147,13.593068,6.508807,-4.106161,2.999126,-1.985986,0.405029,-0.249756,-0.412598,1.938777,14.708426,6.145605,-2.189263,1.280278,-0.93701,-0.29248,-0.437744,-0.34668,1.77218,14.152214,-2.567023,2.040539,-0.105645,-1.426369,-0.25293,-0.453857,0.041992,7.08793,10.619135,-6.629324,-2.182692,-1.288364,-1.484646,-0.108887,-0.457031,0.299805,9.476791,6.66928,-7.975189,-0.665239,-1.520088,-0.863329,-0.260742,-0.476074,0.330078
-6.325372,8.671294,6.182052,-4.19785,2.866399,-1.305963,0.450684,-0.182861,-0.429443,3.50357,18.137885,7.939672,-2.894946,0.726224,-1.284042,-0.269531,-0.428955,-0.386475,2.967474,15.979215,-1.922921,1.733086,-0.701794,-1.989822,-0.235107,-0.481689,0.06543,1.874949,9.743632,-5.371646,-0.884714,-0.883338,-1.629964,-0.100586,-0.469727,0.298828,8.41467,11.660637,-5.196907,-0.567172,0.29348,-0.860322,-0.244629,-0.48584,0.318115
-7.461673,6.90343,5.647864,-2.457353,2.409791,-0.467961,0.498291,-0.130859,-0.449951,4.351705,15.534073,8.407901,-5.951805,0.846231,-1.575349,-0.224121,-0.372314,-0.476562,3.788314,13.05503,-3.627075,0.558314,-0.658773,-1.433039,-0.218506,-0.50293,0.068359,0.054815,12.080797,-7.448007,-0.249716,-1.76338,-2.253638,-0.071777,-0.470459,0.298828,3.795754,11.208553,-5.698513,-2.654529,-0.057405,0.368849,-0.237549,-0.489502,0.283203
-2.687834,8.428066,5.078049,-1.576611,1.825301,-0.577034,0.532471,-0.10376,-0.438477,2.628356,5.718348,6.260831,-6.88475,1.141484,-1.360731,-0.184082,-0.298584,-0.538574,1.973849,10.907052,-8.742323,2.590027,0.079821,-1.60905,-0.196533,-0.509277,0.105713,-0.609077,15.488992,-7.367494,0.200639,-1.518969,-2.27169,-0.040283,-0.466553,0.309082,7.056867,8.010015,-7.537853,-1.335918,-0.963664,-0.21686,-0.218506,-0.481689,0.28125
-4.925923,9.839473,5.346206,-1.920165,2.545071,-0.979055,0.574707,-0.069824,-0.443604,1.180349,4.591541,7.704413,-1.937283,0.516448,-0.888678,-0.162842,-0.283447,-0.573486,-0.044668,14.755912,-7.970556,4.099443,-0.715342,-1.633925,-0.175293,-0.519043,0.168701,-2.074472,15.579402,-6.488497,-1.727407,-1.338402,-2.569255,-0.013184,-0.49292,0.300049,7.51644,11.993126,-6.206264,0.354776,0.373491,-0.816121,-0.20874,-0.480225,0.282959
-8.371363,7.327533,6.859084,-2.574421,1.663337,-0.721196,0.603271,-0.021484,-0.443848,4.819396,14.1906,12.143083,-2.057124,0.083484,-1.150048,-0.145996,-0.252441,-0.597656,4.176503,15.195719,-5.945574,1.341179,-1.630277,-1.173291,-0.154297,-0.528809,0.194336,-2.695413,10.78032,-7.254161,-2.535952,-1.508853,-2.527229,0.016357,-0.515381,0.2771,3.98971,14.267894,-4.391829,-1.772438,-0.012714,-0.809453,-0.205811,-0.489014,0.262695
-6.776545,5.770531,5.865793,-2.155492,1.061817,-0.275226,0.622314,0.017334,-0.437744,6.268613,10.905044,9.703093,-7.151531,0.692413,-0.971423,-0.121338,-0.140381,-0.63501,4.269345,8.822912,-6.580514,0.066808,-0.71797,-1.333845,-0.118896,-0.545898,0.208252,-2.966084,7.820077,-6.580345,-1.172403,-1.477674,-2.619246,0.058594,-0.530273,0.274658,5.098852,10.33003,-5.111119,-2.571551,0.051666,-0.425612,-0.192383,-0.499023,0.243652
-6.020227,5.486791,3.577556,-2.444229,0.325643,-0.122793,0.631104,0.057617,-0.455811,2.817362,-0.412222,6.356267,-6.34799,1.638785,-0.887955,-0.08252,-0.037354,-0.666992,0.003529,5.608311,-7.614244,2.946528,-0.417992,-1.261573,-0.095215,-0.5354,0.255371,0.529599,10.072494,-5.217989,0.633098,-3.183135,-3.02174,0.111328,-0.528076,0.278809,4.589888,7.707404,-4.972427,-1.899535,0.175634,0.26629,-0.20166,-0.494385,0.220703
-1.861359,5.051806,3.057378,-2.591836,-0.260844,0.104854,0.635986,0.099121,-0.452148,-1.045519,3.611792,9.296691,-1.278285,0.349243,-1.105454,-0.068848,-0.010498,-0.658691,-1.920907,9.567595,-6.220536,5.591723,-2.261813,-0.489872,-0.076904,-0.506104,0.334473,4.611169,11.189593,-2.960133,-1.16088,-1.360835,-3.67937,0.153809,-0.534912,0.261475,5.844949,6.335253,-6.903356,-0.956459,0.083734,1.361865,-0.22583,-0.484619,0.213623
-5.561513,1.865872,3.047845,-2.638288,0.652521,0.520841,0.638916,0.129395,-0.458984,5.433119,9.505972,12.416126,-4.542466,-0.46711,-1.128135,-0.081543,0.0625,-0.667725,0.809986,11.11891,-0.845116,2.789733,-3.001232,-0.478959,-0.025879,-0.492432,0.371582,-0.011386,5.538159,-4.499184,-2.101321,0.039752,-3.562384,0.212158,-0.53833,0.242188,7.410599,5.790613,-6.519545,-0.276997,0.316275,1.485802,-0.234131,-0.479492,0.209473
-14.008024,3.219861,7.434314,-1.493468,-1.104286,2.342532,0.627197,0.139648,-0.47168,7.366153,-4.16795,6.010062,-7.154071,2.330775,-2.124187,-0.034912,0.1875,-0.651855,1.782318,5.98325,-0.893811,1.922972,-2.279867,0.480439,-0.005371,-0.474121,0.405029,-1.839259,4.111982,-4.138121,1.462677,-0.395929,-3.553769,0.255615,-0.51001,0.259521,8.608572,5.775373,-8.028025,0.847833,0.083626,1.753501,-0.255859,-0.450439,0.221436
-2.681303,3.071493,4.168656,-2.438767,-3.683694,1.197026,0.573486,0.169189,-0.510742,1.010631,-8.45803,7.568533,-1.239758,3.413156,-2.97297,0.006104,0.216553,-0.649658,-4.317202,5.120322,-6.390737,2.979809,-1.408893,-0.674283,0.017334,-0.443115,0.435547,0.994831,9.290424,-3.57103,1.885306,0.402839,-3.020077,0.284912,-0.480957,0.2771,9.710107,5.595119,-8.641059,1.580277,-0.005676,2.217223,-0.282471,-0.421631,0.233154
-1.590739,-0.857412,1.972212,-3.075216,-3.207152,1.375461,0.530762,0.209229,-0.543457,3.155757,-5.252653,6.483652,-3.382522,2.313394,-1.170573,0.039795,0.276855,-0.629883,-2.04125,4.232434,-5.886361,1.697,-3.757061,0.682103,0.060303,-0.431152,0.458984,-3.207224,7.076869,-3.449436,-1.344392,2.954779,-2.769007,0.301025,-0.470215,0.293701,9.871144,6.326606,-8.264511,2.732357,-0.168697,2.437423,-0.302734,-0.387207,0.265869
1.05316,-4.046917,2.548633,-2.406997,-3.506233,-0.693359,0.470947,0.247803,-0.559814,1.687233,-11.001676,6.661892,-0.643109,3.181553,-0.989489,0.079346,0.283203,-0.615479,-0.031485,5.629731,-4.74045,2.216622,-2.793152,-0.421008,0.103027,-0.405273,0.479736,-5.115834,2.22411,-5.064083,-0.07522,2.288027,-1.986125,0.312256,-0.452148,0.311279,10.513192,5.270903,-6.619475,2.148387,0.124602,2.755451,-0.326172,-0.348145,0.27832
-1.620796,-1.785344,7.575738,-1.127346,-4.34428,-1.048552,0.402588,0.289551,-0.580322,0.783222,-6.065922,2.491243,2.500159,2.677304,-0.625394,0.121826,0.264404,-0.623535,-2.475424,5.267209,-5.342454,-0.07098,-2.806503,-0.069561,0.140869,-0.412598,0.467529,-4.38785,5.12793,-3.593652,1.504466,2.981453,-1.6105,0.305176,-0.43335,0.342041,7.942876,2.440551,-6.368426,2.806683,0.277205,2.299632,-0.349609,-0.31665,0.288574
6.081256,1.172041,6.550774,-1.905106,-3.977073,-2.266712,0.330078,0.328857,-0.59668,-0.465541,-0.696896,6.156077,0.699783,2.821606,-0.150849,0.166992,0.249512,-0.625732,-4.32287,3.896812,-2.532923,-0.183656,-3.127865,0.112089,0.176025,-0.417969,0.458496,-4.631227,9.214856,-1.634247,-0.371382,3.491142,-1.283212,0.287354,-0.422363,0.367432,12.050509,2.508524,-7.963775,4.194106,-0.644954,1.925554,-0.366699,-0.274414,0.321777
0.116207,-0.983731,5.889924,-3.425049,-2.890434,-1.725134,0.274658,0.391113,-0.582275,-1.287958,-2.900112,2.294676,-1.94257,2.939096,-0.050011,0.211182,0.282959,-0.594482,-3.027739,7.740604,-4.559627,-1.291759,-3.142627,-1.08646,0.229736,-0.426758,0.437012,-9.66269,9.10736,-2.911504,-3.388257,5.127142,-0.645486,0.26001,-0.44043,0.375732,13.53857,5.125347,-4.761236,5.337998,2.06627,0.950069,-0.389893,-0.231934,0.324707
3.457117,-7.512786,2.366882,-4.251452,-3.650543,-2.734723,0.197021,0.45752,-0.558594,-2.723651,-9.599737,1.079243,-0.032929,2.790938,0.449295,0.254639,0.273926,-0.581543,-3.723243,9.68636,-7.969545,-4.110112,-2.617399,0.01327,0.255615,-0.470703,0.376953,-13.464397,9.154931,-5.847485,-3.704431,2.084964,-0.668335,0.251709,-0.467285,0.35791,8.915084,9.479447,-1.06102,4.468703,3.640776,-0.853637,-0.426514,-0.21582,0.30127
