# sampling frequency: 40
# units are seconds/meters/radians/a.u.
seg1_acc_x,seg1_acc_y,seg1_acc_z,seg1_gyr_x,seg1_gyr_y,seg1_gyr_z,seg1_mag_x,seg1_mag_y,seg1_mag_z,seg2_acc_x,seg2_acc_y,seg2_acc_z,seg2_gyr_x,seg2_gyr_y,seg2_gyr_z,seg2_mag_x,seg2_mag_y,seg2_mag_z,seg3_acc_x,seg3_acc_y,seg3_acc_z,seg3_gyr_x,seg3_gyr_y,seg3_gyr_z,seg3_mag_x,seg3_mag_y,seg3_mag_z,seg4_acc_x,seg4_acc_y,seg4_acc_z,seg4_gyr_x,seg4_gyr_y,seg4_gyr_z,seg4_mag_x,seg4_mag_y,seg4_mag_z,seg5_acc_x,seg5_acc_y,seg5_acc_z,seg5_gyr_x,seg5_gyr_y,seg5_gyr_z,seg5_mag_x,seg5_mag_y,seg5_mag_z
-3.875821241264193,-8.95084558920073,-1.2513383666291569,0.08213820854994808,-0.013372627487478018,0.003175310423625591,0.08367500355330357,0.4823524394794371,0.08146788787363124,4.345960114343148,-0.9151229195426585,9.093973186543725,0.06345082588807013,-0.09486261080247081,-0.028393121118692778,-0.21311080135272892,-0.017588565233420547,-0.3591374608152531,-1.0937819311010069,-10.000389579398126,-0.9729412836776477,0.07295840296791933,-0.05904757648003021,0.02274594375280307,0.20786472780011253,0.39135711920673866,-0.042147542511843966,0.8654932292421934,-9.651196499212935,-0.9056440231210602,-0.0017162807495322762,-0.03848526504107345,0.07973710350964044,0.13531964794002665,0.6344959678180244,0.06342201672964733,-4.089068420935639,-8.840261658884009,1.4235699787060982,0.059275773550641155,-0.017460713919041693,-0.05980587178873404,0.17673187331103282,0.6780685098444067,-0.15049946839892445
-3.9537265391885597,-9.209270193924846,-1.2057297841089774,0.054036775920115326,0.004115680490529143,-0.011672369907568998,0.0817175168087269,0.48162849793651,0.08537364391916592,4.365174648893703,-1.0709083156892965,8.942721551846969,0.11183851887219484,-0.08899809008932119,-0.021832003342038647,-0.20722718437490997,-0.016213595923801956,-0.3508792048458654,-0.7626611299649104,-10.097796080669484,-0.9392326121662591,0.0994816961549005,-0.009654251457898912,0.045407158344601475,0.20120680477112676,0.3873960571229591,-0.047893952618035925,1.0268555365139749,-9.82436070347459,-0.9342409082548427,-0.016230383109562124,-0.07023018385644818,0.12084378284631082,0.13081061123676502,0.6286567912113903,0.05516816662407984,-4.091852506986333,-8.925566126457342,1.5434539619269285,0.025228567534427947,-0.032049882005925207,-0.05249743652376828,0.1687938013887447,0.6720768307879933,-0.15827245644995855
-3.9353843716087744,-9.268380542728512,-1.05508715360956,0.09452628789634755,0.0011756263800483963,-0.02050326152472707,0.0834185798245101,0.4806507908931919,0.07487442073105433,4.264293689958799,-1.0731473489970638,8.843211723471972,0.13447921465289756,-0.0798289959882813,-0.05869073746208064,-0.20873055903351906,-0.013926041964976838,-0.3599462682911775,-0.9334631023270415,-10.005877570644456,-0.8955225335803734,0.11966418830087894,0.00607285505902416,0.03319735095943463,0.2088022997074663,0.38765225213445187,-0.04453840425925367,0.644591521907862,-10.173420307266618,-0.9139110052602049,-0.0002404788147795326,-0.07831747685753303,0.129474074994222,0.13922815586522314,0.6283863407402498,0.06409097021771426,-4.101199027610122,-8.937113867550337,1.5246000193185965,0.05371369805312868,-0.020724972635555967,-0.08533981108903849,0.17715316758271915,0.6724540026462705,-0.15174727850415803
-3.8931191242651537,-9.142970604092032,-1.0517669995202892,0.1479192988011556,-0.027245774476634732,-0.021727497148608978,0.08587220819812535,0.48258869788131464,0.07560764737376127,4.195740331062626,-1.0271734481376706,8.987279095926054,0.17113191436184846,-0.09028183346183442,-0.08836521600504668,-0.2069933725394199,-0.023693613903285032,-0.3602783865151488,-1.052449901821792,-10.090685374040984,-0.849844254255826,0.13728336631862648,-0.02645765671092848,0.006237811442523467,0.20855756889225868,0.39634618255598436,-0.050777038216590985,0.5661663739177037,-10.099492958946625,-0.9552335350847014,0.032530787076014596,-0.09629405596024827,0.13220751031972267,0.13860626660600228,0.6347556288660027,0.05336850620423269,-4.07913459428267,-8.929426683060736,1.4743645531859793,0.0983400778306292,0.005181171239980876,-0.12093138220432191,0.1737605724579247,0.6805732511369238,-0.1585220088505444
-3.8539935688673066,-8.993687729589054,-1.1079769503914487,0.17684337865467206,-0.05557588873723271,-0.018383653311216778,0.08540209391052558,0.4857692192430083,0.07146057654914247,4.454862029506342,-0.8373036521161448,9.206945913482528,0.21509385865247183,-0.1290159574927742,-0.08571538605882349,-0.20724364641793208,-0.020256595851755065,-0.3591133238991528,-1.142264440273143,-10.488052263268255,-0.8673904919896814,0.18282712506883694,-0.044792896299405645,-0.046075743685528844,0.20656098875224735,0.3909560571516072,-0.052630757415822856,0.6654066931463786,-10.549043466509007,-0.9632999733813977,0.09771785324893174,-0.12117957792264807,0.17246351151739056,0.14390943731856568,0.6288988038899038,0.048648173208272014,-4.045209789652672,-8.893870839514081,1.4608588598123573,0.12203026293471887,0.026721946903490595,-0.1328460955684073,0.17317265969972434,0.6732667601451605,-0.1617216327309446
-3.851107735778928,-9.220632467130969,-1.0240847889911242,0.1984392016727893,-0.07277007942234595,-0.018964388925866264,0.08200317716783304,0.4889620203358504,0.07292911703472356,4.581794421991541,-0.6898226170097874,9.100065951810842,0.25784827291846946,-0.14081357534842928,-0.06770663586056189,-0.21310436166182323,-0.025237416439014445,-0.36389440140402074,-0.9133291913806849,-10.609924350181211,-0.8447816624085314,0.2128311325662309,-0.011938056687394507,-0.09316920863731755,0.20586139065329387,0.4016510651598491,-0.05596662764764856,0.7888245911079503,-10.773751736380039,-0.5418490346669189,0.150513224162175,-0.19618371317790842,0.1867839072431965,0.14788724368048745,0.633279650827867,0.05373189494074263,-3.9836790907954893,-8.964856906994433,1.4820677991262763,0.13948695253332488,0.04371044323727334,-0.14454348731079886,0.171518717378295,0.6801266270541796,-0.1633886536630052
-3.898679569318894,-9.397983928643244,-0.9275261152424397,0.20398134584646227,-0.06757924241727424,-0.04080390288897911,0.08539588753844608,0.4847951948826403,0.06926270871272573,4.58135664373192,-0.8680020789119521,8.93029206603199,0.33427883401256325,-0.13311838695384087,-0.05651918519413271,-0.21482803213658364,-0.024322331062382525,-0.3673221576450499,-0.720731336511438,-10.531851393076064,-0.5418174563385358,0.23371214582026736,0.013976037249200036,-0.1380382672627234,0.19726600234004882,0.3999049146359423,-0.061244468597543754,0.47111793314570316,-10.692574407905939,-0.4154398415191581,0.20164622173915153,-0.267567347536115,0.1965977230967154,0.14507830736492588,0.6311035037142046,0.04448673277262362,-3.936992297739737,-9.045776279323603,1.6693764816800292,0.1284191800675898,0.02538168849658028,-0.15430504370833287,0.16630216702220296,0.676052723351884,-0.16922195641588697
-3.8481211891125215,-9.47191288950223,-0.8147512870261291,0.2707995023322966,-0.05878449027753887,-0.04505070882228632,0.0849126414679579,0.4862746748690399,0.055104120181194746,4.463600495857652,-0.9342454859507052,8.7075100786122,0.3943425258146483,-0.10934204949838199,-0.09267199908611473,-0.2110894676058091,-0.04103356948685154,-0.3597329164728519,-0.7605103241896437,-10.357105820534155,-0.68176514484498,0.2633403647480513,0.015245093120497976,-0.18803965680704338,0.19237730458810262,0.40764817323695035,-0.06743121633185709,0.4318435528707947,-10.585670968055199,-0.3553724256258354,0.26042270626964237,-0.33039985445342945,0.20142633798326423,0.14664894389767114,0.6364938889727005,0.033489580157196414,-3.885552039760651,-9.081085390832067,1.583595810561601,0.1853725729681826,0.002831300538011167,-0.2109638253668606,0.16065511256329873,0.6785783995407759,-0.17600137886378284
-3.841049339718507,-9.288066363397911,-0.8282028672501157,0.3290854619419504,-0.06704920893976177,-0.04648697718722217,0.08393506936008195,0.48603709016051644,0.05437110771187462,4.377056825994627,-0.6188715436602406,8.607883431118617,0.47731562312712894,-0.08156454046233749,-0.12589512252636476,-0.21476300429695272,-0.04308225416263595,-0.364814117244129,-0.8841180307702466,-10.056189638003612,-0.45812058355602536,0.32185662642990287,-0.03014880508325451,-0.23933776984883498,0.18992196739764644,0.4015963290508825,-0.06487638517721697,0.07960985851908745,-9.790876664535244,-1.077009580779015,0.32832914922650497,-0.3555098114442413,0.2403401023072916,0.1522590893571119,0.6296513583583697,0.033646741589683324,-3.8913779113174307,-9.115452759305134,1.5909973737640808,0.23337078101641595,-0.015250904920462011,-0.2444065263181306,0.1588573356748292,0.6685810924609337,-0.1745630338388944
-3.9339709687330324,-9.172522732462568,-0.6927108490071089,0.3951114906180034,-0.09160683729947783,-0.03336534235709922,0.07899836707408807,0.4770352323702127,0.05192309099162704,4.394209257959034,-0.267105354603857,8.564762804517711,0.5002298565175142,-0.0300048165743848,-0.13517437372077903,-0.21695558839684284,-0.04480165077649608,-0.3650221466871299,-0.693673032922774,-9.704771722078537,-0.4530218472662212,0.40985310746468423,-0.09597124834748198,-0.2723013658635739,0.18649412183410932,0.40715015681677763,-0.07006417670534441,0.3641375847355853,-9.412346798901805,-1.365593551830077,0.3855924677846567,-0.2484064415924136,0.31352125321440844,0.15308758776847234,0.6316254897984886,0.02216367760660343,-3.896092318584314,-9.031861280187766,1.7188763662065165,0.2912494775941151,-0.010358055445632054,-0.2663785669034584,0.15590989567276486,0.6693556633557602,-0.17770974297116557
-3.9986254703068425,-9.192131180046246,-0.47642603486473745,0.4246053077973629,-0.09822029833193736,-0.0318502587413668,0.09245746346970929,0.4825787522359148,0.043136280323816896,4.655382629042505,-0.15731469011174407,8.629315520194712,0.4091004331747391,0.03437558797722083,-0.16258332530570652,-0.21381133352138929,-0.03923860853752102,-0.3687876436431194,-0.44530138911382006,-9.354165032174866,-0.6515220530782743,0.42282543762723207,-0.06721270500614798,-0.28614868094767826,0.1767231293536584,0.4158843492185909,-0.07696158426435376,0.8719072379865959,-9.811558211853493,-1.0091934492508754,0.3999948443192937,-0.1798682073968259,0.3228906410548878,0.15568007382659071,0.6379852059916831,0.01457329033186686,-3.835186864119683,-9.02451357768257,1.9444811335461094,0.3186391365084423,-0.0394647811894332,-0.27898385301809925,0.14630830908174158,0.6704739156348769,-0.18861369770214878
-3.8610496605055245,-9.183583335056856,-0.34756945286541174,0.40392925728360135,-0.11201780904829926,-0.04281433983301607,0.09076929896059037,0.4862542512142895,0.03923289950072033,4.721858235090083,0.13725035531045007,8.839546321460912,0.2746690258392322,0.08007840563629065,-0.18440571550056928,-0.20815650924882037,-0.05364394484899602,-0.369789407187907,-0.3031112338204619,-9.449821682659392,-0.4255827927609686,0.33426172947372973,-0.05298991003670805,-0.2976066950146328,0.17528826834375058,0.4282692708061788,-0.08178232706516217,0.5147745556437905,-10.320889640334466,-1.0729377012597037,0.38504582679233773,-0.0956149665616367,0.23200076304448247,0.15880644062621094,0.650197713826475,0.009916475001688824,-3.685298208219403,-8.871704782175307,1.904004305396826,0.2956956864349748,-0.05144228798500758,-0.2833572812715717,0.14251756269953877,0.6837045176275426,-0.1907247511779011
-3.7443896147938,-9.102803398657874,-0.3596112758966092,0.31747764914776483,-0.15458433085090179,-0.08575964683338957,0.08492727826525244,0.4894664629630263,0.03508695378514229,4.4228461300201065,0.09588901438598996,9.006505215741967,0.15428949185366975,0.08898935057147987,-0.18628160563083687,-0.2083723409279885,-0.06118732474170871,-0.3681984258930812,-0.17553193948233467,-9.661306318579383,-0.07274844081238857,0.23015879492790037,-0.0709729198886568,-0.29978439761404363,0.1762057900869654,0.4230729295773558,-0.08586002870755374,0.25888724131214325,-10.273028915534763,-0.8110542439704278,0.3569616620933627,0.0351511701257425,0.1336945559412761,0.16159935256235672,0.6394699841199019,0.0003372345172013454,-3.621815000130879,-8.791761407135468,1.8233531588269942,0.20094326892562414,-0.024937481569680547,-0.2652892460983787,0.14232735253085332,0.6710416709628547,-0.19834405452127382
-3.8633154548945057,-9.133865370677713,-0.22366762292016432,0.24292485149743473,-0.18824671288330738,-0.11879244264926503,0.08294118118509175,0.48411339032120787,0.028002584957957224,4.313566853806385,-0.20245688214685373,8.782002546336413,0.09781450575864202,0.10225915139999452,-0.19680671700972402,-0.20668227692781696,-0.06276027805776296,-0.3750151188992858,-0.4021705924736759,-9.571117584656943,-0.22030694023122,0.1345685530466598,-0.04652392742598873,-0.2682348203324647,0.16643455955756797,0.41852565434637273,-0.08327086225576687,0.3221800989687376,-9.80556336932176,-0.24923726563812265,0.2978685776267793,0.06337393638548217,0.05281546785372819,0.16182375298238302,0.6333686246747615,-0.0006545978137340643,-3.5880165116908254,-8.971704294057856,1.9527873674242702,0.12155118263405078,-0.021029333843489744,-0.2439280027679534,0.13763118595608648,0.6649826409770492,-0.1978426005022936
-3.8600619297884116,-9.230220283104508,-0.19557716027519143,0.21826533868602202,-0.18022846156220332,-0.12062726134749768,0.08807732650521047,0.4857958138688925,0.023853034107947185,4.26087007508774,-0.2600615330140393,8.72293613705713,0.11127714729009974,0.13626067830660016,-0.21132637802556187,-0.20330736305373548,-0.04784799849221307,-0.3745417411416594,-0.4267492016962445,-9.629149315144792,-0.08442847119999491,0.09564062720511395,-0.04443828575364488,-0.24017588374374688,0.16665705694190863,0.42790033561452767,-0.09269822403064669,0.032260829884450136,-9.663582421330755,-0.3776805315387069,0.2579099082808584,0.04747433749219144,0.026147724245844398,0.162199933964835,0.6394885520478679,-0.00968149200921149,-3.521872533730971,-9.20159967091761,2.093112080683048,0.09747938516084999,-0.06084708601150721,-0.2347811103614831,0.13420028186727528,0.6687041078751235,-0.2039022340110065
-3.7769886279648692,-9.258394875241457,-0.1618612215658626,0.23829345555764433,-0.16437410357534207,-0.10515621272754032,0.08714266219929392,0.49288340462101227,0.021661541473756415,4.095995035726208,-0.13999149115326698,8.683531966616865,0.1581423262196169,0.1509694467683832,-0.2488019282849242,-0.2023125579732672,-0.06286442271205506,-0.3821093662976523,-0.44340569805026864,-9.779797567675377,-0.16335068992001153,0.09942265391483295,-0.06275891996545128,-0.2569350663325297,0.16652571651461018,0.4438256073405692,-0.08928305036831234,0.026534666372656737,-9.93436369614358,0.17863184197385368,0.27732233778881193,0.023225396909756592,0.028432288805728137,0.16221380599298538,0.6578004509042312,-0.010134297531652995,-3.452915208909931,-9.271748667617798,2.0607292221235807,0.12451400615379944,-0.10209155547539081,-0.23272822375712576,0.1326033363226341,0.6792166295021776,-0.20311346283495793
-3.7528304288444634,-9.16864391126892,-0.1078061332738323,0.3040493639080213,-0.17596609825801143,-0.08058596119659754,0.09125867361331644,0.48699719819971193,0.02482945577270442,3.8897898927173524,0.0005799509240878298,8.725573166349868,0.25650164440375733,0.15818687842557794,-0.2833671733531248,-0.2027839097758848,-0.05832685286922272,-0.3733927047578432,-0.43116847425492566,-9.964564756709311,-0.40470376091203397,0.1347944816383153,-0.07612230279984726,-0.2908183969203225,0.15783879789982916,0.43296011915908994,-0.10003378971769232,0.31055847019495747,-9.816313151616585,0.6996759256387497,0.3223554111749736,-0.11429839548948734,0.04488781537057055,0.16251470092634193,0.645130452730133,-0.023347912990997473,-3.4575607636274297,-9.211460795141262,2.0173377009746334,0.19510961208899105,-0.11383552113817766,-0.24693842432412766,0.12825692007688774,0.6695425644175809,-0.21508140984176305
-3.8380797648091534,-9.116167789392446,0.05254211433862136,0.38147184029380177,-0.21013823875543247,-0.04374921321149745,0.08342494162370602,0.48387870223554624,0.014330271278828874,3.8794152126068715,0.1635609481604659,8.928178645035516,0.34670173262772974,0.1550661227664678,-0.32431807151792347,-0.19250360771390274,-0.07773812451004589,-0.3826285181384059,-0.4619177574620813,-10.21915057434654,-0.3907815156106864,0.24165903946705403,-0.03402526037692695,-0.3491123832423353,0.1496891303093285,0.44731555115942767,-0.09042694594629568,0.3479454865753574,-9.897869327062146,0.6103787282254807,0.40602631906867026,-0.3048733353649023,0.13074682261923662,0.16032207283215266,0.6575852150654161,-0.024027111939896387,-3.4845501986062244,-9.252024548891672,2.143634423850572,0.2756334299949946,-0.1016681243316249,-0.2596948955757192,0.1196040762491969,0.6776600873333956,-0.20838436949510142
-3.7986646427751074,-9.09954126571133,0.12584491686569077,0.45391951675415887,-0.2536331516702063,-0.0103337606179492,0.09326540810983401,0.4970185658823252,-0.0010410323639805969,3.895269466152207,0.4325322701870578,8.776308029504442,0.38809684173187575,0.1214548062196079,-0.3491442889149139,-0.19790552799352457,-0.06873872082235119,-0.3837363311002897,-0.49143360098991107,-10.251490750418661,0.02097047247251016,0.3321437655049153,-0.01834001769941787,-0.4240418262070392,0.14906182614402225,0.4397933914370054,-0.10324670891581103,-0.20458713617041555,-10.459083404000193,0.8372468121051974,0.5149530464893752,-0.4859531922335888,0.19575594301654253,0.16920301388362208,0.6453887750210002,-0.03466617572781002,-3.445826968461144,-9.176205051432287,2.1024212128116675,0.35195351443676137,-0.09811830800318963,-0.2617611426170883,0.1232664696249136,0.6644933196160409,-0.22189765845962547
-3.642454014466164,-8.9664076834136,0.18566171303448317,0.5132412678376076,-0.31262600152708564,0.026559559646795423,0.08489278233651106,0.4851099702237704,-0.0069089398360644115,4.1563254504381035,0.3553919613065839,8.368517472449295,0.4431821394917609,0.13262177904482642,-0.36865370647735335,-0.19273850321875063,-0.07794236824850911,-0.3801829790164329,-0.13426867489670047,-10.00784192404899,-0.1413267508786989,0.35352908928398274,0.020667086980336535,-0.4636731984563966,0.13737600069341055,0.4527218874202531,-0.10799733815297358,0.25924241619988164,-10.277872157206284,0.6838892424082078,0.5653581560894618,-0.6673037709793169,0.18706699988214653,0.16361003746319608,0.6615429615401258,-0.052874141118425866,-3.3114478018521734,-9.072924314913337,2.115692543475247,0.42996677355570345,-0.05721457293421936,-0.2711526115143523,0.11157248637440943,0.6731870231055925,-0.22933384601593979
-3.5584542230559264,-9.07139082665149,0.2460240113416985,0.5517367317930938,-0.3783994313911174,0.04471508070164738,0.0963486583504241,0.48186920447667947,-0.007891167979793806,4.294806508731355,0.39379701474973217,8.558224141061684,0.47645396974935844,0.19269019953719466,-0.39865439148389364,-0.18515433026695166,-0.08378590598400543,-0.3806001556828846,0.24603168869915587,-9.893578456975344,0.03659789449166444,0.40470271830805216,0.05139079021538674,-0.5395121333845159,0.13120754103204785,0.4523816029606273,-0.11624539591784638,0.11540238584709568,-10.362673351165194,0.1657131712342747,0.6570159403082453,-0.7296972046272092,0.2067512896262297,0.17126005491187746,0.6625355863961109,-0.0654247119393149,-3.150973447810374,-8.950369271566514,2.185923918188585,0.47283954246467136,0.009017206327501593,-0.2717169685865192,0.11147183124321068,0.6698026568721358,-0.2374044040352097
-3.6678847934197987,-9.251330496166563,0.43143504588560894,0.5888660643325515,-0.4172842274197094,0.040293838117355166,0.09097277314112832,0.4816723437571486,-0.025224253021804675,4.201565604128104,0.6764512941936192,8.954570695348238,0.431870096492268,0.2486300279774596,-0.4019583323837022,-0.18562975139547902,-0.08595673629906495,-0.37885330151216273,0.4321352097093676,-9.58330503636865,0.18181727203345216,0.41548896264736107,0.023665451997560965,-0.6215169205299007,0.12656313185759852,0.4577085074430984,-0.12068809093944312,0.02662902568811216,-10.597486793962265,0.08193157563672913,0.7382396169364679,-0.6613868634966817,0.17960516919208885,0.17418474307468293,0.666231445353639,-0.0847446424442728,-3.0909507294794727,-8.965285810299864,2.464603800676334,0.49987581301342066,0.06183113825993016,-0.2792192151601552,0.11188385012520383,0.6683642303772634,-0.24498207779829362
-3.7475897597875822,-9.318436218289694,0.7097536229221476,0.5842289168641669,-0.3989495843462315,0.02011611887744546,0.09562478736648392,0.48433755206249746,-0.03376783086344625,4.120427996982418,0.7514035615854477,9.436619289669906,0.3563417928246777,0.2743739188407702,-0.3925220963059951,-0.18393133494450342,-0.08748823563115068,-0.38322936062452356,0.4788759750784914,-9.679798576693972,0.3643119839299736,0.32392284674327343,0.0097821546929753,-0.6536434313922971,0.11537718064661805,0.4670337805820275,-0.12147880542010729,-0.1216320506457066,-10.77073644634154,0.8718465306874599,0.7397504197476391,-0.6495401583713056,0.06378006666013276,0.1728472350749806,0.6708886993258053,-0.09399689767148496,-2.993658315126707,-8.963828576101568,2.7954857034738443,0.49923216600047776,0.04444946703395345,-0.2966457895198733,0.1033240853152724,0.6709112468280903,-0.24978440313065886
-3.720757745976478,-9.220253752021124,0.8355677105803324,0.5248397659410993,-0.35715411283757065,-0.011755514199725575,0.10200167666295126,0.48943245266395163,-0.03986759419999478,3.9737481186521744,0.9187544155013702,9.689713148363943,0.25344421614827384,0.22444212971736957,-0.41739393293017385,-0.1783054728774294,-0.0965850231211176,-0.3879815394263617,0.42183819952172735,-10.148543436533654,0.37277542332609304,0.23000860485168956,0.007695353988115435,-0.6694992175836928,0.1004044175924394,0.4703341487783602,-0.13411195725534056,-0.2352593540931176,-10.964217728025085,1.422259809031435,0.718177668054774,-0.7312249667022852,-0.04483338578167628,0.16523345439883697,0.6748470553428016,-0.11635229763342458,-2.9538120918217867,-8.897032501189889,2.848103799731004,0.43523896249842847,0.0007679311934871195,-0.2926092335418921,0.09535860768273861,0.6695957748702895,-0.26657114434549395
-3.644101511078896,-9.202461912347301,1.1122210327460853,0.4678737126048967,-0.3495228271090814,-0.04555609467443154,0.09511031346441791,0.48044951496466354,-0.050616198414338544,3.7400831619389963,0.8959703946938198,9.322071929509104,0.26049970436718645,0.16100683961521758,-0.437552672118144,-0.17755568196266955,-0.10045994879496079,-0.3862106341193691,0.40458463760248864,-10.216438119436143,0.144855636463106,0.15332066239179232,0.0199456610560685,-0.6309600760648637,0.09475776102942253,0.46788588976717266,-0.13647129709382863,-0.10382706287990497,-10.21249945682377,2.0182084001779788,0.6536398551355063,-0.9326349778290707,-0.11777245152497834,0.16596165577331806,0.6768358229114774,-0.13540168280240017,-2.8600263270306696,-8.805060906036404,2.7379054081934293,0.3729716949231955,-0.02808399528114371,-0.28860732194656374,0.09376818169929996,0.662558269230008,-0.2731785618102989
-3.566419774384551,-9.188075622108915,0.9905439434879705,0.47273738099615503,-0.3686480897616404,-0.05316213801183799,0.09784106222416307,0.4882521889314212,-0.0569578038246138,3.7009946554387305,1.17583914212838,9.014302457554868,0.4542608391033214,0.11588472206515472,-0.3869828740409945,-0.17752950647865265,-0.11123279171969801,-0.387985442042209,0.6789630682023093,-10.524037360629375,0.24589011030212493,0.1953580988425121,0.06760653604128822,-0.5960764274412613,0.08255718162182815,0.4694131416844482,-0.13664442623684528,-0.02800979923783844,-10.052622312328591,2.121503795965488,0.641290758966214,-1.1964446365041714,-0.08147243267473009,0.1596656456202012,0.6785802262103449,-0.15020999304640675,-2.83131324316954,-9.147453051904527,2.844210343342299,0.36828544004807956,-0.025344440451202193,-0.2979828588154154,0.0847103317589032,0.6629072424115259,-0.27652085461252845
-3.5453868621297095,-9.183001721934568,1.2131092644975583,0.568994055910074,-0.33870621298834913,-0.027544093125290513,0.09296757504126564,0.49024309963968504,-0.06720903844439767,3.7857045309817736,1.442655585916352,8.905166982003506,0.6626897224031616,0.11476680275111326,-0.3085735682872201,-0.1675123723887509,-0.1166174782991647,-0.39061586806584847,1.1522471552861009,-10.586604938385134,0.17488991536549847,0.3533083776667622,0.16877625629927753,-0.6396780469096007,0.07520875120987376,0.47133709125181217,-0.14101304701952988,0.5595222386706805,-10.392200393335033,1.601980502631065,0.7533250292467933,-1.3872239628296863,0.019482312193853185,0.15575353314101334,0.6781330200731193,-0.1692041926773733,-2.6606407413967004,-9.175428778841813,3.1146168163933905,0.4684535452994552,-0.04243853539207462,-0.3145212646787922,0.0799446948447729,0.6556566522602938,-0.2831040742094686
-3.5422485231972005,-9.267402244764648,1.4001704725251813,0.6630344290433502,-0.27809286710131625,-0.002879257461270937,0.10413742319222247,0.48042125377737965,-0.07869507854278153,3.816088356868953,1.5244364902994414,9.11131916302457,0.7663573356504141,0.10859478181553502,-0.26970656801463855,-0.1701462766120966,-0.12777403721408506,-0.3855392302296272,1.4670190219162682,-10.158866839390333,0.4184354037151581,0.5080326141154301,0.3068357886243541,-0.7194974371575713,0.06852584686881791,0.4762592907367861,-0.1564212692660585,0.44918714035025836,-10.420492360946678,1.5395081485191502,0.9007873128064257,-1.4956854562292121,0.08248302572888552,0.15829178289195064,0.6842913857332229,-0.19950125523462994,-2.6235170332862645,-9.286505094348191,3.241828371948135,0.5569938627027321,-0.1001637860865104,-0.326378556797633,0.08274985148054144,0.6571620222244495,-0.29996758331996576
-3.4696083184660154,-9.202148341998635,1.6245538975824145,0.7156990783006244,-0.25971661742689844,0.017780377301032404,0.10172933506758472,0.48655325381177056,-0.09406912759181896,3.713385224700049,1.7579488505211027,9.145276630972072,0.7239807166624599,0.08173218249901573,-0.28203309092703743,-0.16180194562400865,-0.1411580249452448,-0.3843688154427243,1.3013946138892805,-9.931923639226834,0.6880037716874754,0.5847033085240287,0.37971071511272825,-0.7540374173286329,0.05504259107256323,0.47428806671293056,-0.16214572233867072,-0.1034907911974606,-10.345725927717812,1.5810408604263697,0.9735113048593036,-1.5447533370790907,0.08520905265375159,0.14943833910951806,0.682880965655691,-0.2228278568387257,-2.5433244977889915,-9.147573582186961,3.155475499192723,0.6149130827497635,-0.12927366155391873,-0.33425842408176554,0.07332821286979604,0.649232171498414,-0.3077354274450308
-3.4644327531922596,-8.965600061445501,1.7631837432017976,0.7024569372263553,-0.27230752531917807,0.024300861118763582,0.10018791033828119,0.47437448124282666,-0.11580867734607635,3.711860213175273,2.076690688853035,8.96355639485174,0.5946679892422841,0.05872675001427627,-0.2715026836060729,-0.16326765867780985,-0.14785464792943623,-0.3903576743366635,1.3516839689804563,-9.369014152709294,1.1230364708482092,0.5528914121814353,0.3738358910996328,-0.7240352807396624,0.05032690428933074,0.47077768473364195,-0.16962350178994717,-0.4383917384172421,-10.038327075884078,1.7236356340633983,0.932079286975052,-1.569791066536737,0.02506702436533452,0.1498706287696302,0.6804830914120175,-0.24554516565295997,-2.4418861744921365,-8.991106123973596,3.3560540279862394,0.6132497712802087,-0.12257264760439472,-0.32487455925944775,0.06999299777056282,0.6412480778154623,-0.31750757507509136
-3.4881085898929953,-8.814955519104963,1.8820569023275198,0.6234022985552111,-0.2804464936067556,0.02789074980626163,0.09775902276181729,0.47633945224556706,-0.11312042882719112,3.899205260216281,2.1623798202775464,8.915850177846874,0.5075629512741826,0.06818075647804499,-0.2538646775861567,-0.1649193096965335,-0.15130276044720373,-0.3771089788168335,1.723277075691298,-9.040216319080786,1.54364774862638,0.42167202740657644,0.3510231808641354,-0.6611082707279132,0.03997968910121481,0.4694373535180926,-0.18075496027854815,-0.3427451177686927,-9.694863635938855,1.54417701392074,0.7986760540877252,-1.5145227641284627,-0.0856012498830569,0.1370752082495871,0.6781050930238195,-0.27150714229922074,-2.41418298336424,-8.874345178052058,3.5524242772447234,0.5516409933486046,-0.09704468055300607,-0.28480188570255255,0.06446662968074021,0.6352460454721784,-0.3289625716043778
-3.435792525898219,-8.976729341764692,2.0801341078665545,0.5348469275814268,-0.3004614655141614,0.009955983868530551,0.10775318636052694,0.47434115179353276,-0.12850525707665902,4.012042001336878,2.154811329752165,8.961580918552121,0.47247979191293865,0.07818610025730441,-0.2526422295944622,-0.15956354915470844,-0.15408554745365963,-0.38391816808541235,2.0255148628215096,-9.2359501382026,1.3613183335019376,0.359085016029033,0.3347091194446089,-0.6201797563787806,0.027104388305509666,0.4739819430569728,-0.17559809976625818,0.25159319053638524,-9.373772295567337,1.448504468927522,0.7263165262163807,-1.3728202562626164,-0.13562805952314685,0.12796382746649437,0.6827661339418881,-0.2777271116548991,-2.31559373853532,-8.662016054034325,3.5393959550609244,0.4666988039799345,-0.04499970169356453,-0.251391805445581,0.05665438507236655,0.6348345760706112,-0.3284110862369286
-3.364781975096077,-9.081785887569174,2.204566019739705,0.5046897151516093,-0.3173857560411387,-0.022738957416342947,0.09991489614447692,0.4699944910434169,-0.13094953198189713,3.8762681888209762,2.2592019229761795,8.886719909553879,0.4781545352682492,0.0924032393617115,-0.23267141174597894,-0.16146708264278242,-0.16697597596496355,-0.3805235361385374,2.2653153844894023,-9.321348669646609,1.1812832341018107,0.3434896564123049,0.3476543541250563,-0.585793356865411,0.02459394490371931,0.4782020229454092,-0.1876092481568835,0.7305771819208833,-9.358433528670474,1.5390876892636234,0.6827422212704156,-1.244048699089262,-0.14864635359824113,0.11619237963240071,0.6852639277256226,-0.3005188162884527,-2.1940347431914997,-8.58635093747816,3.6828285135145165,0.42502176797897134,-0.0226126652919916,-0.26672222909690485,0.055807036400701386,0.6326916763378745,-0.3396444935545711
-3.311526609312129,-9.069363502569438,2.3008042585802833,0.5046289267595186,-0.31063313263013126,-0.054357939355053446,0.10551022637427793,0.46679112269743483,-0.13510353148351428,3.7206796288179076,2.16148421634001,8.787887787468298,0.5216772422463898,0.09323424655791648,-0.2215165641300423,-0.1651542028018446,-0.1673563571783096,-0.38807369236640255,2.298630645466443,-9.376835506147776,1.5212795484673112,0.34174471101161863,0.35251852027761515,-0.5578314267069093,0.014002175023474756,0.47058542963914074,-0.1942452438026664,0.6228653620812485,-9.46748371321282,1.9053884404150703,0.6495368187553597,-1.1243705958018397,-0.15908607291143406,0.10544635567000153,0.6774987204657368,-0.3187054210900797,-2.118098557606197,-8.779812452326636,3.823773998682671,0.4143236713349627,-0.008356015681692095,-0.2888301352411917,0.04758541091566694,0.6237776856411483,-0.34864733039872814
-3.271156484482737,-8.96544085476835,2.3693836744736165,0.5304459671963073,-0.3062869030790315,-0.059364338937024884,0.09546969996006144,0.4619755293210161,-0.14438277756056236,3.7280635837512155,2.2879724467545044,8.728457742035431,0.5932165361691846,0.08567128681156501,-0.24402132560185222,-0.15290068896894932,-0.17452633824787375,-0.3809157845569141,2.181988575276918,-9.482409097459412,1.81780354768907,0.38650281392593927,0.32712886853389017,-0.5525011169744978,0.0019990636285345097,0.48046861641455324,-0.20651505753405477,0.3890116232982029,-9.361287443893529,1.9147323725025536,0.6690468570231753,-0.9873819404784695,-0.14498090582688003,0.09202200241877212,0.6851177955176456,-0.33755818425995965,-2.0683372202202004,-8.805310948607437,3.826251563409386,0.4395282040588979,0.009850674077293965,-0.304774292421429,0.038219054573211474,0.6261245440007579,-0.36223323289749776
-3.171672180439926,-8.956100327293456,2.6151317895988573,0.5890806225645486,-0.32286185804247164,-0.05739508430455286,0.10234937938305563,0.46975807409952947,-0.15560825010327814,3.6752543107478015,2.6718312375163507,8.941404398232951,0.5952168404709384,0.06787560038306768,-0.2768839546695178,-0.15067904569528276,-0.18530473073904383,-0.3834311216060706,2.228395861325819,-9.392807906841956,2.297386673807483,0.4694671382135499,0.21135327571815632,-0.5475448432062754,0.0012445508468517004,0.47994559278844773,-0.20894241159739468,0.17392538609698419,-9.170728999994575,2.285201960995901,0.7231980451726825,-0.7794912153332009,-0.10600399638589222,0.09333386322164085,0.6829414091275803,-0.3490556197355358,-1.949242011245578,-8.779044951640586,3.895430238856581,0.4976138641584737,0.055534271336327545,-0.32070252036024793,0.04207993743360792,0.6214455404939726,-0.3620403528265018
-3.137099652405427,-8.82488870890228,2.8676387898631517,0.61311419632142,-0.3420738143818744,-0.059831116957434594,0.10306377913050292,0.46707976669032336,-0.16903878886472173,3.575960771401125,2.5997845622596594,8.98724885626734,0.5334318586718179,0.03482604176741434,-0.2928760328769565,-0.1492130172396167,-0.19123538589735248,-0.3879775034598534,2.4116793133748953,-9.246305931226264,2.1802112386059282,0.4876644143250115,0.08480773463032298,-0.5201554016108226,-0.006922487366486292,0.4734870724653249,-0.21878977911656886,0.560496324364595,-9.274701724595579,2.4192959333844573,0.7165380555451878,-0.5797377416401693,-0.08913078143648052,0.08332781371812628,0.6766384604844589,-0.3667600642547911,-1.8472388062776917,-8.666197881883328,4.007015361402014,0.5234913411664076,0.06765501787156841,-0.33276229353938763,0.03797897846495692,0.6147130319197436,-0.3774162546483585
-3.1781187432633717,-8.807453178127064,2.8617587038285652,0.5863591102742783,-0.3428410922620681,-0.06982734205817172,0.10374316296949114,0.45854017532274227,-0.17978854373979006,3.5512515898969665,2.825266221307894,8.924471590802444,0.46558710223615546,0.015578118172271813,-0.3121155648738948,-0.15357277429250304,-0.19826686613310895,-0.3841825055502394,2.4167573135774396,-9.43900234516561,2.041618001639403,0.4347062325922439,0.019923771450054372,-0.49445847232772133,-0.014392286151884051,0.4698541997571724,-0.23503459798265752,0.7150795739971703,-9.741136504704363,2.5747709955452533,0.6562903316382003,-0.43292463830468136,-0.11102516779533377,0.07917542320653372,0.6737495805299343,-0.3852677904157105,-1.8745969816754962,-8.63751294181742,4.230723577718087,0.49980997775995945,0.07680701203409473,-0.3260225154969872,0.03099450419273924,0.6101956897215113,-0.38982915437424037
-3.2027533444998415,-8.681014099690145,3.047689511509657,0.5447339470108197,-0.333224905107066,-0.08494227787974858,0.10349469323970517,0.4580605865386621,-0.1876009237479287,3.4954338480520533,2.9704838890504166,8.775266629809998,0.44914318677252807,-0.007022247667508062,-0.2860839993210283,-0.14377826747870415,-0.20454015084281377,-0.38142667169722305,2.570237872962469,-9.479281389959448,2.3441685913369845,0.3631867706186505,-0.06148154388765373,-0.4976421704566307,-0.029275068256935793,0.4726082326843717,-0.23569511100255455,0.6472217371911161,-10.106377699814791,3.1709264988674226,0.5997244046016438,-0.32814425534171127,-0.16858129927259943,0.06564495115686922,0.6698717563448571,-0.39266638911430735,-1.858452398496774,-8.550830314535123,4.431059130005802,0.46126797372961026,0.0932703894239126,-0.317330252486414,0.023348164538813117,0.6034412383520095,-0.39101542482984186
-3.0553782896815695,-8.749703714026461,3.1083252194600006,0.516459477241716,-0.30677150330393654,-0.08508792580534745,0.08981775934783821,0.45766325940788477,-0.19882948997290373,3.2546314607400753,2.9866888322146825,8.76743421077786,0.5675404133911761,-0.04361696686184086,-0.25207392550310714,-0.14912881900892366,-0.21237930046333178,-0.38201052403266267,2.848353290773038,-9.57096783074642,2.0873474566656536,0.33003377470999506,-0.09725060050014292,-0.5133183360060635,-0.032967419792952736,0.47111762947105346,-0.23857263636211593,1.0291211444629569,-9.609554202615136,3.9980607186393535,0.5902849664600539,-0.3165559338105445,-0.20600431095874505,0.06672912573721883,0.66793727187662,-0.40293926122104906,-1.7322971455434215,-8.688128189103825,4.448838947923675,0.4385320644464606,0.10382969677273131,-0.3043851381036992,0.026956340059163624,0.6026947679590722,-0.39666339874681517
-3.1073737168570266,-8.613136378912396,3.1744235914042767,0.5811757052458388,-0.28372909695227544,-0.07473059697773282,0.09514152719634184,0.4498232838613773,-0.2039645672191975,3.195424983100489,3.3075674928963417,8.68750958129697,0.6093374423561416,-0.0920407614501893,-0.21486815211553628,-0.15201594707351734,-0.22135203475014972,-0.37770132132719647,2.81068171185697,-9.478694980993687,1.7094845146569404,0.4431953189945553,-0.05894666370160334,-0.5240438324918675,-0.04818445888534455,0.47224546917117455,-0.24970478215129108,1.1924034643690182,-9.045826894832778,4.427959167247336,0.6829569990844794,-0.4928742595493685,-0.14803830062583218,0.05332782819196148,0.6645651828843752,-0.41912935028602527,-1.7803668497352836,-8.71882305360592,4.54791762035677,0.5050640985323389,0.1270782286746432,-0.31132645539952253,0.016036186184396867,0.595041866408198,-0.4088129705172129
-3.1867759463610117,-8.347437407366867,3.330784697052213,0.6049940798281687,-0.26024011630559607,-0.04897651294362786,0.10362553702128098,0.4397718874848004,-0.21276426239410406,3.3014226953738413,3.4842243029683586,8.612912378206003,0.5818249415613506,-0.11324627031777522,-0.1601257042739996,-0.14025967839971407,-0.23104405949276763,-0.3753836073116556,2.949016561840697,-8.983759831225445,1.8646183233185898,0.46684956779155395,0.018239104810918956,-0.49432071319087534,-0.05779298227585206,0.46439484309175144,-0.25536761337031494,1.2186501828102299,-9.03888792423029,4.561825944600963,0.6788094887082426,-0.7486329234833612,-0.1294788957491136,0.03880514926486961,0.6604477768280969,-0.42773649854478807,-1.842142775633652,-8.361337750108365,4.734058272369332,0.5479481993916221,0.1529837351446405,-0.3023558312281635,0.009783612105500201,0.5851181306279468,-0.41466203732754
-3.101376683140215,-8.237548979493969,3.4956242764497834,0.531748614067092,-0.22797879449126388,-0.0609368065953333,0.08868098739274788,0.4315756420488333,-0.23156752442901965,3.2400346214997473,3.6535994891902286,8.447654828761701,0.567444490333165,-0.14953272486480298,-0.12880862869405021,-0.1448933127639317,-0.2325187339525157,-0.37509926629015505,3.19645224207395,-9.065858318964601,1.7323617351785243,0.4530571795360393,0.12024003612168518,-0.4775768652775225,-0.05664065559930972,0.46135200372199553,-0.26216613591572085,1.560211841450974,-9.143148090673789,4.293918625222121,0.6630679619686649,-0.9853375840818794,-0.1339015198397925,0.0398179478999743,0.6519307525720186,-0.4429045957143775,-1.7179580439166957,-8.262689097432663,4.883967905080695,0.47407712453400525,0.18148615048388464,-0.2702974330272302,0.021150234551909116,0.5801494436691013,-0.42185632381514876
-2.958230016233565,-8.274973647671523,3.7006847757842882,0.49399830682845436,-0.22242678510918643,-0.05330614664944406,0.09359230100316451,0.43667745006321873,-0.23571398154377307,3.364560772295991,3.782104618555355,8.371818032186932,0.531075173151584,-0.17749357915132347,-0.12099762976218995,-0.14216159151207045,-0.24640446448041836,-0.3736572854620574,3.1389647632580617,-8.8859960492283,1.8474504267111787,0.43926907102206214,0.22594158146954207,-0.4725275386212499,-0.06599456646768975,0.46414538758229895,-0.2741018954673957,1.4265396629969547,-9.288118425583615,4.442897448121514,0.6409190188519411,-1.2122037979519875,-0.15360137913001326,0.020789413748473623,0.6544265561488406,-0.46047361442775747,-1.5929727407116028,-8.403018002421247,4.83895409703876,0.44684734554980376,0.24693799486128604,-0.24406407302383062,0.014236599715666504,0.5802576736274118,-0.43132148729113884
-2.9974729737310204,-8.211469705723292,3.8396514501666337,0.4908899307068299,-0.24399803705820428,-0.04408773538510419,0.0911171160330374,0.43108073728456464,-0.2410894669578457,3.3622954903839837,3.770467955406649,8.167916439837528,0.5754348639139869,-0.17865344192419408,-0.11588951877943943,-0.13750276270686385,-0.24678945690862836,-0.3682950843287542,3.3040193373886657,-8.769452541365252,2.135586235007442,0.37694877888998163,0.3161679660682624,-0.45862875943687814,-0.0660897965465946,0.45574271321035126,-0.28056309192247153,1.3600524925824156,-9.126553160405793,4.868877870573401,0.5750800068838431,-1.4639251132075126,-0.21058927194149693,0.008925519842962916,0.6442060932814628,-0.47059258898921064,-1.6938925204940092,-7.999748697893021,4.789393269695063,0.4608471120791766,0.29871096305407563,-0.24114111636464952,0.01799426917098133,0.5697423029811866,-0.43652320522246707
-2.977921019477154,-8.17907592002306,4.018781406653152,0.4941703602618229,-0.27372966821692934,-0.06908491657771583,0.09134954022084595,0.42937785644151644,-0.2484150353201846,3.5783856492123745,3.881631589638487,8.122018904687032,0.5868981108062251,-0.17131186167413012,-0.1478009972490977,-0.14745388500718629,-0.2574355432544571,-0.3605144724966947,3.275511320194057,-8.536051922424182,2.5369724377929344,0.40745092489471596,0.36866471783518645,-0.46307494702039637,-0.06858317602294889,0.4580671759230497,-0.28888224920456274,1.1828076221691912,-8.678018952772454,4.986686603738354,0.5984359264988107,-1.69866320632791,-0.2243129627402174,-0.009572946609114376,0.646207230240877,-0.4849952416195783,-1.6709207462115152,-7.908707718071656,4.971050037365525,0.458468680827279,0.3560314784861515,-0.25076514241309467,0.022301022803414554,0.5677796773034355,-0.4448670776806578
-2.888315431911839,-8.219644741806341,4.230533038557587,0.5208125899929089,-0.30182524251229315,-0.09054040813511742,0.08842226743256887,0.43013865601917284,-0.2613537648955969,3.461936917577276,4.231424095660189,8.114116345567698,0.5480920863430195,-0.15873106768812953,-0.18259564581813656,-0.13769591685988095,-0.2609127537838063,-0.3658620126387374,3.3313821234574297,-8.176176082074774,2.739202910166691,0.41462272754404067,0.34140728646183455,-0.4361934476074888,-0.0803338373788188,0.4508192089480923,-0.28794484778062934,1.2606716382083993,-8.163760945270509,4.771046478148577,0.584032157526194,-1.854306401918655,-0.22287384784399783,-0.03872791679738826,0.6386838495549256,-0.4919518214096128,-1.5600105908376194,-7.776607414706685,5.078716721942608,0.4809304863029711,0.40873717180350977,-0.2724388637758127,0.01709255865974443,0.5605117039830092,-0.44583149412477197
-2.8255174025317804,-8.210676939201344,4.4550973033826455,0.5106972724671648,-0.32483886388370525,-0.12100186838781472,0.08471493418266242,0.4225913110785058,-0.2601387346405313,3.3643674561297896,4.2093869410783675,7.858562946676617,0.5804871381595224,-0.15974803555965886,-0.19104388943171546,-0.14181989658055585,-0.2652578991116068,-0.36211334843081533,3.4922919159942123,-8.310560017030367,2.7435111876206526,0.42001619828540493,0.326341908374443,-0.3992107521615645,-0.07535938284904814,0.45000265480361334,-0.30726066211656605,1.5781734776017675,-8.244529037749862,4.565453798210611,0.5661223047906663,-1.9682597962890669,-0.21769276490187864,-0.052115269413222996,0.639217333300974,-0.5074014747077293,-1.5676310521988615,-8.064375140270577,5.167386010151244,0.465203609054574,0.437006432017383,-0.28718400822997686,0.02452545743008433,0.5582954864061254,-0.45957432543865306
-2.7698615148396546,-7.984620834279715,4.571468480307447,0.544485583065745,-0.32902811704478807,-0.11892450061916203,0.0802883656773259,0.4177510752343315,-0.2789411529488323,3.4545774065498227,4.107848802567025,7.741146113480236,0.6039892464634555,-0.14537179729735894,-0.22242208414868067,-0.13687148097323937,-0.2753258519925842,-0.35170794292388363,3.3956828849566643,-8.278935242400054,3.0365804506448875,0.4658943579679591,0.3394304065965417,-0.3775827543709187,-0.08174162252326032,0.4516583080553581,-0.31285278506325626,1.5160936332449104,-8.524454796968023,4.7226728713657575,0.5927898379630263,-2.1063771766179635,-0.21794685658596719,-0.08012083574352537,0.6365869530917206,-0.5202241901172594,-1.5623148621344618,-7.8483147645902225,5.299879472288299,0.5118436804488473,0.42710429755240537,-0.2918273917349854,0.022711938484304136,0.5549303249419835,-0.46811875446308476
-2.68325918150879,-8.110363534157772,4.879925847162296,0.5670395280859772,-0.3071980664645392,-0.1343336542846986,0.08023348811052501,0.40822358649007134,-0.272601631304366,3.4051116562086583,4.3235918400735835,7.818717082770489,0.6893241592652717,-0.1320942236518611,-0.2688138737045366,-0.13266860373494863,-0.2933930199608443,-0.35240000544023087,3.38065971645158,-8.089943695817928,3.204262087950716,0.5385808694134316,0.30351737408697094,-0.38054839896420783,-0.08038896059395545,0.4386245358178512,-0.3182768396321008,1.7043032590859661,-8.344575788050749,4.516925908312329,0.6518647438131149,-2.205307213862551,-0.23441784634334534,-0.10575219898241543,0.6283122940058345,-0.5191717564953908,-1.4889044247146461,-7.843481240954298,5.7657172644993775,0.5260570135292411,0.40548705558224996,-0.2980731021308921,0.029696492487971297,0.5470547184442014,-0.4701618906949472
-2.5912712307118966,-8.194301632785036,4.973098286370615,0.6585712539119822,-0.2686248268320605,-0.131560960726368,0.07045592465946535,0.4070810224332156,-0.2948176625731701,3.489525750353501,4.572623952652112,7.974707320466251,0.708040978245001,-0.15028485214245912,-0.30940628477356624,-0.13631765722149117,-0.28764415147908573,-0.3436925425587829,3.4773986532490677,-7.952668227672989,3.3086400303374077,0.6483388825370314,0.2392294750698591,-0.34758986214709,-0.08203777414760101,0.4237732616972605,-0.33170646300211326,2.080556190145791,-7.704764822157837,3.9069233411258715,0.7433455408786582,-2.233247679631137,-0.2229053188238396,-0.1327716593879939,0.6088316480518503,-0.5298418120532075,-1.5905997212840135,-8.258079238955231,5.509529407507123,0.611835822046828,0.3416639269091258,-0.30762591625433283,0.030173751704833322,0.530491904390178,-0.4809769944046567
-2.589022845218422,-8.22080712305219,5.009896217322919,0.7036965132416132,-0.26773548500544786,-0.10183036948520707,0.07041187064439194,0.39950954552304724,-0.2918944010996539,3.618491544451913,4.758434709952711,7.8207364256291285,0.6453262258531725,-0.15384451175717373,-0.38851994845348314,-0.1262421711512698,-0.2996777592328872,-0.3349813532096514,3.5277380888526815,-7.737405836297777,3.4005500360850647,0.6895008696203921,0.20521275370753225,-0.2621919398942209,-0.08816078695463742,0.43077120533917906,-0.33909318696808094,2.5366498938533333,-7.228960395167749,3.2707335696378577,0.7526077662209596,-2.173997773011758,-0.18280374052194068,-0.16310467493128272,0.6159547742228787,-0.5348014301435656,-1.576859859317805,-8.54762160273222,5.558873214287562,0.6655436503985035,0.30828355250267253,-0.2791783731050212,0.024510752596666106,0.5352336996729989,-0.4923862863895573
-2.622757764216587,-8.312811527317336,5.260179203115008,0.7216692453882622,-0.31453162622989816,-0.07567573948044293,0.06793117053307146,0.3934373753233639,-0.3102103145910355,3.5462708008981987,4.998024490242358,7.61609866698643,0.6223735202954532,-0.12087054466738498,-0.4655318794248733,-0.12648621862179482,-0.3021565556941054,-0.337136745966432,3.582815233196,-7.754261269376692,3.971064911215159,0.6659091576980459,0.11503929539302894,-0.1864339863634162,-0.08238669554678749,0.42308105576633204,-0.34487795774668867,2.979325856229997,-7.751352807809332,3.5671113369929683,0.7081409520001094,-2.0288350908496278,-0.14638527220510078,-0.18044636349709564,0.6076725501813128,-0.5345898654686729,-1.6490745360232446,-8.388657920564787,5.61791848431066,0.6993589972566318,0.33641522047579087,-0.2477210692803973,0.03287283628264881,0.5224809038684559,-0.4991001727153935
-2.6703127352102465,-8.17154946047034,5.429809896263114,0.7540043088546414,-0.36509023850585626,-0.07684840710367088,0.06472787100675385,0.3885755794635428,-0.3128989951525971,3.4187105602739405,5.2956400409922235,7.566440879744803,0.6784027108297966,-0.07338897493072162,-0.5075285814073934,-0.13009128007316842,-0.3179938437604016,-0.3344205492436279,3.6409712025506176,-7.602299642814735,4.238350063651781,0.6827540746707877,-0.012019372218961728,-0.13463033859757734,-0.08863644748427442,0.4175068487972548,-0.3598817834716752,3.347169504175261,-7.492029781465279,3.6370690504210206,0.7258192853448462,-1.867972753272224,-0.15394780176112732,-0.20475369004390065,0.6033245450416571,-0.5445341793943551,-1.7356385164834511,-7.898483698785576,5.765438686788253,0.735208693645568,0.3607348972534021,-0.24890967529317684,0.031001337396137363,0.5181631114568858,-0.5135073265845091
-2.7598987365299203,-7.9618198678929595,5.5507381788436465,0.8315360762650884,-0.41387820341627674,-0.09964473400323771,0.06364756904678101,0.3717528349026783,-0.3322017773902741,3.3325116802883388,5.5755364725088965,7.700686502386515,0.7319953156058989,-0.022423677119188495,-0.5236419715936403,-0.12395133849452492,-0.32225964894833314,-0.32777791877750523,3.8678572783417717,-7.634298158770685,4.150416393179616,0.7617494586449151,-0.07903316883661725,-0.09392029695343614,-0.10074958396648763,0.4054362738136503,-0.37083116049178283,3.8311869299647507,-7.512750338350966,2.915889066083225,0.7902792627253943,-1.6872768223320722,-0.11220352123347652,-0.23436735989574708,0.5874960459576116,-0.5485705456626971,-1.8630229744359184,-7.489178867292407,5.996653171830831,0.8112020871582334,0.3932302985342394,-0.2712829922807523,0.025353128000344297,0.49848277967729476,-0.5230639985296214
-2.7282508283125955,-7.7505753587185815,5.8715361411659535,0.869872915503202,-0.4492049172153797,-0.1446700686648181,0.05556940184626553,0.36839177678149754,-0.34270112817908777,3.0676064038892616,5.604032654022798,7.704158506138732,0.5795388043751761,-0.009680372390783617,-0.5822767031693499,-0.11116653123428885,-0.33664996602872077,-0.3143972775505491,3.7741911707056626,-7.50296889146213,4.171408568400363,0.8300275093666827,-0.08296067413521833,-0.04829817789080183,-0.09986010780918832,0.40308096389457654,-0.38056881094508566,3.8554131217530276,-7.370987593015717,3.3554260057406915,0.8493735323055978,-1.5415840150513755,-0.1048505535025514,-0.2534645741505358,0.5833732172612435,-0.5522352407724026,-1.9288174808263132,-7.255378142264363,6.2115158329243885,0.8485498506306682,0.4291067338234356,-0.2958789410029948,0.028857098737723214,0.4945999700649145,-0.5375145031431495
-2.4607880791978767,-7.447308595346868,6.053280918458294,0.8136680010627629,-0.49679256028796254,-0.17908202352849006,0.04451156412523986,0.356997374878034,-0.3590660334399748,2.9123948047859947,5.743037211503932,7.934298058394056,0.48201532148871445,-0.06120084509293317,-0.6678222946585731,-0.11239131002155855,-0.33790988529531996,-0.31657051600131936,3.4204033167022523,-7.4869330280760344,4.345869481140507,0.7114705215479253,-0.11663047527265295,0.022020976090945246,-0.09357198834967236,0.3918180395246297,-0.3804419555166918,3.722672518330008,-6.861832754241246,3.9578106100803394,0.7347149297118336,-1.4763248355472538,-0.060602850740779965,-0.2609385449525665,0.5731118494440081,-0.544099294793612,-1.7590803605276633,-7.197170347799283,6.222977633403931,0.7961605169252638,0.44461395595273473,-0.3042116251285546,0.040658566547997176,0.47836564733969833,-0.5374337988892526
-2.2299037733711295,-7.381322063342659,6.13930562764675,0.7925944152471387,-0.5614325835712525,-0.18335833850838382,0.04545919207502807,0.35211109241948807,-0.361756583384519,2.9658162448792296,6.595738769426385,7.69291800784723,0.33986881428279336,-0.12503255192976187,-0.6806717010438581,-0.09917376750982548,-0.35331385919427205,-0.32026700231550115,3.367990825891803,-7.7985262500278765,4.5647790753677,0.6879598497329698,-0.185902524463479,0.12585259075003272,-0.10298880741271732,0.3850678795883698,-0.3936935890601001,3.723324761361273,-6.88938846144489,4.702677284599703,0.7224479088656395,-1.47178866319361,0.02817270495411317,-0.2869430653698847,0.5668108075961047,-0.5530480271896697,-1.6445339209735244,-7.425440033987951,6.237689198065695,0.7809178609567737,0.48898213050891176,-0.2859665493386639,0.034342115732170005,0.47240135110923365,-0.5559624486664624
-2.106746538187892,-7.228059234878849,6.396968197492069,0.7110547857975533,-0.6064101192897092,-0.17800277729416542,0.03171650105953826,0.34048078852604624,-0.37055314754326685,3.0230793598600347,6.649177255708207,7.237410146013208,0.30578825029399065,-0.13788928586546192,-0.6126652337505799,-0.09502871934994687,-0.3483705355439963,-0.31743270945115004,4.081226390915935,-7.805341816618913,4.272309993279098,0.5774439749180184,-0.1332636368200529,0.21418001668076347,-0.0931170623546678,0.3745934176022128,-0.4043504870895189,3.9473034800859583,-7.41263586294201,4.333402669578634,0.6232685942350704,-1.617200035787175,0.11508058550510748,-0.29480974458541376,0.5553504282372839,-0.5561412347597943,-1.7233003459545373,-7.203801251679662,6.553146204742689,0.7101788484884448,0.501950041110726,-0.2541553469151629,0.0487465935215702,0.4564275746983997,-0.5661574794065513
-1.9007521375245675,-7.31582541314107,6.571529980229877,0.6465485012366535,-0.614203162313307,-0.1741265507037067,0.021932990247446688,0.33761453933661545,-0.3773897075535187,2.896142517678493,6.141653349615805,7.379624089477582,0.31298522832893155,-0.13359581458303585,-0.6112858260836592,-0.09739755464615021,-0.35892918352033487,-0.3057739454407062,4.305637855771314,-7.744612109125943,4.119942602793857,0.5488358836473888,0.0651729229133376,0.241018441895889,-0.09238970089370556,0.37796128329328366,-0.4073391111863257,4.071825740858061,-8.101772114022243,3.6747958683191206,0.6081599246032854,-1.8344434970582135,0.12115321927773123,-0.31569843759489524,0.5580440306467769,-0.5480492037159084,-1.692018160929002,-7.342472286512225,6.691425709671996,0.6581504613602033,0.48034915489603713,-0.22651744870321705,0.05063434716948669,0.4559503609910303,-0.5734992763420621
-1.8320602480969008,-7.253172168873257,6.691325849681102,0.6444871630178279,-0.6545528116424644,-0.1706530935265353,0.017428653883161907,0.3193368843935348,-0.38424008226582906,2.601366240840828,5.904028662347747,7.6530013502007135,0.20359114997596436,-0.1729875737985853,-0.687635474204715,-0.08908652703173175,-0.35860669717303423,-0.30263328873419104,3.49706800884059,-7.558550306751045,4.634438024659234,0.5871092955216645,0.1727191651980401,0.26523674437443034,-0.09730615764181799,0.3689826662984329,-0.4054516303510013,3.9714653468520487,-7.4874698035080645,4.1651480728547,0.6632609252010538,-1.9773608172196233,0.09508445818316029,-0.3462398109462722,0.5465683466990929,-0.5300910427648348,-1.7013477154644858,-7.134312149745309,6.610833667097384,0.664611398752069,0.5013133648073249,-0.2108128648241756,0.04904578211098459,0.44130479662334376,-0.5706168760563879
-1.7305423867018614,-6.933833723606467,6.544544698345631,0.6290258002350411,-0.7096808260975246,-0.17487107599943788,0.008624303597920479,0.317202870313527,-0.396692191884729,2.5280272017834866,6.451608173699356,7.326367707776851,0.16892314442340395,-0.24025561212003751,-0.6831943525680931,-0.0795337942917435,-0.3745267894239208,-0.30728581384660225,2.968095057055561,-7.7237334459798035,5.151800191845206,0.5028173972229625,0.10945152854691408,0.3233446345769009,-0.09248501963719578,0.36883433498085344,-0.413299935528593,3.960796831152277,-7.2156659953522535,4.629113570980112,0.6048988773484671,-2.0382595254466587,0.14414584191548876,-0.362486733766207,0.5463259910996867,-0.5215765639994305,-1.7932570830571017,-6.928441737970539,6.629473631647033,0.6504960100632826,0.5375865245248679,-0.19080556310030217,0.05703663184285553,0.4373312041044246,-0.5738731383394737
-1.5676504419763275,-6.817569651163488,6.67940112523181,0.64995651596212,-0.7155854386496163,-0.16922061037597863,-0.001397847190808335,0.31556274374403026,-0.4076776120134274,2.6576756649018356,6.718298181241534,7.149494803653003,0.13258473920806305,-0.26553433021310957,-0.635373180531257,-0.08366207454423169,-0.37691110769008007,-0.3030805658678767,3.3875855584371823,-7.530677443222192,5.24101131624597,0.48179150804518733,0.08605058186755657,0.40434810748883093,-0.08284469217214521,0.3579037221291955,-0.42199462529038223,4.3104424030101764,-7.217402563139742,3.8015872271187927,0.6122538736194553,-2.0910966076922612,0.19561666462724633,-0.37680743349756485,0.5336324424874345,-0.514088533561947,-1.90922173019112,-6.836123509474015,6.950857832135088,0.6803068056003194,0.5701827604549701,-0.16153993367535907,0.0684602929223484,0.41822318807750525,-0.5864977928716134
-1.297496459961488,-6.775641868628789,6.956024451361853,0.6011024348464518,-0.7089707965554621,-0.156094733745827,-0.004681852829804837,0.29702940959013086,-0.4106234621628656,2.66429425329135,6.903101645107882,7.1786576194760485,0.08157529275141881,-0.2791655965550293,-0.5866656933131466,-0.07216680395210227,-0.3847007029979844,-0.3037239109951593,3.5249558270673624,-7.575737221364303,5.283693094984162,0.49031981233264677,0.13619540222947477,0.45731489983886336,-0.087072682995179,0.3495578366168699,-0.42622728575579816,4.64170279083348,-7.516128577069378,3.391353455194949,0.6613460426476548,-2.126597845083761,0.2345762238364966,-0.40402523531136325,0.5297361505342705,-0.5039720166494666,-1.8851971980870925,-6.848949418040801,7.030737658647287,0.6473229685177363,0.5836405763461067,-0.13432501207433506,0.06832431806658239,0.40774100811999503,-0.5902033275397781
-1.1717255877362764,-6.5969430515776315,7.0205050788341925,0.5164096412549783,-0.719277140330754,-0.1394746202486941,-0.01445309425747623,0.2961128606715947,-0.41379528530454435,2.6126248015824136,6.655288269592104,6.885029390122036,0.03318578854733942,-0.2865185730381153,-0.5299650781690182,-0.0707116176859476,-0.3817707645092964,-0.3040214918804651,3.5686382022726773,-7.435839564541617,5.428120109202224,0.47822466760526355,0.20431004601835945,0.47459212978283893,-0.07224029155254401,0.3479093995403558,-0.4329097383218267,4.728537035706229,-7.987936199003584,3.0242701839155712,0.6512354476696175,-2.1530192358239195,0.230680455677846,-0.4160836129753949,0.5241117071561475,-0.49210461593162325,-1.960050894736225,-6.544105184029555,7.035360616256442,0.5562409813036795,0.5994582756903575,-0.11098124719817785,0.0811705764095782,0.4015224937699698,-0.5939968096952049
-1.1022244829811467,-6.619706481499293,7.064333616181656,0.4093204994687908,-0.7297563761680562,-0.14643209772002153,-0.029921542500690193,0.28181182117689413,-0.4272328795579077,2.460250024407496,6.7413473885120485,6.822600789548125,0.07039153105491586,-0.244005075433847,-0.49858950635093346,-0.05750997233125353,-0.3903154289506496,-0.3063664079799365,3.395754307844098,-7.377991464634594,5.522107328686335,0.4657761663700659,0.2648711237141288,0.5179988706570887,-0.06617535525890275,0.3458664235180688,-0.43658751832155934,5.0735084444480085,-7.894708334377592,2.1435981679675282,0.6144985761756839,-2.1106119552739515,0.12884259057750846,-0.43365973165375377,0.5228736364016232,-0.4730756957307543,-2.1087833240794325,-6.362192954255106,7.101192908895812,0.45316481329653535,0.6238208859701885,-0.10569427118952775,0.09130863682653313,0.39460711765672674,-0.5997240202897751
-1.0672022431573716,-6.60965816102791,7.252229500177104,0.4310966790383411,-0.7505804541869521,-0.15290110807846488,-0.030883427515642426,0.2845068009492307,-0.4308922825481107,2.283110369502074,6.630247252585329,7.231933988200583,0.06062457780812316,-0.21843165898912698,-0.48623212695156676,-0.06214305564126675,-0.397237222634253,-0.31063144646090063,3.059868720696357,-7.280541044484476,5.805506085366712,0.4944516800806677,0.28939157795008175,0.496402568207465,-0.05361992745444426,0.33585771072887216,-0.4477605922920656,5.4954614710161405,-7.683455396676548,1.6796458969938088,0.7104141266748671,-1.9585712890028744,0.12493566169594973,-0.4462704138110508,0.5170151656682715,-0.46608492909224514,-2.277485532200468,-6.479000351196956,7.126544013916233,0.4800735375551353,0.669914601373913,-0.09841572902401986,0.1072928961130672,0.38641291559832147,-0.6055045598568809
-1.0781652571068403,-6.454105018256392,7.235715382154995,0.41781002483645846,-0.7932252019795818,-0.15697740772674765,-0.046048319352768825,0.27971470111721564,-0.4326024582023224,2.3911317380527626,6.8420719310861005,7.365561846450581,0.05044717959874887,-0.24077384639252214,-0.4463153020061958,-0.06455360752034303,-0.40081297485502904,-0.3049481212287942,2.633894933530854,-7.306755525381066,5.948139481607569,0.5112726770456577,0.2839195041001179,0.5144970696895266,-0.056367737226796666,0.3309176075602647,-0.4523019057737005,5.452351246627972,-7.575360202251692,2.0150151723105174,0.7558350803766416,-1.7591395900269602,0.10019016656245687,-0.46642385411576065,0.5082306427351745,-0.45680364110391136,-2.459007703505558,-6.221509986580557,6.915739528970111,0.4671630477594649,0.7121888714129515,-0.09240301591741579,0.11251570257565108,0.37441080319257325,-0.6090154098186678
-0.7975951880387866,-6.331413988934203,7.1278304080575365,0.41973365072623225,-0.8347437390386304,-0.16882981250015136,-0.06126660911202578,0.2661361577404977,-0.43700645576929315,2.266086485168658,7.006574089580829,7.355741212320044,0.0118600593912079,-0.28491630148974056,-0.37785585297920726,-0.057260423520907884,-0.4004446555660857,-0.31352441786847357,2.682421198872063,-7.475007739000273,6.108225051442178,0.5421448089144911,0.3041371552981024,0.585209827773977,-0.049323038211533034,0.3262189582351702,-0.45374853644672397,5.697284263157255,-7.247299044131173,1.8402131785790663,0.8044310436056101,-1.6112477468172908,0.08180688614531839,-0.4811106911804866,0.5013796092861476,-0.4405097316063567,-2.409922166228077,-6.147385776010776,6.916495945249729,0.4746343945363171,0.7782180491823868,-0.0824759840129466,0.11736672538553185,0.3687338883693956,-0.6059046798740404
-0.5048888839804074,-6.159200932388549,7.434787270221729,0.39820548287355007,-0.8557927216091405,-0.18611918575811237,-0.06688032733531246,0.2666646719380704,-0.4453058419184311,2.206392790149302,6.963457990532092,7.1428256072466825,0.051564173436265924,-0.33566734958901434,-0.2956999098118244,-0.0635900813935645,-0.4053288444000466,-0.3124456525328568,2.5692883258203887,-7.573092309179632,6.1490502082674015,0.49724540832918673,0.3632855912599198,0.6427066607593785,-0.03695775325308476,0.3221164659285745,-0.46208181441944846,5.627940561399928,-7.418209694985384,2.063173196282199,0.805820199816061,-1.483068372572438,0.12160606518485421,-0.48837372167280546,0.5008905630178102,-0.4357759526914652,-2.574858118496733,-5.886325738453678,7.117902488641244,0.46937648158641015,0.8146652266465308,-0.08148952047667761,0.13315825138937765,0.3654228379802843,-0.6114193629828534
-0.34456887285089405,-6.083768087018632,7.373796745959095,0.23170694392244556,-0.8681382652155408,-0.17088618696568733,-0.07787761670105846,0.2650222574113461,-0.44725806120131284,2.3005836381589098,6.87590481071876,7.045804298598504,0.13451073469981392,-0.3774551707489798,-0.21501274075592547,-0.05574275721706674,-0.4140567331746946,-0.31013053702681226,2.328011243711342,-7.493984103337709,6.122121463803236,0.5372505822088873,0.45923319988973255,0.6879736011913892,-0.03238438036198949,0.31737296572148166,-0.46717111301398034,5.461733926217577,-7.78529925226987,2.2224152595602193,0.8913789043021656,-1.4347041206647884,0.10864973016785007,-0.5036109314619588,0.4935610319836415,-0.4241151540198265,-2.7937991660662562,-5.942312300285131,7.1352592836637365,0.30865360851959434,0.8309494259734218,-0.11201207429234457,0.14139772056853891,0.36070775712254577,-0.6132156823171142
-0.12437093684505902,-6.105140507297112,7.341230721221492,0.23392832015842857,-0.8750407325592626,-0.1706167928546446,-0.08862732439299362,0.263617388381346,-0.4435951169556961,2.229069137803267,6.90914373669603,6.95396808009643,0.15344948716130483,-0.41769047287637107,-0.15979885107298508,-0.06479689028983301,-0.41047091080202486,-0.31308839540954486,2.142655130962578,-7.422350502887356,6.24273955582175,0.5909720745746762,0.5440765237095004,0.729852722996968,-0.014906471144161267,0.3086232988919972,-0.47425141567321577,5.629967657425516,-7.885265988541652,1.8781970072870093,0.9594761940877511,-1.3828272347316135,0.06272442392244357,-0.5059752234652494,0.47963301527105734,-0.4170304432439971,-2.727005181775099,-6.142352388023848,6.964975386603567,0.31897552227995823,0.856954882345148,-0.09013302471925173,0.15791138857789858,0.3505243647741771,-0.6116845147378341
0.14322559192814024,-6.0310784231988865,7.41266512627649,0.1769919064261163,-0.9036770159489724,-0.13953967891323762,-0.10113864935535442,0.2534372390357226,-0.4438456363900908,2.4080222715479196,6.818700554029373,6.856289432511126,0.1616674772290802,-0.44570173977351213,-0.11810378631631303,-0.0611133415032113,-0.42472311309922606,-0.31921368283269735,1.6725145411193478,-7.100166159285964,6.298011079900602,0.6092591158706765,0.6273242457828992,0.7573786357380291,-0.008829587696502623,0.3090209798686907,-0.4779683578848123,5.638959690877211,-7.407618221062773,1.4528423910726715,0.9984970624170515,-1.243725829029515,0.012053949990107279,-0.5249778108379778,0.48282241731663833,-0.41408865658730903,-2.8086627353638787,-6.087758603262765,6.894662670980031,0.25014810761531936,0.8787255917555707,-0.0823130136995159,0.16505298050682704,0.3558198250421949,-0.6107451626896072
0.1956251350557016,-6.050755920265322,7.339666857268086,0.16323815012098852,-0.9421119884405567,-0.12894912472234102,-0.11728762793530682,0.24768079577053675,-0.4521484734208252,2.7368246254122024,6.823280635412032,6.741305576549363,0.21882263754555062,-0.44991614504716826,-0.05939517639930049,-0.06991085337625128,-0.42082785963187314,-0.3182709892086629,1.5333771865760877,-6.996736630371479,6.2879066517015,0.5974007103277447,0.702750042942277,0.8009659987100163,0.014171429072805716,0.2930551952573367,-0.49181602481183834,5.613767251064705,-7.098738077630281,1.8901568411545508,1.0113819393416386,-1.1095478425891394,-0.004055039005003674,-0.523098442663558,0.46476237378886437,-0.41829861799329465,-2.9598585361727348,-5.942401319342353,6.74842653705941,0.24392827009035686,0.8953573265197753,-0.061660038202115595,0.18755135484391458,0.342690827729952,-0.6200178331120585
0.49360091582112103,-6.156236732659423,7.467816049676464,0.152396161323714,-0.952506417021701,-0.1455711828497591,-0.12875954273792578,0.24798617293832556,-0.4450648558742008,2.9534386421976957,6.769046691568152,6.245487916665013,0.2538405118467506,-0.434449363973144,0.010550646554136569,-0.057897000746590835,-0.43218845522082283,-0.3134851506345845,1.463344315146258,-7.0497802682863675,6.455516014348839,0.594613329179,0.7815759887528967,0.8319440005725134,0.022688706645158613,0.2963349741217402,-0.49779320335661226,5.889620853545657,-7.252038588129697,1.8238346554328775,1.0318658130773877,-1.0436199517575067,-0.018854629717932846,-0.5368842427297622,0.4684210078538761,-0.40858878512588753,-3.4164393028723787,-5.7552283011413286,6.941791708914334,0.2457718003579968,0.8927612273868972,-0.06354103273814309,0.193238002760643,0.3457879332938342,-0.6151684864965504
0.8946469122103031,-6.110081433439127,7.385362267664399,0.0996403584918495,-0.90668505957606,-0.1560375729821898,-0.14434344405662036,0.25491205018307145,-0.4426144995572745,2.865140135338076,6.598910293435689,5.833096739076461,0.3076429020006519,-0.3960481847873153,0.05952608101739844,-0.07689907852618053,-0.43502144349296223,-0.3040938115123749,1.3997242535819763,-7.02874974591072,6.799763167728739,0.5471145195487012,0.8213336461887495,0.814559060396659,0.05292153585218068,0.2816008038973321,-0.4929143781970888,6.753135418667486,-7.427049401545418,0.7722172853190953,0.9965022365239883,-0.8903157099676476,-0.027036794992983115,-0.5272721707570377,0.4530136891525101,-0.40044300058259746,-3.5452183475376455,-5.775574292839402,7.006886826088537,0.20317611815520398,0.8407298750609989,-0.09503938620014062,0.21985700549418674,0.3386453118372196,-0.6058953784307993
1.1282002290866544,-5.922894666435439,7.323290400318865,0.0609238294541744,-0.8558119028525089,-0.15586732241431034,-0.16634184594238452,0.2511477112344985,-0.4560413687289268,2.8857102774379406,6.667256006913824,5.893299270951422,0.2790673090339863,-0.3537269422470974,0.06838078273205288,-0.07590152278196247,-0.4423455350570165,-0.30422086385798885,1.0303689919442967,-6.644922388324971,6.9661487773207424,0.5223186802221675,0.7903980814011622,0.7524665913576064,0.052888521141999795,0.2803266646068955,-0.49631276665303037,7.1984568926569565,-7.415127205450546,0.6418471926056197,0.936086709602411,-0.5928836115545665,-0.06270388453473494,-0.5467497646419576,0.4476553368253029,-0.39580336322697973,-3.566756266511209,-5.6923235298547,6.837058986077681,0.17182421232396974,0.7826227360338985,-0.11128666045875482,0.21504007211278656,0.34160598876603165,-0.6014483390873312
1.2358671971655577,-5.877202336263062,7.268597120794641,-0.008935042034003788,-0.8334753400016761,-0.14355714372312126,-0.16735100339653178,0.24528747994097616,-0.44921038326421087,2.993194500620833,6.814062215138147,6.095359303123962,0.3180300876722387,-0.30442009003329923,0.073674020640292,-0.08244243551327303,-0.4559908701219975,-0.3012859131589517,0.7216433802617377,-6.548692389461845,6.87977760384236,0.4928001394445131,0.7228721328779069,0.705884788586646,0.0688942311022795,0.26722581758304353,-0.50111643555555,6.7656410993561025,-7.026102183566787,1.884851519113253,0.8572209672647717,-0.3742707777306376,-0.13717871851913774,-0.5446230084895889,0.4393609502114797,-0.400485725127644,-3.5168124745605995,-5.519852275689727,6.513483699395653,0.09707627185424328,0.7117038713293589,-0.15146665624712463,0.22648847032295977,0.3390487898246244,-0.6015529908688206
1.1599529839085534,-5.952140091772176,7.259909822835747,0.007000309185505499,-0.8795780973829049,-0.18632850849394006,-0.18417569830848562,0.24880109672704595,-0.44505281435915084,3.0893517121127587,7.009608616868855,6.195617769924875,0.32987827556434235,-0.23204266302898394,0.07089157173538513,-0.08095467334115222,-0.45761026128303345,-0.29613643056486855,0.47942327205704643,-6.79986252586574,6.760484053617899,0.4403644579603299,0.7145251969079953,0.6520968701457596,0.08250103443266991,0.25639485238641935,-0.5020292909863782,6.380661439270118,-6.719712087322702,2.683907244803657,0.7809170696520288,-0.33924545184470384,-0.12142030157173528,-0.5507638974898449,0.42203642969029703,-0.40190377343347083,-3.264393829714396,-5.360811619222927,6.08872928190407,0.14090810943794088,0.6669099141036768,-0.16764724137560907,0.23689563139711703,0.32622976367451667,-0.5970534753460784
1.3420065835384956,-6.0846823024714345,7.270977514995097,-0.002870330197007702,-0.9841320669656952,-0.24211970929354074,-0.20104260950687655,0.24523679868035259,-0.4430995465690275,3.3203510203989883,7.12287833611015,5.943660790209524,0.35321494074788823,-0.16908300661284037,0.09548579670939533,-0.09169501727801922,-0.455652374955309,-0.2939347988414612,0.2899843270304904,-6.472191120644713,6.902540030555521,0.38974917274119225,0.7249310483860952,0.6228590841967333,0.09689393613183094,0.25363964729637317,-0.5016099932519806,6.350214414206788,-6.519157157604261,3.224241202837413,0.749786352998393,-0.40239570064540586,-0.07789009919407028,-0.5527089755249794,0.4183746652874967,-0.40090924394893,-3.4114742966854648,-5.523232700421512,6.135696433444855,0.18509291356465027,0.6580993834289464,-0.20076113351341063,0.24672026112501286,0.3300272263315337,-0.5946763165212821
1.7396455455657627,-6.166757730127006,7.25766516065663,-0.05257887426289399,-1.0452659944330716,-0.27572406459554577,-0.21671565362791548,0.23677498564677907,-0.4328498844202144,3.235538180810975,6.978742566861094,5.841267169563505,0.3812613357648454,-0.10396117545960203,0.14172316635562324,-0.08288025477194227,-0.45797863215359264,-0.28855464871261777,0.325616300594725,-6.571590969323178,7.179114585103867,0.38108098437370036,0.742497837425698,0.6289593381474936,0.10225301311191531,0.25600166136997576,-0.504862927533154,6.726386653264017,-7.016479676125015,2.543280165543173,0.7302065382953389,-0.4812826459635004,-0.1104826047217835,-0.5668741513615264,0.4183909303815583,-0.40121135811016506,-3.6779978889067118,-5.596805728714591,6.418975356083424,0.17213228576970596,0.6223598612281207,-0.2540912310289563,0.24457997681272903,0.3334559686155427,-0.5919593941056727
1.8891276691827676,-5.977137342465446,7.171314618399905,-0.12062003399312973,-1.050897238173977,-0.3032002024517849,-0.2261587105524079,0.2500149170825813,-0.4328361550338213,3.172153789004092,6.757485982181195,5.900600463792447,0.43088217768258913,-0.06711387159309716,0.18201242238181145,-0.09285334030295353,-0.47170302142061304,-0.2897582322113534,-0.07134091117160193,-6.833839139862858,7.216196789761811,0.3391482008011141,0.7498803629962107,0.5605943609804138,0.12519554383295478,0.2500683929814828,-0.5017740333387424,7.001291436820026,-7.140014010585447,1.3491477836853483,0.6425925452811959,-0.36919471681253824,-0.1321730229235292,-0.5567943396628093,0.4127537796399785,-0.3954940289579201,-4.014464652354651,-5.3462530883852875,6.510189579167785,0.14793196807058506,0.574512818578167,-0.3268060659797084,0.25809063899174917,0.33573245386737344,-0.5847356180583003
2.1351778372237082,-5.877743658623128,6.930386871313195,-0.15897978591601364,-1.0495177236837026,-0.3472301587677515,-0.24692056831652584,0.24792840794349696,-0.4194067699475616,3.5725731256578825,6.8259372047530915,6.136292157969716,0.5431848101152343,-0.06148160589006877,0.18557017922407415,-0.09088965598976176,-0.47907676547740063,-0.2930612235076051,-0.6035398468428042,-6.585187297475669,7.167751129255469,0.3047620067894949,0.7382214097052632,0.5100184611015702,0.13042790729227224,0.23527038928859412,-0.5093980264089681,6.866529165213457,-6.714990274221762,2.501689601210374,0.5937894252693586,-0.2071031555477525,-0.12129815755174646,-0.5671616426644734,0.3993515464674026,-0.4029535621510623,-3.768197967321642,-5.342185782504242,6.273125596279783,0.16584907623318446,0.5485458266258244,-0.37457800618561465,0.25797144306225084,0.3267131707317679,-0.5881902097925249
2.606743564847662,-6.072790101412471,6.825944688811507,-0.12812703278623097,-1.08266735279894,-0.4247170383463929,-0.26601155907235474,0.23973706463138256,-0.41623617178571043,3.6164309745497287,6.979828200848267,6.001649352984024,0.7598105580068004,-0.07737065002569922,0.2070970802522223,-0.10061285749083221,-0.47915178482833126,-0.2810619795869838,-0.8564665977265994,-6.805688681996161,7.048505406389143,0.3505362565074808,0.7202021193610606,0.5281228755976759,0.14595368816559184,0.23039972676151996,-0.5189650470957347,6.522696771512271,-7.149321009804899,3.3900566334372146,0.6209476845493125,-0.22058225517977928,-0.16766268704351087,-0.5653576124086375,0.39229022637977506,-0.41373384074004577,-3.538556091969075,-5.313302709003795,6.226985223473271,0.26186287685462245,0.48553880559047974,-0.38813767330831356,0.2640129401534388,0.32570220780045517,-0.594592300298655
2.8012930033492855,-6.088115275441893,6.661004235902978,-0.05501872736613936,-1.1061422488504928,-0.5368529368979781,-0.27163087275357145,0.23853702387876446,-0.4025640883327708,3.0244085631612596,7.328241912966407,5.4297687665957115,0.9069401398537187,-0.07440397423109388,0.2724366480904067,-0.09586201319092955,-0.4946930594288554,-0.26201895282574694,-1.0328400943020613,-6.589298138456209,7.394989469213438,0.4476232473422535,0.7151517105950143,0.5795737419844008,0.15106808024263665,0.23227893708201494,-0.5219645137572608,6.861362787971034,-6.918884949297474,3.2470656242591165,0.6985068024893057,-0.26105216726178915,-0.24635664225891862,-0.5731480884938696,0.3937608420492718,-0.41216362867855266,-3.7134198528593623,-5.447770618720629,6.385281288240183,0.4159008524840068,0.4166084840914065,-0.37373834210733137,0.2552514142959763,0.3304384143464301,-0.5969417807099122
2.9107904106277194,-5.69604560764322,6.60184931999111,-0.061052050459459536,-1.1234066310545017,-0.5720531080987765,-0.2995023669496934,0.23186380818322722,-0.4008553447720298,3.210427466162137,7.187380598679344,5.224219054147185,0.9398034112563989,-0.06292428417185171,0.3102653242747184,-0.10215257657357178,-0.5003851528050758,-0.2506704615019916,-1.3862248875097996,-6.17957505574102,7.63158989293429,0.49384464091265706,0.7240703638221329,0.5898533842458931,0.17007788897191137,0.21689567384198521,-0.515523201921591,7.215845475462941,-6.77218372962954,2.4816433572179393,0.7081416487778366,-0.21352356345217438,-0.3250960781275166,-0.5689754928746367,0.3739747896420886,-0.40883835802211604,-3.665066594914788,-5.537493399854682,6.259315488446285,0.45054879769233025,0.37601280534623666,-0.3941972520993124,0.2668948904334791,0.3183360166887307,-0.5914724055746416
3.414983082110238,-5.675834204126508,6.485618338096413,-0.08552287358962202,-1.1622114175932725,-0.5647976966691787,-0.31147046152745433,0.23070613282787347,-0.39157692906947705,3.410416160250194,7.258465754332389,5.365581660492484,0.9746826816083991,-0.08489047084966209,0.3321361053432505,-0.11773073682786374,-0.5098667390969698,-0.24533223712669908,-1.5527231510462431,-6.253257209843712,7.3699838696490145,0.47729829726032874,0.7135190338467066,0.5430602900386413,0.18323381734072106,0.2075940793725928,-0.5125498188178326,7.150808590002813,-6.2551238486689815,2.004694863947755,0.643268779243447,-0.03385780647504634,-0.352955757239266,-0.5738766096642854,0.36592451055320696,-0.40952267359649486,-3.55317553030908,-5.538509477649165,6.422218103042604,0.43484520246133895,0.31793289649888345,-0.40357465686312294,0.2656675936465964,0.3149163104127086,-0.5880583697542902
3.756008690348118,-5.578328521928493,6.301619539420758,-0.04885805770463602,-1.1658561634764748,-0.6093064503763649,-0.3363612975853515,0.23255917464923317,-0.388396193722552,3.3806778964969837,7.606667591214529,4.980153593893997,1.0293980221059926,-0.13329191798954648,0.37977678341354426,-0.12667635855256656,-0.5154162105984699,-0.22494372670998247,-2.0486291887873507,-6.245077248400057,7.416666200671529,0.39578444044541833,0.7031811922499699,0.515175091594322,0.18532370816141647,0.20084635733494605,-0.5217402029588916,7.03463842383046,-5.668362742655449,2.546431784534919,0.5834788145678392,0.15015990374320248,-0.28109694675563657,-0.5840581308385285,0.35692644358560666,-0.42185855574675146,-3.778141646236134,-5.283974690646472,6.76093146933214,0.5158809359168975,0.2724490287586894,-0.35886311710309904,0.25575106268766334,0.3092014322980084,-0.5992321022942537
4.028719663417241,-5.642686482247813,6.348797511020105,-0.0684443905123033,-1.1544381832205486,-0.6252932805506857,-0.34745149338209824,0.21429307698920133,-0.3657052010500398,3.430101374000649,7.611094782360952,4.321753766321118,1.0777429148189654,-0.09596294168127409,0.42136461030252204,-0.12366479109576384,-0.5293762367408846,-0.21324600391636886,-2.1143347174505256,-5.775259202992133,7.649016450271504,0.3587118597073186,0.7018848100062386,0.5397988481618161,0.19415264460037626,0.19532529321736078,-0.5126882657426752,7.203049555403801,-5.76310398015251,3.1994120370523382,0.6008353291400816,0.28289671285861934,-0.22780829654979126,-0.5862733855053125,0.3498502549646767,-0.4225752351467014,-3.7881104002436925,-5.447390533829754,6.690533295163815,0.5294660187503261,0.22108750271580982,-0.36440505791435723,0.24987156659691706,0.3033824278594696,-0.5945687562784443
4.003242967502228,-5.676840002897526,6.2782552411566845,-0.08573355922285056,-1.1729848236326628,-0.6227032806043604,-0.3703837992767944,0.21711245116375244,-0.3635010046849314,3.474246177046049,7.435475450350335,3.917555277637367,1.1208238938990662,0.023762273260429862,0.4602145297189474,-0.1316273778718026,-0.5296912986496509,-0.18659871083005902,-1.725266454251933,-5.747031008707657,7.744316261877135,0.35128492756563173,0.6957304435010845,0.5126873716457165,0.21232614746594955,0.17901131154005404,-0.5191669070684086,7.408379075761484,-6.106716699334872,3.046530605378027,0.5694219938250832,0.3300887678248666,-0.24507932554201314,-0.5740009517595761,0.3342354303129236,-0.4349745696470491,-3.735099223509129,-5.579585612454586,6.74329856955513,0.5288976249208398,0.17256155865353848,-0.37379713991569824,0.25479004320169646,0.2896951533249532,-0.6032113161830683
4.243897478716201,-5.542415189374797,6.079259837883787,-0.060431750356702986,-1.1968199081391382,-0.6323696960035715,-0.4014269947961436,0.21044816633208377,-0.35080460095671573,3.6852763280286083,7.586854641270775,3.994245133893273,1.1103053611945057,0.06783362578141654,0.48897126810691516,-0.13963391843750353,-0.5381419380563801,-0.1793502161044471,-1.782264078122815,-5.779916611537387,7.703348399575097,0.30460183475001956,0.6622420077222663,0.38295536656887785,0.22099905256288882,0.17946499498999888,-0.5028818406728813,7.612784456253494,-5.9959932440358,2.7800710231417134,0.4339340837949326,0.38223755669437093,-0.2318663790081907,-0.5736524215878379,0.33226658921340374,-0.4269262430231956,-3.8864329512572353,-5.617702674362303,6.872457923341008,0.5606585076496207,0.19006130871288573,-0.32954953521048286,0.254885388681557,0.28915653058243157,-0.5910068175132862
5.006883650691618,-5.319113574973751,5.7334939403082945,-0.03629847701943423,-1.169821533323585,-0.6248035558153665,-0.4171174675334866,0.19880675246671767,-0.33421076669534155,4.082357285733857,7.900152331326134,3.9206171780418617,1.1866015830357188,0.03975003070722805,0.5270089769557067,-0.15375980721062646,-0.5365335246275259,-0.16809590765784582,-2.3872941441701885,-5.502517306552941,7.701267843914409,0.23404411414928433,0.604495897153216,0.3025885096017448,0.23138777853842296,0.1733927010989078,-0.5128793065270606,7.461254545744298,-5.173019203017919,3.110732229614098,0.33717650954866674,0.4680239470487391,-0.16573095409879499,-0.5714637574084611,0.3244868517962687,-0.44552564626174984,-3.9194689118870536,-5.410213794216315,7.0998308591139985,0.5762842460894959,0.17319192160522484,-0.27697765575177896,0.24933841627654593,0.28071161354263213,-0.6019827609956915
5.521823331006112,-5.364623208963198,5.73912023533738,0.012033517863487104,-1.1229170088475078,-0.6369566217787486,-0.42835907989576394,0.19642072726026527,-0.3215145927752005,4.318064993651331,7.8799912525137765,3.493547323515213,1.3864156038013533,0.05248463903092908,0.5869375501600846,-0.1555795009257272,-0.5440692580853929,-0.1362222266963502,-2.479746560031941,-5.11783686199263,7.417092121073406,0.22051171160467412,0.5984066462525103,0.3574428544145204,0.233343173127147,0.1777346271696673,-0.5156476217183725,6.8639975126995765,-4.829181639874571,2.927694570026622,0.3837061712533937,0.5874076280916135,-0.1396383435874472,-0.5777274525047057,0.32647053151674366,-0.45789170292941306,-3.9329044205242636,-5.20518884326653,7.403949823752342,0.6100204339912904,0.11546019450921727,-0.21475267958973515,0.2392512247826702,0.2798697417769912,-0.6102047467470836
5.495077873911532,-5.452623071018686,5.6347262151014625,0.09140084105991061,-1.072013334475858,-0.6863714756700583,-0.4430813209953532,0.18355497076955274,-0.30760704863803334,4.569001452362553,7.6389180338181975,3.222651830442286,1.5719976202356793,0.11878905633639793,0.6382168007684137,-0.15863824627036663,-0.5601178708948088,-0.116900019839728,-2.4508510443612797,-5.1114959367283515,7.592343504377274,0.27534190639330414,0.6576884107952065,0.4532842062264874,0.24900134750560052,0.16636675816395824,-0.5033830292505005,7.031593392513615,-5.358495972004201,2.3153337138172123,0.4856037116656882,0.775198624674464,-0.18775351623958042,-0.5640764483923627,0.31815617740008284,-0.4588199988669033,-4.177016467743707,-5.128216458205909,7.298300861966568,0.6876283397297646,0.05058254879384554,-0.13728406911220825,0.2445414695928374,0.2636621668385571,-0.6003050328894239
5.577953713069588,-5.375829467357819,5.450310665055851,0.17852038951996635,-1.0214008319581078,-0.7701261863376186,-0.45144941059877075,0.1716265731496946,-0.2912589653983463,4.877108430106414,7.869446553066012,3.383818767473284,1.7222026274312332,0.18373720421336845,0.6625157600410814,-0.1742288924914406,-0.5438974633969107,-0.09294203960325059,-2.4752795435917103,-5.667472936981108,7.946448682765412,0.30552082076406634,0.642928379157367,0.4667871620307615,0.26401825471652407,0.14696594841501934,-0.5053953465475464,7.721148558066538,-5.562880869347896,2.750742113164409,0.4989759863077436,0.9956977703319286,-0.2369338599677982,-0.5501588507382604,0.29620101636423274,-0.475647574016889,-4.0495344580147306,-4.790809149982755,7.2884173474566385,0.7908533920277842,0.021647077519374145,-0.06361089913700374,0.246438169756616,0.24048188452466412,-0.6084741422250213
6.153673788923678,-5.3164079477013955,5.319043021524468,0.2732019134256386,-0.9812700039442778,-0.8888457983771803,-0.4746847148382007,0.1644373464995483,-0.28881862811142156,4.932367048188516,8.125757505285188,3.160815902780572,1.8846076239555942,0.1746212460735414,0.6688268303239436,-0.1892411400460113,-0.5594414557142651,-0.0704128197943377,-3.0641710795311456,-5.720169796905256,7.881408335033963,0.31027245874811493,0.5669607998063573,0.4612871997566537,0.2694684405940343,0.1647259075040471,-0.5076679796144203,7.501339899469256,-5.352320794191908,3.2111462672941995,0.4962173630182308,1.178030457554778,-0.19744054319595475,-0.5433280338249965,0.3147869739075762,-0.49621107329338615,-3.975456429945065,-4.653731105162602,7.484626973029885,0.9343535039030196,-0.0313424721213544,0.02320020020327468,0.23767575792421322,0.25012613017682683,-0.616907507607839
6.610492876499988,-5.104148750437114,5.390537970546555,0.3646401275143586,-0.9443043786352201,-0.9960165646186128,-0.4823369033452048,0.1498251132943959,-0.2785770858051322,4.6426874658176045,8.212092151346305,2.4374600856601756,2.0040311621530065,0.18772193750947605,0.6707292028720386,-0.19693223612698704,-0.5598712673633562,-0.035950435198673025,-3.5837169939306857,-5.352825707807386,7.64886243085459,0.36075617921622083,0.5151695316029484,0.5493933713145005,0.2742125644139657,0.14316883253954416,-0.5105430499015541,6.827304780091809,-5.285882188973558,3.4918764118395793,0.5958486768942218,1.4205747471472256,-0.22088991136310596,-0.5353847365918687,0.28845922191132245,-0.5212714324665891,-4.171149021575681,-4.430592196810474,7.538512553636519,1.056498721500116,-0.16498138268004184,0.09918760355307404,0.2304620589564001,0.21848810423732937,-0.6240598360296509
6.725616135831086,-4.698174110103001,5.50673737326263,0.4123528415176018,-0.9270237970973929,-1.063140932058159,-0.5020418388096946,0.12014420309280324,-0.2666365130824658,4.765360823162412,8.0308037882409,1.9200255312725538,1.993174397430754,0.2440273012839362,0.6213151537767523,-0.2063756561205679,-0.5550604136015261,-0.009139000345104979,-3.4244955315607686,-5.235548276597842,7.698197837254813,0.408842031422188,0.48272237113370176,0.6025021638738199,0.2820335456019835,0.132519159787702,-0.5018913647168433,6.577659725911468,-5.3634374994883025,4.3641770934461315,0.6584993239261383,1.629532108095828,-0.27726386046974366,-0.5189954604666283,0.27992602522535254,-0.5368843761803538,-4.120555855499115,-4.293946886364512,7.900612311499564,1.1234058655069867,-0.2977818308473104,0.13994571686093502,0.22268457764141245,0.19953142456615158,-0.6262717045246958
6.882528355973059,-4.590668108344008,5.29803407108005,0.4480915479793233,-0.9198571835392256,-1.092711853848844,-0.517984501348835,0.10728860185131485,-0.2549257116204422,4.942174365453834,7.898584568734167,1.8119880686802208,1.858331745237036,0.30251519772541224,0.5586484383433173,-0.20949886084371483,-0.5530901034222621,0.007198376312571759,-3.0841272272272784,-5.348894335152312,7.428185213860441,0.4305850862205702,0.42529895544421575,0.5710901540593072,0.28980870128398206,0.1307108744072908,-0.5055860842060165,6.237193991823317,-5.04413143866014,4.826084010424237,0.650958345628418,1.6947904327396357,-0.2828971867514959,-0.4995179979843024,0.27897207182481076,-0.559604810818784,-3.9987732952024384,-4.279049765052792,8.184005810017455,1.1536607300172228,-0.36079093474301016,0.17491823655466285,0.2171463332202891,0.18715642724314577,-0.6314047797226152
7.033916242379959,-4.2068923404174825,5.160940176516302,0.5262296768758385,-0.9022429827455833,-1.1554591344987082,-0.5171338114008144,0.08554595613585754,-0.24566826149071197,4.863543810790187,8.086808474680424,1.4795312221262327,1.7529778424485905,0.2860046544688821,0.5165096545732913,-0.21814962766801543,-0.5564109618100846,0.04415431556351771,-3.4227768482399648,-5.354291563013619,7.661491797686053,0.3656476587742381,0.3483333626600854,0.5023601710385048,0.29871735611726125,0.12002820685401433,-0.5142789604278238,6.406913301476654,-4.811580869443371,5.025632209485896,0.5585991429783642,1.73817022250038,-0.1768459844803291,-0.477019179317363,0.26973395296554176,-0.5933688864989236,-4.101734233620517,-3.801909155553904,8.274284190846412,1.2376859120616677,-0.377926858413386,0.269200946859156,0.2121701667242555,0.16872513796029248,-0.6497521612626478
7.778720439591128,-3.804429127226621,5.008240765653935,0.5168578617411201,-0.8590533260953459,-1.1718617311990864,-0.5375568702052842,0.05831471389560496,-0.23641035977802044,4.936790269978551,7.931025317214502,0.7631986819018511,1.7305056576256375,0.22105309146481034,0.45549126606940554,-0.22664073397820286,-0.5529565723598329,0.06268278493243977,-3.951674240139262,-5.034585667608398,7.808600052339785,0.347116432518621,0.22304337411698466,0.4968441686515567,0.3033571997250725,0.10889540716460458,-0.506327150987795,6.297345131238107,-4.89258789713426,4.888711287811141,0.5538675129165104,1.9035129188346116,-0.14249208896782928,-0.4547202391423247,0.25532693289846414,-0.6046763607021612,-4.025289583626113,-3.545803632672135,8.540011212170345,1.2453861219276443,-0.44211054474735195,0.28819117873248984,0.20557769822362937,0.14020435706130374,-0.6446891405259598
7.980391281534661,-3.408369131797239,4.907494568667326,0.5284674322115296,-0.8296927433800212,-1.1376519171962427,-0.5486377785888893,0.0417654138885919,-0.22250684242908933,5.074271459590569,7.854426668728925,0.26216079014310667,1.6970653643813771,0.2168611330768017,0.39631673047671107,-0.2383476072574732,-0.5385697479694256,0.07835667235651836,-3.6302466151581188,-4.603079270496749,7.8260867959104035,0.3975440072974067,0.09528084367278646,0.5252075274516935,0.30202286332709893,0.1016706931883483,-0.5159715820927556,5.779214212238796,-4.478362083306642,5.541903005123736,0.6070723882093536,2.1056712128206194,-0.16005282228794043,-0.42850333411089403,0.24583335319252841,-0.6340943382998818,-3.962845194119787,-3.4680886138014007,8.60044132603838,1.219822751767442,-0.5803481107866377,0.29611788899505187,0.19237854169374718,0.12132700360074122,-0.6529594030504904
7.9557167975876775,-3.3120133382918233,4.857484471477941,0.5685237606094949,-0.7973079683871406,-1.0966522131737155,-0.5592213051833288,0.02667494492989667,-0.20494012479512463,5.198842254017419,8.064318500727575,0.16241561423412512,1.5536234820427657,0.24537692840976136,0.33361716605490077,-0.2323661590554479,-0.5458866230622993,0.10726959905517294,-3.224689716123215,-4.587950289897516,7.849767024334574,0.4172197507633028,-0.012016662372417197,0.5288877086352403,0.30198834295828286,0.10329189084652311,-0.5216124537006959,5.394010527067656,-4.533247333224473,6.4017532899321035,0.6325304153533944,2.1555790378173474,-0.17301950833446839,-0.40562951346192344,0.24585500439441618,-0.6585666085081029,-3.755569491787283,-3.4176826062974386,8.901514677277039,1.175657391883695,-0.6650105866145447,0.36618833036677556,0.17315305247350649,0.1110605662867437,-0.6623664836879768
8.068237280960961,-3.1841160048770965,4.876744504287999,0.5693196258740642,-0.7538909797996818,-1.0549846590521075,-0.565724637258172,9.512088115798246e-05,-0.19739448536149085,5.222045011211507,8.142172979112106,-0.04453270704455753,1.29601279774532,0.24990910393081392,0.292051901219365,-0.24477060224837968,-0.5397542798695985,0.12601211326859327,-3.411664904851836,-4.78661814612974,7.810623955293059,0.4125075191931589,-0.0822500666982916,0.4742203268758439,0.3114100636261728,0.08178960046749673,-0.5193969189769134,4.824959063184928,-4.2697980652192875,7.083366095588258,0.5724062903347541,2.1203093618707327,-0.12865584707478755,-0.3677531750784847,0.2272862268158212,-0.6732608424418581,-3.948223996023824,-3.1329912857061384,9.093501555920747,1.1254018806802548,-0.6825476338531534,0.39247847165265876,0.17063657264466578,0.07959152674879337,-0.6627204057556081
8.356691077651353,-2.9173330773929607,4.86228239407227,0.49297584286132445,-0.6939403042939817,-0.974353600794672,-0.5672242695590864,-0.006005003902828226,-0.19080761367746277,5.110309446907262,7.776760909770681,-0.1891640591789776,1.0964288482436997,0.25224255502196913,0.22875533875077644,-0.24451570814190726,-0.5302866909171988,0.13733095744204527,-3.588637955598821,-4.536692852505818,7.848417832115919,0.2893621908409616,-0.14417811724006505,0.4143520487385443,0.3023435622436391,0.07863079890602266,-0.5214745857874835,4.375267040214552,-4.001689357481012,7.2250001283760135,0.45761208212115634,2.0954636047313566,-0.01050813218455229,-0.344022092004891,0.22093974053265392,-0.6877457997428569,-3.9765192708945767,-2.8962733898196418,9.211909220499772,1.0311927920214305,-0.7030022545892708,0.33706007926695913,0.15244916117573876,0.0665858499493584,-0.66140392520179
8.271704810977223,-2.764422706855336,4.882185050097026,0.4306203334878626,-0.6300678840450407,-0.8894499013445373,-0.5731915334812042,-0.024529897757738315,-0.18545190495236338,5.2645588518670285,7.77409996845519,-0.20362002368755988,0.9923157022798642,0.260945330719573,0.16946599750236796,-0.2530107628647774,-0.5238784379658773,0.1572756894374199,-3.4294543768913757,-4.308991192971274,7.870636284877199,0.2465753422042068,-0.2181687938709332,0.38214225289253295,0.30668918353597946,0.07923223242150247,-0.5283547455465308,4.216449810910979,-4.3621218038359455,7.503908627636853,0.4079745769937637,2.105870142160962,0.03296318168395522,-0.3083444433365833,0.22093159987840114,-0.704084428853971,-4.012935170905892,-2.7591287763921226,9.194892684683623,0.9357635378604567,-0.7390654475894681,0.28925426555240347,0.14127642200999996,0.05378542816700698,-0.6682015546950967
8.230766702241226,-2.6923071889118515,4.778012644773626,0.36459394409089385,-0.5511831921731162,-0.8206660780902912,-0.5765280241297617,-0.05234985993250695,-0.17741901731798612,5.448901835603849,7.722558976343457,-0.4335757793040367,0.9352792761794131,0.29360176271510835,0.14303724043721727,-0.25201405565364365,-0.5200643226902637,0.16624335141809268,-3.5762294603731415,-4.449723764751968,7.691360332493974,0.2786101245559322,-0.29667487760871886,0.35941646146883643,0.2988178152555362,0.06997986242046038,-0.5293704963808634,3.2899751432593844,-4.569189787774358,8.227648376417827,0.41381929140727003,2.0639483648070245,0.010148398671367109,-0.2816152146206662,0.21359555893599244,-0.7132391739374507,-3.9340226249336196,-2.448773007859025,9.380469146357525,0.8579496405263026,-0.7257011158233265,0.22957635158823897,0.1215993980641513,0.03614461163206641,-0.6642069581428691
8.272488544916037,-2.3598107072550567,4.5233313860212965,0.342102945644985,-0.4660274326202838,-0.8156795811348788,-0.5809799471579303,-0.0625886370068784,-0.16522022941210845,5.54354296602913,7.513690838484657,-0.613201933416466,0.9762466742234394,0.3444213024842292,0.1201545124277107,-0.2600461851074949,-0.5137749673096998,0.1788644205619311,-3.4857475285297643,-4.248060912438394,7.654944322695478,0.29685590814739193,-0.325968939563598,0.32998420784602794,0.2975677568412737,0.06678626421192824,-0.5310202361916795,2.711552187634876,-4.35164535103372,8.707195599395716,0.4049053561069721,1.9473807778991616,0.004507425622332747,-0.24689078810171985,0.20894523766405249,-0.7273770791570382,-3.6131416224844255,-1.886538119797338,9.276649982449976,0.84948503064626,-0.6676465118217545,0.19765841909255027,0.11388649937254466,0.025988569911902577,-0.6693129623880009
8.403117835923782,-2.1114489264501737,4.436837051592725,0.39780150029520767,-0.3920102109524986,-0.8780200056478551,-0.5801129782436547,-0.08115102264073291,-0.1630399508790418,5.461102650137941,7.525547209933363,-0.6295715783066658,1.038760092155102,0.38278451030352023,0.06053320772615975,-0.2624083383702725,-0.5243002488126791,0.19247588834634707,-3.2882665270007694,-4.061171345027894,7.580963355215855,0.36951823546297224,-0.31480936005498356,0.32497631524790094,0.2906605630401257,0.061125370187246814,-0.5362501228668103,2.387200390575593,-4.325923159590827,8.958290707939849,0.45627880126783965,1.7788803313570218,-0.02510821241575105,-0.2221027026968141,0.20258689067405702,-0.7357723940715554,-3.369002842740952,-1.5280872887143897,9.162271148449488,0.9218542308190485,-0.6717136371512442,0.23920286539894742,0.09886040948798827,0.012220068661103204,-0.6685146359585445
8.572653610205256,-1.845551894915809,4.447563443530118,0.4767760777739029,-0.3319824114450185,-0.9539996577749301,-0.5908989826931583,-0.088907783571594,-0.15376765855854452,5.482765361816347,7.7105187646392,-0.653538652083904,1.0367481578443556,0.3793143777826564,0.01926569486656419,-0.2584966546501414,-0.5106368448835619,0.20590998200924265,-3.3219039439972007,-4.103680661266125,7.697223090888899,0.4983810391508589,-0.32733701923101555,0.33124025444511396,0.28683384538437223,0.03521647502868332,-0.5392348033598797,2.344109051468488,-4.362431722140087,9.026628571335944,0.5555602163067989,1.6011568166319359,-0.08285483025284965,-0.19826469950877704,0.1808410271060291,-0.7407657027629794,-3.2773405072275024,-1.3303079728265508,9.42142387596004,1.0124321107623024,-0.7040445602661762,0.2997972757147667,0.08393483075042513,-0.017672062946097536,-0.6655859481420313
8.64139400363007,-1.6425311007625751,4.35464832905356,0.49758130255037547,-0.25920205515140826,-0.9706250409517354,-0.5858654396946509,-0.10480783455401478,-0.1525618581444642,5.595799330864213,7.874840339169026,-1.0258001358212425,1.0643468639658602,0.3684027052095731,0.02031921234465233,-0.27169623835152396,-0.5033200949028858,0.20778717401606345,-3.713936217786674,-4.015229748674467,7.874446965587424,0.5648327811860736,-0.3661635908445229,0.3395151558479385,0.286606122261543,0.034042661013908876,-0.5362842813996077,1.902811406167954,-3.8023705418450575,8.72754133253639,0.6216161560676535,1.5183980573526887,-0.0920165085854477,-0.16801525194819203,0.17837010970839928,-0.7426325909475016,-3.237203332320298,-1.2867294513091054,9.538039953611545,1.038622504352308,-0.7107244916978834,0.2964452896365946,0.07601386144455516,-0.02956189349450708,-0.6641051585602293
8.892690546616958,-1.2862150687259102,4.355569616459918,0.5143307324070288,-0.17646744892544577,-0.9750567182991945,-0.5892590512885991,-0.14214549234426974,-0.14917644427209462,5.654353917155434,7.857584963397501,-1.232477193573784,1.1290988096691954,0.36424705488089976,0.0104690274236402,-0.2643455930807303,-0.4962324516797393,0.22156252358129563,-3.7293345144082957,-3.617602575843879,8.043099863830845,0.6208926189176178,-0.37306884263449686,0.36657975087964,0.2725392490998442,0.025361136121395907,-0.5497137218195715,1.4511439508211914,-3.365223583886263,8.883944517443068,0.6915574401122223,1.51331082757132,-0.07390355094875799,-0.15623285450117266,0.16666274730823197,-0.7555059794303999,-2.9273283408111905,-0.8513753652877075,9.775625171036165,1.0495681043317076,-0.7359698444051855,0.2845081247816179,0.05327901446616166,-0.04588241503228678,-0.6771706891887151
8.997946516719015,-0.9106760784432304,4.254178814508555,0.5740012366054131,-0.11358552766658214,-1.010804868020609,-0.5810497813759117,-0.15757148862903675,-0.15334187199599036,5.625751751613984,7.807597312241312,-1.533042895123756,1.0606995887361697,0.32224029273423604,0.011159424199955316,-0.2657428800651266,-0.4917030464060952,0.24468955341545987,-3.575436339217222,-3.4591676695638864,7.946922637784824,0.6635156939288537,-0.3437145318913059,0.40536694739316403,0.2785322043293185,0.013996729908544083,-0.5561759922446474,1.0003900856901906,-2.8936415556355763,9.227878811043505,0.7481915550289253,1.4413620936960212,-0.032831265946057384,-0.12187492256468051,0.1568670816151329,-0.7598831681031001,-2.597946617639309,-0.6555891394497322,10.09065838022282,1.0945302961584489,-0.7202782253845867,0.33388800931619045,0.048498768143635664,-0.060975962441763315,-0.6759730027965989
9.141752352044156,-0.465698925255481,4.141164029261825,0.5892687546745333,-0.03890626675829006,-0.9883364115716153,-0.575289061614698,-0.1747072807760558,-0.14041931662458942,5.676634313808151,7.813588624207545,-1.7031997240095813,0.9486099470643631,0.2489479402088918,0.014476237608441661,-0.2698810385393829,-0.4792674810662032,0.25914769690344674,-3.5398889547763197,-3.38395501920636,8.032811723812136,0.5622906745971742,-0.3044784232897506,0.414546259737128,0.27241128653466523,-0.0012195825500504465,-0.547588863591045,0.7763882276240759,-2.7566653462003075,9.035746268787713,0.663135746492227,1.3610938660919245,0.06312806760970185,-0.1002726378341727,0.14290803691697904,-0.7499387645243525,-2.5199431597840882,-0.5437880505962339,9.988296235834374,1.0816182323868309,-0.7054837046056163,0.3512471916148553,0.03616523565121425,-0.08459057044793894,-0.6622971029368802
9.300974150728639,-0.09966582063644575,4.144649779199634,0.559509641605431,0.036057611810094405,-0.9063074827761903,-0.5758665946879388,-0.1900903514724661,-0.1345729077696977,5.684628329425795,7.779748335636903,-1.5032846329389953,0.9415756010832758,0.1548584866546557,0.008221743105797635,-0.27113075988398644,-0.47098749890943487,0.2580385936420504,-3.5257579186259536,-3.2698577676486775,8.224899756789988,0.4510825671709782,-0.26801748586812446,0.4287281124376726,0.2677580432584542,-0.003398719564047298,-0.5480068179983975,0.6962738453921501,-2.5680507700601773,8.792268933844447,0.5745974744522059,1.3428377325747136,0.15800093905970572,-0.07878520722591538,0.13897738292307232,-0.7494952940794379,-2.1902564783518215,-0.2868681316480699,9.843187123333307,1.0028369429340789,-0.7858946882878839,0.32686460796562355,0.022659098671996617,-0.09521114175189811,-0.6588120855658862
9.200871384346941,-0.14626353741054526,4.315896755953014,0.5337709563216567,0.10381879129479428,-0.8345547992256422,-0.5815893210934829,-0.20811746532830383,-0.14069181008269072,5.650391633952052,7.705451401523579,-1.656564084524648,0.9874403292351075,0.10667363561723087,0.013576071827472433,-0.27111897489695397,-0.4590395345471931,0.2717585071152717,-3.8012400421373496,-3.158480210422464,8.290598349704702,0.4164621636492828,-0.2747222897011823,0.48023225914019735,0.2612443618543983,-0.011667667628034891,-0.5636996732351457,0.18091652383990459,-2.447667700531872,8.553106442037226,0.5640098766914299,1.4191606198805484,0.24552718675693544,-0.058109625967721526,0.1294433964413676,-0.7546685015373402,-2.0499219846452066,-0.003445006611817125,10.056926506886718,0.9249534355106788,-0.8642791427633398,0.296465804090892,0.0019471080451272478,-0.11060474804546472,-0.6645650760535494
8.804585345088874,-0.005736656315601328,4.296185920230471,0.5424122623935874,0.15586290278580717,-0.8291211724918452,-0.578718334251602,-0.21789904691494197,-0.14241011570675408,5.713679345818071,7.3593219391917195,-2.2041908128466146,1.0102839082106434,0.12263317693874468,0.020845425746175247,-0.27323446201569596,-0.462119726919905,0.29257177610881346,-3.6400627881789096,-2.85946408224002,8.137868583391134,0.4215272063265517,-0.26182123203356533,0.5398457851534627,0.25560998477468316,-0.016748254624770295,-0.5625995306570297,-0.37432687898153505,-2.255090397246279,8.822935756450093,0.579599182757026,1.4900575954878557,0.3231105621677157,-0.03345669587749822,0.12966118753287142,-0.7552356355664939,-1.7509188891905958,0.4056375994274389,10.016281233462962,0.9284906793734373,-0.8634499132573086,0.2746142648709263,-0.012053454314024374,-0.11876434877570424,-0.6647289404809923
8.794417896735203,0.13736684539765745,4.313067556892204,0.5957658370630912,0.22018854461452259,-0.8664747462205997,-0.5673521995861848,-0.2362735850090422,-0.1456028157546856,5.613983539559624,7.618883613448057,-2.486226597444464,1.0289805647121189,0.14954439143057846,0.005944300243705642,-0.27494476282152225,-0.4494975986738962,0.3031119561687031,-3.2287303703306938,-2.5071418872449187,8.117671584728605,0.4226656099750023,-0.20224184148308288,0.5699223352176951,0.25312629026502037,-0.036621811243616194,-0.5539679992227942,-0.4877421519500959,-2.1782333478097753,8.892073764422419,0.5717848830137721,1.468788339175125,0.37929491108648455,-0.00865221171886749,0.10958953056586322,-0.7426598431770266,-1.6119156999141222,0.5134784927542966,9.87302187637089,0.98728187743819,-0.838524138594574,0.30110090540108014,-0.02731474574538218,-0.14504853659134184,-0.6476219240047201
8.830629206120884,0.4841244970498787,4.399456277424523,0.6242199713056924,0.25508525392480474,-0.8675414518115193,-0.5586536358263289,-0.2519584246347518,-0.13634056848787748,5.3713820181543115,7.785911485765903,-2.5796726710420286,1.068167895098835,0.16360645726339756,-0.008413940862913607,-0.265435366380587,-0.4401164655583865,0.3075625716090908,-3.340968756513116,-2.3394200128244154,8.31133557966581,0.457625750405911,-0.13790423227521265,0.59367215293208,0.2511032641695132,-0.04134096848272426,-0.559739571830799,-0.9092969356299904,-2.07952626748758,9.092079071231677,0.6030298692021315,1.4372039475369707,0.4130067817544985,0.014798424250520553,0.10345788115569657,-0.7412703083116681,-1.1746515217195583,0.5126181274195364,9.69372304940227,0.9987389541520054,-0.9014717618207739,0.3110210234117753,-0.043762844937151484,-0.15465257042911687,-0.6467936359988972
8.65410613158423,0.7456831931753999,4.557112523831838,0.678327036951733,0.2536169452110374,-0.8303717928717858,-0.5592548164601362,-0.2709945069734722,-0.14050841505882875,5.333378724750761,7.648134335100755,-2.7191672127778146,0.9503201815819011,0.15364538097939454,-0.04911829587678163,-0.27835332689426756,-0.4279107789930898,0.32449693255471634,-3.6236068835923074,-2.2295412953739273,8.414725821340754,0.4480379519451349,-0.07619471686339756,0.5967556556991443,0.25957091829348405,-0.05023606696457027,-0.5635731652671272,-1.3500060789432815,-2.169470998885854,9.232990666094405,0.575277628607536,1.4034049795570755,0.44354027429095283,0.046278651695628864,0.0963442936072536,-0.7419412212679343,-0.670908032136334,0.5533892353190649,9.949802345797274,1.0008751384177552,-0.929577017789503,0.33095170119039063,-0.05078423234423656,-0.17142074681946545,-0.6487596236442764
8.6450350002617,1.0502189340163977,4.6741678691858795,0.6577914707260606,0.21134387590423742,-0.7579502491284114,-0.5517675545779355,-0.28471112611483784,-0.14027816988935202,5.478858563841091,7.714966204073317,-2.82082233403536,0.8060126609844862,0.14104286155541199,-0.1161550740302312,-0.2746600192322626,-0.41957283138096124,0.34070642869528694,-3.4697160188754648,-1.9044717497638874,8.542815918208484,0.37860802431950064,-0.07398352057715615,0.5936486977202038,0.24497886219650478,-0.05704902515716473,-0.5513887829467726,-1.3681046576274685,-1.5101746837643448,8.919578710891972,0.4928924985742124,1.4357695148246845,0.4798841563662632,0.05573702237519962,0.0892264138700449,-0.7276738489753757,-0.35263065698416973,0.9071513626468057,10.171989337621278,0.9326460832989254,-0.8482418175886681,0.31049075607825477,-0.07666310260844139,-0.1819556538300401,-0.6356502143087267
8.715415108758155,1.3145326850414703,4.734559116731225,0.6045697497726581,0.18362066735609892,-0.6875220633605342,-0.5448057769854608,-0.3050228423210374,-0.13321769302785563,5.584244647551995,7.236425156687964,-3.061401769834447,0.7469561292853595,0.112299733766555,-0.1504734854384458,-0.26902873230769925,-0.42096816269889675,0.34388473250178986,-3.5031062952595775,-1.9839015201403136,8.791446620236496,0.2262989513886071,-0.08155970907245792,0.607814408603015,0.24572361214898664,-0.06064977722196447,-0.5471877711548208,-1.7204987517538897,-1.8121915520038523,9.296373991940738,0.32648521482400217,1.4960679820571576,0.5491365308980538,0.08131781857965337,0.08697214303117816,-0.713119609677795,-0.3215662241770133,1.30130748228299,9.908827540073236,0.8568117304226807,-0.8097786048387655,0.2654783482799942,-0.08984403853857956,-0.19262020330430538,-0.6221576268431388
8.673482702752267,1.6589637157552595,4.383452536307281,0.5729398162241586,0.1771492766694124,-0.6359873516576658,-0.5414499673291094,-0.31553994892879744,-0.13420375294051282,5.529442250710941,7.20032742581918,-3.5503409572847886,0.6880386589628588,0.08582035938083475,-0.1508590304268703,-0.2753589738693021,-0.418177177183676,0.3514292268271628,-3.5317404075013914,-2.275173526086821,8.872327749766326,0.1983734309994992,-0.1182383574856684,0.595417344370802,0.24610510944020095,-0.07294152553368508,-0.5523708221152214,-2.1515514930562682,-2.474711244428363,9.366890283437357,0.2787569772612057,1.5362994941002646,0.5576984028822982,0.10943205489504543,0.07448276871674024,-0.7093623603333745,-0.19534226568013466,1.514183713531619,9.818137209454376,0.7957866960263614,-0.838996812517615,0.23965827361000744,-0.10079581359920237,-0.21399798527968728,-0.6214243432455068
8.59288401769053,1.9609084748049048,4.424004145076488,0.5238604814244838,0.22741883055627088,-0.5597304913653769,-0.5388502908953862,-0.32970357322453553,-0.14764491394874132,5.4345131759163525,7.164607285725331,-3.4456260399075633,0.6110335388469094,0.07207180051994054,-0.16686188283438622,-0.2741534960796104,-0.4125502208968756,0.3518199021975111,-3.2744899529491533,-1.7309188422023325,8.803309208188987,0.169968954722716,-0.11714513752357432,0.5761248768366544,0.23796702566301825,-0.08489723698032721,-0.5545625205981761,-2.428957564085289,-2.004645251382426,9.17849207686686,0.22715421345045392,1.5565317606548807,0.5597418646888245,0.12470507508788094,0.06248122633712317,-0.6981100006830837,-0.12881462749784844,1.8141452477138433,10.016387807047252,0.7063747726829478,-0.8271057536312362,0.21617104449305602,-0.1226491363257366,-0.23138185107472475,-0.6152127106235572
8.41167330227879,2.181523964990729,4.3953157764921,0.4278732016613199,0.24721612643002683,-0.48522321499081683,-0.5332060275085673,-0.32510648448009105,-0.13787596477823585,5.387328752710127,7.396793817067299,-3.549540381920976,0.55007693720631,0.06310920786986392,-0.1861134510151364,-0.26925417597713575,-0.40130430547971097,0.3665118597921771,-3.2732304579039,-1.691801075306003,8.641201764392363,0.1874580169543942,-0.10015327725385835,0.5554279665157651,0.23423925990323077,-0.08670034960449376,-0.5618305635469161,-2.8497857834016065,-2.069876075032713,9.32103872856364,0.23233616044559274,1.5417242863554728,0.5449999297000946,0.15015736704192204,0.05902584546087575,-0.6933232573970574,0.5086498289205513,2.1078801889607037,9.724906186120824,0.6074059173994326,-0.7919354115900408,0.13452244753893836,-0.13319751250673562,-0.23615801367175682,-0.6153908925273661
8.413355932144093,2.2028495298643778,4.5996575266401205,0.4049273316098552,0.258313927274686,-0.4371816178171843,-0.5274632471467952,-0.3449190890447391,-0.13520979597612795,5.489278981335928,7.2587725752511645,-3.6569853479951435,0.455654147620645,0.05967897210149265,-0.22040230464768903,-0.2692499642398737,-0.40351314168667035,0.36581535216688194,-3.3211136769171583,-1.4604265731794404,8.44262393077639,0.14764768031665837,-0.07271369001558538,0.546766770814053,0.23675586565088144,-0.08728658156216512,-0.5515854030502378,-3.32054897429749,-1.4592431290661698,9.030278689631624,0.16339217706585832,1.4765436603216864,0.5454206131661283,0.16998438960667894,0.06164726514871645,-0.6711154116429816,0.5949075182852042,2.193989452393494,9.726332031320483,0.5616937555070634,-0.745308735718508,0.12373994048830933,-0.14313158304443846,-0.24100290784451517,-0.6001917543607885
8.441815868091261,2.4937782127328307,4.557640013728118,0.3721970507388494,0.25170368899050344,-0.3976268102088619,-0.5228373386895947,-0.347143198746266,-0.1354567230527614,5.375630780119343,6.989343718596693,-3.681980729170437,0.4152800239431435,0.03351405180290986,-0.2558865606641624,-0.2704875189586125,-0.3966655821109921,0.3666832295635595,-3.232483242116093,-1.398021278943616,8.534531574241521,-0.04528917928982925,-0.005592468380174862,0.5482450067074669,0.2332703091552422,-0.09295841710886676,-0.5563536118802787,-3.505751476246563,-1.6755340151641354,8.977369014478963,-0.06039146502787524,1.393598822241466,0.5565837509467787,0.1859180837189501,0.05185278703387393,-0.6654839474999326,0.7534529147540738,2.4475959859825287,9.889448967263636,0.516366789262874,-0.7032690034375918,0.10233078646842769,-0.15670035680697042,-0.25453708830574706,-0.6006244780879318
8.356366439869376,2.7493953083914366,4.539160294666073,0.3501343508888227,0.26039627659640996,-0.3765925485141584,-0.5219191094860399,-0.35690878358864175,-0.14108061732773672,5.360838050756749,7.153157575084521,-3.8872133315283235,0.4246171331923092,0.01527011258652273,-0.2918063124970734,-0.25192550137177544,-0.3876521935569548,0.37672575329417135,-3.3202070912319983,-2.0383775669547295,8.757173122639204,0.06074139181949594,0.007796550757975724,0.5284790606448934,0.22860258014795254,-0.09202491349936098,-0.5607275976970761,-3.6825078427865607,-2.634180194595073,8.848467059493613,0.027181737584631153,1.3617120833012484,0.5397534297095795,0.20117902208594396,0.054992458550813264,-0.6564003360526869,0.823129142442878,2.587245188368017,9.741967864460076,0.48413800013863617,-0.6699607977221623,0.08950317758742293,-0.1725961172549946,-0.2597614163755628,-0.5973414499129134
8.278305197109121,2.6021426035118114,4.719581057111415,0.35092018868222324,0.28060593451848537,-0.364160690139999,-0.5168807435548672,-0.372329329683779,-0.13035338651678893,5.504211156187773,7.330854440987069,-3.88835618824565,0.4386718731668398,0.053847723102509376,-0.3305603089119616,-0.25045891726331504,-0.39482390787083366,0.3709787654002468,-3.275622382450312,-1.702011515127089,8.817466320669636,0.22949756168520033,-0.008605747481689553,0.4820867360349474,0.24036715358018768,-0.09223729290051591,-0.5547107031535834,-4.019472722486857,-2.412228837171211,8.759030243661035,0.18230169636996507,1.378180586930566,0.5005662888512897,0.235827200918767,0.05174722033349243,-0.639280773398181,1.040354779134402,2.9520483427516653,9.556153426978208,0.48188592732479796,-0.6380607833009094,0.08349978738146224,-0.16569406718304458,-0.259618565306853,-0.5895852218105132
8.44926899281399,2.741597376784354,4.825332494428775,0.37344537414921536,0.2800694703943591,-0.38823577767714273,-0.5093276866071251,-0.3745638840931954,-0.13938992425729124,5.4651429188759035,7.428879268407399,-4.045433493883854,0.3987986937566746,0.04799524525234512,-0.351672855057278,-0.2562785593482292,-0.38994520463799315,0.3865450613877117,-3.316091964168514,-1.508541764237153,8.473961087309009,0.3011502447376068,0.04686700306498003,0.4376066006576988,0.2377660357554815,-0.10969274992610412,-0.5632085713621308,-4.419411961666703,-1.7996865675879232,8.51632874581852,0.2341507449471834,1.3307141124310364,0.4677202127656634,0.24711075792406462,0.037320716878030756,-0.6340852853212288,1.153330896514402,2.886728238331328,9.758470975523204,0.5092062004880284,-0.6361335786089348,0.07448599515167914,-0.1795303507975906,-0.2760821570764935,-0.5892958729199488
8.50201903854263,3.06750417204199,4.818382213821216,0.3770897587464325,0.31150428382016776,-0.3744774970144958,-0.5023375076679687,-0.3894893337813458,-0.14843765894643104,5.1052661409058935,7.435485968539686,-4.008623860833703,0.35312729252128255,0.004155230762998434,-0.36852338504210935,-0.24918856890925553,-0.39210444765090363,0.38753371865211544,-3.5188193766611993,-1.2147285832469568,8.742055391898722,0.3001597517774833,0.12313249912252924,0.43273614443760067,0.2293169889543087,-0.11283545902504499,-0.5484437266060548,-4.768277518583435,-1.3786465329698547,8.251337701156642,0.2157581238037209,1.2789717245855752,0.4690886153098346,0.2542801117416488,0.03506674790459321,-0.6085474770616097,1.2098821203056298,3.0405854483652104,9.764985156155051,0.5117878454039516,-0.6478093161956295,0.08088161328714723,-0.19874011016417414,-0.2837788152140805,-0.5703702200225961
8.160708980339127,3.2501237065543367,4.873686702975467,0.3033698407279028,0.3301030064368928,-0.3188568435270782,-0.49552680055683385,-0.39417815275390505,-0.13770122442239532,5.047020977861852,7.502087388700735,-4.154488145617553,0.2619280512324674,-0.03384402148957064,-0.3833085756932336,-0.24185620178104722,-0.39179399814412846,0.3901888552589426,-3.7663488591563765,-1.038807530723024,8.771432876075243,0.2987670190508567,0.15223962739626395,0.43304105952174066,0.23535471810441227,-0.12193561655674232,-0.5505459952873327,-5.228617030110802,-1.280377306172815,7.942303327839597,0.20002987523998964,1.313904314170688,0.48206571094004164,0.27127777741090875,0.02574646019666848,-0.5963354787469373,1.4575921700958179,3.0012945986716986,9.520060074784636,0.41991503471695063,-0.6623471101190307,0.039224164753767304,-0.20467104730442928,-0.29349850974553576,-0.567187699660754
8.152896134419173,3.392745854808509,5.021398484513014,0.21077754781777835,0.3414357105690166,-0.2641078134288248,-0.5014644729974232,-0.4070716961098747,-0.14967450954870876,5.027582745394103,7.5902300435651515,-4.032245871824965,0.10246652412837295,-0.07521466724181552,-0.4109600745616933,-0.2479549580046095,-0.39179208365722734,0.3914308773442132,-3.691912231134409,-0.9762777448787898,8.67597433333551,0.24953473631941764,0.17890803784790849,0.43735700461340515,0.2372944021757322,-0.12921972336931856,-0.5472729566920137,-5.464008007059687,-1.1977521443684862,8.244793633069133,0.13992239618298366,1.3203447542457003,0.48578124778574266,0.2885709361420626,0.016663355364690765,-0.580221556018116,1.489864397950717,3.406998056657815,9.602446902817938,0.3161977584605974,-0.6502225704689047,-0.009881676947967382,-0.2130239717961841,-0.2990317560848823,-0.5666540261808523
8.143585818480318,3.475639681725395,5.10180730556016,0.06859753592145734,0.3653976945048864,-0.21106540202984017,-0.4877798156357089,-0.40445890424709074,-0.1591969788489611,4.871412767911411,7.416504438459504,-3.872982383973127,0.030393298892384693,-0.11414539164006071,-0.45568358331168274,-0.2362400170972398,-0.3883029813339635,0.3935302538027432,-3.7206152115629263,-1.2710371772633966,8.690582328640287,0.17583761622607108,0.20679754120506647,0.40880784397008796,0.22506390898116926,-0.1313730089390253,-0.5486096299778402,-5.749377646821763,-1.964635422819464,8.7898721170119,0.06587272327207526,1.2209614341691566,0.4800882421340025,0.28630292261500884,0.01444303244653709,-0.5667669048602367,1.6151089845091686,3.388526207754525,9.57551636318546,0.1814165968783347,-0.6438052994941108,-0.08671321724732654,-0.23133053239940665,-0.3037567347656456,-0.5601749884940601
8.037117607546072,3.2909898020380104,5.254245523061204,0.02782297376728006,0.38267200903241916,-0.18125266676889834,-0.4880489916437653,-0.40860434439496884,-0.16261862030549137,4.782288317615027,7.486458613734716,-4.347620613244572,0.043188721014262424,-0.12049586395170972,-0.5218406104527351,-0.22988603517003353,-0.3946957577987528,0.38970790285862866,-3.770088735615233,-1.1935825688592383,8.733587976511288,0.14879337829160458,0.2003933384781431,0.36462696648925436,0.23122898089196292,-0.13080017915915865,-0.5410972842471086,-5.8435380921618485,-2.170059347196937,8.584987400222884,0.058811200521351824,1.1053966841015355,0.40626690254138,0.3016930110253299,0.012679884083610295,-0.5474395693591178,1.8359168784440232,3.280993987062046,9.353137049322866,0.13046411501133046,-0.674499309530184,-0.1019297020088622,-0.23590086978779248,-0.3042345510063528,-0.5513500569477852
