# sampling frequency: 40
# units are seconds/meters/radians/a.u.
seg1_acc_x,seg1_acc_y,seg1_acc_z,seg1_gyr_x,seg1_gyr_y,seg1_gyr_z,seg1_mag_x,seg1_mag_y,seg1_mag_z,seg2_acc_x,seg2_acc_y,seg2_acc_z,seg2_gyr_x,seg2_gyr_y,seg2_gyr_z,seg2_mag_x,seg2_mag_y,seg2_mag_z,seg3_acc_x,seg3_acc_y,seg3_acc_z,seg3_gyr_x,seg3_gyr_y,seg3_gyr_z,seg3_mag_x,seg3_mag_y,seg3_mag_z,seg4_acc_x,seg4_acc_y,seg4_acc_z,seg4_gyr_x,seg4_gyr_y,seg4_gyr_z,seg4_mag_x,seg4_mag_y,seg4_mag_z,seg5_acc_x,seg5_acc_y,seg5_acc_z,seg5_gyr_x,seg5_gyr_y,seg5_gyr_z,seg5_mag_x,seg5_mag_y,seg5_mag_z
-3.970801,-8.674567,-3.016046,-0.083782,0.02329,-0.028701,0.306885,0.774658,0.21582,4.107036,-0.498023,9.272362,-0.017015,-0.121402,-0.005175,-0.253418,-0.054932,-0.354248,-0.436616,-9.877235,-2.306057,0.059499,-0.054926,0.05371,0.112305,0.351074,0.008545,0.565475,-9.228616,-2.79459,-0.099592,-0.269507,0.109903,0.227295,0.386719,0.290283,-3.949428,-8.789838,1.324906,0.016562,-0.03217,-0.03667,0.209473,0.662109,-0.125488
-3.789897,-9.208872,-3.144188,0.132969,0.000178,-0.026915,0.315674,0.772217,0.222168,4.081522,-0.741814,9.049648,0.117333,-0.064576,0.024217,-0.248779,-0.057617,-0.366699,-0.480142,-9.959167,-2.521572,0.159979,0.0702,0.034735,0.124512,0.35376,0.012695,0.264417,-10.147799,-2.990615,-0.152334,0.101566,0.206632,0.23877,0.38501,0.301514,-3.864035,-9.086141,1.295006,-0.016358,-0.025777,-0.080577,0.215332,0.6604,-0.117432
-3.966848,-8.541457,-2.902634,0.22031,-0.019065,-0.024571,0.314453,0.782959,0.209229,3.983025,-0.442708,9.042369,0.20826,-0.070845,-0.048405,-0.246826,-0.056152,-0.364014,-1.009176,-9.595099,-2.349093,0.202786,-0.021601,-0.004528,0.118652,0.361572,0.004639,-0.830992,-10.102907,-2.744953,0.196984,-0.124957,0.0418,0.236816,0.390625,0.287109,-3.908086,-9.12539,1.200118,0.160864,0.015655,-0.121276,0.211914,0.665771,-0.128662
-3.759177,-8.600525,-3.006152,0.145281,-0.058725,-0.041033,0.315674,0.776611,0.208496,3.809965,-0.412006,9.077492,0.115881,-0.068397,-0.046706,-0.249512,-0.059814,-0.364502,-0.686572,-9.955935,-2.402579,-0.012386,-0.048145,-0.024306,0.120605,0.357178,0.00708,0.269097,-9.625308,-2.924589,0.003218,-0.279755,0.157028,0.243164,0.383545,0.28833,-3.870829,-8.84059,1.282919,0.171128,0.010595,-0.147488,0.210449,0.6604,-0.128418
-3.815329,-8.7924,-2.906852,0.181824,-0.068004,-0.031438,0.31543,0.782959,0.206787,4.028361,-0.595955,9.226332,0.23392,-0.191885,-0.06709,-0.253906,-0.059326,-0.358643,-0.701071,-10.796173,-2.475416,0.128658,-0.017183,-0.077768,0.118408,0.36792,0.006592,0.053437,-11.002911,-2.926571,-0.084451,-0.129257,0.22876,0.244141,0.389648,0.289062,-3.724836,-9.007668,1.158806,0.057215,0.045985,-0.115889,0.210693,0.668213,-0.12915
-3.828572,-8.889189,-2.770979,0.189534,-0.052039,-0.057304,0.310791,0.782471,0.20166,4.524406,-0.187803,9.249113,0.359523,-0.126243,-0.043211,-0.252441,-0.063477,-0.362793,-0.22853,-10.35373,-2.163791,0.39997,0.029513,-0.160243,0.113037,0.367432,0.000244,-0.510689,-10.913917,-2.600142,0.424184,-0.269639,0.039188,0.23999,0.391113,0.27832,-3.858986,-9.19708,1.323411,0.142977,0.049954,-0.157728,0.203125,0.663574,-0.135498
-3.818265,-9.351534,-2.831797,0.191128,-0.062485,-0.06396,0.311035,0.782471,0.196533,4.107123,-0.203262,9.157638,0.228612,-0.127748,0.006965,-0.251221,-0.06665,-0.368164,-0.549672,-9.806265,-2.244054,0.315376,0.098363,-0.175043,0.105957,0.377197,-0.006104,-0.164407,-9.79325,-2.306333,0.33959,-0.423861,0.093471,0.240723,0.396484,0.27124,-3.724958,-9.103299,1.237183,0.213387,-0.03212,-0.200007,0.199463,0.664551,-0.142334
-3.848624,-8.993997,-2.773942,0.479555,-0.046673,-0.043276,0.315674,0.777588,0.190918,4.422584,-0.654931,8.825142,0.349067,-0.126959,-0.073567,-0.255615,-0.071289,-0.366455,-0.677376,-9.948979,-2.150739,0.281273,0.015421,-0.228665,0.108887,0.375,-0.003418,-0.439591,-10.150502,-2.863096,0.288536,-0.308517,0.146946,0.24707,0.393555,0.268555,-3.66937,-9.077117,1.368806,0.214137,0.026236,-0.25592,0.197021,0.656982,-0.139893
-3.87062,-8.694167,-2.550561,0.341368,-0.07878,-0.051387,0.314697,0.77832,0.186279,3.960771,-0.347299,8.741648,0.630962,-0.040277,-0.07153,-0.259766,-0.085449,-0.363037,-0.607034,-9.864647,-1.999682,0.515706,-0.064601,-0.286929,0.10376,0.380127,-0.012695,-0.685797,-9.301922,-2.732952,0.706294,-0.389379,0.133316,0.24707,0.398682,0.255615,-3.784017,-9.323047,1.330233,0.255162,-0.002119,-0.237386,0.189697,0.658691,-0.142578
-4.068816,-9.10438,-2.432718,0.419911,-0.089072,-0.042391,0.311035,0.782715,0.178711,4.21468,0.544266,8.877645,0.671766,-0.086861,-0.142426,-0.249268,-0.087158,-0.366943,0.128391,-8.98099,-1.930963,0.642147,-0.065641,-0.338704,0.095459,0.390381,-0.020508,0.902411,-8.536512,-2.588463,0.344497,-0.42912,0.245789,0.248291,0.403564,0.245605,-3.711313,-9.117557,1.595288,0.429713,-0.037495,-0.304111,0.18457,0.658691,-0.154053
-3.79382,-8.694773,-2.293958,0.501027,-0.117025,-0.04902,0.314209,0.79126,0.170654,4.41722,0.693859,8.868522,0.374813,0.023349,-0.098066,-0.250732,-0.089111,-0.362061,-0.185392,-8.646044,-1.730303,0.287467,0.072215,-0.255711,0.093262,0.402588,-0.019775,0.043412,-10.160446,-2.817488,0.078447,0.110494,0.287689,0.251465,0.415527,0.24292,-3.51718,-8.842415,1.617015,0.350931,-0.084017,-0.278001,0.180908,0.670166,-0.162354
-3.78934,-8.488778,-2.280057,0.300591,-0.138444,-0.11442,0.318359,0.783691,0.16333,4.601154,0.603518,8.900943,0.326738,0.054227,-0.205341,-0.255127,-0.092773,-0.361572,0.093928,-9.611371,-1.538984,-0.013473,-0.116112,-0.300701,0.093018,0.395996,-0.027588,-0.734262,-10.363506,-2.422668,0.590604,-0.071216,0.008078,0.256348,0.408936,0.234375,-3.328931,-8.785351,1.638107,0.212344,-0.017982,-0.272018,0.18042,0.655762,-0.165039
-3.826803,-8.817306,-2.143752,0.200551,-0.149555,-0.158008,0.317139,0.778564,0.164307,4.118155,1.062862,9.18152,0.261382,0.163058,-0.137434,-0.253174,-0.099365,-0.368652,0.131199,-10.011533,-1.764232,0.244545,0.102381,-0.258055,0.089844,0.392822,-0.022705,0.327552,-8.761227,-2.006489,0.520939,0.011073,-0.039812,0.251953,0.40625,0.23291,-3.459892,-8.907038,1.655261,0.064592,0.011878,-0.223774,0.172607,0.650635,-0.163086
-3.862256,-8.992795,-2.057731,0.213309,-0.171638,-0.159289,0.318604,0.783203,0.155273,3.940005,0.645909,9.031184,-0.139729,0.045443,-0.196591,-0.246582,-0.098145,-0.371338,-0.637313,-9.123813,-1.397937,0.262302,-0.008203,-0.279686,0.088867,0.401855,-0.031494,-0.7721,-9.074686,-1.883539,0.030241,0.251848,0.076243,0.25,0.414062,0.224121,-3.456716,-9.360358,1.671785,-0.019776,-0.070372,-0.221586,0.172119,0.657959,-0.169189
-3.702391,-9.132574,-2.080875,0.228408,-0.132396,-0.137596,0.320312,0.797852,0.151611,4.235214,-0.235382,8.722342,0.06892,0.155241,-0.168574,-0.24292,-0.098389,-0.372314,0.238901,-9.289866,-1.684433,-0.088415,-0.07409,-0.239059,0.088379,0.41626,-0.028809,-0.820938,-10.268278,-1.840407,0.146625,-0.15214,0.031891,0.252441,0.429932,0.2229,-3.258184,-9.614632,1.628957,0.146105,-0.109605,-0.234706,0.169678,0.668457,-0.168945
-3.798377,-9.162371,-2.08485,0.32259,-0.163347,-0.112907,0.321533,0.788818,0.140381,3.627344,0.465746,8.793074,0.406688,0.178251,-0.261965,-0.236328,-0.107422,-0.365723,-0.522636,-10.300663,-1.902276,0.03949,0.04538,-0.254015,0.081787,0.40918,-0.037598,-0.134519,-9.98585,-1.614145,0.451325,-0.074553,-0.076155,0.250244,0.422852,0.212402,-3.319868,-9.304046,1.77952,0.297559,-0.102004,-0.257403,0.163818,0.656494,-0.179443
-3.830002,-8.961927,-1.897107,0.401881,-0.181891,-0.07357,0.315918,0.799072,0.145508,3.738351,0.926951,8.952941,0.218365,0.137313,-0.257433,-0.243164,-0.114502,-0.370605,0.159872,-9.948076,-1.813317,0.378449,-0.067163,-0.409282,0.07251,0.424316,-0.029053,-0.580626,-9.498183,-1.418229,0.386358,-0.317509,0.035315,0.246094,0.435059,0.216553,-3.229826,-9.218471,1.910289,0.222896,-0.107136,-0.254572,0.153564,0.66626,-0.172852
-3.939295,-9.110992,-1.901839,0.430896,-0.270102,-0.057272,0.325195,0.786377,0.131592,3.531653,0.355136,8.7862,0.28853,0.153181,-0.297664,-0.233154,-0.108643,-0.378174,-0.27795,-9.907645,-1.463036,0.241645,0.196332,-0.349205,0.077393,0.414062,-0.040527,-0.798762,-10.755736,-1.57683,0.188807,-0.455482,0.148925,0.255371,0.422607,0.197754,-3.354016,-9.568454,1.762694,0.321301,-0.055788,-0.244247,0.159912,0.650391,-0.187256
-3.576637,-8.958728,-1.879914,0.577262,-0.308285,-0.016649,0.321289,0.799805,0.122314,3.544377,0.992078,8.744441,0.652076,0.08879,-0.352496,-0.23877,-0.128906,-0.37915,-0.077185,-10.241071,-1.548003,0.387208,-0.085293,-0.496335,0.061523,0.428223,-0.044189,-0.961654,-10.920686,-1.648059,0.788831,-0.836197,-0.089451,0.250732,0.442383,0.18335,-3.091349,-9.343319,1.952694,0.551882,-0.126301,-0.29591,0.147705,0.658447,-0.196289
-3.751377,-8.656663,-1.643623,0.538346,-0.405246,-0.019072,0.324707,0.797607,0.114502,3.897053,1.462257,8.699947,0.367837,0.056777,-0.33569,-0.226807,-0.134033,-0.369385,1.06243,-9.560759,-1.488371,0.575937,0.213425,-0.513508,0.056152,0.43042,-0.051758,0.352191,-9.410234,-1.616557,0.720883,-0.802461,-0.071779,0.253174,0.447021,0.169434,-2.838091,-8.850908,2.116553,0.576648,0.028238,-0.26818,0.145752,0.656494,-0.203857
-3.515718,-9.311405,-1.593935,0.497686,-0.398564,-0.033803,0.330566,0.799072,0.100098,4.259053,0.531326,8.648752,0.328582,0.156985,-0.381192,-0.232666,-0.140625,-0.376953,0.113412,-9.195442,-1.155659,0.466953,0.129637,-0.614329,0.052002,0.436523,-0.058105,-0.778587,-10.505565,-1.610737,0.432116,-0.575373,0.116461,0.260498,0.450439,0.155518,-2.910553,-8.970383,2.281247,0.40016,0.084074,-0.264329,0.145264,0.655762,-0.214111
-3.809726,-9.202545,-1.15582,0.671431,-0.418942,-0.038025,0.329834,0.80542,0.096191,3.883663,1.034193,9.042478,0.774414,0.264972,-0.394627,-0.226318,-0.147949,-0.380615,1.167872,-9.241705,-1.071522,0.270918,0.048971,-0.646693,0.040527,0.442871,-0.056396,-0.524175,-10.819441,-1.310341,0.84659,-0.761155,-0.25018,0.254395,0.461914,0.141846,-2.876,-9.26375,2.343814,0.510662,0.053898,-0.280494,0.13916,0.655762,-0.218994
-3.709644,-8.85599,-0.94652,0.529421,-0.333274,-0.065364,0.326416,0.809814,0.07666,3.90284,2.148115,9.604245,0.441335,0.236664,-0.401007,-0.215576,-0.148926,-0.372314,0.505313,-10.01379,-1.128948,0.048331,0.2241,-0.602036,0.028809,0.447266,-0.065186,-0.559989,-10.060328,-0.724031,0.672736,-0.58889,-0.2371,0.24585,0.469238,0.120605,-2.904705,-8.911315,2.482797,0.564403,0.011882,-0.318298,0.128418,0.652832,-0.23584
-3.636606,-9.157006,-0.899994,0.429026,-0.356376,-0.110976,0.330811,0.804443,0.068359,3.618853,1.567736,9.452109,0.121382,0.238408,-0.371754,-0.219971,-0.158447,-0.38208,0.632253,-10.587375,-1.458125,0.133644,0.025427,-0.643447,0.024414,0.446045,-0.068848,-1.235243,-10.591678,-0.446458,0.540407,-0.933919,-0.356025,0.243164,0.474609,0.103516,-2.657032,-8.657554,2.504849,0.393127,-0.076148,-0.269982,0.12793,0.647949,-0.242432
-3.716654,-9.190662,-0.899295,0.479448,-0.343597,-0.121364,0.325195,0.80542,0.063232,3.383691,1.382411,9.191251,0.290535,0.141556,-0.455519,-0.213867,-0.155762,-0.375732,1.142298,-10.308881,-1.156551,0.236211,0.193321,-0.561833,0.013184,0.450195,-0.070068,-0.312842,-9.941849,-0.320108,0.675185,-1.259985,-0.455246,0.236572,0.478516,0.087646,-2.593688,-9.066542,2.650311,0.182131,0.030982,-0.287021,0.121338,0.648193,-0.243896
-3.395706,-9.477125,-0.608722,0.51814,-0.348232,-0.08741,0.327881,0.800537,0.051758,3.363875,1.332785,8.923423,0.436493,0.087494,-0.344571,-0.215088,-0.162109,-0.381104,1.368608,-10.663697,-1.052027,0.228333,0.162301,-0.581418,0.002686,0.449219,-0.072266,-0.295442,-10.469924,-0.653096,0.395903,-1.42849,-0.220078,0.230225,0.480225,0.073975,-2.625127,-9.801521,2.616917,0.384297,-0.04957,-0.272726,0.115723,0.640381,-0.250977
-3.668712,-9.527134,-0.496479,0.683861,-0.264468,-0.03534,0.335205,0.806396,0.037109,3.601276,1.484472,8.815311,0.773848,0.061182,-0.303663,-0.205566,-0.179199,-0.378174,2.357741,-10.628114,-0.94987,0.652708,0.432767,-0.686137,0.000244,0.456787,-0.088623,0.4031,-11.608508,-1.106624,0.790728,-1.610708,-0.321622,0.231445,0.493896,0.046631,-2.443756,-9.455109,2.809245,0.732838,-0.100367,-0.373854,0.115234,0.640381,-0.268555
-3.451053,-9.349501,-0.364448,0.745602,-0.270709,-0.012639,0.333252,0.80249,0.025391,3.490761,2.267712,8.990372,0.978697,0.118476,-0.212782,-0.201904,-0.184082,-0.380859,1.278241,-9.651429,-0.641239,0.786743,0.639115,-0.671203,-0.011963,0.457764,-0.098145,-0.259936,-10.078691,-0.474221,1.289882,-1.312355,-0.411858,0.220459,0.494385,0.018311,-2.412545,-9.038152,2.879427,0.653787,-0.127314,-0.312734,0.106934,0.63208,-0.275879
-3.635286,-9.09102,-0.142096,0.762284,-0.271567,-0.007281,0.341553,0.799805,0.012451,3.457449,2.695963,9.065164,0.761485,0.042747,-0.27544,-0.204102,-0.205322,-0.384521,1.549952,-9.416744,-0.3039,0.53373,0.388005,-0.67116,-0.01709,0.456055,-0.105225,-1.114452,-9.171764,0.208064,0.833966,-1.624422,-0.342647,0.217041,0.495361,-0.001709,-2.221576,-9.234244,3.112219,0.561708,-0.122969,-0.335337,0.10498,0.625977,-0.285645
-3.510753,-8.709536,0.045783,0.666153,-0.278473,-0.005931,0.338867,0.795654,-0.002197,3.342282,2.7596,8.799472,0.650585,0.050181,-0.220818,-0.205322,-0.206055,-0.375732,1.962422,-9.30262,0.12624,0.513528,0.506665,-0.573817,-0.025879,0.455811,-0.115967,-0.035267,-9.648459,-0.123715,0.62604,-1.635908,-0.456807,0.202637,0.496338,-0.023926,-2.210855,-9.125718,3.384613,0.660286,-0.070697,-0.284074,0.096436,0.617676,-0.297119
-3.60933,-8.951027,0.187536,0.455588,-0.314314,-0.041297,0.337158,0.79834,0.000488,3.737524,3.023794,8.886753,0.570188,-0.007325,-0.251421,-0.196045,-0.214355,-0.379883,2.09903,-9.03229,0.077815,0.342662,0.351096,-0.585326,-0.037354,0.45874,-0.112793,0.174066,-9.392607,-0.007433,0.746503,-1.306123,-0.499705,0.188232,0.501465,-0.033203,-2.191151,-8.665513,3.406371,0.595546,-0.076432,-0.260213,0.090088,0.613281,-0.300049
-3.34681,-9.404448,0.217932,0.497394,-0.309996,-0.078485,0.338135,0.800049,-0.014648,3.796206,2.940991,8.885446,0.426265,0.085484,-0.20476,-0.197021,-0.220703,-0.375,2.75792,-9.574158,-0.20556,0.214294,0.43032,-0.470504,-0.039551,0.466797,-0.12207,0.664242,-9.041993,0.048695,0.569029,-1.374211,-0.455472,0.178711,0.508789,-0.056641,-1.906936,-8.430408,3.543974,0.444911,-0.031857,-0.26665,0.087402,0.614746,-0.313232
-3.471609,-9.109529,0.460288,0.539045,-0.300876,-0.102874,0.334961,0.79248,-0.024658,3.620909,2.67417,8.732742,0.471043,0.075084,-0.220285,-0.190674,-0.232422,-0.367188,2.396089,-9.755161,0.103235,0.384153,0.4793,-0.508105,-0.052002,0.460205,-0.131836,1.012398,-9.691855,0.191157,0.409521,-0.993975,-0.387398,0.165039,0.505615,-0.071045,-1.970407,-8.735475,3.629811,0.288603,0.024472,-0.266842,0.078369,0.604004,-0.318115
-3.29395,-9.324543,0.441632,0.486096,-0.291946,-0.114076,0.327637,0.801514,-0.039062,3.512266,2.900085,8.680535,0.595487,0.098349,-0.183457,-0.19873,-0.240723,-0.365234,2.493277,-9.498523,0.305507,0.401583,0.41784,-0.476238,-0.061279,0.467285,-0.143799,0.05755,-10.029351,0.475909,0.628188,-0.907422,-0.415637,0.149902,0.510742,-0.089355,-1.893818,-9.202988,3.606396,0.396192,0.000474,-0.297002,0.069824,0.609131,-0.330322
-3.361436,-9.371255,0.637103,0.630037,-0.320708,-0.101219,0.335938,0.797119,-0.04541,3.362033,2.915358,8.578876,0.581756,0.050144,-0.216049,-0.187744,-0.236084,-0.371338,2.041623,-9.770997,0.590607,0.395938,0.352238,-0.478457,-0.061523,0.470703,-0.143555,0.470683,-9.436885,1.045823,0.760072,-0.819826,-0.37294,0.144043,0.510986,-0.097656,-1.730246,-8.996977,3.706866,0.614835,0.045773,-0.329131,0.075928,0.60376,-0.33374
-3.173564,-9.129355,0.975462,0.654981,-0.324216,-0.110734,0.335205,0.794189,-0.061768,3.551894,3.281562,8.6023,0.807054,0.056366,-0.258801,-0.182129,-0.245605,-0.365479,2.55461,-9.729806,0.564208,0.592281,0.083696,-0.527688,-0.068848,0.468018,-0.157471,0.513247,-9.357117,1.080841,0.630013,-0.576988,-0.250828,0.140137,0.507568,-0.114014,-1.643301,-8.608649,3.820895,0.589629,0.074527,-0.341233,0.067139,0.594482,-0.348633
-3.351645,-8.968685,1.101643,0.582407,-0.328739,-0.121422,0.332275,0.791748,-0.080566,3.189574,3.968497,8.901857,0.567845,0.038731,-0.256259,-0.178223,-0.259277,-0.366211,2.765981,-9.211878,0.525096,0.492763,0.177971,-0.469363,-0.075195,0.466553,-0.173096,0.998219,-9.801708,0.918027,0.479857,-0.507231,-0.265308,0.12915,0.509033,-0.13208,-1.690897,-8.667414,4.058355,0.448427,0.103228,-0.305311,0.066406,0.588623,-0.363037
-3.30668,-9.162593,1.189242,0.571118,-0.309009,-0.13901,0.32373,0.786377,-0.084229,3.355064,3.389244,8.594107,0.342643,-0.050524,-0.283732,-0.171631,-0.259521,-0.36084,2.231776,-9.587322,0.824971,0.247083,-0.015919,-0.46876,-0.092285,0.467773,-0.170898,0.647254,-10.54214,1.345606,0.429447,-0.178134,-0.236433,0.118896,0.509033,-0.140381,-1.726523,-8.810461,4.189371,0.486501,0.102845,-0.322435,0.055176,0.587402,-0.365234
-3.158966,-8.946796,1.436818,0.499798,-0.308711,-0.135562,0.329346,0.789307,-0.092041,3.257139,3.444287,8.444121,0.567645,0.020384,-0.248451,-0.180664,-0.269531,-0.36499,3.448714,-9.841216,0.663853,0.318569,-0.096611,-0.544195,-0.092041,0.467285,-0.175049,0.600651,-10.451334,1.809588,0.659448,-0.381705,-0.402665,0.117188,0.51001,-0.149658,-1.549807,-8.703539,4.299344,0.442109,0.079809,-0.292384,0.058594,0.579102,-0.372559
-3.232085,-9.502352,1.2617,0.530705,-0.241223,-0.124539,0.320801,0.785156,-0.107178,3.000361,3.736826,8.494208,0.567834,-0.061654,-0.225106,-0.177246,-0.276855,-0.35791,3.04317,-9.959575,0.442615,0.441872,0.13075,-0.492637,-0.10498,0.468018,-0.188965,1.28015,-9.662869,1.895186,0.744219,-0.464014,-0.339924,0.100342,0.507568,-0.166992,-1.489848,-8.908189,4.38639,0.436765,0.169968,-0.296622,0.050293,0.574219,-0.381836
-3.269706,-8.834183,1.622876,0.814495,-0.259781,-0.063336,0.315186,0.781494,-0.12085,2.819535,3.638014,8.285797,0.65812,-0.098347,-0.152364,-0.164795,-0.292236,-0.353027,3.016667,-9.439239,0.725848,0.708272,0.024374,-0.529864,-0.118652,0.463379,-0.195312,0.559606,-9.348425,2.239284,0.660258,-0.657827,-0.344356,0.085449,0.504395,-0.176758,-1.786299,-8.932759,4.453521,0.651298,0.195267,-0.304559,0.043213,0.567139,-0.390625
-3.302516,-8.16219,1.966805,0.485156,-0.21092,-0.099987,0.324707,0.777344,-0.125488,3.160836,4.343223,8.340273,0.766712,-0.167809,-0.149256,-0.176758,-0.30249,-0.356934,3.850184,-8.586041,0.836277,0.488622,0.187668,-0.460936,-0.116943,0.461914,-0.206543,1.329506,-9.452257,1.874702,0.49775,-1.18135,-0.393475,0.082031,0.503174,-0.189941,-1.61165,-8.04222,4.928314,0.71111,0.11138,-0.304635,0.050537,0.55835,-0.401123
-3.016588,-9.21133,1.774211,0.382194,-0.227709,-0.09819,0.317627,0.77832,-0.137451,2.961733,4.500069,8.0268,0.523528,-0.100105,-0.036947,-0.171387,-0.30249,-0.351318,3.269267,-9.381439,0.76072,0.253483,0.363938,-0.362093,-0.124268,0.466797,-0.214844,1.704773,-9.92476,1.727163,0.504551,-1.065716,-0.404777,0.063721,0.505615,-0.201904,-1.082004,-8.168103,4.875462,0.218549,0.238384,-0.207586,0.046387,0.559814,-0.407227
-3.266955,-8.787195,2.011071,0.671166,-0.210535,-0.058602,0.322998,0.77124,-0.146729,3.047653,4.393979,7.99163,0.576522,-0.264769,-0.106074,-0.172119,-0.311035,-0.342285,3.640108,-9.21807,0.995612,0.572154,0.311475,-0.463316,-0.125732,0.460449,-0.224121,0.679419,-9.491028,2.483033,0.612769,-1.351555,-0.591512,0.047607,0.497803,-0.214844,-1.64,-8.991117,4.439619,0.453267,0.416578,-0.196465,0.053223,0.551025,-0.414062
-3.157054,-8.253771,2.397866,0.434417,-0.276104,-0.124662,0.321533,0.771729,-0.155029,3.36827,4.613432,7.867556,0.600409,-0.136258,-0.028774,-0.17334,-0.315674,-0.340332,3.697297,-8.499318,1.40486,0.452268,0.54099,-0.372498,-0.126709,0.46167,-0.231934,1.460801,-9.188338,2.600268,0.43746,-1.790471,-0.57889,0.029785,0.501221,-0.225342,-1.656639,-7.713004,5.071554,0.882427,0.247049,-0.329409,0.054932,0.547363,-0.426025
-3.060536,-9.315757,2.274657,0.444792,-0.2871,-0.139255,0.312012,0.767334,-0.157959,3.102736,4.605915,7.822846,0.617522,-0.246879,-0.121893,-0.172363,-0.319824,-0.339355,3.024587,-8.713771,1.53647,0.389563,0.394022,-0.374518,-0.134766,0.456543,-0.234131,1.374786,-9.019899,2.620019,0.604802,-1.703497,-0.64567,0.000977,0.498047,-0.227783,-0.920707,-7.257491,5.10177,0.353694,0.399068,-0.227062,0.049561,0.536133,-0.425293
-3.043301,-8.569856,2.764569,0.66668,-0.294531,-0.166888,0.31665,0.765625,-0.175049,3.727147,5.044054,7.669871,0.68926,-0.13886,-0.126554,-0.172852,-0.330322,-0.323975,4.068276,-8.56812,1.589152,0.437623,0.317606,-0.359967,-0.13208,0.458496,-0.25293,1.646,-8.233376,2.574347,0.473028,-2.074448,-0.653677,-0.017334,0.496826,-0.245117,-1.611601,-8.330982,5.015097,0.169022,0.57842,-0.246395,0.061035,0.539795,-0.435059
-2.951266,-8.811164,2.894684,0.427126,-0.320108,-0.17739,0.309326,0.766113,-0.186035,2.670757,5.193267,7.611562,0.534304,-0.14016,-0.132155,-0.172852,-0.335205,-0.329346,3.449576,-8.784945,1.881673,0.40529,0.531012,-0.260407,-0.135254,0.458984,-0.263428,2.100642,-9.067262,2.394252,0.174859,-1.99946,-0.555317,-0.04541,0.497803,-0.248779,-1.569154,-8.802838,4.830338,0.61977,0.350031,-0.277995,0.057861,0.533936,-0.44751
-2.829355,-8.87273,3.239324,0.655336,-0.281665,-0.171258,0.308105,0.756836,-0.19043,3.638136,4.761847,7.385959,0.512673,-0.270138,-0.173388,-0.167236,-0.347656,-0.309082,3.347482,-8.737544,1.902501,0.615493,0.287214,-0.365296,-0.137451,0.45166,-0.268311,1.525448,-9.802179,2.316388,0.56992,-2.170213,-0.717781,-0.067383,0.48999,-0.24707,-1.197098,-7.429335,5.692754,0.886061,0.407048,-0.355886,0.059326,0.519287,-0.455078
-2.733399,-9.043974,3.33475,0.544699,-0.242522,-0.181844,0.30957,0.745117,-0.202148,3.127767,4.772557,7.327953,0.79567,-0.035589,-0.204822,-0.169434,-0.348877,-0.314697,3.740367,-8.360987,2.136148,0.680824,0.357125,-0.287534,-0.137451,0.438477,-0.281006,2.596014,-8.120952,2.006496,0.972663,-2.353614,-0.831466,-0.096924,0.470215,-0.260498,-1.415342,-7.688427,5.311677,0.178666,0.420178,-0.240101,0.066162,0.509033,-0.458984
-2.842549,-9.374357,3.066698,0.770798,-0.238023,-0.122552,0.298096,0.751709,-0.217773,3.170699,5.627785,7.513415,0.946903,-0.292661,-0.2735,-0.170654,-0.359863,-0.298584,3.481719,-8.477437,2.163664,0.676867,0.229153,-0.223641,-0.145508,0.44458,-0.293701,3.179803,-7.101933,1.75431,0.6249,-2.154798,-0.622598,-0.128174,0.479248,-0.26123,-1.577457,-9.793166,5.161746,0.278623,0.31976,-0.207543,0.061035,0.51709,-0.462158
-2.926951,-8.893356,3.459401,0.737708,-0.297344,-0.118286,0.305908,0.745117,-0.224854,3.674252,6.128015,7.487391,0.65219,-0.142884,-0.325331,-0.166748,-0.36499,-0.293701,3.667888,-8.246132,2.585049,0.729008,0.188621,-0.144069,-0.138672,0.438965,-0.302979,3.288248,-8.109365,2.036222,0.272595,-2.064628,-0.502995,-0.142578,0.471191,-0.256348,-1.412832,-9.260707,5.216602,1.193992,0.346985,-0.307858,0.070312,0.499512,-0.476562
-2.871807,-9.309624,3.44418,0.725854,-0.346072,-0.127051,0.29834,0.741211,-0.241211,3.230106,5.677906,7.178043,0.559905,-0.19854,-0.409601,-0.162354,-0.371826,-0.282959,3.484596,-8.165244,2.970881,0.682415,0.014595,-0.138619,-0.144287,0.436035,-0.318115,4.029168,-9.080197,1.7011,0.618338,-1.942382,-0.565075,-0.171875,0.468262,-0.263672,-1.573213,-7.193412,5.883045,1.086158,0.355196,-0.268506,0.068359,0.491211,-0.498535
-3.096284,-8.804381,3.759731,0.966979,-0.384209,-0.143758,0.284668,0.728516,-0.25708,3.529123,5.85138,7.092834,0.80458,-0.099348,-0.476254,-0.155762,-0.387695,-0.283447,3.957072,-8.299188,3.085382,0.693092,-0.110608,-0.079464,-0.154541,0.425049,-0.329346,4.249439,-7.613683,1.411397,0.976339,-1.660845,-0.623387,-0.202881,0.450928,-0.273438,-1.54345,-7.403772,6.030853,0.532204,0.442995,-0.228936,0.064209,0.475098,-0.50415
-2.965509,-8.451331,4.142308,0.866165,-0.425996,-0.208069,0.280762,0.723877,-0.270996,3.092771,6.447982,7.218043,0.91626,-0.069164,-0.463986,-0.151855,-0.395752,-0.272705,4.167086,-8.527277,2.922879,0.890377,-0.010242,-0.04783,-0.157715,0.422119,-0.339844,4.295449,-7.654372,1.549318,0.557541,-1.544958,-0.380492,-0.217285,0.451416,-0.269531,-1.894817,-8.07251,5.914755,0.906509,0.49247,-0.267535,0.069824,0.467285,-0.516113
-2.826172,-8.381128,4.330402,0.896589,-0.479836,-0.24537,0.282471,0.711914,-0.278809,3.043759,7.104883,7.148073,0.685853,-0.037768,-0.557313,-0.1521,-0.399414,-0.271484,3.211476,-7.671804,3.272342,0.911445,-0.00876,-0.017689,-0.150146,0.411621,-0.340088,4.013174,-8.061663,1.982257,0.733785,-1.380472,-0.465065,-0.229248,0.435303,-0.262939,-1.736619,-6.914055,6.285492,1.146151,0.36203,-0.372684,0.076172,0.447754,-0.523926
-2.49431,-8.17284,4.458552,0.765707,-0.5243,-0.2749,0.266357,0.708252,-0.296143,2.505721,6.670641,7.116591,0.357185,-0.112389,-0.597542,-0.139404,-0.404785,-0.258057,3.292749,-8.069336,3.427212,0.363261,-0.248825,0.158497,-0.158936,0.411377,-0.354248,3.869965,-7.243804,2.80878,0.740683,-1.47177,-0.325807,-0.252441,0.429443,-0.270264,-1.04128,-6.908987,6.364591,0.48625,0.469639,-0.230873,0.072998,0.444336,-0.536133
-2.436163,-8.335752,4.780588,0.78732,-0.587175,-0.26767,0.267334,0.694336,-0.317627,2.86442,6.969436,6.749624,0.65962,-0.233481,-0.682781,-0.140869,-0.418701,-0.251953,4.273139,-9.311129,3.314505,0.506218,-0.306744,0.208759,-0.149414,0.399902,-0.365479,3.884433,-7.729213,1.853873,0.332903,-1.68277,-0.180087,-0.260254,0.421875,-0.270508,-1.738454,-8.191117,6.116884,0.561428,0.692471,-0.204042,0.091553,0.42749,-0.549316
-2.099684,-8.092015,5.073945,0.60045,-0.5782,-0.284109,0.258545,0.697754,-0.323242,2.967634,8.079808,6.763936,0.369795,-0.181799,-0.549654,-0.135254,-0.422119,-0.250488,5.26885,-8.237894,3.451797,0.857233,0.063258,0.177253,-0.151611,0.404297,-0.373779,4.043501,-8.888594,0.905328,0.331899,-1.904252,-0.210316,-0.280029,0.425293,-0.257812,-1.901932,-7.487958,6.614873,0.958938,0.35575,-0.274252,0.090088,0.422607,-0.557861
-2.202102,-8.687607,4.912175,0.622571,-0.61686,-0.279367,0.241211,0.687256,-0.324463,2.754087,6.919958,6.614541,-0.00249,-0.205017,-0.528656,-0.128662,-0.433105,-0.248779,3.480651,-7.628089,3.677751,0.57659,0.387844,0.357295,-0.151855,0.394043,-0.374512,4.230646,-8.687441,1.621043,0.821177,-1.951974,-0.423202,-0.306152,0.409912,-0.243408,-0.980102,-6.839088,6.616248,0.683882,0.485345,-0.20083,0.087646,0.408691,-0.556152
-1.985698,-7.875053,5.043737,0.837563,-0.675936,-0.286551,0.233643,0.684814,-0.335693,2.490648,6.50213,6.75855,0.365008,-0.179228,-0.662237,-0.121094,-0.435059,-0.248535,2.518488,-8.43999,3.920862,0.253542,0.021613,0.356953,-0.143311,0.398682,-0.375977,4.256208,-7.127942,2.66739,0.680365,-2.032504,-0.328289,-0.323242,0.40918,-0.233154,-1.861172,-7.207098,6.638189,0.533694,0.705189,-0.156376,0.100586,0.406494,-0.559814
-1.837801,-7.693423,5.356004,0.537255,-0.694781,-0.296751,0.227783,0.668701,-0.348877,2.106104,7.334032,6.550879,0.320586,-0.321654,-0.629313,-0.114502,-0.439209,-0.248291,3.769629,-9.014288,4.074872,0.469999,-0.083472,0.418231,-0.138916,0.385742,-0.387695,4.43055,-7.843162,1.58348,0.226506,-2.250139,-0.132499,-0.338867,0.398438,-0.221924,-1.859163,-7.313388,6.778449,0.740484,0.478939,-0.164111,0.110107,0.386719,-0.574951
-1.504495,-8.273757,5.407316,0.644699,-0.680844,-0.276096,0.213135,0.661377,-0.35498,2.761553,7.480164,6.261167,0.149306,-0.380129,-0.587748,-0.10791,-0.452881,-0.243652,3.810863,-8.17312,4.351897,0.721861,0.165935,0.441183,-0.13916,0.384277,-0.391846,5.117875,-8.647276,0.816714,0.587769,-2.211963,-0.252402,-0.362305,0.391602,-0.207275,-1.501266,-6.785139,6.966708,0.786653,0.624304,-0.142038,0.111816,0.37207,-0.577148
-1.489725,-7.463632,5.685747,0.637925,-0.6992,-0.259331,0.206299,0.653809,-0.364258,2.392048,7.468905,6.476338,0.138465,-0.270297,-0.518977,-0.105225,-0.455078,-0.245117,3.545223,-7.838986,4.639425,0.409593,0.079815,0.519519,-0.12915,0.378174,-0.398682,4.789985,-7.923342,0.720639,0.717189,-2.11526,-0.23211,-0.370605,0.383301,-0.194092,-1.960827,-6.543458,6.99732,0.563624,0.641341,-0.092553,0.127197,0.367676,-0.582764
-1.280745,-7.509382,5.77124,0.319065,-0.683878,-0.278205,0.198486,0.656006,-0.369873,2.57468,7.711667,6.233199,0.021286,-0.399008,-0.490567,-0.10498,-0.464844,-0.248047,3.907333,-8.37101,4.498425,0.341259,0.247599,0.580959,-0.120117,0.381836,-0.404785,5.115884,-7.809137,0.144566,0.399771,-2.307175,-0.326263,-0.384766,0.381348,-0.172363,-1.869253,-6.372926,7.062471,0.543382,0.598353,-0.113395,0.139404,0.360107,-0.585938
-1.426839,-8.273994,5.655944,0.418066,-0.713546,-0.303071,0.19165,0.646973,-0.380371,2.523988,7.062219,6.023288,-0.044254,-0.230965,-0.409047,-0.09375,-0.460938,-0.247314,2.947028,-8.312282,4.781614,0.608692,0.286952,0.538862,-0.106934,0.373779,-0.418213,6.194045,-8.553908,-0.492535,0.531855,-2.041848,-0.260687,-0.394775,0.37207,-0.163574,-1.99585,-6.467827,7.224878,0.35606,0.743641,-0.080567,0.155518,0.353516,-0.594482
-1.374414,-7.420052,5.868557,0.605205,-0.736238,-0.274574,0.175781,0.635742,-0.388184,2.014635,7.348084,6.504046,0.261488,-0.263555,-0.473705,-0.090088,-0.466064,-0.245361,2.849345,-7.74141,4.983758,0.500909,0.246433,0.535455,-0.108887,0.369385,-0.424316,5.769141,-7.944859,0.037641,0.890268,-1.6572,-0.39032,-0.415283,0.359375,-0.155029,-2.481523,-6.695511,6.875084,0.530763,0.749196,-0.06799,0.161377,0.34082,-0.5979
-1.147536,-7.256979,5.82744,0.319931,-0.846817,-0.33997,0.15918,0.632568,-0.385742,2.294533,7.770425,6.518963,0.063377,-0.29635,-0.380067,-0.093506,-0.477783,-0.241943,2.612802,-8.53624,5.10067,0.287024,0.195705,0.690192,-0.102539,0.36792,-0.422852,5.493242,-7.233395,0.053899,0.745001,-1.694942,-0.299553,-0.427734,0.353516,-0.142334,-2.162169,-6.100862,7.003687,0.612459,0.703644,-0.130432,0.165527,0.332275,-0.595947
-0.622125,-7.817068,5.932022,0.47415,-0.800886,-0.340298,0.147461,0.630127,-0.395752,2.099203,7.615863,6.502544,0.004665,-0.27921,-0.336076,-0.081543,-0.478027,-0.249756,3.007145,-8.987282,5.116642,0.498794,0.268945,0.682007,-0.089844,0.365967,-0.431152,6.200015,-7.779406,-0.164591,0.556216,-1.545078,-0.213263,-0.433838,0.348145,-0.133545,-2.211579,-5.899759,7.016993,0.506126,0.905361,-0.02811,0.186523,0.324951,-0.602051
-0.779062,-6.655096,6.426428,0.362053,-0.850365,-0.317907,0.129883,0.626709,-0.400391,1.950757,7.474059,6.059535,0.013129,-0.376898,-0.216975,-0.081055,-0.478516,-0.251221,2.450301,-8.397697,5.270213,0.664507,0.426801,0.749116,-0.082764,0.362305,-0.44043,5.201183,-8.551953,-0.090296,0.769668,-1.272464,-0.200402,-0.445557,0.343018,-0.125977,-3.004794,-5.551152,7.234932,0.364268,0.88944,-0.157928,0.193848,0.321045,-0.599365
-0.227558,-7.58907,5.967711,-0.010485,-0.829624,-0.372334,0.122803,0.619629,-0.39624,2.263511,7.245681,6.216219,0.103831,-0.407188,-0.159887,-0.080322,-0.484131,-0.247559,2.371598,-8.226621,5.419995,0.495845,0.423165,0.833125,-0.067139,0.352539,-0.448975,5.390955,-8.052355,-0.216764,1.02491,-1.619299,-0.410387,-0.451416,0.329102,-0.115723,-2.321779,-6.199843,6.963483,0.004084,0.741752,-0.037775,0.208984,0.315918,-0.598145
-0.228426,-7.648908,5.97254,0.413204,-0.892241,-0.281824,0.099854,0.624023,-0.404297,1.989742,7.50064,6.019989,0.285487,-0.386446,-0.068964,-0.08374,-0.49585,-0.244385,1.938756,-8.549875,5.260337,0.597765,0.618595,0.859447,-0.061523,0.35498,-0.457764,6.392877,-7.606459,-0.554717,0.964776,-1.225632,-0.326683,-0.46582,0.331055,-0.112305,-2.631778,-6.761999,6.619084,0.341747,1.026373,-0.063735,0.220703,0.319824,-0.600098
-0.001202,-6.625583,6.29602,0.130554,-0.877943,-0.318603,0.095703,0.611816,-0.411377,2.209266,7.805029,6.16479,0.111667,-0.512192,-0.062566,-0.087402,-0.50415,-0.249512,1.478604,-7.828792,5.480033,0.756994,0.561166,0.88685,-0.038086,0.341064,-0.476562,5.256843,-7.321238,0.030008,1.011468,-0.970851,-0.376952,-0.463867,0.310547,-0.119629,-3.06315,-5.782528,6.859216,0.446899,0.83378,-0.125391,0.241943,0.303223,-0.607422
0.162546,-7.877938,6.150664,0.019009,-0.987114,-0.338181,0.073242,0.620117,-0.407471,2.752626,7.096683,5.907414,0.049996,-0.467511,0.042981,-0.088379,-0.505371,-0.243164,1.954517,-7.602725,5.571594,0.457024,0.671242,0.955667,-0.025635,0.346191,-0.479492,5.654096,-7.306032,-0.110524,0.890056,-1.254579,-0.317215,-0.479004,0.313232,-0.109375,-2.877152,-5.566991,6.784937,0.204736,0.971762,-0.00048,0.251709,0.308594,-0.601562
0.861989,-7.308042,6.346548,0.307398,-0.847454,-0.323266,0.075195,0.609863,-0.405273,2.842497,7.099536,5.501575,0.365789,-0.449088,0.067038,-0.094238,-0.503418,-0.236816,1.310823,-8.254717,5.734761,0.442784,0.747271,0.994834,0.005371,0.336914,-0.477783,7.002903,-7.811228,-1.255792,0.848048,-1.086791,-0.338912,-0.470459,0.297363,-0.095703,-3.965639,-5.815739,6.818631,0.127463,0.963729,-0.120576,0.281006,0.300293,-0.590332
0.840705,-6.867714,6.383139,-0.001755,-0.852296,-0.33386,0.045898,0.613037,-0.396484,2.936992,7.411028,5.287723,0.254484,-0.356446,0.154775,-0.105225,-0.508301,-0.249512,1.325492,-7.72775,5.772527,0.721666,0.710401,0.807883,0.004639,0.330811,-0.484619,7.564877,-7.603861,-1.295941,1.000389,-0.609589,-0.318219,-0.491699,0.293457,-0.095703,-3.428875,-5.923923,6.537169,0.211639,0.614461,-0.082721,0.274414,0.301025,-0.586182
1.160539,-7.43881,6.028632,-0.009555,-0.768554,-0.30094,0.034912,0.609863,-0.39624,2.683642,7.115753,5.169558,0.260992,-0.352104,0.131545,-0.098877,-0.514893,-0.242188,0.484905,-6.731697,6.006863,0.58332,0.723753,0.828707,0.021729,0.320801,-0.491211,7.020333,-6.977798,-0.174127,0.889716,-0.199207,-0.374092,-0.489746,0.283447,-0.103027,-3.35663,-5.328719,6.291343,0.297792,0.809355,-0.201306,0.288574,0.296875,-0.583252
0.750988,-6.80867,6.002711,0.115047,-0.824993,-0.353383,0.020264,0.598633,-0.391602,3.10459,7.34327,5.482052,0.384976,-0.307515,0.136732,-0.10791,-0.516357,-0.235596,0.678978,-7.369184,5.838402,0.100968,0.544355,0.78325,0.033691,0.314209,-0.493896,5.878952,-7.133937,0.53405,0.64012,-0.215752,-0.251842,-0.492676,0.269287,-0.10498,-3.506912,-5.134134,6.140705,0.043853,0.568444,-0.149392,0.296143,0.288574,-0.58252
0.986178,-7.069917,5.961574,-0.125291,-0.944264,-0.445766,0.007324,0.601562,-0.387695,2.929008,7.853459,5.592235,0.445755,-0.197199,0.112077,-0.11084,-0.525879,-0.23291,0.369555,-8.255422,5.777229,0.372658,0.734345,0.75644,0.053223,0.310547,-0.495117,6.234867,-7.407756,0.708189,0.756363,-0.539407,-0.261294,-0.494873,0.265137,-0.104004,-2.820774,-5.731331,5.918235,0.099629,0.665971,-0.178488,0.308838,0.29126,-0.578125
1.658085,-7.627648,5.908766,-0.01161,-1.01825,-0.489044,-0.018555,0.606934,-0.381836,3.382598,7.797978,5.349286,0.241657,-0.224164,0.154381,-0.114014,-0.53833,-0.220459,0.253716,-7.171793,6.363431,0.622163,0.598004,0.67917,0.057129,0.310303,-0.499756,6.684735,-6.797049,0.361523,0.739425,-0.488886,-0.341327,-0.511475,0.265625,-0.102295,-3.904405,-5.587764,6.256015,0.244206,0.800007,-0.263671,0.307861,0.294678,-0.574463
1.626271,-6.846836,6.148687,0.009727,-0.96664,-0.495332,-0.02417,0.604492,-0.375,3.273378,7.291341,5.105257,0.30484,-0.012909,0.183152,-0.109131,-0.530029,-0.225586,0.382466,-7.079587,6.287763,0.102984,0.754505,0.720357,0.08252,0.309814,-0.496338,7.034749,-7.511046,-0.679505,0.354798,-0.509203,-0.21525,-0.501953,0.260742,-0.092773,-4.185356,-5.15875,6.398169,0.271561,0.498075,-0.32584,0.322266,0.293945,-0.56958
1.972842,-6.82881,5.837147,-0.228011,-0.9993,-0.566329,-0.049805,0.596191,-0.37207,2.890392,7.25273,5.196684,0.446659,-0.071052,0.234259,-0.116455,-0.537109,-0.212402,-1.025237,-8.203397,6.036397,0.15443,0.752619,0.657733,0.089355,0.299805,-0.505127,7.36544,-7.743,0.088763,0.719083,-0.084034,-0.292137,-0.508545,0.24585,-0.106689,-3.529214,-5.077265,6.211487,0.094523,0.501456,-0.406741,0.322754,0.289307,-0.573975
2.405916,-7.262788,5.593077,-0.116508,-1.016317,-0.629386,-0.063477,0.593262,-0.375488,3.625253,7.346873,5.373419,0.539996,-0.091446,0.203598,-0.123047,-0.546143,-0.209473,-0.635865,-7.841568,5.990963,0.428358,0.576153,0.574259,0.106445,0.291748,-0.516113,6.052074,-6.820384,1.312921,0.613107,-0.019228,-0.295701,-0.509277,0.238525,-0.11792,-3.533781,-5.684317,5.947412,0.115958,0.509635,-0.333943,0.328125,0.28833,-0.577393
2.792821,-6.971141,5.595335,0.002337,-0.994219,-0.755489,-0.091309,0.597412,-0.366943,3.584527,7.226666,5.157964,0.707922,-0.018192,0.270531,-0.11377,-0.548584,-0.194336,-1.078621,-7.930791,6.356847,0.303525,0.757519,0.765031,0.113281,0.29541,-0.517578,6.708839,-7.816631,0.829317,0.39425,-0.555312,-0.318857,-0.520508,0.241211,-0.111572,-3.678053,-5.869357,6.15922,0.444022,0.453871,-0.403316,0.324463,0.295898,-0.577393
2.591806,-6.896669,5.438995,-0.017818,-0.993468,-0.793217,-0.103516,0.58374,-0.353516,2.969562,7.396294,4.487931,1.028014,0.02555,0.319442,-0.124268,-0.560791,-0.185791,-1.422185,-7.780107,6.581163,0.67287,0.599958,0.650283,0.136475,0.280273,-0.518311,7.87345,-7.559663,0.116219,0.894623,-0.162682,-0.569772,-0.515869,0.220947,-0.113037,-3.810413,-5.425733,6.145519,0.61173,0.351764,-0.36383,0.333008,0.278564,-0.576172
3.32604,-6.634143,5.434172,-0.036464,-1.106179,-0.778973,-0.122803,0.578369,-0.34082,2.917276,8.095516,4.494662,1.011533,-0.103353,0.368125,-0.128174,-0.565186,-0.171631,-1.461993,-6.543721,6.465826,0.63501,0.728314,0.649393,0.147949,0.270264,-0.515137,7.142136,-6.137258,0.374226,0.748778,0.1087,-0.506821,-0.521973,0.212402,-0.115234,-3.314786,-5.341831,6.276513,0.32329,0.280189,-0.445351,0.331787,0.275146,-0.571777
3.710855,-6.633433,5.357424,-0.028795,-1.034316,-0.835537,-0.150635,0.572754,-0.339355,3.745875,7.664445,4.366409,0.765788,-0.040008,0.378234,-0.137207,-0.563965,-0.167236,-2.111394,-6.975183,6.491795,0.091112,0.676637,0.643772,0.155762,0.266602,-0.521484,7.25827,-6.372204,0.808026,0.397515,0.10552,-0.299936,-0.53125,0.205322,-0.129639,-3.72114,-5.989387,6.493849,0.414717,0.417342,-0.281345,0.324463,0.272949,-0.580811
3.957721,-6.54795,5.376611,-0.049151,-1.047446,-0.841331,-0.176514,0.562988,-0.320801,2.88134,7.389009,3.872892,1.169604,-0.069317,0.471276,-0.139648,-0.578369,-0.141113,-2.45052,-7.866022,6.546619,0.333018,0.619539,0.685227,0.160889,0.260986,-0.519775,7.599647,-6.793177,1.017141,0.599496,0.296438,-0.257297,-0.5354,0.198242,-0.128174,-4.156829,-5.47375,6.503163,0.817738,0.14763,-0.405359,0.318359,0.265625,-0.577148
3.904727,-6.844251,5.187235,-0.105355,-1.009851,-0.846297,-0.184082,0.549805,-0.312744,3.904924,8.537472,3.79356,1.209289,-0.136642,0.428773,-0.144775,-0.575195,-0.126953,-1.574196,-6.475551,6.866153,0.712738,0.542686,0.515265,0.182129,0.243164,-0.527832,7.293198,-6.27143,0.969622,0.623547,0.381263,-0.341036,-0.52832,0.184814,-0.143799,-3.327886,-4.991734,6.848041,0.431464,0.135253,-0.388565,0.324219,0.253418,-0.581299
4.020755,-6.66426,5.078306,0.029385,-1.118149,-0.86158,-0.20752,0.54541,-0.291748,3.388541,7.837073,3.315717,0.804982,0.15605,0.578496,-0.168213,-0.580322,-0.115234,-1.701931,-5.709251,6.892664,0.210877,0.711936,0.537175,0.193359,0.243164,-0.515381,7.87578,-6.474496,0.557939,0.296119,0.255185,-0.186419,-0.529785,0.187988,-0.133789,-3.839429,-6.212051,6.767353,0.248285,0.342992,-0.231483,0.325195,0.256348,-0.57373
5.04974,-6.237394,4.994491,0.021645,-1.086344,-0.846214,-0.224121,0.532471,-0.286865,3.629385,7.188466,2.829078,1.167274,0.021711,0.477304,-0.173828,-0.585938,-0.093994,-2.782847,-6.92718,6.709939,-0.05405,0.627473,0.399758,0.20166,0.237305,-0.522705,7.98625,-6.527512,0.925471,0.481883,0.592612,-0.194519,-0.530273,0.179199,-0.153076,-4.194871,-6.284438,6.750612,0.826435,0.144675,-0.339757,0.320068,0.242432,-0.584229
5.573281,-6.342039,4.951384,-0.002882,-1.020623,-0.840351,-0.248779,0.531982,-0.281006,4.224911,8.389672,3.002587,1.44382,0.113774,0.58383,-0.178467,-0.581543,-0.072998,-2.557996,-7.007809,6.549913,0.381255,0.487421,0.419425,0.201416,0.240723,-0.527344,7.022126,-5.152391,1.437375,0.658414,0.703098,-0.165672,-0.533447,0.182373,-0.175781,-3.72447,-4.901394,7.302778,0.890436,0.06931,-0.220752,0.30957,0.240234,-0.595703
5.517231,-6.440774,4.886645,0.117765,-0.90647,-0.886538,-0.257812,0.513672,-0.257568,4.30611,8.318347,2.808774,1.101035,0.053116,0.622835,-0.184082,-0.587646,-0.056885,-2.293931,-5.882898,6.994046,0.395626,0.651079,0.512409,0.220703,0.229248,-0.515381,7.117521,-5.12683,1.048071,0.271566,0.622615,-0.098148,-0.526367,0.174072,-0.16748,-4.170031,-5.114942,7.198666,0.420075,0.205227,-0.105333,0.318604,0.226807,-0.582275
5.487017,-6.196773,4.743337,0.274872,-0.890734,-0.938121,-0.269531,0.488281,-0.250488,4.753502,6.965172,2.270657,1.426073,0.1504,0.724316,-0.189209,-0.587646,-0.026367,-2.872101,-6.42817,7.019521,-0.004885,0.582594,0.647542,0.237549,0.213379,-0.516602,8.564288,-6.830837,0.509604,0.192827,0.846899,-0.089006,-0.515869,0.160645,-0.1875,-4.380841,-5.930832,6.963469,0.797994,-0.053834,-0.0237,0.317383,0.203613,-0.589111
6.093512,-5.897069,4.705679,0.293911,-0.852049,-1.062363,-0.289062,0.496582,-0.245117,5.015213,7.834865,2.324853,2.066736,0.23156,0.655595,-0.20874,-0.583252,-0.00293,-2.911025,-7.651504,6.563649,0.126269,0.564617,0.533154,0.246338,0.229492,-0.523193,8.250554,-6.785898,1.184615,0.783693,1.380909,-0.147619,-0.512939,0.174805,-0.212402,-3.703367,-4.913248,7.193668,1.301828,-0.052249,-0.050923,0.311523,0.206787,-0.600098
6.785431,-6.040143,4.658175,0.398758,-0.778226,-1.165943,-0.30835,0.463867,-0.239014,5.018784,8.868246,2.326028,1.86306,0.257111,0.722326,-0.214844,-0.576172,0.020264,-4.123051,-7.150553,6.634003,0.61956,0.542195,0.624907,0.252686,0.205078,-0.526611,7.161085,-5.289104,2.224745,0.797687,1.497842,-0.157518,-0.508545,0.152344,-0.241455,-4.377667,-4.228123,7.165387,1.069717,0.003564,0.171187,0.308105,0.17334,-0.609375
6.535213,-5.542179,4.851052,0.556451,-0.709474,-1.20755,-0.322754,0.439697,-0.227539,4.764159,8.036362,1.251094,1.817763,0.260051,0.749762,-0.229004,-0.583008,0.052246,-3.548782,-5.908315,6.780766,0.529468,0.299214,0.639057,0.262207,0.195557,-0.520752,7.535271,-6.079304,2.477803,0.359873,1.575318,-0.029369,-0.498291,0.149658,-0.258301,-4.483751,-4.649663,7.567011,1.055588,-0.381871,0.146211,0.296387,0.155029,-0.611328
7.029134,-5.330825,4.716207,0.414037,-0.737285,-1.248658,-0.334961,0.42627,-0.220215,4.80017,8.085739,0.878373,2.146897,0.254056,0.643074,-0.241699,-0.566895,0.080078,-3.147526,-6.092499,6.510071,0.244163,0.373166,0.675502,0.270996,0.191406,-0.523438,6.879546,-6.959306,2.460429,0.745749,1.894425,-0.133808,-0.482178,0.146973,-0.289062,-3.727734,-4.505146,7.970728,1.273874,-0.357938,0.172472,0.290283,0.141357,-0.62085
6.818601,-5.327968,4.594757,0.705568,-0.692186,-1.296236,-0.345215,0.404541,-0.224854,5.322304,8.8155,0.979612,1.864627,0.351389,0.578544,-0.236328,-0.567139,0.10376,-3.549849,-6.647405,6.406051,0.32136,0.336125,0.563251,0.280029,0.186279,-0.5354,6.575464,-5.37907,3.412495,0.958395,1.646137,-0.132818,-0.469482,0.135742,-0.321777,-4.166518,-4.122355,8.068967,1.362128,-0.262208,0.298635,0.289795,0.115234,-0.636719
7.900453,-4.231179,4.750589,0.614309,-0.729174,-1.312473,-0.355469,0.374268,-0.205811,4.757629,8.054744,0.294862,1.538359,0.365721,0.571305,-0.255615,-0.561523,0.121094,-4.432279,-6.242248,6.697987,0.460255,0.273164,0.517231,0.291748,0.174805,-0.527588,7.945317,-5.333529,3.318161,0.348431,1.729592,0.154851,-0.449463,0.130615,-0.336426,-4.296782,-3.450399,8.174624,1.50882,-0.476592,0.303239,0.28125,0.083008,-0.635254
8.066032,-4.587859,4.515597,0.503298,-0.579055,-1.272102,-0.368896,0.352539,-0.203857,5.017852,7.903805,-0.380147,1.793098,0.206183,0.474772,-0.260986,-0.545654,0.153809,-4.141618,-5.772719,6.776328,0.437972,-0.10084,0.529934,0.287354,0.158936,-0.538086,6.948993,-6.628497,3.445446,0.645924,2.420788,0.099223,-0.427734,0.124512,-0.374512,-3.887683,-2.90184,8.29931,1.274723,-0.566691,0.282574,0.269531,0.05835,-0.647217
7.87169,-4.268775,4.504059,0.715179,-0.628706,-1.209,-0.378174,0.340332,-0.202881,5.245812,8.085779,-0.650719,1.658314,0.252793,0.449712,-0.270996,-0.536865,0.18042,-3.130814,-5.547768,6.892786,0.431073,-0.066647,0.538255,0.28833,0.162842,-0.546875,5.689527,-5.257787,4.706842,1.074392,2.156326,-0.077708,-0.410156,0.125,-0.404785,-3.891575,-3.557418,8.78503,0.958325,-0.625915,0.459411,0.251953,0.054443,-0.653076
8.135186,-3.947188,4.662211,0.564344,-0.553627,-1.183593,-0.380127,0.307861,-0.189209,5.365436,8.021709,-0.790952,1.597522,0.238041,0.343353,-0.275879,-0.532715,0.200928,-3.744227,-5.70315,6.923686,0.351915,-0.083133,0.49572,0.296875,0.140381,-0.543945,6.41783,-4.943197,5.140728,0.447185,2.114294,0.136782,-0.376709,0.10791,-0.42334,-3.881443,-3.582604,8.740842,1.415094,-0.650936,0.39259,0.247559,0.016357,-0.653076
8.351651,-4.147187,4.600571,0.562097,-0.569681,-1.081687,-0.392822,0.290039,-0.180176,5.353489,8.569203,-0.989425,1.40798,0.304014,0.319488,-0.276855,-0.514404,0.212891,-3.899043,-5.598456,6.932809,0.381078,-0.185007,0.378743,0.291016,0.138428,-0.547852,5.008942,-6.066449,5.384698,0.492014,2.293098,0.300054,-0.354736,0.108643,-0.444336,-4.089881,-1.927177,9.169776,1.471823,-0.666542,0.316575,0.227051,-0.008545,-0.65625
8.326832,-3.502143,4.809524,0.536011,-0.415104,-0.980497,-0.393555,0.277344,-0.172852,5.197608,8.267805,-0.956003,0.874175,0.256519,0.251866,-0.281982,-0.508545,0.221436,-3.591832,-5.083644,7.014641,0.316854,-0.285088,0.338,0.291992,0.136475,-0.555908,5.205351,-5.273287,5.894578,0.726097,1.890308,0.178324,-0.327637,0.108154,-0.472168,-3.903791,-1.834884,9.198138,0.736636,-0.748056,0.358521,0.215332,-0.016113,-0.661621
8.179121,-3.667011,4.677527,0.323083,-0.459305,-0.911417,-0.403076,0.255859,-0.161865,5.374385,7.246219,-1.129288,0.889591,0.247143,0.194721,-0.285645,-0.511719,0.229004,-3.884157,-5.384961,6.864029,0.133465,-0.27799,0.368198,0.284424,0.129639,-0.55249,5.160909,-5.334189,6.345454,0.297408,2.333217,0.340075,-0.300049,0.102051,-0.485352,-4.027856,-2.771013,9.284913,0.799802,-0.645303,0.275538,0.197998,-0.033936,-0.656494
8.312755,-3.313347,4.440213,0.534468,-0.284485,-0.873333,-0.401123,0.243408,-0.160645,5.655571,7.707351,-1.143628,1.100228,0.28836,0.122859,-0.288574,-0.499512,0.249268,-3.753287,-5.786991,6.894759,0.310759,-0.431527,0.263318,0.285156,0.126465,-0.560791,2.724532,-6.448137,6.943594,0.445963,2.113471,0.285281,-0.266602,0.101807,-0.509033,-3.730315,-1.887638,9.238687,1.311338,-0.782241,0.15635,0.185791,-0.051758,-0.661865
8.422667,-2.426967,4.605808,0.471491,-0.297477,-0.930777,-0.407715,0.227539,-0.155762,5.727757,7.698071,-1.171209,0.787521,0.337809,0.153738,-0.286133,-0.498047,0.253174,-3.237137,-5.144447,6.943896,0.536339,-0.326754,0.281453,0.279541,0.118164,-0.567383,3.540852,-5.431132,7.1894,0.820562,1.550975,0.060051,-0.248291,0.092529,-0.523682,-3.078985,-0.728089,9.208484,1.054442,-0.668964,0.242344,0.170166,-0.072021,-0.664062
8.619072,-2.787993,4.459086,0.448441,-0.147292,-1.009975,-0.408691,0.194336,-0.150879,5.64148,6.868224,-1.573665,1.004274,0.388421,0.055996,-0.295898,-0.481689,0.264893,-3.629494,-5.043045,7.046211,0.408132,-0.322643,0.312571,0.274414,0.092773,-0.570557,3.670898,-5.141497,7.447555,0.445919,1.763978,0.133854,-0.224121,0.072021,-0.533203,-3.444993,-1.38204,9.301856,0.835376,-0.601802,0.401177,0.158203,-0.101074,-0.66333
8.671534,-2.443459,4.498508,0.643554,-0.122742,-0.99863,-0.405762,0.181152,-0.146484,5.491011,7.619318,-1.488757,1.263066,0.37746,0.003908,-0.296631,-0.46875,0.277344,-3.840198,-5.57909,7.058037,0.502154,-0.35814,0.335581,0.275879,0.090576,-0.571777,2.527811,-6.107424,7.391481,0.644642,1.539984,0.060564,-0.192871,0.070312,-0.540283,-3.353664,-1.422698,9.252783,1.268439,-0.761216,0.295146,0.147705,-0.116943,-0.657227
8.917185,-2.023427,4.538183,0.562071,-0.029229,-0.988521,-0.417969,0.16333,-0.154297,5.814243,7.944732,-1.764838,0.963542,0.325919,0.023012,-0.302979,-0.47876,0.288086,-4.156506,-5.155812,7.396388,0.815281,-0.38429,0.299603,0.26123,0.079102,-0.585938,2.973947,-4.841896,7.690999,1.126501,1.481212,-0.071412,-0.18457,0.056152,-0.562256,-2.929107,-0.225079,9.740489,1.395418,-0.73821,0.274194,0.122803,-0.139893,-0.666992
9.072839,-1.76034,4.470615,0.675675,0.043163,-1.02645,-0.403076,0.142822,-0.158203,5.790813,7.107336,-2.232945,1.005091,0.359814,0.034908,-0.299072,-0.467285,0.291016,-3.589795,-4.324816,7.476489,0.78153,-0.435312,0.371585,0.266602,0.064453,-0.594482,2.03221,-3.795553,8.247279,0.850217,1.674207,0.059237,-0.148926,0.044434,-0.574707,-2.521246,-0.054511,10.157508,1.015007,-0.751668,0.400723,0.11792,-0.157227,-0.666748
9.089005,-1.250197,4.56739,0.679956,0.105495,-0.979618,-0.402588,0.120605,-0.147217,5.628422,7.504892,-2.522052,1.265182,0.327071,-0.003141,-0.297607,-0.458252,0.312256,-3.731205,-4.267924,7.580259,0.531225,-0.27625,0.406183,0.262695,0.051025,-0.589355,1.36282,-4.259878,8.195398,0.631422,1.242207,0.195713,-0.129639,0.030518,-0.568848,-2.408724,-0.502583,9.786611,1.120037,-0.62462,0.396436,0.106201,-0.18042,-0.653809
9.381548,-1.07486,4.408495,0.628173,0.170013,-0.889082,-0.400635,0.109131,-0.147705,5.784158,7.975929,-2.596698,0.912763,0.223147,0.039145,-0.301758,-0.446289,0.326416,-3.765295,-4.428846,7.669521,0.443904,-0.354697,0.408691,0.258057,0.047852,-0.592041,2.275448,-4.264942,7.873807,0.749124,1.219408,0.218059,-0.111328,0.026611,-0.570801,-2.585904,0.309953,9.430128,1.368206,-0.811798,0.315185,0.088135,-0.196289,-0.648682
9.251872,-0.944008,4.649182,0.552409,0.240265,-0.805668,-0.402832,0.091553,-0.160889,5.779905,7.106172,-2.617179,0.730823,0.146933,0.042349,-0.311279,-0.441895,0.329102,-3.890496,-4.48811,7.675436,0.361586,-0.220052,0.450212,0.253174,0.040527,-0.600586,1.709163,-3.693106,8.100884,0.742627,1.564512,0.355554,-0.087646,0.015869,-0.588867,-1.866684,0.969202,9.859793,1.058007,-0.919356,0.364873,0.065918,-0.2146,-0.656006
8.723771,-0.922099,4.581452,0.624728,0.325355,-0.78166,-0.395264,0.083252,-0.164062,5.68054,7.094485,-2.546448,1.147611,0.091028,0.03722,-0.3125,-0.424561,0.339111,-4.343219,-4.443038,7.730936,0.533866,-0.398752,0.529931,0.249023,0.035156,-0.60498,0.402948,-3.625925,8.351289,0.706408,1.530426,0.444074,-0.062256,0.012451,-0.587158,-1.758047,0.886678,10.021158,0.935572,-0.823439,0.299907,0.05249,-0.224365,-0.652588
8.812625,-0.424772,4.807489,0.668811,0.308895,-0.819635,-0.393066,0.055176,-0.156738,5.950955,7.533449,-2.655833,0.91277,0.102675,0.054793,-0.304932,-0.415039,0.349365,-2.859805,-3.493985,7.83484,0.612353,-0.332062,0.477288,0.243164,0.013916,-0.602295,0.645452,-3.464818,8.255927,0.729339,1.303526,0.485074,-0.040527,-0.011963,-0.581787,-1.57911,0.819279,9.746231,1.00708,-0.810906,0.351364,0.035645,-0.253174,-0.635742
8.879963,-0.41175,4.671804,0.669477,0.421812,-0.82289,-0.38916,0.041992,-0.165283,5.828457,6.697006,-3.413121,0.956224,0.156327,0.051971,-0.306396,-0.405029,0.364746,-3.638848,-3.307216,8.070209,0.388946,-0.05422,0.655436,0.242676,0.006104,-0.604004,0.695981,-3.387457,8.399199,0.721953,1.480045,0.514366,-0.015381,-0.01709,-0.589111,-1.329747,1.114312,9.328383,1.245213,-0.973485,0.355137,0.016357,-0.267578,-0.633545
8.50812,-0.395939,4.676052,0.716263,0.376117,-0.779378,-0.374023,0.024902,-0.175293,5.559857,7.196887,-3.438327,1.289014,0.183973,0.010861,-0.3125,-0.394287,0.374023,-3.965108,-3.60427,8.066739,0.430577,-0.188488,0.576836,0.249023,-0.000488,-0.613281,-0.645273,-3.362714,8.878199,0.729554,1.49562,0.559714,0.016846,-0.027832,-0.59668,-0.561357,1.236892,9.846345,0.988412,-0.973441,0.372762,0.005371,-0.284912,-0.633057
8.463868,0.219745,4.91169,0.816312,0.328923,-0.709626,-0.380615,0.009033,-0.169434,5.311092,8.129157,-3.387099,0.991174,0.138834,-0.030223,-0.311523,-0.382324,0.382812,-3.714047,-3.014345,8.126091,0.568438,-0.093635,0.568735,0.236816,-0.013916,-0.605957,-0.20254,-2.965617,8.702379,0.761064,1.138908,0.543245,0.025879,-0.037598,-0.588379,-0.050815,1.387248,10.152312,1.207231,-0.890907,0.382477,-0.023682,-0.300049,-0.619629
8.753406,0.384084,5.075719,0.60754,0.259081,-0.652249,-0.372314,0.002197,-0.162109,5.79408,7.164957,-3.748451,0.586129,0.062588,-0.064018,-0.307861,-0.384521,0.396484,-3.753722,-2.368421,8.531277,0.280528,-0.151533,0.603314,0.238037,-0.016846,-0.599854,0.406695,-2.115301,9.032011,0.567803,1.570179,0.653809,0.055176,-0.042725,-0.576904,-0.413797,2.358873,9.820532,1.152561,-0.69202,0.229716,-0.036621,-0.31958,-0.599854
8.476328,0.727325,4.882616,0.703558,0.281967,-0.59751,-0.36499,-0.019775,-0.171143,5.609184,6.827651,-3.81227,0.715106,0.134942,-0.150551,-0.306396,-0.374268,0.395752,-4.064106,-3.284516,8.433521,-0.205632,-0.146911,0.632194,0.242188,-0.02417,-0.608398,-1.629686,-3.508804,9.333995,-0.104263,1.666352,0.895151,0.085449,-0.050293,-0.580322,-0.237617,2.71275,9.503142,0.802857,-0.922392,0.336072,-0.050293,-0.335205,-0.599854
8.710102,1.331925,5.12021,0.582826,0.304082,-0.522998,-0.364502,-0.037598,-0.173096,5.737981,6.726856,-4.204364,0.658629,0.023973,-0.099458,-0.311768,-0.373047,0.394775,-3.476047,-3.991839,8.2951,0.354908,-0.299922,0.541912,0.226807,-0.040527,-0.606445,-1.213854,-4.475345,8.557295,0.604,1.204245,0.659232,0.098389,-0.065674,-0.57373,0.181793,2.332994,9.772044,0.697915,-0.728787,0.252025,-0.071533,-0.351807,-0.592529
8.21188,1.301783,4.886604,0.477873,0.341036,-0.428447,-0.359131,-0.04541,-0.181396,5.606806,6.779267,-4.146355,0.652729,0.095048,-0.149652,-0.308105,-0.351074,0.411133,-3.301846,-2.154516,8.475275,0.528922,-0.039882,0.475102,0.228271,-0.046143,-0.612549,-0.877723,-2.266831,9.02018,0.725202,1.736362,0.594035,0.128662,-0.072998,-0.574219,0.121103,3.266213,9.726404,1.092721,-0.955173,0.149489,-0.086182,-0.367676,-0.587891
8.423262,1.227198,5.030289,0.427746,0.296701,-0.422995,-0.352295,-0.050049,-0.17334,5.501602,6.726546,-4.457216,0.574494,-0.002492,-0.142813,-0.303223,-0.354492,0.418945,-3.987357,-2.023447,8.390202,-0.025524,-0.173637,0.583727,0.226318,-0.045898,-0.60498,-3.182204,-2.206149,9.095803,0.157595,1.58041,0.793413,0.153809,-0.076172,-0.556641,1.183619,3.320219,9.489917,0.479304,-0.76229,0.201298,-0.097412,-0.367188,-0.574707
8.308438,1.678317,4.997702,0.464433,0.307082,-0.335891,-0.351318,-0.063232,-0.18335,5.747098,7.163956,-4.224174,0.475465,0.047153,-0.220933,-0.30127,-0.345459,0.425781,-3.05749,-2.52751,8.29315,-0.048724,-0.101455,0.512776,0.221924,-0.053467,-0.611328,-2.329592,-2.395069,8.792434,0.134337,1.068889,0.668758,0.168945,-0.083984,-0.558594,0.585253,2.922297,9.407126,0.474107,-0.581972,0.149075,-0.11084,-0.379883,-0.571777
8.401167,2.157274,5.294675,0.425175,0.32264,-0.339528,-0.35083,-0.067871,-0.1875,5.431215,6.612384,-4.417134,0.222808,0.017397,-0.18985,-0.304443,-0.342773,0.419189,-3.867774,-2.942614,8.536987,-0.219553,0.062658,0.58334,0.220215,-0.049072,-0.615723,-2.096014,-3.163132,8.844739,-0.290597,1.480595,0.841821,0.187012,-0.075195,-0.552246,0.943921,3.586311,9.804804,0.839416,-0.815368,0.080651,-0.126465,-0.388672,-0.56543
8.096086,1.759191,5.401946,0.31574,0.336822,-0.327462,-0.332275,-0.069092,-0.183594,5.591963,6.03982,-4.686089,0.537489,-0.043588,-0.27477,-0.301025,-0.348389,0.438721,-3.624848,-4.022964,8.366554,0.175923,-0.20253,0.49436,0.231689,-0.050293,-0.609863,-3.579089,-5.108885,8.300398,0.215447,1.31923,0.71849,0.219482,-0.077148,-0.538818,1.270393,4.054656,9.335132,0.6083,-0.598376,0.177579,-0.125,-0.390869,-0.552246
8.402,1.857237,5.412594,0.434593,0.294596,-0.338409,-0.330566,-0.089111,-0.194824,5.719233,7.349787,-4.381631,0.659029,0.031422,-0.324675,-0.294189,-0.338623,0.433594,-3.170598,-2.368052,8.387916,0.767206,0.111897,0.344544,0.228516,-0.074707,-0.617188,-3.044039,-2.72337,8.321472,1.048356,1.261521,0.364149,0.235352,-0.103271,-0.537354,1.032919,3.876733,9.387567,0.406372,-0.61089,0.070636,-0.135742,-0.40918,-0.553955
8.582814,2.264905,5.433387,0.450423,0.370488,-0.341004,-0.333008,-0.096436,-0.187744,5.643308,7.063617,-4.717988,0.161215,-0.010265,-0.301781,-0.290527,-0.341797,0.431641,-4.13826,-1.424994,8.838186,0.278077,0.112939,0.508157,0.2229,-0.077148,-0.606445,-3.848044,-0.833162,8.782617,0.398632,1.423991,0.631976,0.248291,-0.109131,-0.517334,1.279428,3.393362,8.911214,0.509272,-0.650048,0.19734,-0.157471,-0.412842,-0.5354
7.954397,2.519355,5.636972,0.353028,0.416197,-0.257137,-0.324951,-0.103516,-0.196045,5.24541,6.360505,-5.017123,0.394524,0.030001,-0.341437,-0.281738,-0.339111,0.445068,-3.848365,-2.601833,8.429127,-0.020829,0.109001,0.465196,0.226562,-0.084229,-0.606201,-4.484669,-2.52044,8.247581,-0.146195,1.176809,0.713314,0.267822,-0.116943,-0.507812,1.40321,4.321148,9.592213,0.842218,-0.734764,-0.013932,-0.161133,-0.427979,-0.530029
8.1591,2.390951,5.675396,0.231561,0.336619,-0.233558,-0.318359,-0.111816,-0.200439,5.15435,7.35595,-4.878566,0.51895,-0.111183,-0.35957,-0.289062,-0.341553,0.443604,-4.225222,-2.552034,8.431903,0.504451,0.156316,0.455612,0.229736,-0.093506,-0.606201,-4.132513,-2.76904,8.071441,0.546196,1.287771,0.576092,0.28418,-0.125977,-0.495605,1.793252,4.858173,9.073702,0.42547,-0.662352,0.103013,-0.172119,-0.435547,-0.520996
8.067439,2.862085,5.889342,0.172299,0.421219,-0.151866,-0.325928,-0.113525,-0.206543,5.329673,7.476865,-4.836874,-0.026124,-0.090957,-0.372498,-0.273193,-0.341064,0.439941,-3.795407,-1.258914,8.656984,0.312472,0.150141,0.388787,0.218994,-0.101074,-0.603516,-4.96977,-1.388916,9.001707,0.247332,1.373549,0.569342,0.290283,-0.13501,-0.486572,1.484746,4.826259,9.255983,0.174917,-0.643721,-0.067396,-0.190674,-0.436279,-0.519043
7.998983,2.415155,5.893205,-0.11137,0.392236,-0.138041,-0.318115,-0.113281,-0.210693,4.932487,6.57263,-4.766406,-0.066619,-0.158038,-0.392405,-0.273193,-0.341309,0.442383,-4.34529,-2.180917,8.381193,-0.228236,0.221184,0.470351,0.225098,-0.09668,-0.598145,-5.624106,-3.200947,8.649018,-0.403024,0.948466,0.730866,0.30542,-0.128418,-0.469238,1.866743,4.120325,8.825131,-0.078329,-0.721199,-0.019456,-0.194824,-0.437744,-0.513428
7.719126,2.064164,5.846898,0.12715,0.419534,-0.144356,-0.311279,-0.123047,-0.225098,5.095829,7.016317,-5.063716,0.203287,-0.178177,-0.520359,-0.257812,-0.341309,0.447021,-3.934877,-2.860982,8.254926,0.266451,0.071253,0.301074,0.229004,-0.10791,-0.605225,-4.61352,-3.673492,7.474183,0.522942,0.857297,0.339761,0.317871,-0.145996,-0.466797,2.13997,3.570978,8.65633,0.169193,-0.749584,0.00689,-0.204834,-0.442627,-0.515381
8.082426,2.797148,6.026373,0.191216,0.347253,-0.090076,-0.304688,-0.123047,-0.223389,4.820364,7.365854,-5.022753,0.023007,-0.155841,-0.509126,-0.251953,-0.3479,0.455322,-3.670842,-1.396748,8.273471,0.679139,0.339079,0.312561,0.236328,-0.116455,-0.594482,-5.221885,-0.484457,8.025994,0.961525,1.096452,0.307415,0.334717,-0.156494,-0.447754,2.116974,4.039178,8.701453,0.367426,-0.720686,-0.065925,-0.20752,-0.450684,-0.499512
7.93569,3.043787,6.083892,-0.069683,0.439177,-0.015049,-0.298096,-0.122314,-0.236084,4.882028,7.057079,-5.111658,-0.178303,-0.290386,-0.586998,-0.251221,-0.344727,0.456543,-4.436759,-0.478756,8.526578,0.090533,0.288724,0.38897,0.243408,-0.118652,-0.598877,-5.59912,0.463687,8.068346,-0.130181,0.710388,0.514654,0.34375,-0.155273,-0.444336,2.422714,4.809052,9.034019,0.18038,-0.958461,0.025765,-0.216797,-0.449707,-0.500977
7.685101,2.499969,6.260819,-0.212545,0.424631,0.039907,-0.306885,-0.114258,-0.235352,4.43623,7.200147,-4.835162,-0.094673,-0.260745,-0.619801,-0.236572,-0.354004,0.447266,-4.11225,-1.732007,8.399938,-0.255852,0.239606,0.47095,0.230957,-0.111328,-0.587646,-4.707006,-1.849498,6.940011,-0.449225,0.852443,0.691205,0.339111,-0.150391,-0.427246,3.056471,4.79863,8.891318,-0.194894,-0.745585,-0.079442,-0.240234,-0.442383,-0.487793
7.53463,2.448622,6.279313,-0.079556,0.430148,0.030953,-0.294434,-0.121582,-0.244873,4.273972,7.522226,-4.840574,-0.252169,-0.385408,-0.722019,-0.218018,-0.364014,0.449951,-4.892004,-2.1695,8.661545,0.155657,0.184642,0.389213,0.242432,-0.119385,-0.587158,-5.499142,-2.327834,6.875679,0.22477,1.464109,0.532025,0.365234,-0.163574,-0.411377,2.184549,4.122659,8.49223,-0.252929,-0.736071,0.053106,-0.238525,-0.447754,-0.487793
7.688358,2.430298,6.223766,-0.156955,0.421316,0.024085,-0.291992,-0.113281,-0.255127,4.496155,7.102358,-4.878403,-0.336765,-0.352901,-0.782956,-0.213867,-0.371582,0.44873,-3.875219,-0.712833,8.351588,0.346932,-0.132554,0.299024,0.237793,-0.123047,-0.581543,-5.781105,-0.517087,6.969202,0.238291,1.453297,0.48359,0.374756,-0.162842,-0.390381,3.10538,3.540358,8.29115,-0.163473,-1.081951,-0.04432,-0.25293,-0.440186,-0.483887
7.759663,2.517091,5.954888,0.022866,0.448114,0.085635,-0.293457,-0.12085,-0.268311,4.211685,7.527093,-5.215663,-0.337072,-0.371273,-0.882541,-0.20459,-0.371338,0.440186,-3.483024,-0.787168,8.647083,-0.436047,0.19392,0.425505,0.234131,-0.122803,-0.592773,-5.537687,-1.421409,6.882528,-0.679012,1.750421,0.650899,0.384521,-0.16626,-0.378174,3.618493,3.918971,8.558818,0.201848,-0.866268,0.079683,-0.270264,-0.44873,-0.483643
8.276239,3.600582,6.334872,-0.228701,0.582829,0.180251,-0.293213,-0.120605,-0.275879,4.713845,6.957796,-5.522504,-0.756829,-0.462645,-0.799417,-0.188232,-0.396729,0.447021,-5.09169,-2.749383,8.527153,-0.338853,0.140881,0.383248,0.234131,-0.124023,-0.582275,-7.652411,-3.050658,5.870574,0.058632,1.854939,0.552683,0.398682,-0.178955,-0.351562,3.218517,5.141358,8.627899,-0.093563,-0.970013,-0.068793,-0.2854,-0.455322,-0.470947
7.74569,2.308406,6.212858,-0.604736,0.760656,0.265083,-0.281982,-0.113037,-0.298096,4.201634,6.678973,-5.13625,-0.290749,-0.390085,-0.699953,-0.179688,-0.395264,0.451172,-4.002282,-1.864814,8.249461,0.497497,0.06157,0.291663,0.239502,-0.134033,-0.584717,-7.063529,0.327212,5.934629,0.747887,1.54652,0.287227,0.417725,-0.186768,-0.332764,3.829405,4.244031,8.226297,-0.849432,-1.142588,0.219791,-0.294189,-0.440918,-0.477539
7.47917,2.100132,6.373262,-0.146083,0.889797,0.295763,-0.274658,-0.111084,-0.317383,3.765249,8.146912,-4.901375,-0.232871,-0.426434,-0.673839,-0.165039,-0.402832,0.440674,-4.305784,0.468684,8.63746,0.192283,0.436445,0.408753,0.246094,-0.141602,-0.586182,-6.868118,1.338867,6.135794,-0.651742,1.855738,0.674044,0.430176,-0.19043,-0.313477,3.868428,2.840663,7.741692,-0.466024,-1.111975,0.117508,-0.307129,-0.438477,-0.476318
7.052981,3.101316,6.908659,-0.515821,0.915377,0.368889,-0.262695,-0.092529,-0.316162,3.41971,8.381738,-4.910618,-0.861202,-0.378806,-0.62677,-0.154297,-0.411377,0.437012,-4.534024,0.024434,8.490168,-0.746181,0.307994,0.465366,0.251953,-0.123535,-0.564697,-8.354826,-2.458271,5.604787,-1.166196,1.687417,0.622134,0.440918,-0.175537,-0.273682,4.140913,3.932082,8.029363,-0.097692,-1.336206,0.087132,-0.322266,-0.429688,-0.447998
6.4831,2.051628,6.501577,-0.840192,0.962948,0.403739,-0.259277,-0.077881,-0.34375,2.659915,7.467085,-4.672516,-0.9136,-0.362904,-0.651131,-0.143311,-0.426514,0.425781,-4.760921,-2.549108,7.728701,-0.682526,0.509993,0.485007,0.254395,-0.112793,-0.56958,-8.042417,-2.936093,5.011828,0.136597,1.473791,0.309577,0.440674,-0.178711,-0.258301,5.00698,4.822326,8.009895,-0.727238,-1.347867,0.189673,-0.345459,-0.418457,-0.44873
6.213843,1.925134,6.680778,-0.664818,0.812304,0.374913,-0.248291,-0.075928,-0.361572,2.68436,8.008072,-4.314401,-0.604914,-0.411524,-0.723478,-0.131104,-0.440918,0.427002,-5.365977,-1.830531,8.082374,0.284888,0.317624,0.207417,0.262207,-0.128662,-0.565918,-8.189332,-0.030154,5.595727,0.069342,1.766314,0.231399,0.454346,-0.192383,-0.234619,5.086471,3.566361,7.369887,-1.233628,-1.050622,0.21398,-0.355957,-0.412354,-0.45459
6.508726,1.632741,7.067557,-0.851704,0.841217,0.379413,-0.241943,-0.06665,-0.381104,2.810676,8.699775,-4.019883,-0.850742,-0.365444,-0.706485,-0.117676,-0.447754,0.41333,-4.850663,0.351933,8.300949,-0.084571,0.336301,0.291844,0.262695,-0.132812,-0.565186,-9.230091,-0.418286,4.806867,-0.626481,1.607154,0.439704,0.460205,-0.196777,-0.215088,4.706794,2.049002,7.089327,-0.984182,-1.204416,0.264011,-0.373779,-0.399414,-0.457764
6.056544,0.685528,6.995425,-0.665747,0.807901,0.365727,-0.240479,-0.049316,-0.401367,2.327125,8.386792,-3.951227,-0.903804,-0.299169,-0.724104,-0.108887,-0.463623,0.395752,-5.644328,-0.935407,7.908733,-0.75306,0.371406,0.402325,0.255859,-0.116943,-0.567627,-8.54196,-1.193006,3.865494,-0.319048,1.435074,0.285312,0.451172,-0.190186,-0.197998,5.504639,2.181081,7.164273,-0.423235,-1.333534,0.214535,-0.398926,-0.385986,-0.447266
5.886578,1.231251,6.927878,-0.524207,0.765982,0.371478,-0.225342,-0.040039,-0.411865,2.386999,8.448436,-3.850856,-0.851486,-0.31048,-0.729989,-0.088135,-0.467773,0.393799,-4.975201,-2.179374,7.801606,-0.334022,0.273862,0.316434,0.268311,-0.115967,-0.562988,-8.70024,-0.688943,4.240965,-0.361772,1.730584,0.29444,0.461914,-0.192383,-0.170166,5.783498,3.057707,7.366059,-0.525349,-1.208975,0.289623,-0.408691,-0.378174,-0.436279
5.815276,1.799978,7.021216,-0.670105,0.650803,0.356429,-0.228516,-0.024658,-0.425049,2.12254,9.124593,-3.990517,-0.715397,-0.165032,-0.748639,-0.090332,-0.467529,0.389893,-5.518289,-1.493883,8.210846,0.013469,0.554051,0.223474,0.269287,-0.115723,-0.555664,-10.125409,-1.971214,3.839742,-0.571765,1.541537,0.37001,0.452393,-0.190918,-0.148926,6.316372,3.039497,7.270517,-0.765161,-1.170432,0.318822,-0.432373,-0.36499,-0.430664
5.69881,1.700573,7.257718,-1.186856,0.547515,0.352358,-0.226562,-0.012695,-0.431641,1.750134,9.99873,-3.311211,-1.276392,-0.264175,-0.726585,-0.077148,-0.491211,0.363037,-6.256563,-0.819792,8.295176,-0.158773,0.276719,0.189877,0.26709,-0.121826,-0.545166,-9.651572,-1.940939,3.170365,0.024463,1.382782,0.136337,0.447021,-0.201416,-0.118896,6.523574,2.904166,7.031406,-1.150503,-0.842084,0.338782,-0.449707,-0.355713,-0.421631
5.630247,0.489531,7.124925,-1.233655,0.491899,0.356974,-0.208496,0.008545,-0.451172,2.00435,8.503583,-3.290039,-1.740971,-0.214866,-0.70522,-0.059082,-0.508545,0.344727,-5.222027,-0.850126,7.843713,-0.432927,0.245983,0.159446,0.282471,-0.111328,-0.549072,-9.306945,-0.160116,3.389485,-0.093358,1.747684,0.029016,0.458984,-0.19873,-0.106201,5.724497,2.20324,6.931904,-1.34252,-0.77064,0.435403,-0.446777,-0.330811,-0.431152
5.535032,0.80316,7.708129,-1.288468,0.473942,0.342115,-0.212646,0.034668,-0.460449,1.573753,8.529633,-2.890375,-1.123127,-0.181232,-0.728067,-0.053955,-0.516602,0.331055,-6.094596,-1.432402,8.178008,-0.620169,0.28327,0.265413,0.274658,-0.100342,-0.544434,-10.495598,-0.272127,2.967721,-0.58234,1.669436,0.118643,0.445801,-0.195312,-0.078125,6.157169,1.930903,6.994877,-1.277792,-0.979162,0.37456,-0.469727,-0.308105,-0.422607
5.614998,0.050008,7.596436,-1.651434,0.427693,0.292462,-0.203857,0.054199,-0.481201,1.648651,10.28652,-2.131532,-1.311323,-0.123515,-0.754853,-0.041748,-0.526855,0.320312,-6.041645,-2.522816,7.86924,-0.377233,0.114336,0.180187,0.276367,-0.10083,-0.550537,-9.971387,-1.369512,1.756318,-0.433084,1.618285,0.2728,0.443115,-0.203613,-0.067627,6.844933,2.063107,7.021077,-1.459802,-0.806821,0.449517,-0.481934,-0.289551,-0.432129
5.48097,0.067833,7.450873,-1.612465,0.399032,0.276252,-0.196045,0.080322,-0.471191,1.346245,9.965402,-1.923168,-1.961161,-0.190621,-0.718487,-0.026855,-0.551025,0.287109,-6.362264,-1.106684,8.069655,0.040112,-0.016612,0.14705,0.280273,-0.103271,-0.527344,-10.747444,-1.188333,2.673044,-0.392489,2.119859,0.031944,0.444824,-0.199463,-0.019775,6.585808,1.789596,7.016687,-1.802402,-0.732135,0.473321,-0.487305,-0.263428,-0.411621
5.488036,-0.103149,7.703118,-1.97972,0.38905,0.217715,-0.194336,0.111328,-0.496094,1.742849,8.798389,-2.072468,-2.113097,-0.081652,-0.732707,-0.013916,-0.566895,0.259277,-5.020333,-0.868252,7.730283,-0.998051,-0.196712,0.149787,0.27417,-0.089844,-0.544922,-10.897325,-2.67508,3.059139,-1.018186,1.411373,0.044024,0.432129,-0.20166,-0.024902,6.704559,1.1263,6.631025,-1.990782,-0.68476,0.527066,-0.503174,-0.23584,-0.431396
5.439808,-1.342335,7.456033,-2.093492,0.4275,0.232067,-0.186768,0.152344,-0.505615,0.750944,9.077238,-1.259649,-1.557701,-0.043965,-0.666569,-0.011475,-0.569824,0.237549,-6.118809,-3.898479,7.085488,-0.904837,0.263158,0.171781,0.277344,-0.075439,-0.543945,-9.929333,-3.744659,0.793843,-0.038557,1.018976,-0.192233,0.428955,-0.195312,-0.007324,6.480084,0.046955,6.148902,-2.249526,-0.779115,0.602684,-0.513672,-0.19165,-0.427246
5.316396,-1.147449,7.280099,-1.813235,0.414751,0.233331,-0.185303,0.17627,-0.50415,0.988603,10.47402,-0.423161,-1.85855,-0.169143,-0.729532,0.01416,-0.585205,0.200684,-6.737144,-2.522236,7.496251,0.211098,-0.255878,-0.085698,0.270508,-0.07959,-0.535889,-10.372597,0.488548,0.734513,0.596804,1.445696,-0.498971,0.418457,-0.197754,0.016357,7.027683,-0.700703,5.777878,-1.877914,-0.936331,0.645216,-0.529785,-0.166504,-0.415039
5.171031,-0.062805,7.320908,-2.412417,0.320035,0.156425,-0.173828,0.212646,-0.507568,0.724228,9.41913,-0.659167,-2.488216,-0.16094,-0.737003,0.01709,-0.597412,0.162598,-5.017148,-1.049031,7.426842,-0.487258,-0.289558,0.115673,0.271729,-0.074219,-0.54126,-10.076719,1.025848,1.102137,-0.928127,1.066269,0.230066,0.420166,-0.200195,0.0271,7.397475,0.706018,6.168352,-1.898312,-0.832944,0.646204,-0.534668,-0.134277,-0.409668
5.012551,-2.010994,6.739695,-2.862864,0.279117,0.119137,-0.17041,0.255859,-0.509766,0.519791,9.206157,-0.440431,-1.981815,-0.167374,-0.824876,0.038086,-0.603271,0.141602,-5.764605,-2.950401,7.203154,-0.54039,-0.135367,0.074081,0.266357,-0.071045,-0.538574,-8.873171,-4.249892,-0.894598,-1.033615,1.126121,0.207538,0.408203,-0.205322,0.033691,7.286595,0.11646,5.848426,-3.067332,-0.629511,0.939024,-0.54541,-0.087891,-0.406738
4.726747,-2.90481,6.584004,-2.653867,0.166527,0.105988,-0.164062,0.305664,-0.503662,-0.09868,10.221528,0.833457,-2.21616,-0.167001,-0.826903,0.05249,-0.605957,0.104004,-5.933376,-1.802238,7.537542,0.011326,-0.292136,-0.068798,0.265381,-0.060547,-0.538086,-10.416934,-2.428636,-0.662821,0.917795,1.725881,-0.511401,0.40918,-0.193848,0.054443,6.716945,-2.786025,5.080602,-3.091785,-0.635908,0.981806,-0.546875,-0.029785,-0.395996
4.532809,-3.425161,6.129684,-2.824941,0.037261,0.020943,-0.171143,0.344727,-0.495117,0.144037,9.104471,1.033182,-2.657629,-0.194048,-0.930087,0.072021,-0.616455,0.061279,-5.105745,-2.207725,7.44484,-0.632485,-0.481617,-0.05102,0.251221,-0.060791,-0.545166,-10.140911,1.010968,1.360041,-0.085982,1.050362,0.037503,0.390381,-0.203369,0.062012,6.885849,-2.71609,5.027669,-2.121647,-0.668071,0.778559,-0.563232,-0.003662,-0.38623
4.803814,-4.702945,5.506388,-2.587732,-0.130079,-0.031128,-0.166748,0.386963,-0.483154,-0.131377,7.936624,1.030136,-1.94318,0.012227,-0.947276,0.077881,-0.61377,0.024414,-4.981273,-3.830629,7.268361,0.03056,-0.202204,-0.226404,0.254883,-0.05249,-0.542969,-9.668964,-3.294033,-0.43173,-0.749017,1.030919,0.356533,0.387695,-0.204102,0.070068,7.236553,-1.808305,5.335143,-2.482376,-0.537634,0.860435,-0.561768,0.046387,-0.375977
4.786687,-3.558511,5.836565,-2.182262,-0.207342,0.001406,-0.172363,0.415527,-0.465576,-0.745174,9.495672,2.087919,-1.538472,-0.09117,-1.015756,0.09668,-0.610107,-0.005127,-6.43908,-1.534049,7.728411,0.652946,-0.347158,-0.314072,0.247314,-0.062256,-0.537598,-10.931533,-2.348437,-1.13328,1.296856,1.018846,-0.322801,0.380615,-0.204834,0.088623,7.177113,-3.437439,4.868318,-2.779696,-0.304563,0.919057,-0.561279,0.08252,-0.361572
4.80595,-3.592902,5.843463,-2.988165,-0.325141,-0.077319,-0.172852,0.455811,-0.441895,-0.810529,9.565727,2.613344,-2.185585,-0.127992,-1.019312,0.111328,-0.603516,-0.029541,-5.454595,-1.016305,7.839753,-0.24169,-0.632201,-0.201516,0.239258,-0.054443,-0.54126,-9.936453,2.426306,0.135432,0.502712,0.597187,0.056292,0.374512,-0.205811,0.097168,6.792579,-3.773007,4.708795,-2.375975,-0.251544,0.844551,-0.559082,0.123779,-0.341553
5.078767,-6.356675,4.627665,-2.981839,-0.343594,-0.096157,-0.186523,0.49585,-0.425049,-0.598773,8.17142,2.721709,-2.108025,-0.181002,-1.039777,0.122803,-0.592529,-0.056396,-4.96093,-2.954958,7.989433,-0.176841,-0.529038,-0.243332,0.226562,-0.051758,-0.549072,-9.826759,-2.091003,-1.501135,-1.119468,0.672721,0.415495,0.360596,-0.213379,0.095459,6.919588,-3.697159,4.364212,-2.814138,-0.296431,0.924353,-0.562988,0.163574,-0.329346
5.14809,-5.887168,4.492239,-2.400721,-0.300857,-0.027466,-0.187256,0.514404,-0.396484,-0.216937,7.901123,3.551554,-1.851467,-0.032624,-0.941838,0.139893,-0.583496,-0.084961,-5.17985,-2.331593,8.286669,0.170806,-0.560565,-0.280695,0.221436,-0.064941,-0.549805,-10.525786,-3.701338,-2.373937,0.835181,0.838153,-0.28146,0.355957,-0.223633,0.104492,6.580965,-5.479311,3.78087,-2.941375,-0.249973,0.963371,-0.556152,0.19458,-0.307861
5.167638,-5.823922,4.048548,-2.684911,-0.242657,-0.076574,-0.1875,0.553467,-0.364746,-1.318953,7.66841,4.04774,-1.611759,0.017624,-0.928081,0.149414,-0.582764,-0.119873,-5.359613,-2.503844,7.863698,-0.137845,-0.689113,-0.232593,0.214355,-0.051514,-0.546143,-9.944333,1.607055,-0.761354,0.99551,0.759663,-0.082806,0.351807,-0.210693,0.118896,6.617771,-5.832655,3.436865,-2.177567,-0.408892,0.759731,-0.551514,0.231445,-0.281006
5.15671,-6.070881,3.479072,-2.467452,-0.348577,-0.078091,-0.191895,0.575439,-0.331299,-1.4785,8.468144,4.204711,-1.334571,-0.097193,-0.967515,0.165283,-0.575439,-0.137207,-5.589972,-3.153802,7.752963,0.104371,-0.681468,-0.252818,0.20874,-0.054199,-0.544922,-10.265812,-0.540944,-1.512391,-0.950312,0.481756,0.385295,0.351074,-0.22168,0.121094,7.121486,-4.638586,3.560466,-2.307337,-0.301975,0.827449,-0.543945,0.258057,-0.256348
5.17114,-4.909419,3.401457,-2.869432,-0.430907,-0.109097,-0.199951,0.61084,-0.293213,-1.858514,9.125674,4.583977,-1.761605,-0.15581,-0.989014,0.172119,-0.56543,-0.168945,-4.929364,-1.877647,8.045457,0.399697,-0.854852,-0.325694,0.190918,-0.049316,-0.544922,-9.510272,-3.658001,-3.142928,0.399608,0.138365,-0.02852,0.339111,-0.216309,0.12915,6.850169,-5.169964,2.782144,-3.13685,-0.03209,0.995863,-0.541504,0.301025,-0.225098
5.668909,-5.751621,2.535055,-3.577301,-0.53788,-0.1704,-0.209229,0.639404,-0.256592,-1.250929,7.927564,4.439477,-2.259801,-0.208301,-1.026665,0.188232,-0.542236,-0.195801,-3.966818,-1.182127,8.004916,-0.065498,-0.772577,-0.172887,0.177246,-0.049805,-0.555176,-8.244586,0.928739,-1.488591,0.987812,0.615825,-0.277847,0.331543,-0.213623,0.125977,6.359591,-6.251675,1.921297,-3.369412,-0.098196,1.052136,-0.535156,0.336426,-0.20459
5.330554,-7.128982,1.424477,-3.73832,-0.518252,-0.166432,-0.211914,0.656006,-0.200195,-1.777883,7.303674,4.770962,-2.04292,0.013101,-1.096386,0.200684,-0.528564,-0.226807,-3.983575,-2.322672,8.299517,-0.427387,-0.78887,-0.227987,0.165527,-0.046631,-0.550293,-10.37442,-0.577925,-1.141365,-0.928967,0.535794,0.248722,0.328125,-0.223145,0.13208,6.516097,-6.57018,1.408268,-3.593814,-0.11356,1.062561,-0.52002,0.364502,-0.156982
5.379899,-7.345409,0.641126,-3.685482,-0.680284,-0.163222,-0.223633,0.674072,-0.139404,-2.523555,7.442994,5.367371,-2.074975,-0.045308,-1.090972,0.220947,-0.508301,-0.242432,-4.001172,-3.108185,7.778957,-0.010309,-0.732496,-0.305101,0.153076,-0.045166,-0.54541,-9.262537,-4.296282,-2.956758,0.205501,-0.123764,-0.128416,0.319092,-0.229248,0.138916,6.045019,-7.42636,0.7816,-3.765469,0.000917,1.121921,-0.512695,0.391846,-0.108643
5.160397,-8.131558,-0.41669,-3.655736,-0.757428,-0.155903,-0.237061,0.690674,-0.077148,-2.056343,5.895867,5.284675,-2.355744,-0.090241,-1.190357,0.227051,-0.490479,-0.289062,-4.201395,-1.777454,7.899857,0.251007,-0.844233,-0.462995,0.132324,-0.04834,-0.539795,-8.227481,-0.317924,-1.732021,1.171536,0.452002,-0.340252,0.307373,-0.224121,0.149902,5.796434,-8.311244,-0.000524,-3.59471,0.030246,0.983271,-0.508301,0.41748,-0.060059
5.446043,-8.052547,-0.650228,-3.170042,-0.854537,-0.031838,-0.238281,0.703857,-0.033691,-1.795224,5.111493,5.499237,-1.690465,0.00503,-1.168469,0.240967,-0.469971,-0.29541,-2.879639,-1.838723,8.33984,-0.448672,-0.914068,-0.36913,0.121582,-0.035156,-0.545898,-9.718609,-0.549986,-1.764951,-0.42944,0.032817,0.030495,0.301025,-0.222412,0.144531,5.485728,-8.861654,-0.34088,-3.28766,0.074444,0.994708,-0.493896,0.438965,-0.026367
5.322517,-8.838998,-1.266103,-3.083444,-0.889355,0.069544,-0.235352,0.705322,0.015137,-2.490828,5.89935,6.55741,-1.585338,-0.012074,-1.124458,0.255615,-0.444824,-0.318848,-3.468595,-3.211187,8.037763,-0.385536,-0.625128,-0.346184,0.112549,-0.02832,-0.549316,-8.383018,-3.173112,-3.601756,0.277009,0.0164,-0.315463,0.297119,-0.22168,0.14209,5.418185,-9.546227,-0.284625,-2.828551,-0.103131,0.93108,-0.48291,0.452881,0.002686
5.612459,-9.068988,-1.651114,-2.018519,-0.776151,0.226447,-0.232422,0.703125,0.052002,-2.145912,4.619437,6.476826,-1.960297,-0.104739,-1.161078,0.266846,-0.416016,-0.341797,-4.088361,-3.525359,8.135304,-0.115986,-0.961924,-0.435912,0.099365,-0.032471,-0.543701,-9.112448,-0.630693,-1.897241,0.856568,0.555143,-0.284306,0.290283,-0.228271,0.150635,5.801947,-9.633351,-0.938097,-2.081716,0.065942,0.822146,-0.468506,0.455811,0.027832
4.727168,-7.016229,-1.701282,-2.079194,-0.861579,0.330415,-0.230225,0.701172,0.085693,-2.82613,3.265232,6.776775,-1.089059,0.065006,-1.086047,0.276611,-0.402588,-0.351562,-2.39046,-3.518425,8.610269,0.078211,-0.924174,-0.505553,0.085449,-0.033691,-0.549316,-10.411939,-0.748194,-2.029339,-0.004058,-0.193289,0.154775,0.281982,-0.23584,0.144043,4.367938,-8.725407,-1.156985,-1.750846,0.036063,0.893033,-0.458008,0.463379,0.047607
5.601373,-10.275675,-2.732735,-2.373832,-0.744348,0.312199,-0.222656,0.690918,0.130127,-3.886268,2.956569,8.229596,-0.547747,-0.02289,-0.961674,0.275146,-0.389404,-0.352295,-2.649382,-2.5063,9.173099,0.25049,-0.8883,-0.507288,0.074707,-0.037598,-0.540527,-8.088266,-2.342568,-2.979028,0.228489,-0.234601,-0.013013,0.277588,-0.23999,0.151611,5.10761,-9.007023,-1.691736,-1.816788,-0.271739,0.811872,-0.44751,0.467773,0.081543
5.861041,-14.268435,-3.673819,-0.380882,-0.542335,0.326842,-0.225098,0.689697,0.131348,-2.333565,3.521041,8.771937,0.800142,-0.025035,-0.752254,0.279541,-0.385498,-0.34375,0.021616,-3.605969,8.667623,-0.264933,-0.88116,-0.713188,0.053711,-0.039795,-0.544678,-7.308791,-1.990469,-2.639184,0.825164,0.452869,0.553986,0.253662,-0.254395,0.145508,4.153314,-11.280762,-1.98451,-0.832034,-0.184771,0.685628,-0.446045,0.468262,0.083252
6.455364,-10.113947,-2.36908,2.156814,0.290499,0.629698,-0.216064,0.707275,0.112793,-2.122095,4.779159,8.433066,0.788781,0.671356,-0.51218,0.285645,-0.382812,-0.32373,-2.290838,-4.76826,9.36584,0.838635,-0.204939,-0.554365,0.052734,-0.039795,-0.524658,-10.616264,-0.754739,-1.926124,0.849559,0.771172,0.497591,0.24292,-0.250732,0.171143,3.872283,-11.779265,-2.442976,1.577684,-0.966336,0.13908,-0.440186,0.48584,0.088867
4.739036,-3.084622,-0.225864,0.370793,0.399826,0.522024,-0.201416,0.701904,0.101562,-5.132125,6.43364,9.633853,0.633623,0.596267,-0.413414,0.299805,-0.391357,-0.313477,-3.331776,-0.32579,10.752833,1.21314,-0.759734,-0.784118,0.05127,-0.066895,-0.527588,-10.662693,-0.742076,-2.065124,0.259884,0.128986,0.186385,0.240967,-0.265381,0.168213,4.948485,-5.270283,-0.462217,2.070942,-1.346286,0.086979,-0.42749,0.47998,0.075684
5.752762,-9.348414,-2.631682,-1.694761,0.776233,0.345423,-0.203613,0.711426,0.125244,-4.007599,7.55583,8.864311,-0.685029,0.466371,-0.324302,0.297119,-0.378418,-0.313232,-1.989535,1.449611,10.011669,-0.655694,-0.610633,-0.152969,0.039062,-0.045898,-0.511719,-9.527724,-2.064543,-2.153979,0.016269,-0.044182,-0.281418,0.225098,-0.262939,0.176758,5.451819,-4.526682,-1.369475,-1.652808,-1.205012,0.673726,-0.423584,0.493896,0.126221
5.012879,-7.398016,-1.865336,-0.282108,0.820585,0.397782,-0.199463,0.712891,0.114502,-4.38486,5.441059,6.791887,-1.829102,0.832799,-0.340051,0.302002,-0.361084,-0.319336,-2.143079,-0.617556,8.776784,-1.352615,-0.606481,-0.303311,0.025635,-0.030273,-0.511963,-9.368571,-2.899229,-1.839109,0.189995,0.100162,-1.029216,0.216797,-0.265137,0.173584,4.39093,-10.3246,-3.315885,-2.410582,-1.223457,0.797498,-0.414307,0.494873,0.165039
4.607628,-4.610317,-2.263679,-1.910777,0.829987,0.229627,-0.203613,0.708252,0.136719,-4.45946,4.427177,6.060861,-1.395422,0.818787,-0.418645,0.30957,-0.347168,-0.328125,-1.911009,-0.945182,9.656695,-1.710848,-0.600278,-0.200877,0.01416,-0.012451,-0.503174,-11.122328,-2.911487,-1.924955,0.42226,0.006922,-1.717059,0.217041,-0.265625,0.179199,4.395268,-10.00751,-3.984871,-0.510276,-1.585144,0.461653,-0.404297,0.494385,0.195068
4.146021,-8.317507,-3.933453,-2.083425,0.175926,0.198987,-0.193359,0.694092,0.155273,-5.901364,6.237515,6.707888,-1.373231,0.681126,-0.565003,0.320068,-0.325684,-0.333496,-2.64118,-3.659904,9.524721,-2.641754,-0.687038,-0.092878,0.009766,0.01001,-0.49707,-11.366181,-1.264022,-2.126018,0.628076,-0.59718,-1.94356,0.233887,-0.269531,0.180176,4.807389,-6.38353,-3.480718,-1.104502,-1.098537,0.917822,-0.379639,0.492432,0.218262
5.080405,-8.414012,-3.984479,-1.108051,-0.197443,0.243268,-0.196289,0.705566,0.180176,-4.133969,4.371318,6.388977,-2.311474,0.062979,-0.622194,0.315918,-0.301025,-0.347412,-1.404637,-6.529834,7.827026,-1.759814,-0.90092,-0.272815,-0.007812,0.047119,-0.481201,-9.801467,-1.114668,-2.503965,-0.042602,-0.817981,-1.558626,0.237549,-0.251709,0.182129,3.79384,-9.185084,-4.499271,-2.266666,-0.677319,1.021967,-0.368652,0.503418,0.259766
4.767318,-7.884905,-3.153499,-0.933607,-0.448025,0.334785,-0.192139,0.692139,0.199951,-2.687161,1.409918,6.667542,-1.306138,0.409466,-0.76176,0.326904,-0.291748,-0.355713,-0.986723,-5.006886,7.855978,-0.835534,-0.815457,-0.502997,-0.025635,0.045654,-0.469971,-8.921363,-3.44094,-3.292746,0.028572,-0.578994,-1.228686,0.239502,-0.256592,0.18335,3.686743,-11.408752,-4.295671,-0.380634,-0.657779,0.670553,-0.359619,0.496582,0.274902
4.979804,-9.480431,-3.347243,-0.458072,-0.210276,0.616258,-0.18457,0.692871,0.200195,-4.073344,1.296864,7.613325,-0.447633,0.442933,-0.497866,0.334473,-0.276855,-0.346924,0.335288,-5.298754,8.152562,-1.496214,-1.077335,-0.325585,-0.03833,0.061523,-0.467041,-7.864694,-2.573228,-2.772039,0.772192,-0.316352,-1.096174,0.242676,-0.255615,0.181152,3.348632,-9.182252,-3.248525,0.556614,-0.77939,0.575775,-0.347168,0.507812,0.270264
3.984499,-7.398956,-3.547044,0.481072,-0.107325,0.774737,-0.172607,0.699219,0.202881,-5.061525,2.522441,7.886282,0.039353,0.27541,-0.452961,0.328125,-0.27124,-0.336426,-0.585,-7.784849,7.672105,-1.049394,-0.479945,-0.221123,-0.040771,0.070557,-0.448975,-7.813625,-1.786292,-1.734448,0.028634,0.167205,-0.665943,0.244873,-0.26001,0.188965,3.034046,-8.43027,-4.053777,0.213895,-0.884601,0.68359,-0.324463,0.515137,0.280518
4.200959,-5.982427,-3.637029,-0.410487,-0.246961,0.679457,-0.17041,0.703613,0.210449,-4.818056,3.253021,7.729331,-0.211128,-0.021072,-0.398117,0.320068,-0.259521,-0.339355,-1.823315,-6.295152,7.880321,0.217738,-0.904829,-0.531749,-0.061279,0.067383,-0.444336,-10.295918,-4.638554,-2.003299,-0.197365,-0.096916,-0.3281,0.230225,-0.260986,0.1875,2.666486,-8.346464,-4.234314,0.472876,-0.785785,0.78249,-0.319824,0.530273,0.280762
4.201797,-8.807543,-4.237102,-0.337452,-0.292561,0.679775,-0.156494,0.70166,0.219727,-4.263905,2.580943,7.553222,-0.543835,0.162705,-0.487353,0.324463,-0.260254,-0.337891,-0.100306,-2.505022,8.457412,-0.079824,-0.811481,-0.466557,-0.065674,0.062012,-0.429199,-9.040386,-4.820022,-2.314783,0.558984,-0.660175,-0.823512,0.240723,-0.263428,0.191406,2.771981,-7.279489,-3.474955,0.406997,-0.761223,0.632583,-0.297119,0.535889,0.282959
4.187716,-7.464035,-4.012738,0.37376,-0.327864,0.75843,-0.149658,0.704346,0.211426,-5.447162,2.070128,7.969623,-0.163099,0.167695,-0.454918,0.325684,-0.255615,-0.327148,-1.355829,-3.738155,8.769053,-1.822159,-0.860561,-0.173101,-0.079834,0.075195,-0.422607,-8.552428,-3.856828,-2.022824,0.279025,-0.191227,-0.953062,0.240234,-0.267578,0.183105,3.114316,-8.2705,-3.460373,-0.04466,-0.480681,0.754818,-0.286621,0.540771,0.282715
3.965036,-6.315778,-3.728922,-0.474501,-0.381342,0.648424,-0.137939,0.708496,0.226318,-5.035271,3.192092,8.347731,-0.202225,-0.050425,-0.599357,0.322998,-0.250244,-0.335205,0.070306,-8.094925,8.02762,-1.714075,-1.14064,-0.245333,-0.092041,0.090332,-0.403076,-10.998671,-4.913203,-1.87693,0.15808,-0.331869,-1.070736,0.24707,-0.26709,0.187256,2.255132,-9.19876,-3.669918,0.118764,-0.239996,0.73557,-0.272461,0.550049,0.286377
3.536001,-9.324801,-4.640982,-0.488358,-0.464921,0.701299,-0.132812,0.702637,0.239746,-5.360249,2.905113,7.73438,-0.639638,-0.010964,-0.460937,0.315674,-0.239258,-0.333252,0.462509,-6.999962,7.678985,-0.236335,-0.875624,-0.390142,-0.108643,0.082275,-0.385986,-9.287767,-4.19453,-1.585412,0.531111,-1.02909,-1.250913,0.25415,-0.262451,0.184814,2.164725,-9.298419,-4.268905,0.111979,-0.191899,0.847221,-0.260498,0.552002,0.290527
3.405265,-8.511769,-4.42288,0.012764,-0.692902,0.77519,-0.121582,0.712158,0.241699,-5.107293,1.631629,7.294294,-0.550157,-0.276656,-0.5913,0.312744,-0.233154,-0.329102,0.263376,-3.721401,7.876778,-0.739877,-1.005403,-0.353295,-0.119629,0.089355,-0.376709,-7.442819,-4.038508,-1.484201,0.097799,-0.557203,-1.097085,0.262207,-0.253418,0.177002,1.500304,-10.035046,-4.760183,0.029124,-0.012003,0.892065,-0.248047,0.567383,0.286133
3.592682,-9.488203,-4.886749,0.190984,-0.758743,0.933195,-0.105957,0.710693,0.239746,-4.491051,1.460026,7.669626,-0.055767,-0.116125,-0.540727,0.306641,-0.22876,-0.327637,0.524091,-5.361897,7.151213,-1.879879,-0.976147,-0.107932,-0.130371,0.096436,-0.362793,-9.263626,-5.028486,-0.952294,0.144534,-0.56213,-1.205798,0.268311,-0.255371,0.172852,1.756852,-11.115394,-4.531534,0.728356,-0.201137,0.742194,-0.233887,0.572998,0.270264
3.136591,-7.516552,-4.000144,0.45232,-0.809359,1.015139,-0.101807,0.716553,0.248779,-5.466668,2.432782,8.257586,-0.117611,-0.181677,-0.63796,0.299316,-0.229248,-0.330078,0.296573,-7.601404,7.071081,-1.408415,-1.00931,-0.243471,-0.154053,0.0979,-0.334961,-8.957466,-5.800769,-0.679763,0.081127,-1.013146,-1.409217,0.265137,-0.249512,0.176025,2.261566,-9.477527,-3.520052,1.193489,0.058552,0.796692,-0.23291,0.585938,0.258789
2.646829,-9.529242,-4.421661,-0.164765,-0.839201,1.049377,-0.076172,0.727295,0.261963,-5.392295,1.601897,8.201879,-0.60479,-0.272799,-0.599427,0.30127,-0.205566,-0.319336,0.930692,-6.028628,7.311437,-1.105138,-1.033529,-0.250576,-0.156982,0.10791,-0.313965,-8.846175,-5.942712,-0.557936,0.29089,-1.238209,-1.757536,0.287598,-0.23291,0.171875,1.468185,-9.951955,-3.527961,0.336665,0.237966,1.024861,-0.20752,0.605957,0.255371
2.453773,-9.212165,-3.932675,0.589894,-0.931753,1.12592,-0.061279,0.721924,0.255127,-6.80134,1.046382,8.316367,-0.021471,-0.301086,-0.643342,0.283936,-0.207764,-0.320068,2.007436,-6.516478,7.589843,-2.154936,-0.956791,-0.037602,-0.169678,0.102295,-0.294678,-7.777061,-5.445031,-0.56639,0.207914,-1.326112,-1.766534,0.301025,-0.233154,0.155762,1.327013,-10.877762,-3.697417,0.917054,0.093654,1.002387,-0.194336,0.604248,0.233154
2.265022,-9.374853,-4.192618,-0.024364,-0.97996,1.065461,-0.042969,0.736572,0.261475,-6.503907,2.985328,9.280968,0.097083,-0.733573,-0.699477,0.276611,-0.208984,-0.324463,2.178563,-9.456385,6.702608,-2.000683,-0.729169,0.119521,-0.176758,0.120605,-0.27832,-8.705833,-5.461301,-0.167327,0.021014,-1.131904,-1.792468,0.307129,-0.212891,0.144287,1.88004,-9.480038,-2.954014,1.240883,0.168234,0.886438,-0.178223,0.625244,0.205566
2.112364,-10.141965,-5.45295,1.14798,-1.043559,1.126617,-0.0271,0.749756,0.249756,-4.920586,2.134347,8.937871,-0.903882,-0.74814,-0.624222,0.263916,-0.197998,-0.330078,2.111539,-8.842999,5.712991,-0.978665,-0.619222,0.013925,-0.189941,0.121826,-0.265625,-6.721395,-5.482102,0.241019,-0.229656,-1.6711,-1.700922,0.314209,-0.19873,0.128662,1.477375,-9.194291,-2.922092,1.124647,0.577679,0.917111,-0.166016,0.643066,0.179688
1.612172,-6.805373,-3.618239,0.270636,-1.133932,1.010768,-0.008545,0.75415,0.26001,-6.162653,0.095267,8.601969,-0.39033,-0.577868,-0.681175,0.253906,-0.20459,-0.33667,2.169297,-7.290952,6.342624,-1.347854,-0.421269,0.173337,-0.196777,0.126465,-0.24292,-5.611026,-6.885489,0.32624,-0.542508,-1.029298,-1.48085,0.321533,-0.190918,0.124756,1.446791,-9.200265,-2.111693,0.707824,0.659745,0.948186,-0.148682,0.652588,0.169434
1.045193,-13.166261,-5.054766,0.018944,-1.230627,0.972705,0.006104,0.756104,0.265625,-5.807159,1.505175,9.321509,0.160054,-0.898906,-0.732743,0.243896,-0.189941,-0.327148,2.556233,-9.034265,5.897014,-1.792538,-0.391127,0.227125,-0.202881,0.127686,-0.2229,-8.722289,-8.087714,1.086402,-0.240988,-1.106966,-1.453165,0.32373,-0.186768,0.117432,1.51256,-11.679416,-2.218099,0.515556,1.11432,1.041038,-0.134277,0.659668,0.155762
1.076355,-10.363911,-3.815364,2.190145,-1.126662,1.133378,0.027588,0.768555,0.232666,-5.484563,1.42475,9.750196,-0.595212,-0.723094,-0.62697,0.25,-0.190674,-0.338867,2.169934,-10.317388,5.699441,-1.12442,-0.025479,0.185792,-0.206787,0.126953,-0.216064,-6.605094,-6.924693,0.318979,0.081425,-1.894637,-1.51239,0.330811,-0.177002,0.095459,0.028174,-11.82737,-2.423003,1.939932,1.109638,0.837393,-0.119385,0.667236,0.107422
0.429024,-7.36351,-2.594808,0.850343,-0.995327,1.021924,0.04541,0.777588,0.234375,-5.108567,-0.404459,9.158905,-0.402536,-0.925734,-0.668703,0.241943,-0.184082,-0.339111,1.344679,-9.499454,5.516569,-0.654345,-0.164949,0.083405,-0.213135,0.12915,-0.202393,-6.594374,-6.575874,1.015081,-0.431569,-1.022811,-0.992804,0.331299,-0.166016,0.094238,0.497634,-8.718209,-1.734017,2.130244,0.750851,0.757545,-0.10498,0.679688,0.068604
0.34378,-9.817252,-3.477021,0.553346,-0.919489,0.957785,0.057861,0.775635,0.231445,-4.161319,0.826483,9.606174,0.168364,-0.739618,-0.667232,0.229004,-0.179932,-0.342773,2.53248,-8.951062,4.900878,-0.652566,-0.099073,0.119151,-0.221191,0.122314,-0.19043,-7.493796,-8.310494,1.33738,-0.514276,-1.895719,-0.862427,0.328125,-0.168213,0.078613,0.700611,-7.615234,-1.02365,0.809513,0.994508,1.030449,-0.087646,0.678223,0.057129
0.259155,-11.194781,-3.411325,0.710242,-0.833242,0.899834,0.076416,0.776367,0.225586,-4.672136,1.221492,10.753067,-0.477852,-0.748189,-0.623861,0.221924,-0.184326,-0.350342,1.73276,-8.94217,4.89535,-0.734752,0.116204,0.185761,-0.222656,0.11792,-0.181641,-4.208469,-8.885837,1.422123,-0.493318,-1.853771,-1.021945,0.332275,-0.168945,0.06665,-0.044899,-10.866722,-1.406058,0.141878,1.051981,1.016917,-0.067627,0.677002,0.047852
0.246687,-11.370698,-3.197051,1.527275,-0.621527,0.845352,0.094971,0.791504,0.200928,-4.027661,-0.02421,10.438561,-0.225179,-0.698153,-0.625932,0.215576,-0.184814,-0.346436,3.104067,-9.297158,4.746086,-1.044926,-0.050768,0.152982,-0.220215,0.128174,-0.174805,-6.511744,-9.423962,1.469282,-0.207696,-1.300074,-1.035965,0.335205,-0.14917,0.053955,-0.427403,-11.902904,-1.183391,1.869708,0.827604,0.756594,-0.047852,0.69043,0.004639
-0.32446,-8.415598,-1.927038,1.269543,-0.456692,0.76579,0.094971,0.79834,0.178711,-4.108601,1.401988,10.35051,0.258765,-0.531415,-0.555102,0.207031,-0.185791,-0.355469,2.849066,-11.125044,4.45044,-0.936056,0.30228,0.331597,-0.234375,0.129883,-0.17749,-5.939568,-7.375499,1.546819,0.102128,-1.95234,-0.941119,0.326904,-0.138916,0.033936,-0.023812,-7.792485,-0.078584,2.150013,0.734397,0.516495,-0.044189,0.690674,-0.040771
-0.535448,-9.863321,-2.053922,0.527651,-0.424698,0.653587,0.114746,0.802002,0.163086,-3.915646,1.849638,9.885711,-0.532702,-0.695717,-0.480284,0.202881,-0.172363,-0.359131,1.926697,-11.098867,4.256899,0.082151,0.092656,0.040916,-0.231445,0.135254,-0.185059,-4.373092,-7.374945,1.353909,-0.591821,-1.253057,-0.251838,0.32959,-0.135742,0.018066,-0.330876,-7.774011,0.049262,0.182587,1.012535,0.833653,-0.01709,0.693359,-0.049316
-0.742735,-9.834641,-2.183477,1.084608,-0.292312,0.712447,0.120117,0.800049,0.157471,-3.015379,-0.446608,9.642451,-0.82053,-0.631311,-0.438951,0.204346,-0.1604,-0.373047,1.822385,-8.695697,4.501999,0.5371,0.18488,0.081958,-0.237549,0.128906,-0.178955,-6.584697,-9.306451,1.815879,-0.325573,-1.018518,-0.109947,0.321045,-0.139648,0.019531,-1.372294,-11.543088,-0.650238,0.157663,0.817733,0.815791,-0.004395,0.691406,-0.047607
-1.023528,-10.626487,-1.459825,0.869619,-0.246109,0.627854,0.128174,0.804688,0.142334,-3.595767,-0.987345,9.269288,0.129988,-0.548463,-0.478387,0.196533,-0.163818,-0.371338,0.940008,-5.74982,5.142814,-0.104313,0.036788,0.16154,-0.239746,0.133057,-0.179443,-5.270486,-8.053286,2.210818,-0.131878,-1.766209,-0.716738,0.317139,-0.12793,0.001221,-1.197165,-11.342538,-0.369368,1.916044,0.676701,0.605592,0.007812,0.689453,-0.090332
-1.309587,-10.599845,-1.925487,1.784685,-0.091949,0.699116,0.145752,0.811768,0.11499,-3.821414,1.080415,10.070953,-0.020214,-0.685942,-0.531488,0.188965,-0.166748,-0.368652,1.863634,-7.994291,4.10279,-2.318233,0.008329,0.696077,-0.23584,0.152832,-0.167236,-3.445765,-8.363026,2.349127,-1.338997,-1.106439,-1.064128,0.315186,-0.111816,-0.009033,-1.222707,-8.571116,1.293214,1.755657,0.611475,0.569204,0.031006,0.689697,-0.123291
-1.947261,-8.482612,-1.530699,1.56531,-0.210924,0.608155,0.15332,0.818604,0.096924,-3.207496,-0.299529,9.353975,-0.633864,-0.63502,-0.477648,0.190186,-0.158936,-0.377197,1.610589,-14.380265,2.57091,-1.026306,0.184482,0.245746,-0.241699,0.159668,-0.154053,-6.156737,-11.463916,2.336714,-0.528633,-1.850858,-0.060145,0.306641,-0.103027,-0.012939,-0.435655,-9.971019,0.699118,0.9554,0.880754,0.817555,0.047119,0.689209,-0.130615
-1.900528,-9.679556,-1.46964,1.169314,-0.296431,0.541235,0.162842,0.803223,0.071533,-2.864205,-0.768267,9.679339,0.11985,-0.699841,-0.498553,0.177002,-0.161377,-0.380859,2.408005,-8.532927,3.407161,1.381651,0.419312,-0.117073,-0.240234,0.145264,-0.175049,-2.717436,-9.082362,2.040008,0.015834,-2.221453,-1.504314,0.300537,-0.096924,-0.038818,-1.39885,-9.846241,0.201745,1.929329,1.298817,0.579318,0.067383,0.663818,-0.174561
-1.656339,-11.853356,-1.229007,1.631101,-0.239507,0.381004,0.170654,0.814941,0.052734,-2.167133,0.470781,10.365874,0.078047,-0.496493,-0.426032,0.188232,-0.158691,-0.388916,1.032357,-5.895238,4.258322,-1.268132,0.450386,0.301607,-0.237549,0.16626,-0.161133,-4.094934,-8.331487,2.457767,-0.539294,-1.512983,-0.108934,0.299072,-0.07666,-0.039062,-1.945566,-9.182017,0.991914,1.467616,1.204539,0.645288,0.090088,0.669189,-0.194336
-2.533849,-11.030086,-1.062267,3.41231,-0.160625,0.364857,0.175781,0.802734,-0.00415,-2.311618,-0.509415,9.723373,-0.215978,-0.469808,-0.304036,0.178955,-0.151611,-0.387451,1.596321,-11.967883,2.949636,-1.477926,0.113382,0.251621,-0.241455,0.165527,-0.157715,-5.232997,-9.571409,1.928789,-0.374653,-2.266487,-0.921294,0.2854,-0.067871,-0.055664,-2.115395,-11.965205,0.927698,2.350791,1.222469,0.85669,0.112549,0.642822,-0.236328
-1.415997,-5.130605,2.669158,2.539908,-0.202842,0.318243,0.180908,0.802002,-0.05542,-3.16533,-0.337588,9.436969,0.384119,-0.287936,-0.287705,0.172363,-0.153564,-0.38916,1.877875,-11.200333,3.316347,0.505786,0.355674,0.002191,-0.244385,0.172852,-0.178955,-1.873735,-8.432332,1.915565,-0.208081,-1.935769,-0.294992,0.276367,-0.052734,-0.084961,-2.096159,-7.833486,2.468327,3.815357,1.233514,0.287499,0.12915,0.621094,-0.312012
-2.209562,-9.830409,1.79473,0.529556,-0.047877,0.188064,0.179443,0.794678,-0.060303,-3.058371,1.240249,10.114278,0.163589,-0.721752,-0.272385,0.172363,-0.161621,-0.388916,1.800297,-7.24017,4.042378,0.084225,0.262076,-0.006909,-0.244629,0.168701,-0.176025,-3.555625,-9.555317,2.475472,-0.666189,-1.316831,-0.507787,0.263428,-0.045166,-0.087402,-2.392268,-4.585684,4.067996,1.323817,1.367839,0.671489,0.149902,0.601318,-0.32373
-2.015598,-10.774229,1.445409,2.182882,-0.029666,0.299479,0.192383,0.788574,-0.095459,-1.716378,0.059496,9.906951,-0.520441,-0.464563,-0.13073,0.16748,-0.154053,-0.393555,1.655153,-8.726175,3.341774,-1.236967,0.285903,0.335602,-0.234131,0.17749,-0.175293,-3.103102,-9.383052,2.634486,-0.140503,-1.785838,-0.462768,0.259521,-0.031494,-0.100098,-2.988741,-9.651743,2.955989,-0.102089,1.364295,0.738991,0.181885,0.600342,-0.323975
-2.512454,-7.879033,2.485934,1.501235,0.021347,0.126448,0.194092,0.785156,-0.116943,-2.563872,-1.391287,9.412656,0.072806,-0.476693,-0.137808,0.16626,-0.153809,-0.400879,1.148577,-11.603187,2.196579,-0.469732,0.251162,0.097937,-0.23291,0.191162,-0.176514,-2.095757,-8.666216,2.623926,-0.427231,-1.687559,-0.448874,0.248047,-0.013916,-0.108887,-3.156041,-11.833598,2.334922,1.885045,1.287051,0.535561,0.207275,0.587402,-0.349609
-1.713451,-10.070814,2.192978,1.439604,-0.05039,0.135073,0.193848,0.769043,-0.141846,-1.447969,0.623181,9.836335,0.696233,-0.466679,-0.116277,0.155762,-0.162842,-0.399902,2.263844,-9.572136,2.604437,0.339162,0.324705,-0.015337,-0.235352,0.183838,-0.184082,-2.266207,-10.359485,2.122203,-0.652388,-1.890214,-0.240293,0.236328,-0.01001,-0.11792,-2.754705,-7.221567,3.593655,2.854185,1.128779,0.411541,0.223389,0.551025,-0.388184
-2.398071,-8.807768,3.080925,1.629795,0.165073,0.159693,0.188232,0.765137,-0.158203,-2.854651,1.484396,10.413683,-0.156059,-0.369417,0.047828,0.167969,-0.163818,-0.406982,2.140563,-8.754096,3.19785,-0.386184,0.439293,0.109377,-0.239746,0.194824,-0.178223,-1.173318,-11.08188,2.007313,-0.179759,-1.899009,-0.530036,0.21875,0.008545,-0.119629,-2.742604,-6.541494,4.370469,0.427401,1.56858,0.569126,0.240234,0.550049,-0.377197
-3.161846,-9.294289,3.237192,1.389341,-0.090782,0.077488,0.191895,0.74707,-0.189209,-2.088996,-0.834709,9.895276,-0.278652,-0.603664,0.153703,0.153564,-0.164062,-0.39917,2.471031,-10.100616,2.886386,-0.664142,0.369893,0.050066,-0.235352,0.191162,-0.192627,-0.928471,-9.605829,2.59061,-0.091762,-1.516918,-0.516102,0.212402,0.016602,-0.143799,-4.168407,-10.900042,3.114102,0.81718,1.574223,0.912476,0.272217,0.527588,-0.39502
-2.766924,-9.227875,3.620079,1.569096,-0.022601,0.007045,0.186523,0.731201,-0.210938,-2.073627,-0.65686,10.406446,0.659845,-0.372099,0.273577,0.14917,-0.16333,-0.414795,1.740471,-11.078434,2.949746,-0.233784,0.684891,0.033847,-0.232422,0.1875,-0.196289,-1.902123,-10.2331,2.848,-0.480042,-1.478269,-0.348402,0.198975,0.025391,-0.148438,-4.322006,-8.634677,3.563574,2.503756,1.441427,0.224385,0.29126,0.490234,-0.419189
-2.342906,-8.877818,3.748899,1.606689,-0.167006,-0.05945,0.196289,0.724365,-0.234619,-1.622052,0.894544,10.115438,0.50595,-0.458829,0.2855,0.142822,-0.169922,-0.42041,0.349767,-10.184237,3.120857,0.309486,0.49544,-0.138118,-0.221924,0.193848,-0.203125,-2.506488,-11.168045,2.306704,0.08692,-1.675315,-0.40097,0.195801,0.046387,-0.157959,-3.309056,-5.942892,4.498804,1.571374,1.41932,0.760828,0.328613,0.474121,-0.432373
-2.593422,-8.138605,4.37422,1.56643,-0.075769,-0.083178,0.181641,0.713379,-0.250977,-1.587002,0.09303,9.696034,0.177433,-0.285691,0.413699,0.136963,-0.168457,-0.418945,2.225772,-9.123652,3.03871,0.163095,0.306414,-0.191778,-0.227539,0.199707,-0.204834,-0.69472,-9.715993,2.623025,0.412066,-1.868029,-0.461751,0.17334,0.064941,-0.162354,-4.188179,-7.923432,4.006957,0.617325,2.003919,0.529842,0.348145,0.463867,-0.418945
-2.061409,-7.368789,4.62979,1.224187,-0.170084,0.003155,0.192383,0.706299,-0.269531,-2.082094,0.110347,8.792699,0.743075,-0.469587,0.485284,0.124512,-0.182617,-0.418213,1.867382,-9.17216,2.949504,-0.002082,0.677965,-0.135289,-0.210693,0.206787,-0.213867,-0.036163,-9.757564,2.491168,-0.211846,-1.41398,-0.385508,0.170166,0.086182,-0.172852,-5.165957,-8.41184,4.212226,1.393973,1.593964,0.710866,0.384521,0.449219,-0.422852
-2.363294,-7.536147,5.587392,0.537914,-0.063257,0.07973,0.197754,0.707275,-0.275879,-0.988248,1.34064,9.663826,0.704715,-0.449806,0.636809,0.11792,-0.190674,-0.415771,1.829582,-9.087693,3.142309,-0.167148,0.332523,-0.288506,-0.203857,0.213379,-0.217285,-0.719845,-10.770544,2.893087,-0.218749,-1.38527,-0.58252,0.162354,0.11084,-0.181885,-4.657726,-5.632326,4.366612,1.395887,1.849872,0.270936,0.415039,0.43335,-0.425049
-1.697554,-8.971193,5.476428,-0.063311,-0.046121,0.28586,0.190186,0.69751,-0.278809,-1.199503,1.47902,9.735919,0.373936,-0.461824,0.796444,0.122314,-0.194336,-0.42627,2.551436,-9.53609,2.826815,-0.138384,0.575678,-0.275343,-0.20752,0.199463,-0.223633,0.450173,-10.279398,2.679689,0.354958,-1.565754,-0.665552,0.13916,0.111816,-0.195068,-6.951318,-4.96379,5.177983,-0.758858,1.978375,0.35323,0.430664,0.423584,-0.39502
-1.988355,-9.978548,5.070402,1.025779,0.291684,0.012933,0.192139,0.692139,-0.293457,0.06357,0.056758,9.809153,0.594606,-0.340519,0.932149,0.103027,-0.209473,-0.420654,1.494155,-10.136682,3.048124,-0.238346,0.344281,-0.312614,-0.20459,0.208008,-0.226562,0.890138,-9.242394,3.063082,-0.153445,-1.015949,-0.64206,0.12793,0.138184,-0.202637,-6.012814,-10.668994,3.186461,-0.47215,1.338403,0.834975,0.456787,0.428223,-0.380127
-1.730611,-7.163084,5.515703,1.138642,0.228482,0.206905,0.201172,0.681885,-0.310059,-1.305148,1.12492,8.944706,1.454353,-0.238641,1.012916,0.105957,-0.217529,-0.411377,2.008394,-10.408334,2.801703,0.272104,0.322979,-0.418299,-0.197021,0.206299,-0.232422,-0.491497,-11.021661,2.768063,-0.031046,-1.122993,-0.373218,0.119141,0.154785,-0.208252,-5.991101,-8.883113,3.422782,2.040751,1.641135,0.319718,0.481201,0.403076,-0.386719
-2.093363,-8.292587,4.865822,0.590969,0.470473,0.153607,0.212402,0.679443,-0.312988,-0.575234,2.481591,9.533882,1.051192,-0.455112,1.099069,0.089111,-0.238525,-0.399902,1.620699,-9.721438,3.243304,0.392584,0.398403,-0.457561,-0.188477,0.205811,-0.238281,0.8478,-11.101175,2.424697,0.415721,-1.180936,-0.787442,0.109863,0.168945,-0.215576,-5.748474,-4.979836,4.112769,0.907094,1.272145,0.69963,0.50708,0.382812,-0.375488
-1.530194,-8.459466,4.887973,1.092325,0.394767,0.38983,0.216797,0.663818,-0.332275,-0.682661,1.283113,9.023752,0.731797,-0.424511,1.251561,0.073242,-0.253174,-0.401611,1.57626,-9.962577,3.295117,0.412385,0.275156,-0.472145,-0.19043,0.206787,-0.249756,0.29292,-9.870674,2.663428,0.869995,-0.806736,-0.586382,0.091797,0.185059,-0.23291,-5.472675,-7.460947,3.390023,-0.577276,1.655794,0.769202,0.529541,0.380127,-0.354492
-2.677916,-6.701187,5.731047,0.777076,0.658028,0.48128,0.22876,0.657959,-0.340576,-0.846274,1.485043,9.572916,1.390489,-0.588995,1.226152,0.057861,-0.266357,-0.388184,1.588911,-9.273041,3.421897,0.447382,0.459934,-0.455578,-0.187012,0.206787,-0.256592,-0.032549,-8.007013,3.278199,0.406171,-0.976913,-0.796761,0.073486,0.200684,-0.239014,-6.587957,-8.786021,2.479804,0.649316,1.53953,0.700429,0.550781,0.364502,-0.341309
-2.709389,-8.010783,5.022901,0.27911,0.542675,0.458937,0.248535,0.64624,-0.34668,-0.14072,2.228463,9.531711,1.25718,-0.681034,1.364589,0.043701,-0.273682,-0.382568,1.281394,-9.474579,3.943593,0.159457,0.455088,-0.329902,-0.169434,0.20166,-0.268799,0.561082,-9.461291,2.81948,-0.142816,-1.138561,-0.326653,0.06958,0.20874,-0.250977,-6.498109,-5.318949,3.036085,1.053021,1.315359,0.509112,0.578857,0.340088,-0.33667
-3.37202,-7.601161,5.341451,0.621254,0.620903,0.669348,0.259277,0.63916,-0.34668,-0.329708,2.106165,9.499905,1.18389,-0.666204,1.450695,0.028809,-0.295898,-0.380615,1.538666,-9.98518,3.686367,0.27582,0.500939,-0.390245,-0.168457,0.205322,-0.269043,0.872459,-10.792555,2.450658,0.276385,-0.778992,-0.716818,0.051025,0.220703,-0.24707,-6.301943,-4.29448,3.18135,-0.382148,1.663951,0.52839,0.594482,0.335693,-0.296387
-2.945154,-6.72292,5.713392,0.308421,0.669764,0.478297,0.265625,0.641357,-0.361572,0.763607,1.776673,9.357474,1.461355,-0.788468,1.535723,0.005371,-0.311279,-0.376465,1.340514,-10.189318,3.504615,0.630857,0.574366,-0.313751,-0.16748,0.212158,-0.293701,0.444951,-9.254002,2.867709,1.012165,-0.839238,-0.579972,0.025879,0.234863,-0.276855,-7.594419,-6.817692,2.088885,-0.569181,1.644901,0.641304,0.606689,0.337158,-0.283203
-3.043787,-7.574147,5.547521,0.29852,0.729189,0.524055,0.28125,0.63501,-0.356201,0.991572,2.779173,9.342699,1.960567,-0.655389,1.656002,-0.00708,-0.319092,-0.354004,1.827288,-9.566321,3.878562,0.956946,0.637399,-0.337322,-0.156006,0.210693,-0.296143,1.295252,-8.250281,3.008848,0.642679,-0.912365,-0.628972,0.013916,0.23584,-0.279053,-7.415574,-6.091296,1.812324,0.692374,1.413653,0.337192,0.625977,0.323486,-0.263184
-2.187671,-6.816233,5.773261,0.276166,0.984252,0.499864,0.300537,0.633545,-0.355469,0.963163,3.670106,8.463481,1.829418,-0.770709,1.769274,-0.029297,-0.343018,-0.330322,1.384138,-8.220118,4.164534,0.740668,0.851551,-0.253467,-0.14502,0.212646,-0.304688,1.055069,-8.799202,3.162976,0.283087,-0.699449,-0.39405,0.003174,0.246094,-0.282715,-7.617358,-3.453177,2.612643,0.301084,1.419196,0.328184,0.639893,0.317871,-0.239746
-3.409255,-6.929075,5.735995,-0.317581,1.111398,0.658945,0.324219,0.628662,-0.354736,1.659624,3.06138,8.144741,1.712689,-0.827914,1.884682,-0.0625,-0.363281,-0.321533,0.926456,-8.108752,3.826971,0.510641,0.850386,-0.237806,-0.12793,0.209717,-0.321289,0.320425,-9.143929,3.090093,0.592934,-0.824984,-0.64921,-0.00708,0.24707,-0.298584,-8.027956,-4.362574,2.011012,-1.126413,1.34758,0.04327,0.656006,0.321045,-0.213623
-3.30393,-7.380806,5.441571,-0.162487,1.316303,0.613375,0.3479,0.63916,-0.345703,2.317411,2.581152,7.762978,2.214549,-0.608823,1.937911,-0.074707,-0.373535,-0.290039,1.149539,-7.719403,4.006164,0.450365,0.919841,-0.294703,-0.118896,0.220703,-0.328369,1.045451,-7.307785,3.595639,0.52397,-1.040985,-0.672352,-0.024658,0.261963,-0.30249,-8.2098,-7.113219,1.02143,-0.777141,1.186514,0.221059,0.666748,0.328857,-0.186523
-3.610071,-7.146111,5.642286,-0.191051,1.361384,0.609307,0.359131,0.633057,-0.335449,2.555246,3.957202,7.498462,2.955029,-0.507877,1.997586,-0.105225,-0.391602,-0.264404,0.881406,-8.421314,4.064961,0.448529,1.000748,-0.181061,-0.115234,0.217285,-0.334961,1.374306,-8.355284,3.138028,0.149241,-0.926275,-0.543686,-0.049072,0.255615,-0.303955,-8.309071,-6.254994,1.184059,0.139375,0.998863,-0.039398,0.665039,0.323242,-0.169189
-3.432743,-7.652753,5.287412,-0.335159,1.610643,0.668493,0.387695,0.625244,-0.326172,3.243913,5.491664,7.534351,2.847623,-0.300256,2.009877,-0.130371,-0.397461,-0.241455,0.540851,-8.310935,4.409741,0.742428,1.059507,-0.293952,-0.101807,0.207031,-0.343994,1.147091,-8.598575,3.618501,0.61719,-0.869308,-0.754033,-0.06543,0.248291,-0.310791,-8.179723,-4.918267,1.466675,-0.321266,0.804261,0.094952,0.674316,0.312744,-0.152344
-4.113064,-7.43405,5.362934,-0.223927,1.647729,0.681966,0.406738,0.629395,-0.31543,2.724952,5.796123,7.170095,2.772056,-0.185398,2.025112,-0.154053,-0.419189,-0.205078,-0.158426,-8.012493,4.831532,0.577321,1.068225,-0.166779,-0.0979,0.213135,-0.354492,0.987078,-7.817663,4.275835,0.421852,-0.816594,-0.683547,-0.089844,0.253418,-0.314697,-8.026459,-5.80887,0.951501,-0.83883,0.635915,-0.041954,0.671387,0.32251,-0.132568
-4.63148,-6.749114,5.102677,-0.44268,1.716468,0.737077,0.439209,0.625732,-0.295654,3.397186,6.878692,6.646844,2.960563,-0.189089,1.905683,-0.16626,-0.428467,-0.175049,0.823782,-8.267854,4.905859,0.410188,0.982526,-0.281244,-0.080566,0.20874,-0.359619,1.060905,-8.3993,4.093986,0.075224,-1.112371,-0.685058,-0.101562,0.251465,-0.314453,-7.995193,-6.527801,0.428819,-0.577036,0.48115,-0.03823,0.680908,0.322266,-0.119629
-5.477424,-7.423189,4.370166,-0.62526,1.675826,0.712067,0.452637,0.634766,-0.289062,3.712861,7.54138,6.53207,2.5776,0.012008,1.920184,-0.192383,-0.415771,-0.138428,0.383154,-8.192436,4.912494,0.579474,1.352791,-0.203884,-0.073242,0.214355,-0.371826,2.390037,-8.728227,3.932178,0.30911,-1.14496,-0.729794,-0.125488,0.255615,-0.320312,-7.748265,-5.770239,0.426985,-0.391411,0.270127,-0.104502,0.67627,0.333252,-0.116455
-5.317438,-6.967275,4.297997,-0.39145,1.546209,0.737045,0.485352,0.624756,-0.272949,4.002826,6.947146,5.618065,2.537749,0.108509,1.770601,-0.20874,-0.426025,-0.103516,-0.135954,-7.7033,5.294355,0.55004,1.082405,-0.28563,-0.053223,0.209717,-0.381348,2.203379,-7.548542,4.136703,0.541011,-0.887083,-0.89394,-0.137451,0.244629,-0.321533,-7.368384,-5.346506,0.323124,-0.802069,0.25265,-0.137639,0.685059,0.329834,-0.102783
-5.240699,-6.544538,4.149436,-0.796762,1.578016,0.709157,0.491455,0.633057,-0.252197,4.313383,7.848784,5.391624,2.786827,0.138374,1.726301,-0.229492,-0.418213,-0.066406,0.575155,-8.217596,5.390353,0.320221,1.26131,-0.077642,-0.053467,0.214844,-0.388184,2.239392,-6.719783,4.492287,0.272321,-1.105306,-0.67789,-0.171387,0.247314,-0.324707,-7.740865,-6.258743,-0.333214,-1.005434,0.146512,0.000857,0.670654,0.340332,-0.090332
-5.400088,-7.312706,3.349235,-0.889253,1.581699,0.769454,0.516602,0.62793,-0.229004,4.809615,8.390569,4.709985,2.257163,0.183449,1.751888,-0.246338,-0.416748,-0.055176,-0.003121,-8.307564,5.600415,0.537609,1.231852,-0.163847,-0.034424,0.209961,-0.391602,3.34396,-7.685617,4.49744,-0.24872,-1.212316,-0.585797,-0.182373,0.240234,-0.313721,-7.954297,-6.309399,-0.78299,-0.830211,-0.243153,-0.245238,0.678223,0.340332,-0.082031
-6.18589,-6.285046,3.299581,-0.985413,1.527774,0.835597,0.534668,0.628174,-0.211182,5.018309,7.842135,4.041218,2.150255,0.253416,1.720629,-0.259521,-0.402588,-0.03125,0.86576,-7.535642,6.088843,0.335385,1.311043,-0.179472,-0.024902,0.208984,-0.403564,3.484528,-9.227769,4.348808,-0.107638,-1.078592,-0.601801,-0.20459,0.240479,-0.314941,-7.018592,-5.286054,-0.83549,-0.982394,-0.612423,-0.172171,0.673584,0.342285,-0.087646
-6.697411,-6.401575,2.944355,-1.453298,1.387399,0.741383,0.555908,0.628174,-0.178467,5.540856,8.276692,3.774663,2.50753,0.173998,1.714178,-0.280273,-0.400879,0.005127,-0.643853,-9.117764,5.868622,0.049758,1.512533,0.06414,-0.000977,0.210449,-0.403076,2.821705,-8.468503,4.69024,0.500838,-1.249271,-0.88964,-0.216797,0.229492,-0.310303,-7.019002,-5.311573,-1.078927,-1.560845,-0.508905,-0.263283,0.676758,0.349609,-0.076904
-8.552449,-6.360775,1.055663,-0.682297,1.453904,0.629532,0.565186,0.637207,-0.149902,6.269767,12.262298,1.023045,3.776972,0.073709,1.48674,-0.293945,-0.393311,0.040527,0.065328,-8.843004,3.697783,1.35408,0.973999,-0.029043,0.002441,0.213379,-0.40625,3.548694,-6.842508,4.256277,0.549708,-1.684868,-0.903064,-0.25,0.235107,-0.29248,-7.255765,-5.962304,-2.962176,-1.207471,-0.9514,-0.139686,0.664551,0.367432,-0.071045
-16.203887,-1.882569,1.970898,-2.762899,-0.405761,0.454423,0.56665,0.634277,-0.126953,3.860456,23.621682,2.768908,-1.784585,0.72161,0.221726,-0.297607,-0.385254,0.003662,2.906073,0.360997,8.803543,-0.827906,1.290783,-1.383779,0.009766,0.210449,-0.402588,7.089173,0.085966,6.148855,-0.763031,-2.293404,0.32204,-0.265625,0.228271,-0.268555,-3.857974,-0.146244,-1.702143,-0.789782,-0.529047,-0.946751,0.657959,0.367676,-0.066895
0.710905,-10.262809,-0.405923,-3.949947,-1.154882,0.198651,0.562256,0.653564,-0.091553,5.908802,6.926424,4.230921,-8.704633,-0.860846,1.527886,-0.316406,-0.36499,-0.074463,-0.586082,-6.861297,4.543976,-6.475576,2.02141,-0.011446,0.028076,0.271973,-0.355713,1.474709,-6.063241,2.622862,-5.738563,-1.67557,2.960668,-0.252441,0.287354,-0.210693,-7.285977,-4.712526,-2.088192,-5.711843,1.341074,-0.447621,0.650391,0.384766,0.004639
-10.417329,-7.896771,0.790161,0.006609,0.582345,0.451639,0.572266,0.651123,-0.09668,7.548636,-7.360118,2.138642,-2.713297,0.42515,0.76483,-0.313965,-0.363037,-0.112061,-1.282202,-18.827394,1.901228,-2.987511,0.776273,-0.441078,0.032715,0.303223,-0.342041,1.946783,-18.160655,-0.367317,-2.177724,-3.348711,0.150822,-0.269775,0.301514,-0.17627,-10.3808,-12.558825,-3.792139,-1.53408,-0.876764,-0.352804,0.650635,0.394531,-0.00415
-2.367167,-1.961525,2.739712,-1.961129,-0.141559,-0.207184,0.566162,0.660889,-0.06665,4.627647,3.716026,6.237933,3.504944,-0.417186,1.231301,-0.333008,-0.36084,-0.08667,2.21852,-11.554389,2.621395,1.52287,2.018046,-0.538899,0.044922,0.300049,-0.343994,6.121507,-8.272093,1.28257,1.64518,-2.301773,0.66613,-0.281982,0.299316,-0.164062,-6.508686,-2.748237,-1.053686,2.057678,-0.876367,-1.584175,0.629883,0.416992,-0.0271
-9.338458,-11.012162,0.033026,-1.893101,0.705514,-0.211039,0.563477,0.664795,-0.030273,7.475584,10.078115,5.385522,-0.358061,-0.085595,0.965424,-0.342529,-0.349609,-0.087158,-4.992167,-5.11322,4.75835,0.077729,1.491075,0.057041,0.057617,0.300537,-0.337402,2.539211,-7.653782,1.265036,-1.935248,-2.217988,-0.380074,-0.300049,0.30127,-0.122559,-8.506212,0.30785,-0.320599,-2.334639,-0.975799,0.136936,0.629883,0.412598,-0.007324
-5.777822,-4.395329,0.008264,0.678589,0.617205,-0.141101,0.577637,0.664307,-0.03418,3.137788,6.827037,4.785824,-1.47052,-0.253817,1.200003,-0.356445,-0.344971,-0.101318,1.56057,-8.000102,4.264057,-1.54467,0.087177,0.119547,0.073242,0.317627,-0.325195,7.569884,-12.650349,-2.268136,-0.065376,-2.921608,-0.168189,-0.300049,0.299561,-0.097168,-5.877683,-9.589782,-4.909615,-3.004659,-1.572395,-0.954637,0.62915,0.43457,-0.000244
-9.622936,-4.311229,0.400418,-2.239031,-0.314147,-0.527819,0.560791,0.676514,-0.005859,8.034529,4.514854,4.443104,-0.921056,-0.816008,0.624313,-0.354248,-0.335205,-0.101562,0.419248,-10.831441,3.724183,-1.435789,1.75914,-0.686012,0.074219,0.330811,-0.309814,6.216528,-3.650312,0.044946,0.909549,-1.086957,0.49035,-0.308105,0.30127,-0.090576,-5.987202,-9.680907,-4.335585,0.814759,-0.851413,-0.431928,0.616455,0.437744,-0.016846
-3.016794,-11.646342,-1.661594,-0.771074,0.44941,-0.33833,0.564453,0.67749,0.002686,6.283805,4.228681,5.976704,-0.816686,-0.040094,1.067656,-0.362793,-0.325684,-0.106934,-3.731427,-10.020341,3.520195,-1.031331,0.56757,-0.256829,0.084229,0.34375,-0.305664,4.549889,-6.328583,-0.606701,-2.925589,-2.634815,1.871443,-0.291992,0.32251,-0.044434,-7.851434,-3.220467,0.013487,0.452822,-1.677539,-1.032042,0.612305,0.448975,-0.05127
-9.499955,-4.193734,1.057576,0.728399,0.208939,-0.574174,0.548584,0.68042,-0.002441,6.712087,3.867746,5.767537,-0.464081,-1.088141,0.644502,-0.378662,-0.322021,-0.106689,0.896538,-10.056008,2.582298,-0.846641,0.051218,-0.215472,0.075195,0.358398,-0.294189,8.038447,-15.833419,-4.68067,-0.841021,-1.275155,0.308284,-0.300049,0.327393,-0.026611,-4.950941,-4.286716,-1.244182,-1.065465,-1.546814,-0.417464,0.59375,0.460205,-0.05542
-6.059121,-5.365259,-1.176324,-1.530085,0.419627,-0.803869,0.539795,0.695801,0.018555,7.506592,5.230457,5.591529,-0.082819,-0.36917,0.772178,-0.380615,-0.312012,-0.109863,-1.405296,-9.712432,3.027162,-0.280447,0.652755,0.252547,0.086182,0.366943,-0.297119,3.298434,-8.063597,-1.121104,2.57371,-0.273791,-0.193179,-0.305908,0.330078,-0.048584,-7.902268,-6.168561,-0.997795,-0.335027,-1.28896,-0.921189,0.580566,0.478271,-0.075195
-8.008868,-9.436416,-2.060842,0.085664,0.005539,-0.992731,0.524414,0.699463,0.016602,5.813328,4.275373,5.624742,-0.730044,-0.933239,0.636607,-0.395264,-0.301025,-0.105225,-0.76652,-8.84115,2.792506,-0.575682,-0.2743,-0.192241,0.07959,0.373779,-0.29248,4.060783,-3.302808,-0.080412,-0.790039,-1.712024,0.438727,-0.302734,0.331787,-0.02417,-4.962049,-5.22447,-0.792367,0.22661,-1.749777,-1.063071,0.559814,0.48877,-0.098145
-6.02257,-4.583084,-0.519201,0.181448,0.365125,-0.939612,0.510986,0.707764,0.020508,9.214256,3.26135,4.982753,-0.03745,-0.75494,0.527555,-0.39502,-0.295166,-0.105957,0.69952,-9.82662,2.612627,-0.748316,0.093889,0.314081,0.085449,0.385254,-0.279541,5.8203,-12.448978,-3.607943,-1.581786,-0.842653,1.051349,-0.297607,0.347656,0.00293,-5.840899,-5.191701,-0.290607,-0.330899,-0.780783,-0.911473,0.541748,0.506348,-0.101807
-6.393082,-7.999707,-1.847069,-0.897155,-0.040975,-1.274215,0.494873,0.718018,0.027344,6.383756,4.400153,5.639408,-0.142138,-0.319808,0.669935,-0.394775,-0.289307,-0.113281,-0.598951,-9.427765,2.299282,-0.341029,-0.027135,-0.138424,0.082764,0.390869,-0.284912,2.290066,-10.9316,-1.547263,1.802757,-0.481148,-0.134778,-0.301025,0.346436,-0.015381,-6.144025,-7.23767,-0.543795,-0.604706,-1.356021,-1.215526,0.52124,0.52417,-0.113037
-5.107089,-8.104242,-1.410715,0.416551,0.556353,-1.051043,0.476318,0.71875,0.030273,7.537885,3.446929,5.45569,-0.770438,-0.746532,0.541125,-0.404541,-0.287354,-0.112793,-0.406321,-8.076244,2.466466,-0.650509,-0.154767,0.056939,0.07959,0.39502,-0.27124,3.34494,-3.70507,0.876022,0.52916,-1.400137,0.604475,-0.299805,0.349609,-0.003662,-4.848398,-7.307734,-0.504108,0.322048,-1.116387,-1.076273,0.494141,0.533447,-0.128174
-5.865901,-5.475988,-0.457217,-0.094442,0.45293,-1.160803,0.466553,0.731689,0.037354,7.348607,2.901002,5.028546,-0.364476,-0.132601,0.812145,-0.411133,-0.284424,-0.108398,0.269075,-8.387407,1.901642,-0.981329,-0.220513,-0.040828,0.083984,0.412354,-0.263184,2.088982,-9.122646,-0.767683,-1.570681,-1.088008,1.074008,-0.283691,0.364746,0.020752,-6.495669,-5.764207,0.639686,0.081026,-1.112321,-1.405272,0.474121,0.554688,-0.13916
-5.710017,-8.559213,-1.871751,-0.557082,0.883418,-1.127724,0.447021,0.733887,0.050049,6.771244,3.980589,5.473254,-0.431059,-0.283681,0.567099,-0.417236,-0.283203,-0.113525,0.241969,-8.461853,1.724722,-0.879761,-0.098704,-0.073265,0.078857,0.415039,-0.252197,1.042996,-11.138555,-1.795811,0.79496,-1.926614,0.487704,-0.282471,0.366699,0.030273,-5.202415,-7.527486,0.200201,-0.764117,-1.653915,-0.943938,0.448486,0.562744,-0.144531
-5.719452,-7.25331,-1.802128,0.344419,0.747059,-1.017263,0.425537,0.739502,0.046143,8.032184,4.622406,5.374445,-1.351478,0.142153,0.709842,-0.415527,-0.272705,-0.128662,0.352945,-8.201442,1.984478,-1.362902,-0.253606,-0.317328,0.072021,0.428955,-0.24292,3.878154,-5.944027,-1.456607,0.384341,-2.158099,0.753499,-0.280518,0.37207,0.039795,-4.949113,-8.299188,0.137495,-0.031847,-1.082588,-1.421303,0.414551,0.578125,-0.15625
-5.011469,-5.925334,-1.85449,-0.64653,0.978645,-1.124142,0.424316,0.74585,0.063232,6.59191,3.672138,5.186581,-2.183659,0.350052,0.596315,-0.421875,-0.255371,-0.151367,0.347933,-8.943772,1.203399,-1.605944,-0.259096,-0.546029,0.080566,0.439697,-0.224609,2.05493,-8.612913,-1.76363,-1.110426,-1.719687,1.666186,-0.244141,0.382812,0.06543,-4.985219,-6.188315,0.362574,-0.050408,-1.577656,-1.12648,0.401367,0.591064,-0.169922
-4.963789,-8.170371,-2.300931,-0.608288,0.875289,-1.08708,0.396973,0.75415,0.077393,6.803745,3.131992,4.701645,-2.437836,0.413269,0.613508,-0.418213,-0.233643,-0.178223,-0.050106,-8.275145,0.552307,-1.371128,-0.316447,-0.720719,0.061035,0.452637,-0.204102,-0.359441,-10.077651,-1.716529,0.201796,-2.285362,1.227698,-0.238037,0.394287,0.079834,-3.024387,-7.069285,0.136735,-1.392011,-1.156215,-1.205214,0.367188,0.612061,-0.15332
-5.102963,-6.709764,-2.022305,-0.335859,0.863023,-0.990789,0.382568,0.751709,0.086426,5.932685,3.073191,4.741698,-2.579633,0.536094,0.543006,-0.426514,-0.225342,-0.199219,0.836543,-7.125354,1.140099,-2.004389,-0.342037,-0.979786,0.049805,0.45752,-0.177246,0.436121,-6.586215,-0.930545,0.032405,-2.581034,1.722121,-0.210449,0.398438,0.094482,-5.041513,-9.686875,-0.556169,-1.212362,-0.791273,-0.864042,0.34668,0.619141,-0.137451
-4.294642,-6.818225,-2.894605,-1.221781,0.634464,-1.033846,0.369385,0.759033,0.097412,6.583087,2.45917,5.319261,-3.163507,0.554179,0.566384,-0.419678,-0.200684,-0.230713,0.061275,-9.003756,-0.526147,-2.605119,0.014782,-0.986875,0.04248,0.474854,-0.152832,0.377146,-9.188896,-1.961217,-1.302073,-2.89426,2.131714,-0.175293,0.4104,0.118652,-4.079327,-8.358489,-0.685058,-0.396511,-1.435706,-1.25097,0.322266,0.637939,-0.14917
-4.342769,-8.494135,-3.735421,-0.647207,0.533216,-1.000758,0.344727,0.762451,0.116211,6.530586,0.146143,5.47186,-3.140857,0.380732,0.485597,-0.422119,-0.17749,-0.242188,-0.989259,-10.390891,-0.913033,-2.119313,-0.530598,-1.28395,0.020264,0.480469,-0.118896,0.710056,-11.256648,-3.204066,0.023201,-2.765736,1.895944,-0.150635,0.414062,0.137451,-2.253763,-7.279378,-0.813794,-1.127492,-0.687754,-0.86395,0.29248,0.64624,-0.126953
-3.567531,-6.620771,-2.186375,-1.001654,0.335175,-1.15366,0.329834,0.759033,0.134521,7.501521,0.695274,5.932775,-2.323376,0.464825,0.405015,-0.421143,-0.152588,-0.256104,1.75233,-8.920016,-0.686362,-1.879801,-0.477006,-1.188499,0.007324,0.480957,-0.093018,-0.525551,-7.781265,-2.990424,0.260997,-2.455913,1.774125,-0.118652,0.416016,0.14624,-4.495354,-8.131224,-0.553683,-1.56843,-0.513536,-0.772595,0.277832,0.652588,-0.099609
-3.348762,-9.562895,-3.148822,-1.276347,0.374802,-1.201123,0.309082,0.763916,0.156494,6.630748,-0.085348,7.054201,-2.567091,0.249028,0.584316,-0.420654,-0.144287,-0.278809,-0.82771,-10.776167,-1.988208,-2.451067,-0.073315,-1.016407,-0.002197,0.486084,-0.055176,0.296544,-10.584471,-4.007216,-1.105815,-2.561261,2.119832,-0.08252,0.419434,0.170166,-3.046029,-9.127411,-1.035246,-1.312102,-1.002334,-1.021187,0.258301,0.668701,-0.075684
-2.743837,-9.095265,-3.17488,-0.436548,0.498126,-1.105307,0.28833,0.769287,0.154053,6.834491,-3.034719,6.057666,-2.219929,0.189328,0.488613,-0.422852,-0.114746,-0.289551,0.224562,-11.06814,-3.431388,-0.686042,-0.87374,-0.955931,-0.020508,0.493896,-0.054688,-0.523558,-11.259025,-3.537294,0.759403,-1.150454,0.975059,-0.066895,0.431641,0.156006,-2.83607,-9.373507,-1.083344,-1.348216,-0.680737,-0.743651,0.233643,0.682373,-0.063232
-2.314282,-8.379648,-2.598203,-0.651486,0.577082,-1.011521,0.262207,0.760254,0.168945,5.614905,-4.189803,5.921749,-0.437446,0.093102,0.533459,-0.420166,-0.112793,-0.277832,1.630661,-7.084403,-2.063188,-0.332369,-0.176589,-0.737859,-0.03418,0.486816,-0.042969,-2.905701,-6.356402,-0.722687,0.401008,-1.18187,0.704268,-0.055908,0.427002,0.159912,-3.37422,-10.629828,-1.519915,-1.147305,-1.084376,-0.967065,0.206055,0.682861,-0.038086
