# sampling frequency: 40
# units are seconds/meters/radians/a.u.
seg1_acc_x,seg1_acc_y,seg1_acc_z,seg1_gyr_x,seg1_gyr_y,seg1_gyr_z,seg1_mag_x,seg1_mag_y,seg1_mag_z,seg2_acc_x,seg2_acc_y,seg2_acc_z,seg2_gyr_x,seg2_gyr_y,seg2_gyr_z,seg2_mag_x,seg2_mag_y,seg2_mag_z,seg3_acc_x,seg3_acc_y,seg3_acc_z,seg3_gyr_x,seg3_gyr_y,seg3_gyr_z,seg3_mag_x,seg3_mag_y,seg3_mag_z,seg4_acc_x,seg4_acc_y,seg4_acc_z,seg4_gyr_x,seg4_gyr_y,seg4_gyr_z,seg4_mag_x,seg4_mag_y,seg4_mag_z,seg5_acc_x,seg5_acc_y,seg5_acc_z,seg5_gyr_x,seg5_gyr_y,seg5_gyr_z,seg5_mag_x,seg5_mag_y,seg5_mag_z
-4.703538648604669,1.8064648311450928,9.82983604196571,-0.716672418748522,0.3277634165931599,0.05879504197907871,0.18797084510776707,0.09067925008881875,-0.5214687402815257,-3.680181853768663,8.843123797845296,3.2041992117920883,-1.6808326229315627,0.820533793824187,-0.4303892447488554,0.08568381511177434,-0.4197155486289332,-0.4165223884979112,-4.8528302461551895,3.2861238214892587,8.682790597006022,0.13696493886985692,0.902619155180319,0.21399353290214948,0.19681552551600376,-0.014076288999463673,-0.5423567481417216,1.5238676328046963,3.057539121141084,9.422826155362733,0.24251936875664085,-0.18707482684291737,0.06173563007350729,-0.232075962215094,0.10833179081013988,-0.6925545886663421,2.0306351192541747,1.7062239085076631,8.405672001850322,0.18829659871398513,-0.2259068286999585,-0.04269216201449688,-0.1345464707395973,-0.002153072860170033,-0.650131363949454
-4.1905378624798075,0.996318810478436,9.618051516097426,-0.760085183061412,0.39015902823036336,0.10920283380864355,0.1949714749771196,0.10286578381634622,-0.5140351810976512,-3.1116478316256937,8.356618846755934,2.9485224451149508,-1.2882768811881904,0.8000890104669697,-0.4774162720394173,0.10142201393890478,-0.40335612354488637,-0.42506414005114457,-4.301782565233828,3.1853792913755887,7.943590593401879,0.3462199987007168,0.876166033320721,0.23900009244288792,0.20569202437170453,-0.019413039648922634,-0.5380990188677726,1.793726890588129,2.309436537043024,9.123729610973834,0.4219148452873346,-0.09977485859160577,-0.04374454831392867,-0.2294007743592681,0.10290175383489868,-0.6879795094994254,2.227172446864137,1.969370510967632,8.999819306144223,0.38084588042038114,-0.17684058675208597,-0.11310526951916372,-0.13663969173625415,-0.009069691138181584,-0.6460620860705876
-4.266157584821011,0.49587263708616547,8.991092968122304,-0.6467222718475855,0.44577122333303504,0.23002643098232672,0.20055118359620924,0.11352057110827081,-0.5027049538938437,-3.4978719490447965,8.417502580933945,2.9332874968913214,-1.324665187304659,0.8398255264954888,-0.5688091551862433,0.11277238643451153,-0.38847843806618604,-0.4335616216785356,-4.7398980159640995,2.969757442763737,7.594160697366036,0.37642002877343905,0.7745119879665915,0.17581960476079364,0.2170542217172463,-0.02573331841069542,-0.530456537539405,1.8056579348024537,2.4832639252236763,9.436560169161888,0.3562230537887237,-0.1172838042235616,-0.1452961235728101,-0.23232136683670238,0.10119861995643159,-0.685036729254016,2.272956552271603,2.467734755142193,8.935775581031166,0.3013704866259871,-0.17489672363702147,-0.009594977845263631,-0.1360909086753444,-0.008176835964805935,-0.6404388670821936
-4.359921337202607,0.17969525441906448,7.760194350470914,-0.49877767893059516,0.6390521279429524,0.40441619325293154,0.21959360860510513,0.11779509206207522,-0.4964377157145447,-4.255517835293217,8.002345872977461,3.588770360074318,-2.0175447244831566,0.7933128272620545,-0.526988809810675,0.13865308669147042,-0.3636066491654329,-0.4522528042009396,-5.206637012983742,2.170603644518726,8.252438230722346,0.13794519614900375,0.6836567565311396,0.030241063105239153,0.22434337553899442,-0.023955226438515876,-0.5324770551714403,1.7272354877494065,2.1555282242243696,9.365312549905486,0.10305430418153011,-0.0771669808731746,-0.09655738694983296,-0.2317993056264218,0.10436422113327158,-0.6845297920962639,2.2388417751662173,3.138489897155181,8.314625277793548,0.08801505180687143,-0.09909657759559465,0.09038118175413522,-0.1366410405267344,-0.002058758843973439,-0.6415577268989858
-4.954341308211344,0.5497394300246478,7.7553101839752925,-0.5401282847304764,0.9291972415564151,0.5311180037657004,0.2291210487172109,0.12004108964413586,-0.4923266121192049,-4.70034298327084,7.259769107824066,3.6751367085383295,-2.115153547612746,0.6304292269560633,-0.42166651799828336,0.1381436495514927,-0.33886504820052077,-0.47391770716618425,-5.580740863941626,2.526451234204047,8.37064288769333,-0.031148102664124,0.6472472465034572,-0.07482867714398002,0.2212281712529379,-0.014786107539289125,-0.5209009550134434,1.7198359991624017,2.579234096128505,9.911075378695251,-0.05803230608217423,-0.001335389522126412,-0.027507258434984718,-0.24064295468962868,0.11388419881712383,-0.6729073977153373,2.3298333405833733,3.4068763187087865,8.907599150791834,-0.06045494135436204,0.0026995606479593686,0.27900631014216976,-0.140728351607091,0.005320281507228876,-0.631382799005987
-5.6460821101744125,0.18017293142289031,8.349649942974073,-0.5363605280439222,1.033512682873048,0.6326459514720687,0.24566466475673607,0.12941750613749825,-0.4862187214784217,-4.882945448814166,6.487512108120995,4.202924706302686,-1.3706589174557113,0.5072571146899363,-0.38192037366652615,0.14746752175210712,-0.31720274783587593,-0.48830918492555675,-5.779176558625992,2.7483687484140273,8.745460532546124,-0.283387155895109,0.5723822867281869,-0.1957740032090391,0.23697356675652548,-0.013048845486618416,-0.5088536899297841,2.207279336420504,2.911509382438437,10.032034943589213,-0.3252200982333836,0.0720278673211629,0.06266185078046498,-0.22756788900229247,0.11807661062338892,-0.6620024373064898,2.8314841731978397,2.9778135957903062,8.46311277070804,-0.30052003525977017,0.12704004344190006,0.35199759673007236,-0.12553668675119647,0.01261982643712449,-0.6221751396007629
-6.0814101960156375,0.11845188805265307,8.541830882427245,-0.22228384798361003,0.9681187585646106,0.6622483042642816,0.26191973594144186,0.1250271070090036,-0.4732078358716437,-5.082654636208258,6.929643241130968,5.108844395111639,-0.1449283653333889,0.4116460648524463,-0.4709827613387642,0.15512942900929672,-0.31855237945761145,-0.4768817931554355,-5.873796724884091,2.7071758121189804,8.627769525023536,-0.36242913491220713,0.5212587024712476,-0.22877054435783598,0.23861834190014902,-0.007649313929675323,-0.5110296735447256,1.9346970452772043,2.715949160191589,9.736727319739382,-0.4186824679463675,0.1759431041466321,0.09731330923664193,-0.23018083989358257,0.12763650008479235,-0.6638623424453217,2.4638446832215615,2.5625918371511807,8.344516168751607,-0.3733778369760125,0.2621566818716537,0.39998288564782214,-0.1255977977300062,0.021640135350705983,-0.6213026686546386
-6.134008349043075,-0.1917220312735084,8.381511073423646,0.3698028471944176,0.8974317523129023,0.7964105871769257,0.2734674215923024,0.1204688791271712,-0.4699322846682285,-5.042184524773254,7.399554362065913,5.301880487081772,0.04735285020519388,0.36474419819430287,-0.472144516040417,0.16071570435387497,-0.31022353701624766,-0.4762536519599264,-5.909541898224327,2.950395932301588,8.31082994254253,-0.34387206618446076,0.5007108839137304,-0.21770963310418898,0.24396612542750779,-0.003463573062152088,-0.5103250348185289,1.6780907175653899,2.8943346847708784,9.468410581760127,-0.400734149105791,0.2990595164061015,0.07328630232455702,-0.2260700365179088,0.12640123382643953,-0.6670811293095804,2.264137306724348,2.5278491244950687,8.048126957456903,-0.32923954103089004,0.37457707657462397,0.44943410147604185,-0.1125057552578875,0.02621093153303839,-0.6260313522101131
-5.847371384514366,-0.6091133229546115,7.4516988493028045,0.598510778331577,0.8242846291313859,0.6998381435336769,0.29197263395367906,0.10619269768989127,-0.4646366335250529,-4.735992286202344,7.632048670167034,5.51326072011106,0.07451419808781096,0.38868559520531587,-0.48207307124047055,0.17099643982823864,-0.3108905726330902,-0.47315265895896313,-5.616203392980703,2.727103869275269,8.113753418763347,-0.3463073872772902,0.5018605000727535,-0.1943053947730291,0.2473953366023552,-0.001745016713995338,-0.5081531027761961,1.7208807728546534,3.224167059748385,9.469924449006317,-0.38249015331159275,0.3984756389407716,0.09750762205806335,-0.22108571475640407,0.13512768682334309,-0.6648624419339857,2.394801645907669,2.385029724277323,8.619079324056981,-0.2839834366677233,0.4669714807791517,0.4059058405693561,-0.1025286177718902,0.03672259932659891,-0.621838447037881
-5.6721790931627,0.22262217508935983,7.347002048919508,0.936357051682791,0.9196605245386915,0.44276553896066656,0.30289980121978993,0.09161158147734223,-0.4609995101377354,-4.729597083630859,8.045434211678543,5.002022262051314,-0.19919606750696012,0.42575001434078075,-0.48456231875537703,0.1750933653014156,-0.3016115081170243,-0.4752053648253555,-5.594001825426456,3.1005665942139293,8.085581249419741,-0.5344085998360217,0.5056077309692636,-0.23714088249691478,0.25126158161835443,0.008999038620221977,-0.5044551211035078,1.606619457513854,3.555205664439714,9.641964428027498,-0.5489784601424166,0.4289146343789615,0.21595788805742402,-0.21386547822577795,0.14798328562076477,-0.662631502893684,2.383166597488403,1.80874886694937,8.586670869378592,-0.4351429604390892,0.5450461683899308,0.23966891923810327,-0.091815128648088,0.04578665762909409,-0.6184100567620898
-6.4690908287951645,0.8558802243167739,7.419385241312096,0.7464904230086594,1.0050972599168864,0.34391671900900644,0.3204481780666351,0.07274066428810808,-0.45990745497512747,-5.354278125689347,7.188409846324635,5.0190835501754325,-0.6479497282248833,0.4171590412454954,-0.36009877051919953,0.18579120269719604,-0.3040621673184075,-0.48234895443647663,-6.182621635840824,3.03850869893561,7.976499501976011,-0.7183883525980712,0.49761599916673865,-0.287183889065382,0.25785060262856535,0.016580532057152673,-0.49958906146630894,1.3927794662683828,3.074454273023985,9.179636856755812,-0.7236074675508501,0.5214453333919842,0.28564029884168624,-0.20860673294563237,0.15791212503421892,-0.658209149336992,1.887783017745652,1.1811519694843295,7.697493241687413,-0.591930448007822,0.6779815112250571,-0.03243519699719341,-0.07477712422789398,0.05758670071807029,-0.6150163869968128
-7.6204419805095895,1.479787198231206,8.499718139552636,0.6522530284013035,0.8281461234446589,0.3744118559459784,0.3289092220691599,0.06368440291759389,-0.4512968176365635,-5.670760787636366,7.112407139549095,5.3777297731622635,-0.6386292093227014,0.417761428074355,-0.3976481290024345,0.18940019415391318,-0.288657878612596,-0.4812699733739222,-6.485636080159773,2.7125356714892774,8.211896782037936,-0.496688054591979,0.4832279204498128,-0.14879866302283995,0.2546404584707578,0.02362565673805985,-0.4980372580906951,1.4469605889143704,2.8518839346042557,9.797096855459005,-0.47570171008737583,0.6723588171325977,0.21486297080697825,-0.2036616584783685,0.16494955201391934,-0.6586877859617921,1.9359013655255537,2.4215991579836396,8.855643169284047,-0.31603575886745966,0.7499284051176761,-0.10298062324402431,-0.0677225494971729,0.06057625997414367,-0.6153001260020575
-6.9480491105259885,1.3273926471175792,8.01168865532131,0.8392387769775552,0.6054549498707643,0.4415717835937977,0.3440343005603959,0.04499262035384241,-0.4472546208052123,-5.330240069732986,6.795050122042513,5.1547109801427204,-0.2801262110712582,0.5344917035047156,-0.4698550286774509,0.20697478681288023,-0.2856477991941425,-0.4802046378558891,-6.35455630815845,3.1749457544317248,8.369583293811262,-0.19152585837652844,0.32291651480054845,-0.02223153472437587,0.26098373748814446,0.030720907056188386,-0.4936610754813107,1.8699460994373325,3.1935596927579972,10.869603106030393,-0.138812499285953,0.7667602792222376,0.14763376086120575,-0.18863045057026762,0.17330408398779942,-0.6519191853441709,2.458973598542057,3.088262468227565,10.504856286108778,0.03243599216515704,0.7712689556495761,-0.008214062848189372,-0.046441782037099914,0.06963302334214355,-0.6061404648944426
-6.355976633645535,0.8872251898598962,7.61440385771769,0.933114696108609,0.641652230285652,0.27613337465903476,0.34762061390403654,0.03419365265153599,-0.44009676378192886,-5.318678877916965,7.553837872087386,5.253847924334246,-0.016691107670527994,0.5850791747877835,-0.44532223213014765,0.2094630232213689,-0.28265037034099627,-0.472432221896498,-5.920128791301926,3.078456624478334,8.806800437273997,-0.15195554026251976,0.22699488490369715,0.020831773930297177,0.2559128949303048,0.028946078951507033,-0.4897118008703935,1.4267282695796255,3.247477671643257,10.501079686743159,-0.11179786833215925,0.7674964945066838,0.12307468344601617,-0.18648574470917142,0.16865208578579852,-0.6529491409247472,1.9688410950243254,2.107114170236487,10.27058472092928,0.030483998629094716,0.7878088278191252,-0.035034588735094456,-0.03733861638895493,0.06623061105632021,-0.6026413188815257
-6.418156465163657,2.814191042264716,7.863555443903984,0.27810591714285327,0.849212550770422,0.012017472867701174,0.36149411103200735,0.035616826068341136,-0.44408564844632875,-5.529611007798177,8.040915313722516,5.990430736799317,-0.21305884778362616,0.45873139344329217,-0.3014920927531751,0.22401293556460655,-0.2760687521034521,-0.4818698498389064,-5.857143094816922,2.6636406869002043,8.90006276853092,-0.3472989063930633,0.38729882215466843,-0.007191484046338389,0.2600918169041689,0.03260168323852124,-0.4846037639252334,0.964232530136508,3.25840512547023,9.38768057488083,-0.3173280790931392,0.8027635786580771,0.19160507020988687,-0.1785069761396367,0.1804942220101637,-0.6465819689655975,1.4022595717690691,2.203090067567041,8.082898353698285,-0.16655193504871738,0.8645211810333214,-0.18646586313392277,-0.02388525580298733,0.0769378591571614,-0.5936047949895104
-7.1850829258515985,3.8630121909601334,8.844209607710415,-0.595209490397812,0.972212826351402,0.009104009621886436,0.3729117838118728,0.03898894990963828,-0.4126254170566699,-5.584534745042339,8.082841486050635,4.977461828152044,-0.7848738570569681,0.4586499224634512,-0.1508459679732549,0.22752756609365551,-0.267872097743134,-0.4648660766534703,-6.376726759063945,2.917963777022005,8.046604805216068,-0.5674570274712081,0.4839015529532556,-0.0772389893380806,0.2714839550357086,0.03614294799044059,-0.48983091522864264,0.7860252845581894,2.9981321907074094,10.455949682029088,-0.48535946127681123,0.900832344809547,0.3157400527126973,-0.15972901153416164,0.18230372437076398,-0.6511257979107171,1.1687284606098758,2.246032291676478,9.859128951628435,-0.29307789516524313,0.9619568742467077,-0.3746155694255303,0.0012072986540651743,0.07647740048079144,-0.5985565494894032
-7.462548640273346,2.796184542398581,8.61772564617879,-1.194742864001236,0.8286103359793692,0.04343463279781461,0.3869275258585633,0.05017197722301929,-0.4159987529410439,-5.5289319362086475,7.858288861762711,5.193734424796211,-0.8620914042078548,0.50288416815633,-0.37708942101661397,0.2376150221046264,-0.26137391444305264,-0.483301692320577,-5.971047222464299,2.6395455314723537,7.997554267305143,-0.3715142042931328,0.32492965746480496,0.006384214222980363,0.2673342003446764,0.04752826965129822,-0.48188859612884166,1.0279784362810682,2.5303136702928675,10.49663505937175,-0.2809217765439263,0.8838190865714072,0.2508692885258933,-0.15642154473743122,0.19421812703181723,-0.6486240621895003,1.2684636646273588,2.3890331092810015,11.200207470574297,-0.1260382132405691,0.9345462116164996,-0.3467040704568859,0.006593141847684224,0.0885854497325701,-0.589400053685317
-7.560017542182772,2.117021426576634,7.801262724128074,-0.6380994991314833,0.5090615073418787,0.15125433171636615,0.38767537988778233,0.05206567328331347,-0.4108518323488638,-5.63811211217857,7.721271768844619,6.185486477168905,-0.6141835565565915,0.4654345737646088,-0.6207011121047338,0.24222653547386175,-0.2569702958648,-0.4845902907307235,-5.975490983552645,2.4616831889640896,8.28074357802478,0.021353691338993546,0.366407775648364,0.16956203094919903,0.2762379445184747,0.03780131324781381,-0.4781511851516722,0.23307745057068774,2.3293347515437173,9.706780215410475,0.11086941850487221,0.8954628309464576,0.12193280130771754,-0.14105989254349982,0.18449254634483436,-0.6405269068140818,0.4270120310386325,2.3082513235254587,9.38839267506069,0.2327703882153207,0.8766805733844523,-0.2543563349444965,0.028993024919732553,0.08006707914351209,-0.5800378990259432
-7.525952376424803,0.9572231321301345,8.018127266619173,-0.019010497800794456,0.3520469271997112,-0.023360272913799933,0.4037697017811654,0.056821804659907806,-0.40651125979207514,-5.677848252571999,7.703711609859127,5.493635122245728,-0.6367552457385299,0.49648940947793124,-0.6403818797801196,0.26167626637506136,-0.2422625519239263,-0.4875327376785223,-6.2459433321877285,2.268120564773304,7.870171174355045,-0.12792901373617155,0.49754675347437693,0.09242872607906032,0.2800558620295369,0.037889302841466216,-0.4862493052242652,-0.07195177467565789,2.2270752937460636,9.751907182531523,-0.06141072288877525,0.9301733301218296,0.15578213316790854,-0.13088038525715445,0.18716627912073497,-0.6520706562244907,0.1198406826332145,2.941496513120835,8.86459321218667,0.07039548479461015,0.9349413688480193,-0.2693108500174547,0.04408465145142624,0.08241793437351347,-0.5823828244651532
-7.622803576251034,1.907531302076093,7.784070675130739,-0.13135960786313602,0.28755524608662447,-0.3559437616732508,0.3970563790065209,0.06965635802693797,-0.40385288337172126,-5.7451390729586995,7.088118218509417,5.6420718670505385,-0.8137340381279177,0.7005098831018017,-0.6363315295871587,0.2693892064915037,-0.2192881307910549,-0.4884929055647003,-6.402416802797039,2.529132526563399,8.157574694324728,-0.4528632388720758,0.4930907289582773,-0.06623237110875499,0.28384797425223773,0.05645560027029448,-0.4839586621541366,0.06308791812357055,2.155152969148556,10.329184246272305,-0.37999783187737834,0.9785045314711989,0.2435391995979724,-0.12117566562704174,0.2046377212514009,-0.6498280102926292,0.14902976441263677,2.2492694162108613,9.698540577505646,-0.2142847961385489,1.0152570331534663,-0.17510208797807564,0.057989730804134415,0.09970116998132034,-0.5720288077025665
-7.055838430706367,1.650801094207655,7.442989652433282,-0.20046957439647312,0.09118878598879535,-0.5755412965419481,0.4051180167606257,0.07380085531968021,-0.3967760779545826,-6.074377686384138,7.632703430838811,5.231387787466434,-0.905091085740011,0.7171078536199587,-0.5821079193856964,0.28868933758331217,-0.20988292558749885,-0.4818725544472738,-6.213302702034517,2.821152683350733,8.484098762888875,-0.47154453389385287,0.5328322957792714,-0.14363891515331104,0.2895948975893375,0.048394169975963505,-0.4774881104954956,-0.05425337252573073,1.9722429736198126,10.52147302965145,-0.4110952605664184,0.990933586739811,0.21970470148998086,-0.10799545961949146,0.20107136265688538,-0.6465498156715213,-0.020520392518951408,1.7104840542285242,10.61257942509312,-0.2634740865984291,1.0397167758510706,-0.2131568288420015,0.07103471503759733,0.09241681422575546,-0.5681496654552298
-5.98939467714994,1.9325590476880699,5.846560407346609,0.09972516627954724,0.29098018686226707,-0.6646956049990979,0.4066608775325307,0.08393325035180672,-0.4047127133595546,-5.600585987712801,7.4820842721181915,4.404612385961634,-0.9705670551258627,0.6390249658587918,-0.48674800922497957,0.30023283073890655,-0.1894164714298889,-0.494074948228053,-5.94187857716713,3.5324217164278604,7.7462476639939135,-0.3330939552059541,0.5852570490068922,-0.21099204002520539,0.29569945924115637,0.05694183987227551,-0.47163359186602455,-0.20756501129392946,1.7937867957194455,10.450280904578504,-0.40461489147071916,0.9436444751642339,0.03587331597658136,-0.0988534401331404,0.20926019728299675,-0.642905861613444,-0.11394293748269635,2.5390904978718702,11.165469427367736,-0.29780688818095863,0.992983948858509,-0.02810674037193894,0.08893291386351294,0.10237039994687547,-0.5555152499531057
-6.437691338692089,3.0197173752203055,6.5184996028163145,0.37924591800477825,0.4965727201498273,-0.48281388106465434,0.4050855375203131,0.07649285575730704,-0.39722972511126453,-6.24460940808483,7.041760150166978,4.9108003874681945,-1.1595780590349765,0.42858222592195355,-0.24222860984091166,0.30115751332832746,-0.18553988724465495,-0.49874983893946173,-6.072719102120866,2.999586762812173,7.386354999115621,-0.21794453294022073,0.6888211410403738,-0.31249804210955706,0.30835148069207846,0.06483801176520777,-0.4702503288242737,-1.1070684302978164,1.7160973707027134,9.48229909922373,-0.40322615567629083,0.8610224253764744,-0.1509146035920092,-0.08635438260768698,0.21525450717927047,-0.6439453821004191,-1.0577485617114384,1.3850301553141138,10.067026616205647,-0.29392179547779723,0.9163251722999446,0.12512562101178415,0.10502205451053759,0.10953573511599782,-0.5529148809111432
-7.180864719953603,2.2494705452276964,7.181479235760393,-0.1876600167393496,0.6321144677546301,-0.28892991935012136,0.415289848483048,0.08913803653149556,-0.3849297319826526,-6.352996359784983,6.484629434351994,5.062137129753844,-1.2578708518875765,0.21259848647574311,-0.33907565542345586,0.3057285059831127,-0.16083154824062978,-0.49457164317908064,-6.432078607271847,1.9943640385105648,7.291159289047914,0.27702402452570124,0.7922841591771234,-0.2023460782090486,0.31730241825138195,0.0480339965295499,-0.4670530253089302,-0.8211426572421008,1.6744741882938514,9.220878053462968,0.07846729297811267,0.9105708519062716,-0.3443561823408627,-0.07669021928078515,0.19925376303313322,-0.6385316702535601,-0.8033123016661449,1.6080264217034428,8.809843456831253,0.20627049615776427,0.8766964376533034,0.17674031385860284,0.11722525682238386,0.09482152421973733,-0.5427912242083248
-8.273711842164605,1.8908465543697184,8.022318529814392,-0.46968293982190656,0.42420781739878016,-0.19962664046417875,0.4186892134766592,0.09279839268053149,-0.38197609380196335,-6.278045253853083,5.691444171686546,5.092644027841435,-1.129765665290941,0.3289221620181185,-0.4795750539999387,0.3168554409031296,-0.1466698176699583,-0.500621007321651,-7.0650832755242785,2.5441247003307095,6.371379490095086,0.635788618503623,0.7492934705161932,-0.14073163102889563,0.3268710375921708,0.04734503942954617,-0.46325711131814523,-1.7360314479676058,1.813153720699065,9.936339310990373,0.4384580560313597,0.9415382655192638,-0.47750386227357083,-0.06886254302154717,0.2038418242413361,-0.6417394487263267,-1.5796233352037754,2.3550857531245066,10.47477718458544,0.5778899584061882,0.8481432007881741,0.24771835314341348,0.12557225080537446,0.09821047643482965,-0.5367352986529914
-8.248129525574011,0.5753726579040765,6.656705248532914,-0.40008104903112124,0.00934967138356313,-0.21754833366444556,0.4195678728556282,0.10160312125976262,-0.3823554436956239,-6.861116037912847,5.056316804608246,6.214878894413099,-1.1375972459691035,0.5686965478751086,-0.6458830815151033,0.327979480159648,-0.12883539574174052,-0.5052313680565333,-7.295152431505301,1.8442981843230686,6.376978547585911,0.919080299442484,0.6283682079065754,-0.0777583012802662,0.3277091619535296,0.03246190846910973,-0.46386278645334167,-2.1841289939148756,1.805494593183931,9.758539979485045,0.6675834708667082,0.9090005019128664,-0.6199272879521562,-0.06511946224593182,0.1886884007181143,-0.6443249327879847,-1.9708464421862184,2.1984170156328537,10.106751700010289,0.8076617769339006,0.7765191918582143,0.35361674359515216,0.13500610364620116,0.08527533375187608,-0.5324105061320421
-7.032004818768021,0.12089583848726831,6.041576593468115,-0.09473234833990571,-0.07854084729633341,-0.31850348769515974,0.412091884834477,0.1166391621205416,-0.38063991219180643,-6.700540010087699,4.574649750436521,6.407844845522169,-0.7618053961899071,0.5132557167459039,-0.6391495171370996,0.3281557786940545,-0.10463464271681955,-0.5012610522185245,-6.720722977952031,1.9489205811076977,7.707207061760273,0.9799554809465237,0.8227539855618037,-0.05334705493309322,0.3352100658884729,0.02049585485259769,-0.45597586804337237,-2.04668523132475,2.3478492769629735,8.93166560291022,0.7562985767778678,0.9368159973748905,-0.6143272185442059,-0.06344170169071109,0.18131544607469727,-0.6399996349548337,-1.7361080086021088,2.2659779002432225,8.1777554180185,0.9251987656372676,0.7626676576239562,0.275734536564908,0.13689309932061544,0.07636147960796486,-0.523536682681814
-7.15004824322174,0.7938594972263682,5.875853096010077,-0.013782445284518744,0.16565093369779993,-0.603545704203937,0.4105716610022989,0.11935568697950914,-0.38425586382183263,-6.756285908886616,4.933995328904487,5.819171869314986,-0.27285216622622666,0.3655289374846089,-0.3829747099601075,0.3339821344214447,-0.10170083471983692,-0.5040121166624713,-7.238571536323898,3.6771188582073524,7.602486149087766,0.5825068138306484,1.0038240681436585,-0.2716574555067132,0.3396355463183217,0.015650657595794995,-0.45654795152302924,-1.4472675959359251,2.9393171697137266,9.92375728678014,0.35177707366446215,1.0258817088039724,-0.5252399029010544,-0.06128053547393591,0.17615742678072083,-0.6385913166149557,-0.9908613582277066,3.0767676819654484,7.9910299292507405,0.5815759666235945,0.8980101366287816,0.1560591928685672,0.1362737401949261,0.06702618073886071,-0.5202549321888715
-7.984552457566299,1.9657347785007495,6.76566602662935,-0.22826309127414476,0.04338027023353359,-0.5152737701711946,0.4125219973253902,0.12345077826422164,-0.37835677011205804,-7.302512487445107,5.346562198833392,5.277844028948955,-0.4431264000747549,0.30386501038281094,-0.2928430900052834,0.3420423454697032,-0.09798833020901017,-0.5016596111652145,-7.9978748766003775,2.9497833438071797,7.783175707710333,0.4479755710969276,0.8362944439042685,-0.36212654430907415,0.36133396182930727,0.012267829517440786,-0.43947610995555575,-1.4363934697840333,2.9757832445120425,10.58509681203947,0.15272143005077699,1.1690377306221558,-0.5560240359688108,-0.0358977881620286,0.170757167611553,-0.6339668124463252,-1.0224490323403765,3.3005539312925647,8.99058883450508,0.4350679022175658,1.0862754769675724,0.15839310463173606,0.16290096675057358,0.062311202054857136,-0.5020947238760901
-7.7532091761685615,0.7060099696121072,6.48370410542083,-0.2021391544787416,-0.0037134915636927897,-0.506404394595886,0.4100134959610404,0.128331035980273,-0.38022813392756166,-7.46290485229447,6.193277763161981,4.665939644274561,-0.6687182508983517,0.26869785909985683,-0.4252452111424688,0.3483404972496466,-0.09041290613440818,-0.504204496869276,-7.933311935844531,2.5793716571311043,6.729070012537053,0.7957710688115718,0.7169592504867014,-0.22679684284847537,0.373768024647542,0.008727913432689057,-0.4435452077603656,-2.288390907206075,2.734687808964536,9.675640957179857,0.5049018653953316,1.3185273177841623,-0.6487194256041801,-0.023039867065406238,0.1679982571024935,-0.640446498231611,-1.9016947110864142,3.3738154759651207,8.730365562333642,0.8149969024171148,1.138761651622742,0.1948910317432599,0.177829002808526,0.05948100570424851,-0.5010991672129743
-8.046367618338307,1.672028633635197,5.959782939597524,0.07038292494035861,0.10074469702668515,-0.3814948025122246,0.4043069823593985,0.14016427561380543,-0.37490480176718755,-7.593236446014848,5.843754480924369,4.4867127111586,-0.9521173535843572,0.28651972367311884,-0.5325447474783692,0.3507287004161356,-0.06667863008110766,-0.4985384478171322,-8.603232327025585,4.034211081387047,6.061798333147422,0.7944906301853093,0.4513612975782948,-0.29754919399519153,0.3683399615618187,-0.002369962156349737,-0.43404441181751824,-3.035859755803751,3.4132505564859597,10.164558819763378,0.47800254518135993,1.4436630261672119,-0.6829714582080791,-0.014024920891146573,0.15931520563721818,-0.6332629683384051,-2.4051283577931803,3.9855982369223786,8.417573770278542,0.8519910379910707,1.2428425511126078,0.17090601234538935,0.17891800283217685,0.04622494405170989,-0.4803174941712632
-7.954647800422205,1.2932249128466202,6.760572948978365,-0.026763440886932145,0.009321686226331501,0.12975320303865148,0.4138588022578265,0.13518620201128081,-0.378457104799847,-7.985844830005936,4.768259971209647,4.430404832097204,-1.0992005558785785,0.21438992681082808,-0.5336952054227885,0.3650513771139067,-0.05419856957226827,-0.5026455727125827,-8.29042337396258,2.966750800493685,6.812015058597269,0.5649747352270661,0.27912423374486006,-0.40376567189082724,0.37798810751211304,-0.010885722566510929,-0.4283522092246242,-3.3332519150155178,3.6802457342640746,9.351533788719072,0.24483512745179853,1.5572290130871003,-0.6342761158410724,0.0054825647223839665,0.1500459929794285,-0.6261752516579381,-2.675232028363958,3.419072624451217,7.459686385655293,0.6821393351069793,1.4196250059879456,0.010852145895298806,0.1969941969584209,0.03613133351580807,-0.4660420881434168
-7.2485746567644895,1.754838986552243,5.897713490663042,-0.3279632929586157,0.16736028187074128,0.4362977695942156,0.4115433684294656,0.14447086613166896,-0.380761368317342,-7.537694146718125,3.9785450833696143,4.666590463246673,-0.5725110412976204,0.033524516791744105,-0.7317350367525081,0.35878446844638623,-0.030117186996965587,-0.5113211362686213,-7.994314908689252,3.0468756839855993,6.362820754522874,0.5323647358166672,0.16616436669048243,-0.33212788259976167,0.3717829206810998,-0.004304320605881127,-0.43311934322996104,-3.587924728128822,3.8171919977639184,8.909831797781305,0.2859843022646458,1.7512873810366507,-0.5366527925521234,0.018461760456976947,0.1555503788936203,-0.6277115666616957,-2.9364827222537384,3.5191414837589146,6.914090288366314,0.8140581001998484,1.571272059823517,-0.29759245706666543,0.20389410142380823,0.03658666933202471,-0.46050302209732225
-7.463847306054082,0.24493643025755565,6.6158847962493965,-0.531033154250088,0.26731017823300457,0.5411234317253705,0.41995186885745883,0.1426897051925825,-0.368392889459313,-7.090872477277484,4.2859530346172034,4.612534692305552,-0.4221164961780133,0.018829149613726354,-0.7257778180415969,0.3651452778794995,-0.024440656989414392,-0.5065280753020792,-7.794477311714031,3.6901634711948255,5.941893730894517,0.18267618103539754,-0.008616212825032004,-0.40396117053236247,0.37453889676304225,-0.009190019794163801,-0.4300110109958884,-4.185666400255241,3.9290558955110844,9.086741406910727,-0.04195927431896722,1.8625352541298015,-0.43017164457372226,0.03944047045914278,0.14896851534343516,-0.622813807189062,-3.5566502189703932,4.90471462186541,7.362137706913631,0.5291303584137677,1.7830574400668529,-0.5265603158282612,0.21708644364469518,0.033465232674885645,-0.44166536805223283
-7.457730652907287,-1.4300393713180797,5.331779295921507,-0.18940993999536332,0.2074314723178349,0.07531605723222748,0.42945726943716445,0.14377865918529042,-0.36917928822654017,-7.007913368802232,3.5991496782645442,5.2126547491856,-0.7734455060597937,0.09999168085252792,-0.5617924423906004,0.37360616399555907,-0.011251345739488718,-0.5105958992761047,-7.6440440812073325,3.2116131828189856,5.298008383717926,-0.015326403100644129,-0.14341058371452836,-0.43586360564247023,0.3714409556049407,-0.0008403306083698907,-0.43968292130779557,-4.932033327789529,3.430351609289118,8.641374959243343,-0.21836438011529066,1.8890361738861272,-0.35983109107819783,0.05711475290961213,0.1578266081622429,-0.6214356212529788,-4.516427782354546,5.485605136717885,8.899385739849372,0.35574656450216074,1.8684965369021764,-0.5260032280599453,0.22841224265441445,0.035608552301364345,-0.43249139662377317
-6.5036611359008765,-0.09678591229821319,5.6752223743940755,0.18539253854102244,0.2644723825273326,-0.17195474535363003,0.4241624158024767,0.1435831114908989,-0.35864449202127585,-6.239736595500175,2.068579362506456,5.038510602328953,-1.0777391971452426,0.22069189812001908,-0.3926078346593598,0.36727355734425277,0.0061392026559159195,-0.4994454829382758,-6.656794847422569,3.4223820354184293,4.849105557349782,0.11791369898877278,-0.21798964785469901,-0.36034881839402416,0.3794988182619263,0.0006761524381903019,-0.438539535733874,-4.995232369367656,3.831729202578226,7.766330175575645,-0.038075856217143066,1.819925839741168,-0.362095785759425,0.08815054537575477,0.1557861683310636,-0.6161029733840622,-4.468420195922443,4.415783681951102,9.227129775614559,0.5034322559540044,1.7607632880223973,-0.5664819326365295,0.2488475226416338,0.03530541360976621,-0.41858232646155147
-5.7377189414297485,-1.1300799205715841,5.123319896044772,0.207853248900404,0.49364629450727415,-0.14994024270283238,0.4247504810265759,0.13718491665296595,-0.35433684067651106,-5.762672359918842,2.1073480745789044,4.421155667982073,-0.9380047674041493,0.3364532686860267,-0.18401485421991418,0.372131728630457,0.0139779062789309,-0.49856317955256724,-5.798009561031406,3.2460432211933794,4.455709403317043,0.1270765523867292,-0.15509491865901795,-0.261536085570721,0.3736538399848614,-0.00010610671105175037,-0.43774878067441086,-4.972429562127061,4.461282299379595,6.6937821862461435,0.01816891898229353,1.690393373617012,-0.2740918288452088,0.1014306905961499,0.15607137949425126,-0.6054726882741693,-4.181548801129644,4.094529064495948,7.488275749986653,0.4927585557340204,1.6328289658228492,-0.8155265287271817,0.2519832412450108,0.034583896165761685,-0.4020264776636664
-6.646163302967027,0.006679136860792377,4.516675579788879,0.38257004005051826,0.556656728626865,-0.1364713308214648,0.4352547524580065,0.14015746891776243,-0.3490021522387591,-6.681116053635637,1.620906421709675,4.521578965655972,-0.3944977191565743,0.29157252612275275,-0.0682342244013763,0.3782213714017954,0.023549492921118177,-0.49526288228283716,-6.617924097617778,2.8912397766074336,3.3819592894910637,-0.0888015076730028,-0.034205993749097816,-0.20559088044132287,0.3784150432666243,0.004383966858478072,-0.44582522993444706,-6.008684577180466,3.3589039727073544,5.675749910344743,-0.1585237297027475,1.5813045287750345,-0.16603089309732813,0.12266436287734847,0.15538472513763504,-0.6056608670434269,-5.678036023777565,3.961718536576396,6.771289738107595,0.2774874051644182,1.5785441970624503,-1.1610310140498323,0.2605938577740518,0.040126145689332315,-0.39301087495456877
-7.014960545850465,0.9197261248210731,4.6985033378299255,0.7054570419172613,0.6347037203455941,-0.06906733658401248,0.43965816185565537,0.1397109504868335,-0.34855168584984897,-7.14828171712389,2.4494140412022407,5.392484641746294,-0.08525161705372866,0.19575232477981025,-0.1688511897441771,0.3806261050614868,0.029651358190147734,-0.4967902598604381,-6.433205664008024,2.0129492829693607,2.9162026052805747,0.19989211399688353,0.16545790917637174,-0.09177184615578159,0.37458041664038544,0.0016350241141644098,-0.4411646046088255,-7.019862341443888,2.56337976244348,4.847871503828266,0.11217626456872376,1.4191690359928297,-0.183332954584247,0.13395886443366903,0.15276203143831052,-0.5955229928898483,-6.788659549522258,4.3263285441507415,7.802927121503556,0.43973431073514824,1.3651711086015181,-1.2189348803660456,0.2568412945842387,0.04086800629953753,-0.3797671166759877
-6.7210978213597175,0.8577523127441931,6.213271479982557,0.4432595005664478,0.6650281841191802,-0.29524980413495444,0.44871671463516866,0.13736851815516785,-0.34864761453346255,-6.457281112162693,3.424683473177824,5.429949100027239,-0.4016848941521142,-0.01505777783861185,-0.23113725928453815,0.38033569583063104,0.032791828891774455,-0.5012064735385631,-6.197529726514783,1.8770481931796619,2.7796469658157252,0.17393488716262082,0.6566091317032955,-0.05674993365256656,0.38327397121079065,-0.005930675724428832,-0.4327697323713404,-6.684600994057771,2.303021709608114,4.479876888581492,0.14252543324980482,1.1126110748317113,-0.10643332650903863,0.14493723241560613,0.1455292127749645,-0.5888347019544651,-6.47961740948133,3.4502129057667124,6.852428369918964,0.3642923132774825,1.0813631839248083,-1.2737224131932912,0.25701946249700924,0.03991704113572393,-0.36562125701840337
-7.5779467290170555,0.5084872907927741,4.740491806360701,0.10938465527330077,0.5235773362587253,-0.13648271845900098,0.4426633749079793,0.1364927118979954,-0.34275575340584524,-6.535826756971096,2.055006663138331,5.552593975059474,-0.7743169404639775,0.19993780997730662,-0.19280359071340908,0.3749303281468437,0.045727641714158954,-0.49881872316901027,-7.176868289658029,2.3567955499642643,2.796530852356125,-0.10084888202478894,0.9286208136427024,-0.15393963604255828,0.40446305031772606,0.0034927716260753825,-0.4312253691911559,-6.965320839732941,0.8376815293997104,4.085880501407814,-0.12883475249190904,0.9589943700171494,-0.13221197632120602,0.16104759206053157,0.1463644425565005,-0.5901885270255848,-7.132379733126635,3.3154795898535148,4.11749331375525,0.06194085712810651,0.9985399659316359,-1.246823433703218,0.26422670190325326,0.05075712991922312,-0.36822784699516203
-9.141946510829682,-0.700637499272623,6.4813122813239765,0.09344717653263795,0.16939274250606243,0.03736437097493847,0.45444472616099624,0.13554857641648854,-0.33552723123007544,-8.060691935443083,1.7031478714927508,4.724614155888558,-0.4617920314682275,0.5445936671435387,-0.37861933620933846,0.39208099979804284,0.04855199619422694,-0.4894483309849192,-8.535356751139835,0.7502809725660098,2.98871965673531,0.13389667798487226,1.0067567266367206,-0.2239904483886102,0.40805911518242943,0.0036442768426405317,-0.41490445387803077,-7.692884991404154,0.038037588790683655,3.2048507166563476,0.06957917094691272,1.0834473922822292,-0.26388412883532314,0.1631742878312011,0.1530878149632595,-0.5774603319619064,-8.070745655844558,2.084691331288672,0.6366051912960321,0.2509811265803995,1.0924626013042207,-1.0278866969433198,0.25438699956240035,0.052396157834875015,-0.3529426605934485
-8.604079392220045,0.09207177861435391,5.878350125846971,0.058896201793014726,-0.2453399618302511,-0.16174687403003316,0.447074791722846,0.13818545839003282,-0.33788190420842373,-7.81478631683003,1.5407647605152401,5.1281738028774475,0.2366510419820731,0.7909961830940332,-0.4533897009775036,0.39798275259843946,0.05670629381831314,-0.47954277829257375,-8.848489668955867,0.5330203599917087,3.7588797452317575,0.2078077614002062,0.9764216497593385,-0.2496357467533175,0.41830601420663494,0.002753172576786189,-0.41624493124640083,-7.655807036459988,0.7065123385082187,3.137510266455615,0.1421623867497792,1.4505012910737565,-0.2804861145796201,0.17724519304844308,0.14564712801716428,-0.5798348283585352,-8.31505751148218,0.6529959514774715,-1.824510294700138,0.3541224978496506,1.4322931610456435,-1.0434694828793996,0.24778244239943972,0.0513934019506178,-0.35458703868797936
-7.535260277005497,-0.44697604649095807,4.7866386763552935,0.08300571550242596,-0.1748048560496828,-0.37587806085535236,0.4535722694671009,0.14393191384302711,-0.34249219331971203,-7.761773589442634,2.7174538440191878,4.868466192396756,0.43590458469578724,0.9636258441845378,-0.2512008539512357,0.41783836348787956,0.054903688283394765,-0.470158794304276,-8.332086545960518,2.5076679110268736,4.117906694278032,0.15111284293523797,0.9815711242068716,-0.3806771686288635,0.42146392745694694,-0.004664016721749576,-0.4004633576615776,-7.807419989839386,-0.15497130556446584,2.9343417770586995,0.0692538775090144,1.8741452889975214,-0.3778823757525135,0.1845805244366686,0.13400253870119824,-0.566067288233756,-8.93454472732269,0.388101758963915,-1.8725244863705919,0.3150913935580782,1.8818069649497575,-1.1611842074529821,0.23635145309572572,0.03571015429405543,-0.34101580088587347
-7.373589965759925,0.4895388124281039,4.937923747038326,0.21913041557416468,-0.018385918822560743,-0.473354918642813,0.4462013986913898,0.14848422420376972,-0.34189150672318847,-7.853830685346634,2.1892012034557418,3.1810986817979328,0.38128217551693416,0.8016279150671561,-0.09141461031562821,0.4215728612713741,0.05400820127551492,-0.4611470524458009,-8.484286621304483,1.728650809171913,3.957356802151661,0.2988927478553035,1.0125037727422068,-0.6029310847122608,0.4400638903982513,-0.004312793758223278,-0.39627031497016646,-8.097168659730933,-0.28264060243680617,2.8205808593355983,0.17397920484042734,2.3057089215451394,-0.6541552866370824,0.21588494604537709,0.12849331909891873,-0.5541701808072391,-9.863310474998313,0.4493139560999292,-1.9062610245350418,0.44219019583213404,2.2813682809130427,-1.0690358251330065,0.23819410144581923,0.027578295715649598,-0.3353039517003027
-7.088833348994975,1.1965634226978328,5.106854147116337,-9.820994502123394e-05,0.21034138380651837,-0.25948521493750976,0.4420325044036013,0.15182471783155682,-0.3393765260592553,-7.691106731440745,2.586179925348792,3.4874135031752114,0.459545098683309,0.755894474675748,-0.1668269540626543,0.42508827946561917,0.04749873294016547,-0.45184720680672413,-8.257393726812936,0.7901685417929974,4.020140282156968,0.3307516482181744,0.8587497116811004,-0.7124833201476284,0.44936163517416583,0.0061884653102753035,-0.3872624671662662,-8.409120927176206,0.6649364228542444,2.810235276978068,0.2272504920156294,2.7416073583854126,-0.7516809474495247,0.24093774298642712,0.13379012099790147,-0.5428713085593797,-10.717471622492528,0.6890654053887487,-1.799239819340593,0.5364610403147738,2.712160085731268,-1.140781139516493,0.23389771046774188,0.016784130599060004,-0.33419740120471025
-7.588836580131877,1.6525656687477486,5.5326701368808004,0.04805509896964533,0.26208036461832707,0.052010197332276326,0.45333163700114193,0.14272537775732483,-0.3437273583654548,-8.03784898531133,2.864848017441847,3.3241793696860276,0.34101681764888575,0.6928188915858755,-0.465535838165383,0.44026601367739526,0.042943806734583756,-0.44899874328082306,-8.453015948972894,0.5461253148546763,3.7809749225985017,0.27222051281113946,0.7659508238039802,-0.7321331382315954,0.456803849799715,0.0008211667306415051,-0.3803029259871135,-9.48408504968976,0.5273113975183601,2.347252823556815,0.1893452534735373,3.125531886022716,-0.7316111300228564,0.26661046703025115,0.11727419532117496,-0.5209963794803973,-12.482256487080443,0.31329118509241805,-1.7277426220451741,0.4949165797153636,3.1050908526237726,-1.3861414195615163,0.23341588614968925,-0.009401163085061642,-0.3306899763654825
-7.463782978755392,0.5787303476585247,4.494456925698735,0.0710110718587479,0.23800985092302226,0.31236519856743394,0.4563596421605621,0.13348376338337306,-0.3441139699505026,-8.112520575518035,2.288996429346469,2.4410750982287817,0.4975534644052918,0.640629361894747,-0.7633596630466019,0.4459221456881408,0.035162820683117164,-0.4477642309301755,-8.702375443326147,0.29949921830914594,2.6780753664055523,0.549139871812465,0.6584905257223443,-0.7682171912536844,0.46424710731368857,0.003468527450330488,-0.36766953274537023,-10.407110735375475,0.209956536512592,1.5508838619181626,0.50844214896249,3.4456280873496516,-0.7560544103955661,0.30173466412299244,0.11184112497465652,-0.49106448199293357,-14.08545725557102,0.45758756437033976,-1.502022641929306,0.7725429312987157,3.4174503416894053,-1.6141919469237087,0.2434243048681221,-0.03477123059135948,-0.3272967501009352
-6.794096192356828,0.6369985384608088,4.663235248106538,0.29027140115853034,0.3698142672629217,0.3413654101813068,0.45568488444416033,0.1326546024390851,-0.3372831765739889,-7.515572625609468,1.003771086189912,3.135681195309041,0.6264881819480271,0.6276332485917483,-0.9092504679699783,0.4466840179334198,0.04965574410886563,-0.4361573053140933,-8.008916404044735,0.3269064272771428,1.6365606248437816,0.68167485172164,0.6276018372051996,-0.8211816524721788,0.4706658686906091,-0.004062097593783228,-0.36632996310137245,-10.501689618717364,0.2888298019590717,0.20568277498669185,0.6970572083022212,3.599815296363571,-0.7575108206288333,0.3342458117662404,0.09230439347345532,-0.46560862233019756,-14.557040682412945,0.8474996963252084,-0.6547651543386468,0.8958573144178182,3.580277197228317,-1.7897760043812854,0.2639041230434917,-0.07259235031331102,-0.3344807703181681
-7.374806115384456,-0.8340982700018119,4.6521722777848655,0.23983810583307577,0.6696435649686162,0.08373943694893739,0.46339291854422304,0.12817348427974967,-0.3244568692194014,-7.671284159399108,0.7721474591706536,3.8500392527398515,0.828680872933324,0.6919133785257165,-0.6459200538097518,0.4536389612160859,0.0451428669449905,-0.4229921049875251,-8.33817469064114,1.2840117142651277,0.803224154492672,0.8135219790566511,0.8294645237618099,-0.972147008881035,0.4846845253232515,-0.0028114106355169423,-0.3562203903434121,-11.08322149095586,-0.2123561119155932,-0.9562545562538561,0.9144494059430675,3.555858069758897,-0.8445289349275735,0.3740423191728643,0.08679903994192291,-0.4318102973609425,-15.078904716967802,0.5014623178396176,-0.07452714999306118,1.0250763786769639,3.5475081012568683,-1.8580693421544876,0.30447791429714044,-0.09778429353618602,-0.3273063937626214
-8.131947533416731,-0.8059470154341114,5.883170399248638,0.45956738975883377,0.6216802490036432,-0.3485566369831743,0.47186521133437487,0.13366313193182386,-0.3263994555196769,-8.125339458085497,1.5574491470555072,3.211433474180799,1.0600419486463581,0.9360271337915552,-0.46513177964099395,0.46686256722038205,0.04449929767117717,-0.41820554757818107,-9.349820771560582,0.2918515322627865,-0.09367231104301785,0.8468903302920662,1.0117806457701253,-1.1303905975811117,0.4907127951296807,-0.006037277256746342,-0.34312514388972015,-11.686827664427524,0.4104204382463175,-1.2175070342388956,1.0202476395808933,3.401156204993925,-0.9646717846039331,0.40127154439982693,0.06625357840943327,-0.39508562519145496,-15.49418862026915,0.7582134615064765,0.07349573715132138,1.0448426854923512,3.4094045122429173,-1.8862102501950213,0.3477317289680294,-0.1301974633102361,-0.32540540990814004
-8.11945289059978,-0.2688059096161235,5.671794158562733,0.5309833417461037,0.32079550673288076,-0.539621702548308,0.47582344411017163,0.12690886752714028,-0.3294465750848127,-8.83901626326221,-0.4892483284526518,1.9802379720726684,1.0061922954131457,1.382978089524302,-0.6981096183665835,0.48339329349433446,0.03566615670401165,-0.4001979453916088,-9.496601500833627,-1.2332123886772908,-0.9328223455398005,0.7477934043425418,1.0701028116027353,-1.0783407487249623,0.49902801696879745,0.008590430379445152,-0.3318792264048557,-11.439714581786093,1.0561375065878276,-2.020165237973147,0.9564167912112354,3.172931483542034,-0.8793853539211064,0.42673932229471206,0.06795525637328552,-0.3601343871274873,-15.053367421468105,0.9327307408829636,0.6074963572002516,0.9036624997281023,3.2153054251100968,-2.0567524971538846,0.4051127154579378,-0.13490560994426704,-0.30810689656978013
-7.915199937735632,1.698477702183268,3.3898305716812906,0.5140990348471176,0.3962536601748334,-0.38151754716436,0.4786497226816477,0.11758804322725812,-0.32397211439839424,-9.297744455822707,-2.243117572348542,0.750849068121101,1.64058399113496,1.4545041477905911,-1.0546508450348164,0.49971901565532273,0.023927348249846877,-0.37875015312763344,-9.012014454319806,-1.0892432817626185,-1.8465903069841727,0.5103227957549485,1.3346262426502646,-0.8860647567215897,0.5130925116230218,0.008353081958068902,-0.3186067197897447,-10.30927388970327,0.8426798493147512,-2.9965858479455076,0.7010564052777885,2.776838571279615,-0.7445804371992137,0.4504396652622305,0.063572142349329,-0.3254559168083543,-13.299710934595735,0.6657834818452648,1.1579094714659917,0.5981480469943766,2.8812347929346114,-2.2061993442356607,0.4688340806571351,-0.12892117943633907,-0.28437194214289524
-8.44706492304728,-0.54049339052605,2.05342708979961,0.4135458376850655,0.9598134840637219,-0.3173178435761479,0.4802149273164743,0.13701460574198823,-0.31445154522883295,-9.797265026988182,-0.7014973620142941,-2.1943232302589966,1.2701834893287605,1.33675149240173,-1.2568894074199062,0.5038989671435526,0.04382754027656027,-0.3642789320369315,-10.235422020711518,-1.7248727328267939,-3.0980575816303633,0.03466922091874329,1.6004289326033416,-0.6512131227539995,0.5399158954870042,0.002338098955610205,-0.3035636765947798,-10.387004209852144,0.4425820474529269,-3.459016705454919,0.22507191409304772,2.3190019323889985,-0.5979869289529535,0.4869790965721557,0.05127721757794986,-0.2938778516615885,-12.867089357683353,0.9719536008915721,1.8672538374448968,0.01764713854490899,2.399971443693789,-2.2110006236327764,0.5425548543166784,-0.1165593220715663,-0.25748551851439083
-8.498566302440171,-1.9703495354918552,0.8981997096773436,0.8458545808361367,1.5390210109827511,-0.6327921290583143,0.4916488151575335,0.12982389912439032,-0.2968039648797394,-9.403619200923362,-2.1018581845141946,-2.594343497641973,0.27916059975407215,1.451465067352588,-1.3291930917384032,0.5170050157472231,0.051150623170196155,-0.3385530899334907,-10.284956930535625,-1.4208487919687656,-3.565832600110264,-0.4765518531859768,1.4850139503725457,-0.4586197103591792,0.5433022290268484,0.011209514683757393,-0.27814415273741155,-10.041506632071224,-0.2884305100618501,-3.3400921211620953,-0.23541607216313548,1.9279606561983116,-0.4499660739429762,0.4932414803323781,0.05579818818695385,-0.25239174603100145,-11.296876324577703,0.822508133044859,1.5821485259155814,-0.48957654465140443,1.8918945819370043,-2.00081970477442,0.5891936524125895,-0.08219678520460189,-0.21430164726324716
-8.702567054812436,-1.734353194389892,0.8429366144596968,1.296426394478089,2.0348881763202216,-0.8653096475006529,0.5191145200225384,0.12726435595500843,-0.28384999977122854,-9.798915494448524,0.0631237830482205,-1.25416879469245,-0.6950355230596905,1.5852783165269988,-1.1740847842206572,0.5424323446013798,0.06893709822613896,-0.3244717106535018,-10.439870877438302,-0.4865593448449765,-3.210007973729291,-0.5840276046913304,1.5059022281280563,-0.3205336883737221,0.5616561465333203,0.011639253551224785,-0.2517288904697109,-9.903108376303475,-1.0067961524296785,-3.897880947058512,-0.455011280450306,1.4646211517401544,-0.49909462334943755,0.5139739951694788,0.05393566510207186,-0.22475050240326866,-10.348606607860098,0.6482192077320605,2.001379757312562,-0.6880641326812431,1.3935571168479925,-1.4845636912891003,0.6374887547624047,-0.050410857063512934,-0.17728101158217877
-8.879752479072257,-0.23035331981220278,1.0290206497828842,1.4733382865459896,2.4586769380966498,-0.9414452149442409,0.5261963714276802,0.12641379127850813,-0.2504614572842229,-10.32609784404592,-0.2135005116587279,-1.4416282084700776,-1.990634199871148,1.5484830852886853,-0.9306549798857738,0.5437973033119435,0.09555309957181568,-0.2914736182982551,-10.863836717276467,-0.15729125018969492,-3.4566654653759072,-0.7328709058128898,1.713693703922207,-0.36494973889068805,0.5827104725427377,0.019125322633228622,-0.21918944998606646,-10.354446105790263,-1.4373698279420726,-3.9370153614077568,-0.5559880560010184,0.9493035015542705,-0.5607651006321716,0.5314037324020068,0.06160477470910913,-0.19408010933698594,-9.829094253462612,0.4910497175174692,1.8325708317574712,-0.7130728979681855,0.8476673443586434,-0.8939172270345945,0.677728236827944,-0.01724022776411753,-0.13916460880097145
-9.070766646249762,-0.5304595314736474,2.7166241487472296,1.3728307356985496,2.6221475530511107,-0.9394216579127042,0.5417794302930845,0.12693017636553547,-0.22126682050211444,-10.227053982442454,0.5603474324643042,-2.5990264598171366,-1.5351226227920198,1.7095928610441165,-0.8455714904655568,0.5539766917563366,0.11659348347220962,-0.2580133229884077,-11.952578627273237,-0.8169815891242589,-3.4597154788162907,-0.8595964988262568,1.787015597508181,-0.39206321980660086,0.594641766244699,0.030489276420160156,-0.19213575482392603,-11.345944499057548,-1.2898272250086307,-3.1645183177176106,-0.6964611776467471,0.47441665746399286,-0.6248902354474734,0.5434074451965678,0.07773727872252509,-0.1786833380389894,-10.802969756701021,0.7102441518055624,1.4351024963378325,-0.7834675363552658,0.33728180777211647,-0.25892698439016204,0.7029839886439508,0.01037175937184466,-0.11218483814568736
-9.76487624875337,0.4431400573858047,1.0231498200353968,1.649607987989477,2.267054317689922,-0.7809617401984501,0.555383718143786,0.11981219895043968,-0.20729634883529383,-10.99373297726955,1.2439349527103651,-1.153839870421581,-1.203824762783392,2.2386318000320062,-0.9371400560449706,0.5629182748605538,0.12952178430035416,-0.23131914777568802,-12.442760990594758,-0.18353548510160406,-3.4115866296191024,-0.8780885684340457,1.6848652022490702,-0.49233420700642855,0.6082967544794062,0.035540740753805866,-0.16807727986403065,-12.130347949687598,-1.8045803340664979,-3.35841223118818,-0.6966966291848131,0.04482727798774618,-0.7169154617378038,0.5545580737645384,0.08856736425116452,-0.17161795369123367,-11.380593247910364,0.6167723317900027,1.398079618017654,-0.6779652365550004,-0.06534041050597869,0.42890803385671433,0.7312211851044881,0.014494764640865625,-0.09634795601565142
-10.022259713309271,0.4968910655964858,-0.6144464528250828,1.4861731794424737,2.0416402429754226,-0.640051504783096,0.5706928671944765,0.12038016105217668,-0.18225052516357693,-11.345085351287075,1.202406861931309,-0.5388447403705401,-1.1304763709227497,2.2850880043579953,-0.8931175959242584,0.5787828760222813,0.14501514538853583,-0.19175677156835524,-12.354236361685695,-0.2230259013448549,-2.7229772985391008,-0.8367723512171371,1.9386358957357341,-0.6491738333901421,0.6152737202022782,0.04408001191323777,-0.1270723672880043,-12.693378615987838,-1.2739600336032084,-3.28195217912989,-0.6637334084609953,-0.4396187641532079,-0.8234234834191674,0.5589628369994437,0.1047987391422477,-0.15981716058273712,-12.492123073927136,0.7395211843461709,1.350131766373746,-0.607895368222,-0.5348777025368869,1.090036227714061,0.7442409176894264,0.0112817430517604,-0.07164947983422192
-9.892151897542286,-0.5795470034616496,-2.1638710279476463,1.7945198723700544,2.1169850564061248,-0.6379322401189018,0.582206051343979,0.1123309847254839,-0.1548476457491531,-11.1009590765086,0.8225988378211753,-1.3223338563500426,-0.5024449025697884,1.9496433649182137,-0.8226016836878117,0.58221262124848,0.15140458897698658,-0.15471889531561397,-11.983226526829256,0.09803775634971608,-1.7039049329685383,-0.8116751674311777,2.240364856314267,-0.7872829035058012,0.6216674284388749,0.05729527476460383,-0.09164346210093169,-12.945431758899062,-1.2313726873961957,-2.3135464663810357,-0.668960395069552,-0.8168418822741246,-0.9136063624823625,0.5626970453012624,0.11922161163663002,-0.1670671863323065,-13.344176054689878,0.6115501630970444,0.8015949754072891,-0.6147921823613057,-0.9044341058072548,1.5955456838022701,0.7538606137515291,-0.005928694039865766,-0.07496357741696433
-10.11903453769314,-2.2574173935644297,-1.6044760739254276,1.8565879678693202,2.389540287395409,-0.7087609117319695,0.5857049102034421,0.11652866816361016,-0.1369930460775044,-10.680907249812028,1.0257779856440001,-3.4255361123910215,-1.104319886231709,1.6320515462024152,-0.49934073383962135,0.5825498642917184,0.1652212080099643,-0.13529131503325906,-12.5314206014992,0.6474403021430231,-0.7364969956465421,-0.6351068281014286,2.2575790170737564,-0.9490515623575115,0.6400756359825741,0.07347936007374754,-0.04948869038129765,-13.103317820954965,-0.8021227326396527,0.18372983571730933,-0.5435303351546001,-0.949742159741012,-1.0002361300219094,0.5822714163299499,0.14881685066537392,-0.1660400793939641,-14.022664686515782,0.6011360951617414,-0.7100710994773243,-0.5796277889510634,-1.0675478195089376,1.9261038088749043,0.7743594432360604,-0.024681054593220973,-0.06793305151621659
-11.59162472749142,-1.3164745976361898,-1.0857765899516951,1.9681014351129171,2.204977881442211,-0.7399756258276988,0.5962121664768176,0.10971840799700454,-0.1117649700694384,-11.967632134635782,0.2004942104438371,-4.420619243487448,-1.668584775540669,1.8500866689213,-0.19437470626751935,0.5869804323841864,0.1694331030560637,-0.09629086472177359,-13.866294370890405,-0.6014965237856775,-0.12160530123649474,-0.5392699376744688,1.5672302192934178,-1.0237943791597413,0.6359232922412238,0.08276161003306395,-0.021051872026452822,-13.392952208045443,0.38559173907585215,2.1669919656999506,-0.5261806894133577,-0.7775768017795295,-1.0450246535703365,0.5833860994253821,0.16320888326125985,-0.16569925633765106,-14.210258232404776,0.7684124777403718,-1.735177645415941,-0.5797794225536163,-0.7744221057072377,1.9901151501863814,0.7771283446223766,-0.05698198763244604,-0.06211839659022532
-10.640212492312115,-1.3058298703356013,-1.807572942575354,2.1697175579690504,2.074112241328931,-0.6942409359172783,0.6080445904965268,0.11226888119433301,-0.0917947427976341,-11.606258844320223,0.14962932743720864,-1.9250343293165784,-2.028993585523934,1.9576234117703486,-0.21010203435795285,0.5955641488357766,0.17219224944050637,-0.057800275208128596,-12.440627420685665,-1.0937319710421753,0.7791095099491055,-0.3403658963946107,1.0119523337845768,-0.8993954404328729,0.6358813497895716,0.08942827309002564,0.0019481470499673444,-11.974435617822587,1.0033840238105243,1.575252344908141,-0.37949316190836474,-0.5122764815567953,-0.8965113106573627,0.5823803088997093,0.17952479371807165,-0.1584894812798725,-12.37800703382751,0.2683428034294736,-1.365827801504005,-0.43963120163987013,-0.4761571204895179,1.615569874768595,0.7770601041010079,-0.08048132688336235,-0.04270136942328786
-11.050501208004851,-0.19013009861233243,-2.173604491589711,2.1847843252205843,2.1572494473224,-0.8362162493037528,0.6079506796801718,0.12396114619673691,-0.05257494742753901,-11.833824285772739,-0.632497063475364,-0.9778504059228188,-2.4226830738465335,1.708089484535942,-0.28604022722731426,0.593969498544814,0.18062115708164497,-0.006333467842344892,-12.049322719138077,-0.7603345804129905,1.4497137660535562,-0.17884151053672895,0.7033449141757159,-0.7170832688984564,0.6354950464943661,0.10587534085222965,0.022581981346810567,-11.65143339481055,1.4865814223429403,1.6832678814562998,-0.22815378617318827,-0.24943767135440242,-0.7008842394747739,0.5823680751446146,0.19557033797942341,-0.14909313126019794,-11.431876420449493,0.35219583311816005,-1.1945317538847888,-0.26666043317903054,-0.21718120952947906,1.0389627254940788,0.7757168230980924,-0.08966028846284536,-0.018408307482281314
-12.756882529670944,-0.22205885490943061,-1.249788085129855,1.8339482663039313,1.8992689532377827,-0.793570176451876,0.6160871429861811,0.12510052054777898,-0.0396772933401419,-13.334802398764129,-0.9893084302823559,-0.4404045781502633,-3.167607885857625,1.3666307994862232,-0.38983137410582475,0.5912005149942653,0.18223636394051163,0.015648882939586085,-13.204840759716417,-1.1343108137456186,2.1361312014449787,-0.08383734530314635,0.7517399612653072,-0.47038179155698134,0.6362964169465274,0.12405571599923995,0.04126118611875876,-12.746565765587306,1.7338900111151518,1.633504129935957,-0.1342830060107532,0.010366730600103426,-0.46389840703798596,0.5837071659654856,0.21936816473421347,-0.13305868572808,-12.088195536090945,0.2590562060263886,-1.3922340004421547,-0.13226532461768573,0.03132998908253857,0.26809792326660464,0.7742298873744398,-0.0771447435889556,0.008175594275424936
-11.65305668288217,-1.342304898035836,0.20648178228163375,1.8934310467249185,1.405037943221672,-0.9228692603498039,0.6229938307276253,0.12432813120337577,-0.030947212003588673,-11.43145100318712,-1.1872643252080788,1.4389547035450225,-3.1586189358591903,1.3857284529505365,-0.4439886140658028,0.5937055091652025,0.16979830887864092,0.0494155214972134,-11.98136756124857,-0.9984380792723118,1.7854974579210456,0.17531780267336547,0.5918561709301724,-0.18741413952703131,0.63503570775844,0.1156499370198181,0.05415497990073704,-11.36483925785096,1.5334191679183236,1.6551521903958928,0.15914645638006297,0.34509677186358245,-0.2013106500560843,0.5824695218392186,0.21151840171014302,-0.12651363175712968,-10.8198552719381,0.2209514228822689,-1.3516482294105208,0.23397394002885916,0.3007513678468168,-0.558569447881497,0.7669160828185483,-0.07051873687751826,0.033762164170160855
-9.921659503239438,-0.5901512964790212,0.3259804139403276,1.841294804887666,0.9149541612576486,-1.1378358848660928,0.6199966551888962,0.13375210507799948,-0.025918923507444777,-10.206999580042819,-1.4156770473322764,1.6000819535237296,-3.6801322671288634,1.273342852672736,-0.26212723393465365,0.5925064312903571,0.164903341142458,0.08168855874367945,-9.585525214121107,0.6347007228066568,1.841579623453792,0.13510611803983333,0.790959262565995,-0.06761873793752732,0.6345121177249045,0.10943331512340589,0.06900876822809078,-9.792988963428611,1.1134389518765315,1.0695126917033422,0.12338268246028279,0.5436240541362887,-0.08429884338074022,0.5799058134819893,0.20873235779462307,-0.10942102283514624,-9.693948643197627,0.4613197063616001,-0.7725475701115833,0.22526862983285176,0.5159427364684074,-1.1499207402333087,0.7607423174169531,-0.0492778217543684,0.06224852265097075
-10.273504853213556,-1.250303099171622,0.1704266007299179,1.215992502874582,0.7071577629122727,-1.465495411347207,0.6146428426239273,0.15349401759070613,-0.027575590148570868,-10.758260534561261,-1.0360897289413284,1.076621703959176,-4.326925280082532,0.7763153310810214,0.01840454447327177,0.5915148417846471,0.14918849244340532,0.10329825718252976,-10.13489515003079,0.3807271342273796,2.074746698386675,0.05250745710740905,1.107255950625794,-0.040408018274632265,0.6346291605280392,0.11421370127684019,0.08295950975699481,-10.180024469750688,0.6501339410020814,1.290532596831003,0.054089910946362556,0.6986809656184353,-0.054798988287242535,0.5793084307422529,0.21108436270211373,-0.09645864524546753,-10.496274356485184,0.35261783034153094,-1.0512576836764296,0.17406033842005575,0.6887946219382081,-1.5495421506571212,0.7485965971385146,-0.0160967832410838,0.089282079226047
-9.975618218179635,-0.277801342129108,0.266134454965561,0.95042019086102,0.36816647369196037,-1.3783205168791215,0.6031902421598415,0.17842917508979375,-0.020575472070587332,-9.840844071619962,-0.5512618785040997,0.48167638467790397,-4.219031444170441,0.5928528839726595,-0.03588047418000258,0.5839492455401526,0.13885738125535757,0.13028847565303284,-10.447293613543001,0.24385716466061386,1.9066853595725388,0.12697503550254016,1.17936950287232,0.007690092055739026,0.6266534715329157,0.11418126135737965,0.11259071018331387,-9.84745606573756,0.5225138168259901,2.0397717204026713,0.12580833200116054,0.9614678669848025,-0.013455713759577572,0.5671807616989403,0.2138779051512744,-0.06215120486935355,-10.591256893671204,0.4921716768537854,-1.5017158750719697,0.25576459215723313,0.9477781438967496,-1.8744015857289695,0.7283126034753814,0.020198864866001878,0.1318469730067272
-9.020777056381746,-1.7372538300768523,-0.540064844243754,1.2612866380371044,0.0038659614181318133,-0.8119652676422627,0.5999383398437416,0.18308402355873676,-0.024397637694644342,-8.740762208224988,0.732581876520701,0.6277593023796789,-3.9130071393679637,0.8010115843850215,-0.02634372233271429,0.581525988508359,0.12047230775322564,0.15485791894503823,-9.53124805414257,0.09160517646053565,1.6735908721498067,0.06598968816866753,0.9399027155620255,0.012706310736491441,0.6297107289299895,0.11023066289427139,0.12156304516320199,-8.853205334601181,0.2830792576977723,2.1332473739593567,0.07014657501544926,1.277404719412223,0.00867565340375129,0.5691750265051957,0.204964759644145,-0.047829379180871275,-9.966079073296497,0.5277798236898621,-1.457653160545582,0.18643309730658594,1.2902969326945015,-2.062335183864842,0.7069112145577909,0.04941214638877709,0.15819976052662937
-8.255217978717676,-1.2635641987610733,-0.5188320261768001,1.2281987617922305,-0.153909988879501,-0.48411442443718156,0.6066139362813322,0.19302081096614065,-0.03188478756775938,-8.624579311122858,0.5965602564267082,-0.07162191207061022,-3.5974473886651706,0.7988890447061092,0.053293099494267554,0.5841666860305189,0.10719617755485554,0.17397988909856543,-8.59238236996734,1.0852857595483334,1.5801477477774215,-0.045463222853655165,0.7723917115282,-0.0589282108102456,0.6295306992475856,0.10629993719599823,0.12470967602785527,-8.329461325976224,-0.5925443816749996,1.634066901818225,-0.06357307984699659,1.554291387578196,-0.03721703642169619,0.5650219228880544,0.20676738825447716,-0.021899567468510163,-9.61872918358281,0.5154633509594255,-1.1925706331199364,-0.003572813640697812,1.5792320627236576,-2.0531135496209822,0.6840805777769663,0.07832829892286118,0.1872508849249661
-8.792052530869515,-1.5785420056949928,-1.1877316857730913,0.6326123371629154,-0.09730067892202925,-0.3489844056796609,0.599181297097303,0.19337651088544755,-0.04647717305908448,-9.078941504019024,1.1703026717787093,-0.2592640593340623,-3.1128368128616497,0.3452899983306905,0.029020076759328786,0.5796310432763665,0.08521778237374868,0.17588562283385037,-8.708801243215795,1.0479581005409786,1.4616559356358634,-0.10676093157503998,0.6703161562873287,-0.24143131361613238,0.6237963904496803,0.11151821310624167,0.13970515101649222,-8.751381469057533,-1.0166444670691177,1.340277267812958,-0.1382797228680933,1.7947929500941062,-0.22317963438678154,0.5550555049714059,0.2085869071055439,0.009207829064490148,-9.983473864280754,0.6791047485095191,-1.07310448120064,-0.1421088878736808,1.8114887629829641,-1.7451828849856266,0.6530552633334121,0.10269353851024335,0.22219256747644117
-8.686176120008872,-3.4241348138665715,-2.4469007123102813,-0.005402427129969162,-0.11708165875204991,-0.18433716300836872,0.5912172700476411,0.186422003122634,-0.044068337047807896,-8.870159092756865,1.2299012446967035,-0.07479558656243515,-2.5476129971218433,-0.023093903838230873,-0.1381301446982913,0.5760660468126512,0.06568885735761443,0.17825393487577054,-8.967118770683028,0.8512575761087858,0.912968970770362,-0.19622112274911346,0.4877515200315218,-0.4132614555641711,0.6216207347921195,0.12703519393602086,0.1522942202190977,-8.951600817248005,-0.9722305119799584,1.3015625731800344,-0.2268544506836274,2.0223451540626853,-0.3938194104398643,0.5422928522731059,0.2260685651308942,0.0389900544646727,-10.201997245649261,0.7189848229353528,-1.0979743105540036,-0.2821363312881153,2.036641426149766,-1.3448490458541913,0.6200517199428427,0.12804280354684242,0.25570729587711677
-8.529035835813533,-3.378686578719216,-1.26826377614249,0.4709661124675656,-0.2816630829185566,0.36457500402661,0.6015404775121939,0.1773120641473518,-0.04841327036265146,-8.310789048091515,1.3028395637684367,-0.7080028102562864,-2.0119579211401994,-0.10709967176405853,-0.1500663383248837,0.5848996755676242,0.055228623918312666,0.17850902194840926,-8.716956877233528,0.6766637422114412,0.4874937860347686,-0.3130822406745483,0.25136972181473044,-0.5612216294219149,0.6214738572818299,0.12210972965166751,0.15787545373692607,-9.237712327170701,-1.0039199773039251,0.7021646251603271,-0.3399270770160518,2.216511204361945,-0.5333477959514634,0.5323132312786295,0.21510193498790894,0.08245482315281338,-10.47315365885505,0.48842319414217217,-0.8146343453556473,-0.4392464482459153,2.209556295723232,-0.9387681909657867,0.5881213358353312,0.12154378656306,0.2965316292947158
-8.718692638810197,-2.4427498661445393,-1.0573984189711636,0.3071682468219212,-0.36741174488743117,0.7629001517394792,0.6049308722236177,0.17668112660658267,-0.05332950657752132,-8.861207339492477,1.5442350133622407,-0.6677971894346483,-1.5254611314632063,-0.15130312258245615,-0.10474455073078005,0.5858937288145517,0.056964931565264235,0.18166183543756625,-8.913023979960167,-0.3957711005312067,-0.3057929649997698,-0.3277338329640059,-0.02930659563641412,-0.6315294691159905,0.6209384858347629,0.13209773566981486,0.16039631097110604,-9.663571358476743,-0.861472593153651,0.10655345128191104,-0.3273549946387148,2.3340745439675334,-0.616955347897914,0.5153512471236209,0.223067790859237,0.11684219639885339,-11.021796067002022,0.5510201114572826,-0.5687087885740525,-0.43965683637292213,2.3236496260770525,-0.5600245634822879,0.5531097581148058,0.12101561971968142,0.3286941951952338
-9.437713107660466,0.21799900547908804,-1.8015289675800308,-0.9946282279952783,-0.5340897122903591,1.4300443581880857,0.6027426693937334,0.15489362312126242,-0.0509120986159961,-9.233894705321722,0.9265616693902936,-2.0665687699987405,-1.2105060968214472,-0.20522916005299421,-0.272969798248905,0.5800397117839176,0.053270332045112334,0.1805135049142679,-9.632744510917995,0.030064504225644502,-1.0761440665477238,-0.42763214437514324,-0.19302318916233235,-0.6476867951160646,0.6203061772376274,0.14360756179679718,0.15511563882026913,-10.477556623539853,-0.5866181227854752,-0.6412948854012479,-0.3830549450490133,2.3337280544463246,-0.6620755417727409,0.49937828002133666,0.23568926136837,0.14759223001080946,-11.784887713941526,0.700864503771312,-0.17925719662943979,-0.47132348380358435,2.319744918598183,-0.20955426505600672,0.5255913130741431,0.1187081555387955,0.35341251011753283
-10.472875935374521,-2.494395848078997,-2.0420904258493247,-1.6710718158162312,-0.7642186571406269,1.8863101025016593,0.6166336375512834,0.1328635778344897,-0.05398640785689523,-10.108733839705023,1.7593621181634949,-0.6342231900859748,-0.5839900700282851,0.19303467023970175,-0.3752047965562386,0.5832318384789318,0.05428076100828708,0.18341096129415602,-10.150002533300679,-1.4754504942601145,-1.7419347650079684,-0.7164767704549929,-0.3874160790679396,-0.5347300060684899,0.6260815771854829,0.1512369007383006,0.15266537112918482,-10.952989535635574,0.017828210712193746,-1.6664683634421151,-0.636011200342734,2.228188028627077,-0.6136796245497921,0.48237147255788837,0.24024819221741872,0.18048970333954387,-12.253766733150185,0.6619633046453854,0.36866993898577183,-0.688725441255298,2.2173820413066307,0.01547899468743194,0.5010305023044697,0.10623570651113826,0.3737866865079735
-10.680613778752495,-2.753615685500564,-2.859637111595042,-1.1639989476339003,-0.9373313394741457,2.098657951350285,0.6283495224106774,0.10335117190074714,-0.06544371923275534,-10.688364918133646,0.9239686401026157,-2.693745207683509,-0.4306607617432775,0.19268666993866723,-0.6450112015629241,0.5851574554841363,0.05867451122163272,0.18214384164235015,-10.134425464450073,-0.13157893956368172,-2.5120093950632745,-0.876822026114805,-0.27011817198079113,-0.4190284436833423,0.6224706455774227,0.15554905611282305,0.16030621656329022,-10.53738024129473,-0.44434754549449534,-2.7453428572310274,-0.7883531561314631,1.9333738421753217,-0.5692349847126358,0.46045521241661636,0.2401996905641169,0.21534856881175507,-11.431483060091653,0.3829097881768012,0.814949280226079,-0.8051221548778229,1.9410428339269403,0.19426320187766563,0.4719508596492498,0.0928510110102436,0.4034806033326877
-11.083464740333488,-3.8797818307254808,-0.49037220477488674,-0.9126146402197847,-1.1481508973796077,1.6787604061604249,0.6400564919737223,0.07409229599511484,-0.07763073537243256,-10.288246456061593,2.923508160152044,-4.148082251467238,-0.853595550153864,-0.25225839819327167,-0.6610880019335454,0.5978184420851482,0.05942726330801882,0.17789086344049718,-10.122887140724178,-0.5014051076903011,-2.737731527319679,-0.8884681930238837,-0.26663497902109223,-0.34631245245629944,0.629818792992639,0.148298980316958,0.15748622941465634,-9.864435313505016,0.08131293817865162,-2.110273772456301,-0.7833618043902802,1.6110880973342692,-0.5497036959419586,0.45347807624161013,0.23107290141744408,0.23707164917959414,-10.613126331099048,0.5780816443695199,0.6551799045346932,-0.7577766396136144,1.6204584337251895,0.3377093579141738,0.4620117488993728,0.06989428515834374,0.4144786372325442
-10.998431534787033,-2.4017555414707887,-1.0356756278784822,-0.66645249267978,-1.4089295827382413,1.023322607696592,0.6349374175667472,0.06229534724550929,-0.09459483276707846,-9.914060710239193,2.7839424871728347,-5.928373979996918,-0.9674367972807031,-0.562491743101494,-0.35377883132247845,0.599012134335296,0.060387556629918966,0.17494554417972916,-9.906239594733927,-0.07208443755324478,-2.956315343718495,-0.9918929334827994,-0.699381240448941,-0.23921046633453846,0.6306164501093626,0.1460755934319474,0.16185663178557178,-9.376803317212802,0.5240026514687309,-1.97254236450874,-0.8805385722127876,1.3677401794011879,-0.5201871529498507,0.4375587938858522,0.22539684071164104,0.26573279591418403,-9.87995977623017,0.5492575906705215,0.6261781036068985,-0.8295482739303338,1.393362582206728,0.3812065895802464,0.44704008045928095,0.054027081827927495,0.4381021096401134
-10.438439800182419,-1.9845027507571351,-2.1226922897393683,-0.5191177926685799,-1.1938432328657282,0.4586963593648938,0.6312034574720499,0.05999349868185268,-0.10827150429933369,-9.453097096363617,3.6662972987881974,-4.676493247833912,-1.1694302578971918,-0.7230824187021888,-0.48753585627551627,0.6033033075551224,0.06569689368632493,0.1641301621976205,-9.32912593873805,-1.2113540313889066,-2.9862219541850403,-1.2764715972382623,-1.0065888942866306,-0.0003482927182510802,0.6324926276963359,0.14055379523930076,0.15105180946487518,-8.481329600973863,0.9924909198695728,-2.5048650907735532,-1.2041596163284436,1.042641234616463,-0.44569362335599305,0.4266417373889175,0.21830458337125835,0.2814005010512015,-8.74396811166321,0.38489724820071214,0.8734528268735556,-1.1343650080921437,1.124660356903461,0.2805750529428643,0.43360149090596,0.035012822994058765,0.44505298417617134
-10.574864870648815,-0.09698899961239588,-1.9629447355241136,-0.0942738658861607,-0.828793337546962,0.0913432974423718,0.6347312191990011,0.05644683194335236,-0.13276000217576278,-9.617777488169606,2.8734233466352426,-4.400189383248235,-1.4750355677890912,-0.6455947098264377,-0.894269734539994,0.6106866614600577,0.06799911901795425,0.14110679255638678,-9.65804208467142,-0.9617223620708457,-3.1016179577892222,-1.6113527358663766,-1.1225065486653745,0.3370936830619826,0.639490169203404,0.132886808211228,0.13822277533255548,-8.376645399913855,1.1965766461342076,-3.256329239961965,-1.6304005981091934,0.6175022337354776,-0.3176714704390067,0.4203688172421404,0.21140930703681288,0.2975186471326773,-8.42085234847096,0.5762982179264738,1.4552067758465972,-1.5852922703428307,0.7806432100687719,0.08331442539438472,0.4255303631416634,0.024021447533056337,0.45694655790687455
-10.336925215512768,0.13690483290007388,-1.5774677901339023,-0.09190155884173042,-0.6437490483038221,-0.24605689531363134,0.6178578967409415,0.061103506274135175,-0.1294031288681493,-9.762656691944974,3.448011119322993,-3.2173250497923043,-1.8798028386414891,-0.5220004905144836,-1.1597395589200354,0.5999927421812328,0.0758458080068568,0.15162872675925154,-10.355197212917687,-0.8365296558793806,-3.8638244202004186,-1.8488005402243102,-1.24946066256469,0.6096583867336723,0.6604577908936374,0.11751445648178582,0.12493970321193644,-8.480115522580489,0.7980818745612093,-3.8588603387496843,-1.9381099586175292,0.1516456970855669,-0.22912997543750357,0.43513812656993517,0.19488707738029779,0.3009313544388037,-8.40264108060437,0.47464201393694877,1.653645638643508,-1.930939440531494,0.30750817573942213,-0.10176997554943984,0.4394610471014773,-0.0018206224474109928,0.4612608802796711
-10.485198670789963,0.41202590547936757,-0.12845507774833442,0.11048034566203208,-0.5718845269508827,-0.31123854396678285,0.6216026031090971,0.06454917510850791,-0.14696606978076776,-10.189346157091983,2.0645070415257774,-2.0433943457224117,-1.7239834432153056,-0.26590465753384745,-1.2298158745264707,0.6062154506128283,0.08138724004555291,0.13811280693351038,-11.039845514715367,-0.19204163784130338,-4.439476477436301,-1.7661791627344068,-1.3673126548602508,0.669663246458848,0.6596904935293642,0.100284373229271,0.10992836366923782,-8.681950284417864,-0.18435173741440394,-4.760090104086249,-1.8923765450207337,-0.40798274223724407,-0.20753273267600184,0.43400562005689497,0.17534313512048366,0.30396981061636696,-8.619170045791144,0.1593251364928717,1.9786729435273631,-1.9329149516860846,-0.24941147777583073,-0.22362589767523872,0.44088335072383583,-0.020193705269211826,0.465843184288472
-10.703323986891187,0.397786308337717,0.9696809261596444,0.09558144243950753,-0.5983296368590093,-0.46801606001647966,0.6201577720849264,0.07858383749640052,-0.15702641872946063,-10.724648395677603,2.684756188595612,0.12326328428777733,-1.1157031017390762,-0.30361259799249857,-1.0092863778487506,0.6119907475041573,0.10265381177851753,0.13840003078989388,-11.057486924971807,-0.0930550009133842,-4.707806654773596,-1.1950992658314,-1.3659084772341434,0.41338261579697844,0.6667722249380031,0.09539753234244747,0.08442154394582334,-8.531779305996537,-1.121253358606522,-5.293596697514635,-1.25857916328196,-1.0355249344932462,-0.19038556560369724,0.44770509381134543,0.16653830048518475,0.28840557973603886,-8.74126312405752,-0.15745890017262298,2.2305979836352385,-1.3530625339386737,-0.9259611090386723,-0.2884052660620575,0.4576730664291721,-0.030627561558380624,0.4542439806748199
-10.423119659641337,1.253775392566904,0.27121269448340113,-0.1423684285774243,-0.6943714284298111,-0.5646578293964748,0.6246533393855582,0.09062107647719332,-0.158855778826536,-10.741315249528546,1.6866852172677729,0.9739949701702384,-0.29862405321661,-0.5179238453587598,-0.8029368352300689,0.6206677504578079,0.11900358080201721,0.1323531342618763,-10.531324023579865,0.2938450392705937,-4.546049596657262,-0.3494476447814211,-1.1572018365663932,-0.0017255683366586834,0.6741438825107386,0.09874194519358122,0.06873833342273522,-8.178723301332393,-1.0463957224910836,-5.735634990915559,-0.3028111446088031,-1.7072558779851421,-0.17867470051713485,0.47195713435679226,0.16915358634313504,0.2667294025993016,-8.892497286162875,0.030798611701189506,2.428234215175341,-0.4341299295842462,-1.6753429185631064,-0.28863151652865443,0.4897093351243607,-0.027474540651063507,0.44022778803032137
-9.862510593375674,1.492653524007787,-0.4570548199054062,-0.38919746112683923,-0.5198593382195554,-0.3668541898061795,0.6242213071848958,0.09909682669688522,-0.1724144433769622,-9.903537167873575,1.3331717555656128,1.6558420448459876,0.5073901184490134,-0.47125042699980363,-0.8204924888740902,0.6256667026776846,0.1306644646977436,0.12173052062521522,-9.988023369110286,-0.36677753998182017,-4.722853688965147,0.30809284824377026,-0.7512041981579748,-0.2797939146977205,0.6699823407587899,0.10398336929314611,0.04904562833543733,-8.289703233387563,-0.7677133828161417,-5.658412537190425,0.4142400518574495,-2.427788554409085,-0.13243007902808263,0.49391954878860544,0.17556047806228844,0.23045206063735063,-9.871251017810435,0.00926495641716462,2.298574818084031,0.23429633550814685,-2.451147148662281,-0.29358688007338385,0.5237544744228271,-0.020198479736490877,0.41330941161725643
-9.602772082591798,2.2835240835307795,0.29836966095854,-0.45375053720244046,-0.3058792632584647,0.09815654199774743,0.6161902707166107,0.0925011082150775,-0.17879141506843277,-9.58197925741978,2.2919084867287283,1.0479869553252588,1.2207139192519305,-0.14943620431994262,-0.8073494044173438,0.6184832650497977,0.1391138440470188,0.11268924159742838,-9.950697491452644,-0.4177917233097729,-5.03426851410112,1.0161910457561951,-0.4726572121112345,-0.4572455800433351,0.6783594971998643,0.10853115469719327,0.03677840383759345,-9.354880971145656,-0.8976763363019568,-5.145638775269249,1.1262542928474928,-3.0984282080245156,-0.03559286048610162,0.5311850473274382,0.18484252036867066,0.1818572300143844,-11.986744379081845,-0.01932151066084961,1.7883059441934277,0.9069925068928837,-3.166478071678087,-0.26880288169396893,0.5773814005633178,-0.006722194652577002,0.37428307421468376
-9.535020502437256,2.302906504438566,0.9920966028717945,-1.0503585645945694,-0.1433135498756601,0.4544838035770608,0.6103381599197961,0.09888811457037312,-0.16792256701359184,-9.54584248295822,2.874182688717186,-0.25867421752569075,1.7264106607373022,0.1663270326799688,-0.6559895793665236,0.6120756845709562,0.16182476547804436,0.1169655851478173,-9.876381305499283,0.260762248943791,-4.792055250601256,1.7627747133272724,-0.4373145879878356,-0.5517651358304383,0.6730596664217616,0.12318254842965579,0.03108398820297092,-10.540230739148575,-0.5774494615175502,-4.552733011271094,1.8677793432612864,-3.658751050647674,0.040471223900186766,0.5567660763018913,0.20208093980837238,0.12878168918973432,-14.259917559329239,0.35426202986075694,1.224229604723945,1.6282633862122544,-3.774822601905181,-0.10594359842575025,0.6232199405750848,0.02002709663873955,0.3257891297370284
-9.334518577823221,1.663428029411892,1.3876625940598983,-1.7211395177576052,0.028278150970144078,0.5979591005920288,0.6184092247379214,0.0960748323591047,-0.17021477138959745,-9.499287905449162,1.9035576203879747,-0.9079784594384219,2.2866435455070317,0.34193005577098057,-0.5521455447719242,0.6122003789858955,0.17298430036348625,0.10711574380678603,-9.444681854755306,0.4960708443334903,-4.065058387819801,2.4103542654377157,-0.4339116068055552,-0.5088877789096811,0.6809188665565571,0.1328480603699254,0.0195918078104719,-11.434236805449338,-0.6259806301949945,-4.129819897936643,2.4887811416711214,-4.126984069167767,0.07904201260502355,0.5914417021000019,0.21594297838791415,0.058268639858928065,-16.20812305865743,0.3058288371863965,0.7863348529390228,2.223314312400992,-4.280589216948619,0.21385972184380003,0.682336195358934,0.03861125567995486,0.25942564850629535
-9.3261999111182,-0.6661694346408363,1.1127043851037972,-2.4399542580965297,0.1827676235647648,0.45273216705034547,0.6247975664021698,0.10660044023188353,-0.1483928942547283,-9.303783248280391,1.2383865905925309,-1.197466916279435,2.3361936165630866,0.26645472792795444,-0.40298870993581043,0.6133523957743587,0.19498208121713495,0.1098748340253083,-9.233173731232778,1.0445126903018151,-2.734895027294548,3.1736961546198934,-0.4085117857541922,-0.3799558569068534,0.6755824990925932,0.1336766769482915,0.0011000108492351095,-12.1212492484392,-0.5817197318079936,-3.25029206174436,3.2200913359760377,-4.425413415159422,0.07952770149498092,0.6044708055780074,0.22473285825760295,-0.025281103817733602,-17.90903380713832,0.20308560271029794,0.21334117541496095,2.8846959109340555,-4.695874203647566,0.6856733780792942,0.7189908502287249,0.043797566575697285,0.16406988229538808
-9.406532595563611,-1.2417122871635133,0.9165166938771205,-2.419314755250811,0.16038607009995326,0.06699600069854567,0.6215907630051531,0.11667809829223982,-0.1374939006777314,-9.324916930709158,0.5958609640442788,-1.9932570577682425,2.165408520622838,0.006522728589108869,-0.20437918627093057,0.6066701577835217,0.19658326085651717,0.09892617049060036,-9.100653066852065,2.150698268682247,-0.9145109541373901,3.626954375661342,-0.5183476892264403,-0.11710354000480151,0.6740901213450154,0.13238928048748128,-0.024529160830927085,-12.211159777883317,0.09719186106626732,-1.3885079214171274,3.6533022767355883,-4.468005603239874,0.05192059257815948,0.6122337515324963,0.227537521915592,-0.11835030739696942,-18.543962524266117,0.5637562925217187,-0.8568627124042716,3.2068068406809673,-4.891458240502558,1.244987994075591,0.7458072507464508,0.03594917398522584,0.0542254877045909
-9.104790055926818,-3.1334557763819593,0.155027879888264,-2.281178381921761,0.1703713282154528,-0.2690959862185244,0.6246621203574128,0.13341265071588249,-0.12631017557403373,-8.979517550049133,0.5225645894700415,-1.8701783285095148,1.6122382692780521,-0.3031712204984183,0.03744691193957943,0.6128581724504087,0.20331682148906707,0.08149449840527911,-9.146079027588556,1.50276046980925,0.602184881848119,3.8899537656751133,-0.7593075417127119,0.21517560909453384,0.6772440481497864,0.12432952444498162,-0.054166183020167624,-11.525384968995079,0.49735736439979733,0.23242624456930205,3.9158304527388386,-4.278636313823914,0.04298350706325102,0.6104493673772116,0.22405482978286326,-0.20747742156373125,-17.592021185642103,0.5776906748647993,-1.6054785628038148,3.334036706538484,-4.777725987893615,1.724816758031415,0.7564765566667414,0.0011189584001478747,-0.05583969852827856
-8.890419418999523,-0.5362808909158375,0.4773684052979925,-2.031456375906652,0.20564065321917435,-0.329011480671728,0.6172979238712926,0.14848533858212157,-0.10872420435829631,-9.171161030548877,0.37356077588133013,-1.4187116572657068,1.1366886175557174,-0.4511714754766665,0.14716484642223307,0.6142670320919223,0.20473906913611836,0.07488193028532975,-9.41851337192673,1.7944191660684115,2.4952109107147153,4.094470863516676,-1.060268893408956,0.6279799918591,0.6803327822471417,0.113155619105179,-0.09188287117187266,-10.74477324526765,0.9927613842303052,0.995670517844946,4.15723802167945,-3.835400113440505,0.1219842633182601,0.6047412935642071,0.21521197974076242,-0.2929490996885827,-16.322030694200258,0.2968527975437501,-1.8162530679440305,3.4407338079415424,-4.53091062013113,1.978701826009929,0.7501963578527997,-0.0395829910702497,-0.15797471733263657
-9.609942813079353,0.24347881025610082,-0.6097925604660883,-2.2299974830596776,0.33696461070599704,-0.2887677822650212,0.62647095383793,0.16696309845040105,-0.09511943131787502,-10.112615972481382,-0.892650534829991,0.9821260673066102,1.1818035244012473,-0.5849823580351079,-0.1614198609665975,0.6206981393602892,0.21441432359041193,0.058891786710382324,-9.680417770719588,1.8326734241664844,3.2843012153740214,3.926356387449071,-1.2205554813892687,0.986952762224965,0.6854706904231391,0.08354940836456616,-0.11119976502563288,-10.61379225723016,1.5480895577707146,1.8359623422958302,4.066546602945733,-3.2893853194685323,0.2837828495970347,0.5988615387542916,0.18981962337633945,-0.35217196871430134,-14.946472534419255,0.6994886041641801,-2.1068087030141798,3.262572174031717,-4.126460765796235,1.9979813081363649,0.7287913412827798,-0.09989383445268939,-0.23141530426612994
-9.613222340629033,2.6479214318223656,-0.43124761892867314,-3.0848952845142223,0.5759086753885039,-0.30884122709116296,0.6329911267926477,0.17198452064045897,-0.06311527951174585,-10.257629240379334,-2.215273001009265,1.8091592041623301,1.2233217196794985,-0.9731289539812362,-0.6684297325117874,0.6220345032111252,0.21625608799826915,0.0429971533543049,-9.692201585377918,3.1492139272017714,3.698706197329706,3.3155836744756537,-0.9359278156814799,1.133674163100321,0.6762359241299752,0.04798431699407099,-0.13162283573791744,-10.225918673648252,1.2457276480199153,2.303699416274555,3.517526642545928,-2.811767577083262,0.40849331252774923,0.5729845782506332,0.15672186271710475,-0.4002916660266923,-13.575814810412227,0.7995848824140938,-2.2288116880530393,2.6768462269204227,-3.6502109724308465,1.8889275894423134,0.6868084325384758,-0.15937904650518225,-0.2896975042283603
-10.138338492774265,1.7860234053467496,1.2406237045527797,-4.02757462051781,0.38840760264239077,-0.38619032689130417,0.6245828558598547,0.2036818345125014,-0.02943379855829053,-10.072255280591305,-1.8800790855621765,3.402214999580606,0.9480281682416389,-1.0839569921198113,-0.8689058169335585,0.617840803071268,0.24120703718617498,0.01867354591709483,-10.282040247132649,2.4885622436229515,3.4436607335573433,2.6810217680785047,-0.7760715594731333,1.1523507601850873,0.6825515095186881,0.019387323677673207,-0.1541196292085385,-9.518585108330521,0.9537863839041658,3.032544805532389,2.907777327551883,-2.313279990377737,0.39598787735764085,0.5605615498309304,0.12839639479007636,-0.4506902326987529,-11.819715887305493,0.46080585876719665,-2.4221178754222437,2.1097620264545096,-3.104870515941504,1.740771133643276,0.6553135263350268,-0.2107941290429594,-0.34358575740908154
-11.120656155111847,-1.4632840178251258,0.3794117097461759,-3.941619462112467,-0.2630007221838602,-0.29207982797343696,0.6218631527574129,0.2113752043636783,-0.02247690518785784,-10.657107979535121,-1.620872511871201,3.786460091301395,1.0600868120224622,-1.0026972535401413,-0.8415701752552253,0.6175393048224069,0.25341541250688604,-0.014374097551609389,-11.2157806199924,2.733275446609376,3.3146909361633137,2.0075795564436563,-0.8757304567457277,1.0367829367921768,0.6698954173152082,-0.004540181713336148,-0.16685058918413478,-9.354452656118053,1.0621864711952929,4.03776989834842,2.2236755842259166,-1.7690332127618673,0.4003469785398097,0.5349593333341263,0.1031843779830773,-0.4758045088972493,-10.494463703114105,0.6900662706861155,-2.7849320784900513,1.5425191488386893,-2.43230098318269,1.444986405260092,0.6093333520941924,-0.2475468611592525,-0.3741181785343459
-10.783094072732581,-3.578151221158419,0.8048078094849798,-2.4612297992671057,-0.8925590664334392,0.1248436495944802,0.6158467807061447,0.21043241732090384,-0.011458614897041532,-10.527484171341863,-0.8639637335974725,3.8862010125155506,1.4797197212407978,-0.9868369320348173,-0.7436966620828452,0.6027121497208412,0.25857379146285986,-0.03505267697913963,-10.961912696125337,2.765817301123406,3.4034402838071953,1.3542176002112254,-1.0411724743314548,0.8125353685438357,0.6758851775980876,-0.018509591539449987,-0.18679504191825896,-8.94837590170236,0.7467865414135479,4.032713111830555,1.5466842825417813,-1.2245015853339731,0.3597429746885992,0.5350604834563752,0.08284034413055395,-0.4984182606704548,-9.26754030124372,0.5797622674354972,-2.8119129073261724,1.0484372520914724,-1.6965553150217523,1.0837791921564672,0.5899994404576164,-0.2725324855268727,-0.39429213406590347
-9.0301950503899,0.0494820667242242,1.0823141932130649,-1.6521686045747845,-1.1140771299634693,0.18109428114594933,0.6265888294357446,0.21270224279988423,-0.008088040259702337,-9.440732201371775,-1.3173048870109807,2.9242070343005904,1.8134088345994925,-1.0973653812669426,-0.7097202466122614,0.6130255050205877,0.27265329730558474,-0.05183785572962851,-9.592452975116396,2.366706219871429,2.8062758273682697,0.7804659749331687,-1.124027866166842,0.5513431206581199,0.6753342088229594,-0.037420080802179095,-0.20548332293212004,-8.134651058194262,0.6646676245737296,3.276661733494547,0.9056906473393769,-0.7676450715000648,0.28000779598725556,0.5318276224097349,0.06590170363758409,-0.5151177040654616,-7.973459702876089,0.5005169568092448,-2.196450733815707,0.5628876831824567,-1.0352238700732073,0.715320337972532,0.5743868880635697,-0.29684022389227477,-0.40912989957497886
-8.923292660197383,1.1273949238290826,1.3653230972428985,-1.7809381436995841,-1.0586170301025288,0.28129946535815065,0.6179785139520027,0.2120104011978304,-0.018290130852718137,-9.578449990717925,-1.091432107198508,1.8535276082017254,1.9262645267179528,-1.1840469874775976,-0.762229967228583,0.6002811243310888,0.2779546739797537,-0.0874271493050804,-10.032034820079236,1.5324797037516018,2.6177409621267342,0.4055296483083781,-1.1361673034242168,0.39292386710230154,0.6600318748500027,-0.03815284159902392,-0.22094645067506744,-8.303992073820549,0.991467997119051,3.165721050821793,0.49391956415738203,-0.3659182805817392,0.24785557000536687,0.5164390310212124,0.0628537620672756,-0.5125663857276066,-7.68514155135932,0.30677071527607463,-2.062566520890046,0.3214230432040601,-0.5193984618821437,0.25623734772063217,0.5543832286215918,-0.30136708116669575,-0.41066555550857453
-8.982273491625586,-0.089057569452386,2.08410727240839,-1.9551690599599405,-0.9916491091559085,0.6219465564247908,0.625022674855849,0.2111944416903254,-0.02469929555982595,-9.517564884286013,-0.6075330818172785,1.2459714988892845,1.9871900845859436,-1.106152542237698,-0.8978421748694971,0.5982472371814405,0.29405378230107215,-0.12146739562206453,-9.907495465829173,0.6411056108443804,2.6378262331183286,0.32210696334501077,-1.247834258443484,0.39992014398559134,0.6550802247951591,-0.058305576500851726,-0.2410594288660519,-8.405416999139746,1.1729642602713553,2.8195882249301345,0.3762657024017663,0.08175332385378804,0.249811196276234,0.5189144073570929,0.0430739036703746,-0.51541916328541,-7.562681141381676,0.030408796003342127,-1.9501142166095247,0.3711958657836209,-0.04718231709578427,-0.32243030108788,0.5539867524373513,-0.31405649429234916,-0.4113451812598714
-8.630495107863318,-0.31911854098879366,2.0841592275012237,-1.5624170436714588,-1.0520757215890904,0.4013876710422649,0.6185594232700635,0.19916469416141738,-0.02505389297884582,-8.842792785194334,-0.8140805413469467,0.8908683741885106,2.442814250763265,-1.089361662009204,-1.1152056319416856,0.5809219723474405,0.2979228674106166,-0.15017493401961554,-9.720653321834916,0.11773352807693169,2.1509911042006498,0.45789453153463905,-1.3009487269777247,0.44562959340769887,0.645994433159647,-0.05866136606433837,-0.2683083147541497,-8.463335635606468,1.1988872258007728,2.5086672472010716,0.5277720298879112,0.5037663316952012,0.3413090206782619,0.5216131766287285,0.04082305335389624,-0.5115528267414341,-7.938797148700533,-0.007184817246844229,-1.7660594179317473,0.6480277738422954,0.3283494235519007,-0.9896819444989047,0.5627871906742098,-0.30481686230080096,-0.4044721024373931
-9.192901792906374,-0.5560482868034766,2.3281272361766936,-1.2777382775110908,-0.9461404592765413,0.2462847292159351,0.620616491840896,0.20494630854016965,-0.03598140903100967,-9.128229981496172,-0.6963253979718932,0.6959350398045026,2.0925021425142787,-0.8934517132023213,-0.8857319834357293,0.5747634964432073,0.3132948100595635,-0.18124931407351952,-9.779288381862212,0.5181308707089617,1.920603887138148,0.7260169088496191,-1.5278920385401327,0.5319079426330473,0.6316727415091759,-0.07372144557542352,-0.293165405883013,-9.308754012621021,1.2669816285708801,2.0328717432432684,0.7944843515381937,0.8917569224396487,0.41967506524917814,0.5259289382496991,0.024852701563767367,-0.503406596734217,-9.30343893032993,0.16745990850468576,-1.501110356166075,1.0057807342350102,0.6695578060972874,-1.6454021417416078,0.5777652248178082,-0.2932080091647765,-0.3898241144847966
-8.698812288711176,-0.8007409024900828,1.1051607498155214,-1.3084940466933663,-0.8396660028331189,-0.00022993971288195482,0.6151248736352551,0.21563792141956498,-0.03653419517467063,-9.101929126100433,-2.4540168042747372,1.6013902983725796,1.5063338669946944,-0.9767514228629226,-0.7863096562106224,0.5645571399157402,0.3226218288264962,-0.2019927600108636,-9.284054240236314,0.24842365290585938,1.178157878284997,0.8718299417258526,-1.4053721970414441,0.5773080361524517,0.6250771520716274,-0.09830410360995141,-0.3103622837080358,-9.835443217423128,0.8883581244951901,1.0369204413959494,0.9217764796301433,1.1137935266724281,0.4924708769666022,0.5388383212342318,0.0006394781749710916,-0.48099049214214057,-10.482573139740897,0.32249266846312996,-1.2585078538079066,1.138612431016467,0.9034347071250521,-2.2478956658518747,0.6051008634861115,-0.28652802312481385,-0.3661231647759375
-8.64923430607615,-1.563422632726448,1.052425480948233,-0.9873691472745254,-0.6473611861510992,-0.031239496161405603,0.6193024656638813,0.20940931721838899,-0.04226132740183739,-8.923600526881005,-1.9245225427158748,2.043095386020064,1.3183621747901786,-1.0437474749157165,-0.8754602994394302,0.5623928077608679,0.3192230550858151,-0.2314948939232273,-8.650632346870085,0.3430825910143308,0.978655645860101,0.9965269097781293,-0.9941987988854727,0.5791851257721796,0.625504718520322,-0.1164796396443476,-0.32832392755803785,-9.598325794580106,0.5384250010108983,-0.013454243292714954,1.0095780645610164,1.140150222263224,0.5335303246876912,0.5576202839717187,-0.016502924405986292,-0.46467713759808554,-11.030669501825756,0.37585765802863796,-0.5597039675715628,1.154942468552357,1.011468401851309,-2.6861911399043343,0.645656065057877,-0.25772641022430093,-0.3451715312882478
-9.415507885711044,-1.858598579784607,2.2946136436654765,-0.5479835706264772,-0.5818199852257722,-0.24327099408548294,0.6168581403009965,0.22898158863872808,-0.0471155448432933,-8.51556515349728,-1.3069345646264576,1.9275581345942627,0.8615593885288386,-0.9442400444267833,-0.7500961655439389,0.5543346592710082,0.3422376868291874,-0.25137960693680467,-8.725127721099017,0.23898414348600988,0.12604475827556813,1.0245977621028644,-0.7037184599948421,0.5406150580804145,0.60890285914126,-0.13336574408191226,-0.339739028875219,-9.416954027266765,0.06285614038811695,-0.018668762406152853,1.0228871545675973,1.1041987648572846,0.5449564830353445,0.552869454060177,-0.0385122031729621,-0.4538112054103187,-11.06940044346479,0.5359322054578294,-0.5171513205200193,1.086492774356809,1.0577641260800115,-2.902190924847921,0.6646638194666797,-0.2270794815264008,-0.3280796115680857
-9.880882617718692,-1.4018041803022017,2.641233479703926,-0.33456450480405125,-0.6873603177253559,-0.684722793027746,0.607218165220575,0.23028925977119175,-0.06167957456237081,-8.755213654793577,-1.9449070665995392,2.537267274436077,0.5098445856993638,-0.6668286334346164,-0.40244259921107556,0.5454053131704745,0.3320159142222707,-0.27516368228123145,-9.302112131908258,-0.15343275103021353,-0.66054315158852,1.0726983386725615,-0.5283080071393904,0.4675963305667963,0.6106987092542522,-0.14507127829115857,-0.3398440681432583,-9.73197311404605,-0.623349429532734,-0.3645544918650948,1.0422697566332253,1.0241584980420706,0.5099522905105213,0.5695720900640976,-0.05229129998071877,-0.4274444053071018,-11.336972608483212,0.5152543361063727,-0.40939485512030527,1.011342997536844,1.0710362647894534,-2.8626014558443242,0.6958905261778866,-0.18209142928656066,-0.30065965896714775
-9.276337304111896,-0.8559107241117447,2.7013488932806426,-0.3581998600542104,-0.7702006489614865,-0.7919705666358118,0.6054768545892749,0.23344103175159578,-0.06138181011039318,-8.781605374808365,-0.594156690687523,2.042119368219956,0.40498937437150556,-0.3451389057994989,-0.2326211083171542,0.5469295989719537,0.32301078527974536,-0.27217864969784133,-8.760214841087754,0.06010399126499094,-0.4419440170811999,1.0908729732302758,-0.33481967055339623,0.36048792545833347,0.5969015076267294,-0.1581282251895416,-0.3378340057207727,-9.400740165408491,-1.0446326903531158,-1.1236954621600808,1.059611719661813,0.8880883925226665,0.4441894330585117,0.5630373663927013,-0.064336203487197,-0.4079448592339718,-10.39586586696588,0.6014898608349171,0.07198337716115868,0.9626645473971858,1.0120581202175494,-2.585543225392933,0.7069226754305469,-0.1455668204779322,-0.27287957397369095
-8.25919089489109,-0.37379830024103167,1.51720350032388,0.18223181797633028,-0.6760543594862939,-0.6292952207466846,0.5876622923349053,0.2468450071315692,-0.0740186532564583,-8.982338663991992,-0.6055431026072826,1.6272900896943003,0.6409103560150463,-0.25932079528466206,-0.3826580296199166,0.5358645618516168,0.33097797827876946,-0.2782577162579202,-8.52458766600848,0.10363322836224169,-0.5735949435606292,1.0195598197279219,0.027620850442308147,0.2195297258851548,0.5956223835363843,-0.18279764785218508,-0.3377555706944665,-9.02871692354389,-1.3877198986261996,-1.320745719977559,0.9915620261201545,0.691417284753951,0.31988702305809097,0.5641042586375916,-0.09005561016934283,-0.3978895754062429,-9.276621557573591,0.5074697614872999,0.31344825162045425,0.8571128332111275,0.8628292505114235,-2.1139547721239658,0.7201144959268541,-0.12879721408414288,-0.2613035781465237
-9.22257374355726,-1.8624080840545214,1.3214963981875232,0.8816498782755149,-0.3897966169432804,-0.33946126498665985,0.5900554505139228,0.26056819513114793,-0.0943668902576931,-9.962167494800369,-0.3726626065226612,1.1195740405259942,1.052558625835048,-0.39448377155669107,-0.5269290975042505,0.5366032417313994,0.3425157733922181,-0.3032518623716661,-9.639967596114833,0.4151416104153168,-1.1837744630527405,1.1213181690425151,0.2975937440852462,0.0017790082816804623,0.6036019570696631,-0.18940888699601177,-0.32714868989895785,-9.78108932875661,-2.00907825916018,-1.1465072992146526,1.1135842996985006,0.48641518309784526,0.11808509947867885,0.571748748902627,-0.09511376398644326,-0.3838319832030833,-9.082868885464073,0.48894159664641457,0.10443782679898803,0.9760508490284978,0.7182214598672766,-1.4370566850204156,0.7332876456628493,-0.10354333154262266,-0.24568930773090242
-9.969293184156772,-2.4127384264214147,1.3733686194055283,1.4472887906612688,-0.10844551435854452,-0.05602852386733418,0.593068361446027,0.2477639805643024,-0.1023687838486744,-9.520913606086097,0.675795715328099,1.0082174462514706,1.0038612447608266,-0.4286418050961517,-0.17251422981353254,0.5356087652390006,0.33023860308254205,-0.3121872202096755,-10.050214430486585,0.2154344813679661,-1.1990402964599924,1.1034641012121114,0.30488610669053534,-0.2057643141344848,0.6042301157679393,-0.1938711079841381,-0.31742125830048823,-10.044754440606928,-1.8015037671093832,-1.0702691255231658,1.1227948442015352,0.33295455385603373,-0.08759125288508925,0.5737552896896028,-0.10182284928011291,-0.3704700287954202,-8.94412042295799,0.6507093233105795,0.14403409272276327,1.0122475876704304,0.5873318258891403,-0.6317765340681168,0.7385790287432688,-0.09742753740675594,-0.22807773073780074
-9.837228609960764,-3.7761311090913,0.7239282710927362,2.449333633075486,-0.14205441248601974,0.045286543613884164,0.5894086751766575,0.23383730945001618,-0.12327866670545519,-8.898125461846602,0.06748098851624923,0.7169943024878762,1.1206603858494126,-0.2012482003637009,0.16897075383692106,0.5319235261970706,0.31868173072566264,-0.3213514639608331,-9.686322124580602,-0.20887317037159955,-1.2404593554507417,0.9837793626529912,0.18709456543654132,-0.3500223981750115,0.6058487445722734,-0.19979169412281764,-0.3074713383727574,-9.533757990955959,-1.547213758750118,-0.8704171719306361,1.0218166330282772,0.23022286043459733,-0.24958359062059113,0.5791770831345567,-0.106347204470723,-0.35980754334645215,-8.529545383890964,0.5328479145511094,0.13366335818723962,0.9409236821086939,0.4593295014855344,0.13274817137749165,0.7402707932215236,-0.10592339238056957,-0.2148002081069015
-9.348892327335218,-1.9915722207951,1.0577423963593195,3.5922464104269634,-0.36101295045433485,0.265409658559837,0.5900838772575853,0.21982929325708878,-0.15301085079086327,-8.418999912498336,0.40310816635822927,0.7893229887095247,1.530676057819394,0.22821306067096747,0.3993739688959064,0.5346019946789147,0.309371692460817,-0.32716344323633617,-8.99583899502574,-0.7679734229713087,-1.0080326364701897,0.8081858199503873,0.021597276725303132,-0.41945454571761526,0.6188025559262139,-0.1975190460987237,-0.3046682305679984,-8.920087818616377,-1.164308618148429,-1.0228322975727766,0.8554319164867805,0.15676613399380068,-0.3304662665407642,0.5868289014895014,-0.10353694769682006,-0.3532603209790918,-8.373247940210204,0.5723405010833634,0.31142086190748375,0.8073785618005229,0.32977123641534795,0.763931910698206,0.7463008000976996,-0.1218039078051261,-0.2112116628691078
-9.43259084937555,-0.39795393707799226,1.3429211915577057,3.998355932518798,-0.29576607760724477,0.0739685413304968,0.582449757163897,0.18352095502601817,-0.18346354024997874,-9.117051624846004,-0.371021315519858,0.5042620826988086,1.442280582721685,0.5951010978151593,0.6836743354252734,0.5400597832378629,0.2827617704879691,-0.32993771785229664,-9.670942250384716,-0.5805583151607194,-1.0587838205160405,0.6091767833059185,0.046551446160298424,-0.4556038544475219,0.6167105693531001,-0.19687547377263673,-0.2946296248461361,-9.71053628891087,-1.145620843764725,-1.3179254333344892,0.6547740890807111,0.04863536282342799,-0.38258093775508284,0.5852261062965464,-0.09992059758773492,-0.3449182237932542,-9.40634562143448,0.6367109923686576,0.42835034321015203,0.6388882375381397,0.14827004144674474,1.3278666701889876,0.739137344573097,-0.15355820764851294,-0.1984302067156282
-9.483265540407748,-0.06770493723188153,0.36666936037712605,3.819636948960636,-0.09060885275370725,0.13773051465576747,0.5908607928656551,0.15492920200044286,-0.21197689367163464,-10.086573656456439,-1.302696724873757,0.08977874416127313,1.0050764714373113,0.6298474627699033,0.7730774070585941,0.5553241109874569,0.2589267289647878,-0.32597158939482124,-9.767349997726681,-0.45886377041004023,-0.8099799124852927,0.41722557101385405,0.131142486657004,-0.48091964027951795,0.6115867757391072,-0.1976451317301506,-0.2948228077378247,-10.111707954772129,-0.8809685815548809,-1.8084711341028417,0.4771337971502139,-0.09870964320266125,-0.4333739390743539,0.5764425809315168,-0.10181109475781318,-0.34217128775253386,-10.271278208460329,0.6297961525393644,0.6532833386552628,0.4976985658083946,-0.0482988215366701,1.8421461139433093,0.7240333819701524,-0.19173313390664407,-0.20054624661957682
-9.800599518499036,1.4234781950798525,0.4518662468326971,3.6653867195884695,0.28333165852423253,0.06976243137525248,0.5918908894245563,0.12113045962513906,-0.22194798894382936,-10.58536637282287,-1.6065575181666873,0.02888171919954556,0.5038189308719375,0.5297308773782888,0.526555352035364,0.5588697831142286,0.24141723198253523,-0.31854491392069945,-9.738734321279514,-0.9189577193488263,-0.3265667233133538,0.23206374250151424,0.7047730355797008,-0.4575394082316458,0.6283313595505104,-0.1942147468140737,-0.2795999413418255,-10.520718236538253,-0.28953068621604133,-2.17451600960414,0.28405034950460384,-0.33931696296630626,-0.44544885002392215,0.5889019849037338,-0.09799837692106414,-0.34542473951250136,-11.26242380463899,0.6562259105721888,0.8631187874120743,0.31497462745077404,-0.3462951026972251,2.1937107360137897,0.7179888795867577,-0.23615793995712023,-0.2045787126534957
-9.586791419004054,1.1309523938957264,1.1397765466203424,2.76914126811536,0.5038294320282891,0.2592464629623899,0.5967230093204104,0.09689481351139875,-0.2318225521626069,-9.752512956437137,-1.1857802739683483,0.11726574966016215,0.021559179656880065,0.5599601346527915,0.28224332607548064,0.5679600329333949,0.23513665291710975,-0.31441739919291345,-9.69286052626701,-1.0057457883955023,-0.25882717914379183,0.033283320116249536,1.1667377001139088,-0.3604739771702609,0.638945991143357,-0.1847389487203322,-0.2625563667568157,-10.31246905740628,0.21277396853724753,-1.0594887628549678,0.07111192030787288,-0.5273655521828128,-0.36617405476773457,0.5904117866032537,-0.08648374442211645,-0.35267708832114986,-11.261633299759728,0.5906741250778672,0.1901384857920772,0.07839884211310123,-0.5618923843172692,2.297435142813302,0.7022556539569772,-0.2729507392407453,-0.21740978116540421
-10.209481769018002,-0.6700883927199439,0.9704981611976562,2.431611504845831,0.5975752418306051,0.20745514376965316,0.606435596189231,0.08324857582320465,-0.2259662105338318,-10.025950292436015,-0.5175333269650736,-0.16952875358674335,-0.2622624380955105,0.7500151888803247,0.14293636617043748,0.5753810741207404,0.2445754880685591,-0.2967194296009098,-10.768639294440355,-0.755339362877471,-0.13353177533454047,-0.10765831292573376,1.270058405502904,-0.2365592244796335,0.6519745158805197,-0.17522804784200802,-0.24798134107396244,-10.87562073370703,0.4679284165998653,0.17243211942421377,-0.08954405858148992,-0.56877837800357,-0.24830037749142225,0.5911278140700701,-0.07589406292634855,-0.366033825478291,-11.752177581649567,0.5059620131980319,-0.5133318647842925,-0.12114344027969051,-0.5929249076344542,2.197277371497025,0.6869452133960712,-0.30095576763444537,-0.2298659676002254
-11.090767190655939,-1.3665073355170854,0.8203376128843358,2.9618682647174075,0.6113202696775569,-0.046258893796232076,0.601490548976117,0.06491419081042205,-0.22836834859462796,-10.420133316530778,0.5317737255525231,-0.5870769722900939,-0.4527441426106,0.9556950737108418,0.5031300265007261,0.5764961832934874,0.24177203976004566,-0.280105283847536,-11.313759919013457,-0.43625316438928385,0.4137103345650799,-0.08339188026268583,1.0773172044583896,-0.12890982432000544,0.6529922129401994,-0.17176699515156119,-0.21964487446345032,-11.03762292044731,0.6545480903962897,0.8184895166339996,-0.07603276426569285,-0.4681274441530898,-0.1296050248825766,0.5850373649336592,-0.07264874866031598,-0.36791043562200126,-11.62889121049714,0.37676478540923114,-0.9593860634718,-0.12805273295545502,-0.4803724754450305,1.9411532266707985,0.6617496515535118,-0.3320982668079643,-0.23394765373038462
-10.462246991879718,1.5718685048497505,0.9202247496927937,2.5230523114295575,0.5317694016856856,-0.468412139610848,0.6083575837002276,0.04294585771785187,-0.22333230329779571,-10.607818101312038,-0.24221452139177552,-0.4522526276237727,-0.9522225944934462,1.074917950760852,0.9427395179970239,0.5904131745071468,0.22466334343913008,-0.2571344848462471,-11.540101255918854,0.2608888792463121,0.3888264603196446,0.08122720312277051,0.7284109766770528,-0.05772391688229498,0.656998015588648,-0.1686456492279203,-0.20843428938653966,-10.713199595814032,0.7012980641905445,1.4331674578211933,0.08708415754836431,-0.25106902628731337,-0.06550248506149983,0.581883020746422,-0.06672978959252673,-0.3719897362118424,-10.973840927361104,0.29021579400596453,-1.2467224538985593,0.04757275823069793,-0.2839098401426642,1.6067575312848204,0.6435491797494107,-0.3548583532457101,-0.23969418672467482
-10.064874750478182,1.2195281560013749,-0.035298935247524366,1.9246938993029223,0.6285050274322889,-0.4403008259683941,0.6209382494350488,0.031116776853106085,-0.22333355389598514,-10.805041459246608,0.6052692341722721,-0.3301227105842868,-1.0542763419336134,1.1020472944084985,0.8589459441821632,0.6096191702649875,0.21117342171239367,-0.24301906445731322,-10.8282877158913,0.47464266726408766,1.5959697188045252,0.241744632664325,0.48602342771472806,-0.015636616239361318,0.6637550586128271,-0.17720827520468577,-0.19929328156729922,-10.66050989329907,0.9631447782405521,1.007006698624504,0.24514083848445536,-0.017566672537380548,-0.0358759528528876,0.5843163410339333,-0.07215935556934978,-0.3671675520924095,-10.5700299733623,0.3682622091335454,-0.8995737609249135,0.23883724526525452,-0.07564679998955033,1.2154848671750076,0.638381531710496,-0.38295486565821085,-0.24128723882680253
-9.89820986589747,0.5394302882399011,-1.723738662464636,1.8997617601420382,0.8917315422385971,-0.11859336050048393,0.6215658489203874,0.022492197217416875,-0.21685803245029,-11.210452399302023,-0.5564927574388291,0.84270313432884,-0.3287236857892386,0.9749220142210333,0.4191762678866033,0.6078257958461437,0.20813393727155377,-0.22369492937892668,-10.645229727773332,1.1142461796055012,1.4233193399583473,0.34486405146509574,0.6058459137968375,-0.010936440360317082,0.6610853008714861,-0.17764494309598805,-0.17582700800809822,-10.275312046131456,0.6238032143918903,1.1376846782659844,0.3464510434681398,0.1774202995344438,-0.02702323522351347,0.5839527135065162,-0.07349302745039164,-0.35130425428473333,-10.109803174916488,0.19275046056244904,-1.0558638407311216,0.378206405880861,0.08445399053046737,0.7837183852635851,0.6278678431080912,-0.3908223277673074,-0.22736218511295325
-10.539707431285178,0.1086292133227358,-0.9655439216560101,1.907999164858469,1.2015722910450393,-0.01877278173738029,0.6228906235843247,0.003204223992162295,-0.19734239605401396,-11.192736102166412,0.16784945296152656,1.3783679585212913,0.1792832258203274,0.42945078960449173,0.20681784270351566,0.60573532889578,0.19646509410154492,-0.21578050463652285,-10.88084091149453,2.6819317269943,1.6180316810972146,0.29605239837082303,0.6446846196702973,-0.18445905061407983,0.6625916091700436,-0.1691587555574293,-0.16625996314721736,-10.539346370816913,0.389474681928291,1.44053028918077,0.3054644090391372,0.38758428220790303,-0.12001690156705125,0.5904647210813893,-0.0626185391895524,-0.344199542087208,-10.45889866887247,0.587607160375258,-1.1356077113455227,0.3870434831920094,0.2915706465890954,0.45359912154259463,0.6296566847603144,-0.39163506892366123,-0.22129237363680018
-11.11864045340519,1.2862771796106691,0.6826260918771463,1.7132520085467047,1.2186547406143027,-0.3973585593931115,0.6339778801064283,0.005532488701592961,-0.17956794331262455,-10.82865160852675,-0.003828183133017986,1.7252652041288934,0.28167416921850125,0.2513910364904242,0.39262522973102143,0.6131298810771376,0.1926401320989143,-0.2087280626682673,-11.204691064547609,1.668080757861317,1.3915885505111705,0.3464576686609475,0.45511828924753917,-0.2823343705881633,0.6679811333359669,-0.1713171063188559,-0.1660910334115934,-10.387722370142965,0.4637132838433216,1.5844820906919985,0.2890179943365524,0.6531641943068517,-0.38273338049242284,0.5973635098338328,-0.06249085219108965,-0.33717763053980276,-10.275599649712865,0.2758512786973538,-1.213354001310769,0.44875681506323184,0.5475165989356837,0.23313845739647035,0.6371009744221583,-0.3994642697676348,-0.21662028111039539
-11.038868590761481,-0.25647105821007754,0.27546661090644203,1.7068866181414333,0.8142081437300677,-0.2811205416762314,0.6389861519230043,0.0003317356063006617,-0.16990492335750199,-10.378936914827214,-0.251779105852871,1.9944353480789703,0.8188815396624678,0.41732415566153896,0.4471957760158407,0.6146477016584795,0.1863263050991067,-0.2050307990450786,-10.762464938439361,0.7989059591804405,1.201402803223552,0.5138230520550169,0.24875984543264656,-0.3517638326820895,0.6784873813967028,-0.16274180037691222,-0.15955173890160632,-10.534275246979595,0.9550123283061972,1.3010170637490392,0.48439822442458164,0.9254337646403832,-0.41341092584962047,0.6081271893184166,-0.05051289237843899,-0.31960274448954124,-10.131707636013608,0.3332536991367746,-1.1218260067065566,0.7113794123896247,0.7600431967868025,-0.2488871044375138,0.655486127037681,-0.39216597007800896,-0.2057422192451394
-11.569159436573738,0.024257020573581173,0.07543646653776435,2.6002837457220354,0.5062442021345502,-0.0024866020858037626,0.639115279882311,-0.026434361690324783,-0.15829124230980202,-11.533739317324798,-0.5587860358730847,1.9553074597974045,1.2822041929260721,0.5998699070199465,0.22607558535074432,0.6170193922473167,0.16714076624584434,-0.19245454922007973,-11.332654792185188,1.616322036913824,1.376638836100023,0.5647232687729962,0.2645889780210528,-0.3932298401407467,0.6789121229218421,-0.1589728685013893,-0.1404843067683984,-11.464083198141909,1.0689094838217694,0.8480993525190622,0.5271824386446363,1.099043654309493,-0.4168974165855785,0.6184560262740141,-0.045958543846922155,-0.28791808779898914,-11.388552197571837,0.3372401195060348,-0.8342520461570303,0.7868942524788962,0.9301167111245408,-0.8223189072668502,0.6760135055558366,-0.3768734580088719,-0.17401152793865088
-11.082568563528007,0.927625555740652,0.832200112141657,2.106289721017241,0.5117394957117339,-0.356129293946472,0.639046647426322,-0.025831609848686314,-0.16707285063649172,-11.274932981575569,-0.9625038842423932,1.4077824733117519,1.2806152832131714,0.41864762036412806,0.16423935377765558,0.6152394686366265,0.16265253239630878,-0.20412756493376705,-11.021759567036069,1.430025869960459,0.8439740954986177,0.7145969746583882,0.38574426264508016,-0.4761936051339646,0.675938768797136,-0.15046276234194939,-0.13868042057349714,-11.303537197319361,0.6183425372166421,0.39188217147387383,0.6860646954137021,1.2289475934392031,-0.5081207904080443,0.617265943343417,-0.031415221283724426,-0.2719292635632586,-11.581578930161118,0.2617465144180911,-0.7781217617667635,0.9637386508750532,1.023498367949967,-1.3382034546477923,0.6911483673335914,-0.3462980862625328,-0.1541880071731202
-10.49080248188905,0.04970179449564115,0.6048154504511958,1.8073104146296917,0.5657738250044745,-0.37418862493915916,0.6502189798004795,-0.03203534675005174,-0.1503875974235498,-10.479668401472166,-0.7453749914196499,1.298708630477982,0.8885639080019473,0.28141483299514736,0.4186746194129999,0.6270890064846323,0.15277860363575824,-0.19218106014699987,-10.499960185913285,0.7993909433855135,0.38330048470493,1.0204097383019621,0.4183655810819052,-0.5268680135579695,0.6741476413936122,-0.1449978645841674,-0.12006426841679906,-10.929784940203401,0.8895578364016326,0.2865749846644189,1.0067088599438538,1.3103761625675894,-0.5618159722446348,0.6220482130903764,-0.0234212748426484,-0.23602107666438377,-11.474288851700361,0.45539616059616933,-0.5799792769686011,1.2680446564732162,1.0638170821387667,-1.8172745262729246,0.716175372241094,-0.3124241171978074,-0.121735506835521
-10.750590161897168,-0.7467907001724617,1.5198538655761462,1.7187773943451925,0.5090870558084225,-0.4757551498546944,0.6407751992243672,-0.03323594844975291,-0.1410561501623303,-10.593317408152686,-0.6832291641370064,0.8217017218205843,0.782872738718881,0.28752478425019595,0.3217180344007423,0.6157012899178556,0.14497266213791543,-0.18495654571854062,-10.488501669436346,0.7205416968479115,0.5587303232119529,1.090453277937617,0.5871515579953314,-0.5455719541772297,0.6795877913744036,-0.1401441571425068,-0.11056701585317509,-11.123520051073697,1.0006074776121727,0.013193934706518085,1.0888845022718507,1.2965742501849487,-0.545817557711844,0.6287109501650742,-0.015138432620404135,-0.20867152037191616,-12.127851978903216,0.40527283969578326,-0.5046886381564479,1.3054413879173192,1.0849462966081673,-2.3193825410996185,0.7435102824939959,-0.2650680063600209,-0.09154497093790759
-10.819967064500075,0.23839332003137031,0.9271918761502663,2.000274500156037,0.39414700170800837,-0.37068376957199345,0.6459851799498174,-0.0388358580385343,-0.1379925340901192,-10.555458561278295,-0.8799485831108216,0.9067823920632784,0.9665151999433617,0.44904270123552814,0.17599995693904072,0.6143105218903395,0.1359700799127668,-0.17999627550684072,-10.962169208757755,0.11086797484098297,-0.06560371685347323,1.242263127047915,0.6890466219191341,-0.5665459087417062,0.6829598625842391,-0.12227581183775907,-0.08019738080719373,-11.50813206101052,0.5373824807937417,-0.08384498378972453,1.2428836641579788,1.2610158627388228,-0.5633934792126185,0.6314982643434227,0.009681961775651643,-0.1674933795360865,-12.99090535444864,0.4174436014668471,-0.6292960281402089,1.392072273125912,1.0964797302894473,-2.7284697365353776,0.7690588409378176,-0.18886572744582739,-0.048676923749750405
-10.070431645717685,-0.5551173846558888,1.6250194477948923,1.6423343411054687,0.33428067211108775,-0.401097380298881,0.6472894006852679,-0.04687202984985028,-0.13859599236724518,-9.83724535783903,-0.1509469938069336,0.8736342663106345,0.6443588083492897,0.5293313531741216,0.33854207543751,0.6219270496246869,0.12501771291980485,-0.17948529652156336,-10.208161943632495,-0.058251063362232,-0.4159903988271799,1.3963714900813515,0.7122599212850503,-0.56518025442862,0.6844178847282815,-0.11521542848441538,-0.07601165705480525,-10.6655065669627,0.27483264977001787,-0.11458584965390785,1.4077723555075738,1.1883246753147012,-0.5291955112336715,0.6341449373629873,0.01834279640733564,-0.15329124763942636,-12.47058710893931,0.6805818890202003,-0.5038829470059838,1.4893099448309282,1.0937022419643503,-3.0004049580606367,0.7855364267638709,-0.11599806579225114,-0.03138992807424393
-9.310306419395618,-1.4210549635387886,0.9940585082461375,1.8841920960104863,0.28177927041446127,-0.24412368727615197,0.6598738576323674,-0.05152808184117659,-0.12702727134024036,-9.411121443449122,-0.6303668313727858,0.35466834483953047,0.5269384166671459,0.7138677222587445,0.40412217668229167,0.6343520347414119,0.11449485127539409,-0.1565517590346916,-9.715393270503425,0.19997326080530134,-0.33424058967856585,1.3978624241213722,0.7591407082319613,-0.615304625985046,0.679388546077046,-0.1092444689215308,-0.06297263636191627,-10.212117311508825,-0.24517550123285747,-0.15258856134070403,1.4211119088431503,1.0817128118100334,-0.5697214195624113,0.6256515287860416,0.03170764898702635,-0.13358692343715542,-12.008979039271894,0.620864472812136,-0.43566081313905536,1.434942928780915,1.0765924422701643,-3.035497192375973,0.7857985928870813,-0.04585581190721427,-0.003934595152371118
-9.153620227799268,-2.2755378500574146,0.12022620689831631,1.856047650551092,0.35717846690788163,-0.038036769751216004,0.6535528329755513,-0.05379696255364429,-0.1267673067262723,-9.612591759637173,0.24319382627207678,0.485292591544194,0.8063245604326321,0.6703328927607038,0.3312828226322475,0.6326651005932404,0.11230361930536521,-0.15481367772668062,-9.85382188635194,-0.0697705751980443,-0.36568700399664644,1.379555111505883,0.8005648125293584,-0.7051581212145422,0.681810723236778,-0.10281770481126706,-0.03804733911438282,-10.39201895179074,-0.7451848049421669,-0.3590686547589498,1.4080342355669635,0.9732242834209406,-0.6543722648662258,0.6228174294016298,0.04301295507070071,-0.10662115676840092,-11.883983278158397,0.5836738809487024,-0.36249168139960875,1.3563183559737417,1.0475411900990077,-2.8765460548928536,0.7787902381592113,0.024644454695738668,0.028253761902950883
