# sampling frequency: 40
# units are seconds/meters/radians/a.u.
seg1_acc_x,seg1_acc_y,seg1_acc_z,seg1_gyr_x,seg1_gyr_y,seg1_gyr_z,seg1_mag_x,seg1_mag_y,seg1_mag_z,seg2_acc_x,seg2_acc_y,seg2_acc_z,seg2_gyr_x,seg2_gyr_y,seg2_gyr_z,seg2_mag_x,seg2_mag_y,seg2_mag_z,seg3_acc_x,seg3_acc_y,seg3_acc_z,seg3_gyr_x,seg3_gyr_y,seg3_gyr_z,seg3_mag_x,seg3_mag_y,seg3_mag_z,seg4_acc_x,seg4_acc_y,seg4_acc_z,seg4_gyr_x,seg4_gyr_y,seg4_gyr_z,seg4_mag_x,seg4_mag_y,seg4_mag_z,seg5_acc_x,seg5_acc_y,seg5_acc_z,seg5_gyr_x,seg5_gyr_y,seg5_gyr_z,seg5_mag_x,seg5_mag_y,seg5_mag_z
-5.051791,0.509337,9.818738,-1.054435,0.246669,-0.070771,0.426758,0.398438,-0.490234,-3.637258,9.34555,1.775457,-1.447068,0.893145,-0.580954,0.095215,-0.515137,-0.323975,-4.3638,1.977096,6.643125,-0.741837,0.616467,0.078021,0.189697,-0.164551,-0.55957,2.340943,6.047879,8.614628,0.890258,-0.658538,0.020389,-0.159912,-0.227051,-0.508057,2.17356,2.855937,7.996086,0.73828,-0.610304,0.005267,-0.109863,-0.157471,-0.58667
-4.830983,0.071076,9.545505,-0.736702,0.41387,0.147003,0.43335,0.411133,-0.479248,-3.164427,9.111228,1.303102,-1.549962,0.563346,-0.663997,0.11084,-0.498291,-0.336914,-5.06009,3.540261,6.407152,1.456538,1.23879,-0.087092,0.204346,-0.185547,-0.547119,1.892733,5.152547,8.610673,-0.317621,0.382383,-0.142103,-0.15332,-0.218506,-0.508301,3.147903,3.852324,8.603528,0.276554,-0.057636,-0.186068,-0.108643,-0.161377,-0.585938
-4.483773,-0.790095,8.912609,-0.883618,0.43739,0.186168,0.440918,0.423828,-0.468018,-2.764019,8.195904,1.19873,-1.131005,0.95373,-0.689734,0.125732,-0.487061,-0.345215,-5.474488,6.908316,6.490144,0.821232,0.95289,-0.116655,0.216309,-0.192871,-0.538574,0.077505,3.237379,8.938465,-0.351616,-0.068126,-0.059431,-0.154053,-0.208008,-0.510742,1.330902,3.212889,8.516468,0.259141,-0.030319,0.111411,-0.106445,-0.156982,-0.579834
-4.720015,-1.705222,8.046176,-0.540432,0.573154,0.406129,0.460938,0.430908,-0.461182,-4.876484,10.470425,2.237193,-1.597899,0.840645,-0.828763,0.151855,-0.464844,-0.363037,-6.383897,5.2384,7.372296,-0.923988,0.650462,0.040548,0.223389,-0.176758,-0.540771,1.89743,3.590637,9.013558,0.59831,-0.418412,-0.048744,-0.168213,-0.209717,-0.49585,2.781033,4.221475,7.770168,0.493078,-0.447711,-0.010121,-0.111084,-0.157715,-0.57666
-4.84578,0.058098,8.065169,-0.153846,0.990848,0.677686,0.470215,0.423096,-0.453613,-4.512227,7.818664,1.803539,-3.265061,0.590147,-0.498513,0.154785,-0.436279,-0.402344,-5.970345,2.291063,6.57173,-0.342657,0.434025,-0.215002,0.218018,-0.168213,-0.53125,2.264553,6.257576,9.678895,0.323646,0.19912,0.080108,-0.155518,-0.210938,-0.488525,2.871475,5.529778,8.658328,0.196467,0.326344,0.277788,-0.114502,-0.153809,-0.566162
-6.226439,-0.227612,8.237381,-0.998614,1.005751,0.613357,0.488525,0.439209,-0.445312,-5.061838,3.923193,2.137272,-1.584796,0.56451,-0.514598,0.165771,-0.412109,-0.418701,-6.198686,4.683783,7.163672,0.830207,0.827205,-0.482778,0.239258,-0.172852,-0.515869,1.194749,6.082475,9.506777,-1.080974,0.312045,0.05372,-0.156006,-0.197754,-0.490967,2.224446,5.01287,8.363553,-0.651511,-0.089731,0.396905,-0.104736,-0.139404,-0.560303
-6.756511,-2.096957,7.679958,-0.179216,0.94834,0.769729,0.501221,0.431396,-0.429199,-5.523297,6.386397,3.440377,0.853711,0.371454,-0.526195,0.174072,-0.424561,-0.398193,-7.449124,6.513082,7.98394,-0.480555,0.540518,-0.48692,0.241699,-0.165527,-0.515869,1.516119,3.445958,8.583684,-0.92873,0.227413,-0.089243,-0.154053,-0.187256,-0.498291,3.781005,3.419673,7.769717,-0.722995,0.429687,0.362455,-0.102051,-0.12207,-0.563477
-6.493073,-1.456707,7.819708,0.271315,0.755241,0.895057,0.513184,0.428711,-0.426758,-4.990706,10.127034,4.499116,0.442375,0.285025,-0.548723,0.180664,-0.416016,-0.397217,-6.447926,4.11977,6.831773,-1.178048,-0.000666,-0.066931,0.243164,-0.154541,-0.527832,1.386575,4.248853,8.545225,0.344467,0.486388,0.071129,-0.147461,-0.190918,-0.496826,1.445463,3.231018,7.748785,-0.171183,0.628245,0.414577,-0.087402,-0.121338,-0.569092
-6.70912,-0.709992,7.232538,0.796439,0.703304,0.861808,0.533936,0.411865,-0.424805,-5.1268,8.045519,4.151575,-0.622307,0.291748,-0.425509,0.192383,-0.407959,-0.400635,-5.779778,2.839486,6.586939,-0.291055,0.544933,-0.482843,0.246338,-0.14624,-0.524658,1.099984,6.799632,9.003525,-0.05264,0.408144,0.052556,-0.143799,-0.183594,-0.49292,2.685637,4.236119,8.171827,-0.037988,0.187244,0.266326,-0.079102,-0.116699,-0.566162
-5.037998,-0.777469,6.997904,0.930691,0.843301,0.543133,0.54248,0.395752,-0.421387,-4.258401,7.79268,3.048183,0.480645,0.375816,-0.639122,0.19873,-0.409424,-0.394287,-6.520646,5.050857,6.803127,0.391109,0.531125,-0.374526,0.252441,-0.147461,-0.518066,1.323382,6.208134,8.879847,-1.407044,0.56327,0.185779,-0.135742,-0.167725,-0.49707,3.060844,4.789824,8.41719,-0.364603,0.741489,0.243408,-0.070801,-0.105713,-0.566162
-7.458188,1.126462,7.401718,1.060991,1.02855,0.5117,0.562012,0.371094,-0.423584,-5.90728,10.081737,4.38896,-0.791959,0.52599,-0.347369,0.209473,-0.405518,-0.401611,-6.868025,6.739291,7.112212,-0.840639,0.510747,-0.609683,0.262695,-0.136475,-0.515869,0.984497,3.466328,8.918705,-1.08502,0.832012,-0.013743,-0.130859,-0.153809,-0.503662,1.547707,3.565893,7.719116,-1.311058,0.774121,-0.18558,-0.053223,-0.085693,-0.56665
-8.067961,0.899261,7.368801,0.379741,0.947016,0.457104,0.571533,0.364746,-0.410889,-5.671708,6.924555,3.676507,-1.193223,0.284494,-0.493812,0.212402,-0.388428,-0.409912,-7.504103,3.313729,6.773826,-1.756471,0.252947,-0.060457,0.258545,-0.115479,-0.520752,1.207488,4.049105,9.634392,0.636146,0.601001,0.011363,-0.120361,-0.152588,-0.492676,2.027317,1.393222,7.885933,-0.478601,0.645594,-0.114726,-0.047852,-0.075195,-0.567627
-7.929961,-0.246195,7.295096,0.875638,0.243601,0.560688,0.580811,0.344482,-0.411621,-5.328773,6.551196,4.035462,0.013104,0.512427,-0.515273,0.229004,-0.386719,-0.404297,-6.795511,1.49738,6.078314,0.09393,0.183531,-0.122789,0.262451,-0.109375,-0.513672,1.55375,7.271402,9.818839,0.582985,0.783811,-0.033393,-0.117188,-0.165039,-0.493408,2.452811,4.110037,9.723312,1.20888,0.657132,-0.343784,-0.028564,-0.083008,-0.559082
-6.161677,1.312043,7.742801,1.162469,0.731547,0.402244,0.588623,0.33252,-0.407959,-5.424621,8.372857,3.842144,0.362836,0.546087,-0.573096,0.23584,-0.385498,-0.394775,-6.540032,5.700409,7.666286,1.202205,0.504632,-0.261785,0.262695,-0.128906,-0.506836,0.454999,6.511765,8.992789,-1.205018,1.109308,-0.057561,-0.105225,-0.145508,-0.492432,2.581176,6.813259,10.38295,0.028852,0.813947,-0.094561,-0.020752,-0.08667,-0.554199
-6.53563,3.045209,8.231416,0.767456,0.684367,0.135137,0.602783,0.322998,-0.411621,-5.845088,8.977376,4.250127,-0.150444,0.495859,-0.310759,0.249512,-0.379883,-0.399658,-6.999785,7.461545,8.800647,-0.609438,0.296773,-0.038184,0.264893,-0.117676,-0.503174,0.07867,3.248852,9.074634,-1.156315,0.91629,0.096471,-0.085693,-0.137207,-0.500977,1.319738,3.766108,7.517609,-1.225229,0.994691,-0.230933,-0.004883,-0.0625,-0.550049
-7.732219,5.4382,9.297694,-0.553218,1.303828,0.01655,0.613281,0.324951,-0.375732,-5.638397,9.200806,3.52098,-0.680873,0.359443,-0.267364,0.25293,-0.374512,-0.385986,-6.892407,3.925292,6.237887,-1.712671,0.300206,-0.123404,0.276855,-0.102539,-0.512451,0.681256,4.099899,9.537826,0.523177,0.763514,0.098877,-0.086914,-0.133057,-0.497803,1.00919,2.140634,8.903127,-0.092968,0.919205,-0.530662,0.019775,-0.064209,-0.553955
-8.03427,2.450188,7.682213,-1.799903,0.656929,7.1e-05,0.625,0.344971,-0.376953,-5.506441,9.49119,3.593309,-0.772114,0.536874,-0.420705,0.264648,-0.367432,-0.403809,-6.889113,2.082307,6.500448,-0.459735,0.2265,-0.144985,0.266846,-0.088623,-0.506348,0.322067,5.891354,9.236042,0.141899,1.097639,-0.074951,-0.066895,-0.14209,-0.492188,1.435717,4.964527,10.8399,0.544417,0.748513,-0.666933,0.024902,-0.063477,-0.545166
-8.553294,-0.845867,6.361156,-0.852711,0.698799,0.115818,0.626709,0.348145,-0.368408,-5.989306,8.905416,4.660955,-0.837014,0.387475,-0.770239,0.27002,-0.359619,-0.411133,-5.941353,3.43448,7.321958,0.521073,0.377623,0.117835,0.278076,-0.105957,-0.503662,-1.212289,4.381397,9.226379,-0.733576,1.221308,-0.098985,-0.05249,-0.132568,-0.50293,1.003254,4.353554,8.93853,-0.517777,1.035283,-0.218495,0.047607,-0.060303,-0.540771
-7.817333,1.145455,7.701329,0.531676,0.12978,0.138288,0.640869,0.347412,-0.368896,-5.698582,8.019163,4.023129,-0.541084,0.417319,-0.673883,0.290283,-0.344727,-0.412109,-7.192981,5.265718,7.042969,0.301332,0.813024,-0.143741,0.286865,-0.108887,-0.503906,-0.422199,2.994045,9.385456,-0.377246,0.632233,0.045673,-0.046875,-0.115479,-0.501953,-0.843881,2.395286,7.952609,0.085681,0.992088,-0.445365,0.059814,-0.057129,-0.544922
-8.159142,3.229939,7.477729,-0.171156,0.569443,-0.440185,0.638184,0.362305,-0.362061,-5.265899,8.815347,4.986337,-0.723208,0.624958,-0.814923,0.299561,-0.320557,-0.41626,-7.460132,5.19755,7.016509,-0.756153,0.306374,-0.19028,0.291748,-0.085449,-0.501953,0.197649,4.684364,9.492952,0.196863,1.166819,0.008124,-0.032471,-0.125244,-0.500732,0.944307,5.18981,9.560807,0.656344,0.642419,-0.456563,0.069092,-0.052246,-0.537354
-7.986717,0.848179,6.838933,-0.446144,-0.148337,-0.584712,0.643799,0.370361,-0.356934,-6.722852,7.753327,3.156633,-1.114698,0.805983,-0.653492,0.322266,-0.311279,-0.412842,-6.729898,3.87066,7.202195,-0.837143,0.330192,-0.234113,0.293945,-0.084717,-0.500732,-1.437496,5.569284,9.890303,-0.511349,1.1151,-0.134712,-0.022217,-0.119385,-0.498047,0.321996,4.9433,10.534793,-1.187457,1.339386,-0.249346,0.086426,-0.04248,-0.532715
-5.228716,0.839147,6.388058,0.284226,0.41975,-0.64892,0.645996,0.376953,-0.362061,-5.439416,7.958862,2.905701,-0.767256,0.336192,-0.693037,0.331055,-0.294922,-0.425781,-6.434698,4.284437,6.061276,0.213001,0.559422,-0.429003,0.299561,-0.082764,-0.494385,-1.518531,3.851993,8.528954,-1.060387,0.825025,-0.446762,-0.004883,-0.103271,-0.504639,-0.753491,1.409576,9.879587,-0.768971,0.957745,-0.216304,0.102539,-0.024658,-0.5271
-7.204815,1.495989,6.659654,0.522948,0.57877,-0.484055,0.644287,0.369141,-0.35498,-6.253244,7.463943,2.671077,-1.43765,0.797976,-0.252433,0.335693,-0.28418,-0.427246,-6.7025,6.290413,7.01915,-0.018288,0.662844,-0.567078,0.316406,-0.077637,-0.495117,-1.437969,2.256662,8.397043,-0.129589,0.765986,-0.454297,0.002686,-0.114258,-0.496826,-0.734245,2.974548,9.675446,0.429739,0.95025,0.027586,0.121338,-0.026611,-0.523438
-7.036375,3.148883,7.44837,0.082109,0.716357,-0.083059,0.651367,0.378174,-0.341309,-7.652214,7.526313,3.552941,-0.931994,-0.08201,-0.461229,0.338379,-0.26416,-0.429932,-7.142843,3.052652,6.441797,-1.317129,0.634334,-0.233994,0.32251,-0.072266,-0.487549,-1.634185,3.422134,8.917807,1.203777,1.018733,-0.667317,0.013916,-0.121826,-0.499023,-1.098013,3.304601,8.669875,-0.416806,0.881611,-0.052161,0.130371,-0.032715,-0.511963
-9.472875,1.55636,6.587581,-1.003662,0.647343,-0.369397,0.6604,0.387451,-0.331543,-4.67658,7.427255,4.546058,-1.511367,0.37521,-0.570145,0.351318,-0.246582,-0.438477,-7.143793,0.004942,4.191691,0.78151,0.570491,-0.098608,0.328857,-0.072266,-0.486084,-3.519836,5.237262,9.355829,0.793674,1.01512,-0.638919,0.023193,-0.135742,-0.500732,-1.046112,1.474726,9.184492,0.642305,1.022181,0.320526,0.143066,-0.028564,-0.510742
-9.084116,-0.794434,5.230017,-0.366953,-0.155315,-0.168399,0.658447,0.395508,-0.334961,-8.237704,5.801403,5.088604,-1.162665,0.682666,-0.717911,0.364258,-0.226318,-0.445557,-7.786675,3.529332,5.46988,1.86751,1.163918,-0.593995,0.338867,-0.093506,-0.478027,-2.833168,3.662327,8.233867,0.154034,0.442751,-0.92286,0.022461,-0.13916,-0.494141,-2.929983,4.093924,9.752943,1.50422,0.984083,-0.083262,0.151367,-0.052002,-0.507568
-7.329078,-0.032513,6.163241,-0.067725,-0.106614,-0.332827,0.648193,0.411133,-0.333252,-6.432041,4.999973,5.206654,-1.235895,0.306622,-0.836894,0.367188,-0.196289,-0.446289,-8.121202,4.662216,7.681381,0.888222,0.489721,0.177303,0.3396,-0.106934,-0.467285,-1.092072,3.433447,8.331605,1.111078,0.78881,-0.565577,0.025635,-0.156494,-0.49707,-1.643804,4.732773,7.84716,0.714101,0.420338,0.466547,0.149658,-0.05835,-0.49707
-6.458666,0.863758,5.753681,0.280869,0.313514,-0.647848,0.647705,0.412354,-0.334473,-7.150034,2.989925,3.799994,-0.206759,0.469043,-0.287258,0.371826,-0.193115,-0.445801,-6.377267,4.851187,5.33869,0.920799,0.979838,-0.692552,0.344727,-0.110107,-0.464355,-2.051265,7.185072,10.541018,1.085891,1.161828,-0.765353,0.05249,-0.169678,-0.483887,-0.478179,3.809389,7.395147,0.661183,0.993298,-0.233561,0.152588,-0.068359,-0.496094
-9.924272,1.67199,6.188824,-0.163358,0.199115,-0.464851,0.649414,0.415283,-0.329346,-7.816942,6.814237,4.274249,0.666832,0.265013,-0.43804,0.380859,-0.200439,-0.439697,-10.061171,5.54387,6.592484,0.399345,1.51434,-0.655969,0.377197,-0.111328,-0.438965,-2.439616,6.214623,9.222856,-0.663819,1.205643,-0.961647,0.06958,-0.155762,-0.491455,-0.963101,5.339746,8.870503,0.739021,1.125872,0.072136,0.177979,-0.071777,-0.478516
-6.683415,0.281766,6.276385,-0.545504,-0.100933,-0.614731,0.64624,0.425293,-0.32959,-7.219819,9.189733,3.435563,-0.724902,0.228193,-0.448477,0.387695,-0.191162,-0.44458,-9.046547,3.09192,5.230848,-0.197533,-0.295593,-0.055078,0.377197,-0.104736,-0.452637,-3.237801,2.537119,8.311694,0.207606,1.56109,-0.930567,0.081787,-0.162109,-0.481934,-1.619012,4.608547,8.112716,0.272773,1.315756,-0.030976,0.194336,-0.068115,-0.477539
-9.457095,-0.700101,5.440995,0.218632,0.33991,-0.382435,0.640625,0.437744,-0.322754,-7.958694,6.566129,3.282408,-1.572471,0.261696,-0.585606,0.389404,-0.159912,-0.44458,-7.481472,2.259224,2.566336,1.439055,0.948848,-0.375096,0.379883,-0.118652,-0.432373,-4.45623,5.814084,8.486383,1.784244,1.395304,-0.858871,0.102539,-0.187988,-0.469971,-2.850807,3.840431,7.522086,1.192335,1.367373,0.045453,0.200195,-0.084717,-0.460449
-7.888386,0.857339,6.494162,0.06634,-0.153989,0.15611,0.650635,0.429932,-0.325928,-7.875618,4.774928,2.362834,-1.182423,0.275266,-0.615476,0.40625,-0.145752,-0.448486,-10.912097,6.719807,6.022218,1.804093,0.589763,-0.842934,0.393555,-0.132812,-0.421387,-3.495778,7.884369,8.577485,0.063093,1.297092,-0.903458,0.112793,-0.179688,-0.471436,-2.444891,6.833946,7.381108,1.349976,1.196443,-0.356512,0.215088,-0.10083,-0.446533
-7.785434,0.656882,6.108217,-0.241786,0.107609,0.396487,0.64917,0.4375,-0.330322,-8.671918,4.781136,3.500338,-0.575307,-0.102785,-0.722303,0.400879,-0.123291,-0.461426,-8.702497,5.581682,4.747628,-0.857925,-0.599906,0.171009,0.380371,-0.118896,-0.434814,-3.411318,5.119679,7.34408,-0.810373,2.098695,-0.933094,0.143799,-0.17041,-0.465576,-2.336215,5.768442,6.484855,-0.098453,1.761359,-0.434784,0.225586,-0.087158,-0.438477
-7.26471,1.179107,6.295068,-0.710862,0.331146,0.629411,0.659424,0.438477,-0.312256,-6.149509,4.432388,3.531649,-0.441053,-0.165082,-0.863169,0.403564,-0.111572,-0.458984,-7.451967,1.989261,3.368243,0.028116,-0.043697,-0.471617,0.381836,-0.120361,-0.432129,-6.295285,4.215523,6.991199,-0.066488,2.190731,-0.611662,0.166992,-0.16333,-0.464844,-3.84505,4.261172,6.034907,0.895063,1.724096,-0.846927,0.242188,-0.098877,-0.425781
-8.589718,-1.94083,4.741626,-0.699912,0.028341,-0.046923,0.664307,0.439209,-0.313965,-7.962992,4.837904,4.86532,-0.593496,0.212036,-0.442119,0.415771,-0.102783,-0.460449,-8.87358,4.713839,3.961685,1.004213,0.114744,-0.607123,0.383301,-0.118164,-0.436523,-6.008257,5.249912,6.07037,0.333214,1.325901,-0.857947,0.193848,-0.167236,-0.454346,-4.261394,8.18384,7.982495,1.364315,1.930892,-1.101113,0.25708,-0.098633,-0.41626
-6.269753,-1.370252,5.260285,0.70372,0.363481,-0.118124,0.661133,0.437256,-0.307373,-6.085302,3.369051,4.897185,-1.868606,-0.076289,-0.640139,0.40918,-0.075684,-0.457764,-7.840867,5.532583,3.986984,-0.298814,-0.830967,-0.091898,0.385742,-0.11792,-0.442871,-4.046974,5.786203,4.754389,0.106919,1.429344,-0.585597,0.209717,-0.168213,-0.444336,-5.213459,7.780687,8.268377,-0.466623,1.638399,-0.605356,0.280518,-0.09082,-0.40332
-5.656961,0.076286,5.723215,-0.046541,0.282879,-0.062382,0.663818,0.43457,-0.300537,-5.353815,-0.02286,3.228555,-1.272338,0.477876,-0.049871,0.411865,-0.06543,-0.456787,-4.890548,2.651425,3.192036,-0.719455,-0.49902,-0.110606,0.37915,-0.111572,-0.446045,-6.184783,5.303069,4.293517,-0.575427,2.171618,-0.481707,0.238037,-0.154297,-0.440186,-3.733589,3.88008,5.611863,-0.033308,1.247079,-1.069294,0.283936,-0.084229,-0.389404
-7.351165,-3.064772,3.495715,0.196577,0.900262,-0.178709,0.670898,0.439697,-0.291016,-7.594174,1.701408,3.745612,0.229035,0.440174,-0.24312,0.418701,-0.05835,-0.44873,-7.003606,2.426543,2.333622,0.469253,0.447622,-0.302644,0.387939,-0.109619,-0.445312,-8.333275,2.526731,2.685803,-0.816841,1.504011,-0.522235,0.249268,-0.147217,-0.432861,-5.521418,5.409868,5.45344,0.963271,1.937035,-1.497442,0.301758,-0.084473,-0.382568
-6.786147,1.555116,4.848085,1.786653,0.363958,0.25655,0.677246,0.425537,-0.300293,-7.371902,3.749705,4.200015,0.192855,0.129545,-0.09407,0.424072,-0.054932,-0.45166,-7.508037,3.548492,3.672296,0.080153,-0.139353,-0.156343,0.380615,-0.11084,-0.446045,-7.162102,1.204591,2.261871,0.381361,0.759413,-0.311186,0.257324,-0.156982,-0.423096,-8.071891,6.282363,6.572536,0.146022,1.252055,-1.494778,0.303467,-0.076904,-0.371338
-7.302174,2.627981,6.288222,-0.014811,0.862354,-0.36512,0.685303,0.427246,-0.293213,-7.182463,4.739527,4.386077,-0.109439,-0.068965,-0.318461,0.423584,-0.053467,-0.456055,-4.797883,2.028307,2.479389,-0.473162,0.263577,0.108848,0.384521,-0.113525,-0.439941,-6.536722,3.596399,3.451204,0.530212,0.943031,-0.160195,0.2771,-0.157471,-0.420898,-6.491594,4.439376,5.383168,0.048668,0.483091,-1.215608,0.300781,-0.075684,-0.365479
-7.7556,-1.591781,3.449025,-0.475118,0.552797,-0.116633,0.68042,0.435547,-0.284424,-5.713258,4.235126,6.233241,-1.373875,0.106538,-0.204817,0.416748,-0.034424,-0.456055,-7.158182,1.91948,1.75816,0.529526,1.599019,-0.699982,0.414307,-0.109863,-0.429688,-7.957763,2.05265,3.338311,-1.254976,1.377611,-0.604446,0.285156,-0.137939,-0.406006,-6.305948,3.551439,3.452447,-0.239009,1.128831,-1.619873,0.313721,-0.061035,-0.363525
-10.394983,-1.211543,4.4661,0.723062,0.393946,0.20783,0.692383,0.422363,-0.281494,-8.449083,1.023404,3.645484,-0.771356,0.943515,-0.296627,0.43457,-0.027344,-0.445557,-9.866154,2.953082,2.831278,-0.185733,1.002492,-0.354586,0.416504,-0.099854,-0.410156,-7.877377,-1.734194,2.404945,-0.218205,1.197587,-0.534495,0.296143,-0.133789,-0.408203,-8.63366,1.53152,0.669827,-0.560339,1.042025,-0.864725,0.306641,-0.048828,-0.349121
-9.353383,1.354359,5.46161,-0.004494,-0.547495,-0.300596,0.686523,0.431152,-0.287842,-8.401527,1.427885,5.703185,0.254019,0.371461,-0.776475,0.440674,-0.015869,-0.438232,-8.692623,-0.097263,2.754202,-0.762957,0.6008,-0.303694,0.42334,-0.089111,-0.41626,-6.970778,1.264166,2.680029,1.625064,1.630014,-0.503074,0.304688,-0.162109,-0.390625,-7.320425,-0.228365,-1.393563,0.397014,0.999103,-1.266996,0.30249,-0.049805,-0.351807
-7.229334,-0.9504,4.540564,-0.242472,-0.043859,-0.35278,0.690674,0.437988,-0.287109,-6.795211,2.131145,3.410717,1.038977,1.20236,-0.0251,0.459473,-0.026855,-0.424561,-8.381248,0.572045,2.079215,1.440344,1.012362,-0.660936,0.428223,-0.105225,-0.39502,-7.702534,3.475953,3.82211,-0.139567,2.34209,-1.157811,0.33667,-0.155762,-0.375488,-7.771317,0.963517,-1.03614,0.418971,2.082484,-1.479839,0.299561,-0.061035,-0.33667
-7.84564,-0.701677,4.736324,0.632198,-0.070803,-0.519711,0.682129,0.439941,-0.289062,-9.662186,4.239554,2.751057,0.278131,0.717896,-0.357412,0.461914,-0.02417,-0.41626,-8.997419,6.192176,3.642655,1.232118,1.277349,-1.107165,0.451416,-0.10498,-0.381592,-7.870914,-0.320762,2.228746,-0.788526,2.626802,-1.304601,0.363037,-0.135498,-0.359863,-9.643935,-0.467011,-1.247287,-0.224627,2.208776,-1.21039,0.313965,-0.061523,-0.328613
-6.816811,1.687387,5.676628,0.065809,0.302237,-0.240132,0.678955,0.440918,-0.28418,-6.452628,1.775982,1.903528,0.247157,0.594072,0.056162,0.465088,-0.026855,-0.404297,-9.818467,2.718288,3.32779,-1.597024,0.259054,-0.519711,0.455078,-0.075928,-0.387451,-8.249785,-0.430528,1.47705,1.055626,3.073903,-1.105889,0.389893,-0.152344,-0.329346,-9.288824,-0.913274,-2.096674,1.085144,2.541273,-1.4617,0.317383,-0.072754,-0.32373
-8.196585,-0.780411,4.587233,-0.286807,0.300196,0.052229,0.692139,0.438965,-0.286621,-8.974414,4.629105,2.29113,1.382396,0.936392,-0.688992,0.48584,-0.039795,-0.398682,-7.090744,-2.558048,2.012773,-0.45526,0.183521,-0.734587,0.455811,-0.075195,-0.382812,-10.186588,1.998464,1.456581,0.798354,3.577852,-1.299185,0.424316,-0.150391,-0.287842,-11.365086,2.37967,-1.196677,0.928422,3.294298,-1.893479,0.330566,-0.097656,-0.307861
-7.826597,0.916594,4.613931,0.459928,0.122941,0.371174,0.691895,0.42041,-0.289795,-8.346954,5.168849,2.2432,-0.194486,0.256491,-0.636925,0.483154,-0.038574,-0.398193,-9.338349,-0.42685,1.497118,1.833918,1.318704,-1.142163,0.469482,-0.075928,-0.358154,-9.818794,-0.009405,-0.947457,-0.071518,3.16001,-1.383666,0.448242,-0.151367,-0.259033,-13.290364,0.062896,-1.625565,-0.359524,3.390208,-1.871429,0.346436,-0.104492,-0.293457
-6.743493,-0.769949,4.558733,-0.117158,0.245754,0.351905,0.692383,0.42627,-0.28418,-7.059383,-0.106444,2.108326,-0.383354,0.688949,-1.002199,0.486084,-0.01416,-0.386719,-9.339975,2.879274,2.058546,1.045616,-0.107311,-0.806675,0.468506,-0.089355,-0.363525,-9.090504,-1.992345,-3.126048,0.884581,3.552382,-1.255743,0.48584,-0.150635,-0.215088,-13.520163,-1.745692,-2.267748,1.364996,3.413202,-2.169524,0.37085,-0.137451,-0.282227
-6.905051,0.884531,5.060315,0.63993,0.804555,0.271038,0.698242,0.415039,-0.271729,-8.141989,-1.365416,3.141832,1.185963,0.577874,-0.558916,0.49292,-0.022705,-0.373779,-6.340499,1.134754,0.276446,-0.051005,0.53623,-0.912007,0.483887,-0.073975,-0.347168,-11.831291,-0.230568,-3.277311,1.894913,3.659796,-1.329768,0.507568,-0.165283,-0.170654,-14.349585,1.5159,-0.810607,1.56061,3.468208,-2.394643,0.410156,-0.158936,-0.262451
-9.429899,-1.143954,4.714866,-0.063917,0.653111,-0.404303,0.707764,0.429932,-0.269287,-7.798205,2.355216,3.584131,2.126951,0.888844,-0.48921,0.506348,-0.026367,-0.364502,-10.120143,-0.842685,-0.675723,0.916933,1.388586,-1.435838,0.492432,-0.07373,-0.336182,-11.494913,1.343241,-3.722552,1.12951,2.518058,-1.348619,0.525146,-0.151855,-0.137451,-14.777275,0.333179,-1.286275,0.474025,3.169821,-2.063997,0.441895,-0.182129,-0.245117
-8.357562,-1.102901,4.39063,0.958314,0.406281,-0.381481,0.713135,0.418213,-0.273682,-8.454512,3.73705,3.035422,0.431889,1.380222,-0.683651,0.520752,-0.033691,-0.347168,-9.63483,-0.708752,-0.286029,0.491349,0.346724,-1.103944,0.496094,-0.057129,-0.332764,-8.725083,-0.192527,-5.610203,0.268734,2.348913,-1.17372,0.542236,-0.149902,-0.105225,-14.76333,-0.373718,-1.513506,1.362985,2.990046,-2.472337,0.489014,-0.179932,-0.217773
-7.846465,1.433009,4.110688,0.735733,0.247705,-0.410914,0.713867,0.406006,-0.272949,-9.367598,-3.92034,-0.771835,-0.305117,1.432582,-0.949255,0.536621,-0.027344,-0.330322,-7.494621,-2.794899,-1.346575,-0.057993,1.021363,-0.999047,0.502441,-0.046143,-0.318848,-9.711866,-0.798958,-5.974838,0.475118,2.662235,-0.887126,0.56958,-0.154297,-0.066895,-13.516998,2.131843,0.065984,1.129408,2.202166,-2.580487,0.53418,-0.175049,-0.19165
-7.778634,0.747927,3.310653,0.137668,1.100402,-0.053095,0.71582,0.424805,-0.260742,-9.94426,-3.56852,-4.25182,3.488284,1.213995,-1.250277,0.538086,-0.020508,-0.307129,-9.527403,-3.180417,-3.443092,0.19787,1.990481,-1.064608,0.531738,-0.04541,-0.298096,-10.81485,-0.140999,-4.862362,-0.177728,1.636085,-0.725649,0.571045,-0.149902,-0.02832,-11.557369,1.578188,-0.400715,-0.362941,2.193963,-2.477212,0.593018,-0.156494,-0.161621
-8.150639,-3.429721,1.444004,0.24787,1.462748,-0.616107,0.72583,0.425781,-0.237549,-8.833443,5.704577,-0.136257,0.726818,1.195372,-1.603276,0.55127,-0.010254,-0.28833,-10.918853,-2.010366,-3.505772,-0.180345,1.129681,-0.772431,0.532471,-0.033447,-0.271729,-8.790642,-1.234032,-6.11421,-0.796624,1.144794,-0.868131,0.586426,-0.14624,-0.000488,-12.451289,-0.360955,-0.042428,-0.738331,1.542747,-2.261665,0.625244,-0.120117,-0.128418
-7.844769,-2.12865,0.74509,2.139525,2.248029,-0.368127,0.751953,0.413818,-0.227783,-8.851744,-3.01212,-3.559441,-2.730832,1.687019,-1.097502,0.574707,0.02124,-0.266357,-8.762309,-1.794168,-3.933476,-0.756707,1.29065,-0.581816,0.547607,-0.029297,-0.249268,-9.872951,-2.565678,-6.142518,-0.798026,1.369813,-0.667803,0.602295,-0.134521,0.034424,-9.583113,-1.079667,-0.292672,-0.644153,0.858336,-1.668006,0.662598,-0.089355,-0.100342
-8.217135,0.599249,1.478083,1.42434,2.417615,-0.665447,0.756836,0.410156,-0.189453,-10.448788,-0.749991,-3.131576,0.398758,1.62336,-1.266247,0.57666,0.037109,-0.233887,-10.778599,-1.424142,-3.620553,-0.329409,1.94802,-0.837181,0.569336,-0.016846,-0.211182,-12.072976,-1.871823,-5.424695,-0.162201,0.515574,-0.747717,0.607422,-0.119629,0.05249,-10.190519,-0.576175,0.384714,-0.721292,1.005858,-1.044932,0.695068,-0.057861,-0.065674
-8.822575,-0.859007,1.719663,1.566574,2.81621,-0.52782,0.770752,0.406006,-0.160645,-9.552499,3.735194,-1.201941,-2.226138,1.408866,-1.102907,0.578857,0.064453,-0.210449,-11.403135,-0.572265,-4.076901,-1.026283,1.684086,-0.849408,0.574951,0.002197,-0.184814,-11.596026,-1.072354,-5.554258,-0.793151,-0.219027,-0.783585,0.613281,-0.107666,0.051025,-11.401553,-1.127763,0.033209,-0.767634,0.3508,-0.276204,0.718262,-0.030762,-0.041992
-10.086115,-1.647869,-1.120952,1.372135,2.33505,-0.503276,0.783691,0.400879,-0.144531,-8.971912,-1.661319,-2.319145,-1.574855,2.484304,-1.122037,0.593018,0.084229,-0.175293,-11.999401,-2.020818,-4.229332,-1.099218,1.474044,-0.752632,0.584473,0.012695,-0.16333,-12.435182,-2.729183,-5.618806,-1.008776,-0.088852,-0.84061,0.616943,-0.091553,0.071045,-11.004684,-1.187781,-0.07377,-0.939627,-0.079662,0.325118,0.738525,-0.025146,-0.031982
-10.044029,1.558219,-1.105242,2.460963,2.008804,-0.1731,0.796875,0.390381,-0.121338,-13.018066,2.048335,-1.536699,0.245795,2.352384,-1.145514,0.60376,0.098145,-0.134277,-11.825681,-0.931234,-3.042385,-0.337796,1.830241,-1.268154,0.5896,0.033203,-0.124023,-13.383979,-1.90537,-4.869011,-0.006502,-1.061064,-0.799024,0.621338,-0.075439,0.054443,-13.259122,-1.466212,-0.436009,-0.490997,0.012405,1.213188,0.751465,-0.029785,-0.006104
-8.952823,0.19429,-2.059807,0.840034,2.078287,-0.378706,0.808838,0.384521,-0.092773,-9.4192,1.634404,-3.343262,-1.443079,1.625598,-1.01204,0.60791,0.112061,-0.102783,-11.115948,0.387519,-1.778153,-0.674824,1.904774,-1.2109,0.588623,0.047607,-0.09375,-12.269913,-0.236523,-0.991738,-0.033172,-1.211383,-0.88416,0.63623,-0.049561,0.054688,-13.47291,-0.229933,-0.572538,-0.466198,-0.990589,1.559386,0.762451,-0.045898,-0.012451
-9.207966,-3.32899,-2.80655,2.209879,2.479672,-0.287753,0.809082,0.385254,-0.076416,-11.309057,-1.118096,-4.77774,-0.789974,1.792042,-0.622263,0.603516,0.130371,-0.083984,-11.976261,-0.667414,-3.516544,-0.947483,2.141689,-1.519548,0.602295,0.082275,-0.052246,-13.339665,0.857668,0.796162,-0.22917,-0.516653,-0.940101,0.636719,-0.038574,0.053955,-13.078794,-0.168288,-0.978823,-0.73212,-0.742195,2.134274,0.781982,-0.064209,-0.000244
-12.415633,-0.605112,-2.668708,2.291023,2.432244,-0.342517,0.817871,0.375732,-0.047607,-10.069976,1.555627,-4.666237,-1.327178,1.819095,-0.560849,0.606689,0.13623,-0.045654,-14.6873,-1.308495,-2.074344,-0.541631,1.928975,-1.410248,0.597412,0.096436,-0.019531,-13.24224,0.909969,0.83801,-0.306131,-1.175999,-0.863895,0.637451,-0.018799,0.047607,-14.431673,-0.005877,-2.101639,-0.396947,-0.438672,2.04109,0.7854,-0.095215,0.008057
-9.605124,-1.424889,-2.754424,1.896685,1.770195,-0.319101,0.827637,0.376953,-0.0271,-12.309064,1.055425,-3.364697,-2.114774,2.143016,-0.311029,0.610352,0.143311,-0.003662,-13.545219,-2.073319,-0.776377,-0.751656,-0.026049,-1.047644,0.595947,0.109131,-0.010254,-9.254001,0.656282,0.426515,-0.073915,-0.847252,-0.74194,0.636719,-0.002197,0.046387,-12.117536,1.54579,-1.013669,-0.178719,-0.801128,1.64856,0.787842,-0.114258,0.019043
-10.154333,-0.17523,-3.237694,3.007586,2.44372,-0.415927,0.831055,0.380859,0.011719,-10.41692,0.23308,-2.966191,-2.593302,1.60472,-0.805207,0.605713,0.158447,0.04541,-9.770053,-2.5111,0.088861,-0.115151,0.644628,-0.753337,0.590576,0.122803,0.010254,-12.601871,2.016175,0.579935,0.305194,1.153909,-0.317592,0.637451,0.018799,0.075928,-9.719932,1.546796,-1.725679,-0.376252,-0.151512,1.088364,0.787109,-0.122559,0.038818
-14.091478,2.419166,-2.532967,1.720636,1.99672,-0.410972,0.834717,0.382568,0.026611,-14.917965,0.416962,-2.316239,-2.745597,1.959844,-0.395584,0.605225,0.160889,0.075684,-14.633425,-1.813566,1.760147,0.32696,1.462339,-0.894805,0.592773,0.149414,0.036621,-14.207964,1.493649,1.291168,-0.2897,-0.462655,-0.299634,0.634033,0.015869,0.068115,-13.267344,1.666653,-1.392657,-0.019415,0.681484,0.249686,0.787354,-0.10791,0.073975
-10.962585,-2.540583,-2.69866,1.303812,1.312751,-0.771785,0.837646,0.381104,0.037842,-10.958256,-0.03073,0.927501,-3.714451,0.598969,-1.239087,0.601562,0.158447,0.096924,-13.224618,-1.617077,1.11715,-0.152078,-0.382303,-0.045346,0.588379,0.139893,0.030518,-7.260148,0.373608,-0.57332,0.239645,-0.491738,-0.269771,0.634033,0.017822,0.069092,-10.803046,1.457411,-1.432136,0.106482,-0.737499,-0.578056,0.782959,-0.099609,0.072998
-11.030553,-0.012522,-1.261625,3.163683,0.815017,-0.711189,0.838135,0.388916,0.034912,-9.473907,-1.919402,-1.061342,-3.641576,1.911207,-0.222028,0.597168,0.147705,0.141113,-7.480415,-0.479061,1.517912,0.86424,0.402398,-0.206867,0.589355,0.141602,0.037842,-8.754901,1.647594,0.630796,0.459659,1.784163,0.029746,0.634521,0.022461,0.100342,-8.145765,1.332274,-1.160413,0.418916,0.69313,-1.256439,0.77832,-0.073486,0.104492
-9.380925,3.563799,0.115985,0.640192,1.051272,-1.454562,0.83252,0.411865,0.044678,-12.518285,-0.570028,-1.353886,-3.769089,0.616928,-0.538567,0.594971,0.142334,0.156982,-10.112238,1.981282,1.852911,0.466526,1.954278,-0.558398,0.58667,0.150146,0.066162,-12.875436,1.215934,1.976293,-0.406639,0.937783,-0.241216,0.623779,0.026855,0.130127,-11.239927,1.465377,-0.836356,-0.002227,0.695259,-1.613892,0.772705,-0.03833,0.124512
-11.064798,-4.166777,-2.319709,0.626474,0.258449,-1.307853,0.819824,0.435547,0.051758,-8.689917,1.051299,0.022797,-4.231237,0.556009,-0.335845,0.584717,0.130859,0.180908,-12.277916,0.264294,1.316681,-0.715113,0.741153,0.013901,0.581055,0.149414,0.093262,-7.489127,-0.173125,1.319881,0.076416,0.036126,-0.29456,0.622803,0.025146,0.125488,-9.738271,0.105734,-1.533205,0.123453,0.326376,-1.927864,0.756592,0.000977,0.157959
-8.909995,-1.2344,-1.590002,1.554686,0.22317,-0.736053,0.817627,0.441162,0.048096,-9.269757,-0.536247,-0.201182,-4.187472,0.941547,-0.398481,0.579834,0.114014,0.212646,-8.311698,-1.259572,-0.079036,-0.112545,0.523515,-0.16597,0.58374,0.144043,0.094482,-6.371394,0.776333,1.314374,0.334261,2.141464,-0.16655,0.618408,0.030029,0.155762,-9.05533,0.623447,-1.210459,0.563626,1.17558,-2.279398,0.739014,0.032471,0.175049
-8.541271,-2.668748,-1.7051,1.293792,-0.441501,-0.398125,0.823486,0.452393,0.033203,-7.912946,0.814187,-1.891507,-2.867858,0.829628,-0.204054,0.583252,0.105713,0.231201,-9.264068,0.382223,0.188484,0.861283,1.154083,-0.310753,0.58252,0.149902,0.099854,-10.31952,0.553606,1.265557,-0.614774,2.079283,-0.532489,0.60376,0.036865,0.193359,-9.400221,1.006228,-0.579992,-0.20177,1.176808,-2.255219,0.719482,0.071777,0.196777
-8.106717,1.184994,-1.308972,1.241124,0.244391,-0.218119,0.816895,0.450684,0.023926,-9.975567,1.51535,-2.402184,-3.433223,0.632162,-0.176993,0.572998,0.081787,0.23877,-8.95454,3.503154,0.991798,0.303208,0.4149,-0.481197,0.578125,0.162109,0.109375,-8.457236,-1.350446,0.649323,-0.42853,1.354996,-0.857772,0.593994,0.060059,0.210449,-8.239213,-1.141717,-1.344342,-0.594494,1.647613,-1.906617,0.694092,0.098145,0.234863
-9.364396,-2.094956,-2.992131,-1.542408,-0.368784,-0.511316,0.80835,0.452148,0.033447,-9.056913,0.682643,-1.792237,-2.483381,-0.231155,-0.421594,0.570312,0.062988,0.23877,-9.296233,1.294776,-0.538189,-1.222092,0.488794,-0.358809,0.57373,0.174561,0.120605,-7.59585,-0.480398,-0.170219,0.271079,2.367534,-0.784277,0.578857,0.058594,0.258545,-10.510873,-1.00084,-1.097051,0.116886,2.106275,-1.613977,0.6604,0.134521,0.267334
-8.312863,-9.629097,-4.516926,0.805399,-0.134508,0.558302,0.822998,0.442871,0.022461,-7.858447,1.138506,-1.225818,-1.861919,-0.027653,-0.119765,0.578857,0.054199,0.240479,-9.07264,-1.14682,-0.981559,-0.35942,-0.203007,-0.624925,0.574951,0.169434,0.126465,-10.24847,0.371894,-0.480431,-0.475361,2.536723,-1.082251,0.556152,0.073242,0.294922,-9.451664,0.494418,-0.672839,-0.279519,1.778356,-1.265653,0.637939,0.131592,0.30542
-8.428751,1.467891,-1.026862,1.486869,-0.582694,0.688082,0.82373,0.438232,0.009277,-9.041492,0.784554,-2.152386,-1.694089,-0.003208,-0.335149,0.576904,0.054932,0.244629,-8.381424,-0.05127,-1.161937,-0.13913,0.033596,-0.682343,0.570801,0.180664,0.131836,-9.768811,-1.377477,-2.12687,-0.658915,1.947257,-1.080293,0.542725,0.092285,0.322754,-9.934837,-0.737328,-1.323974,-0.880201,2.614509,-0.743084,0.601074,0.13501,0.342773
-9.933156,0.198857,-2.680245,-1.6899,-0.502148,1.271457,0.82666,0.417969,0.015625,-9.154464,1.700062,-2.328978,-0.846589,-0.3005,-0.189932,0.571045,0.048828,0.242432,-10.220345,-0.677058,-2.097386,-0.519755,-0.289791,-0.599399,0.571777,0.194092,0.127197,-10.137449,-0.706833,-3.745734,0.022793,2.438031,-1.014384,0.521973,0.10498,0.354736,-12.322068,-1.066656,-1.079954,-0.268884,2.369155,-0.581328,0.575195,0.143066,0.37207
-10.28091,-2.251138,-3.865094,-2.354196,-0.870675,1.647174,0.835205,0.394775,0.015869,-8.731248,1.093002,-0.791591,-0.918247,0.384894,-0.523734,0.57373,0.050537,0.248291,-9.955777,-1.679817,-1.846542,-1.226828,-0.581671,-0.488195,0.572754,0.197998,0.124023,-11.274791,0.50806,-4.314861,-0.85161,1.709685,-0.863714,0.498047,0.110352,0.389893,-11.833176,0.960672,-0.782452,-0.092775,2.12947,-0.237224,0.553223,0.142578,0.394043
-10.196928,-5.082663,-4.503998,-1.041726,-1.3581,1.90319,0.848389,0.361816,-0.003662,-11.856028,1.563573,-4.605661,0.074596,0.175845,-0.513181,0.577637,0.055176,0.251709,-9.621684,-2.899789,-2.975207,-0.636837,-0.470665,-0.326825,0.570312,0.199463,0.126953,-8.918991,-1.379871,-4.084961,-1.121525,1.124786,-1.085778,0.490967,0.102783,0.406982,-11.721251,1.069659,-0.137635,-1.46484,1.92017,-0.193318,0.522217,0.127441,0.428711
-11.60304,0.10245,-1.372985,-0.598587,-0.998041,1.58384,0.861816,0.335205,-0.017578,-9.838138,3.456461,-5.965362,-0.678644,-0.428397,-0.930559,0.589355,0.061035,0.244629,-9.739487,-0.651129,-3.836137,-0.407137,-0.138724,-0.575772,0.577881,0.199219,0.128418,-8.81794,-0.645721,-4.148092,-0.070571,1.5269,-0.610342,0.474365,0.107178,0.43335,-10.654931,-1.603555,-1.116881,-0.992616,1.471463,0.341493,0.515625,0.101807,0.444092
-10.37601,-1.931472,-2.462643,-1.120328,-1.820862,0.717455,0.856201,0.32666,-0.037842,-9.536458,1.649249,-7.316682,-1.66897,-0.565805,-0.146045,0.5896,0.053955,0.238037,-10.752138,-0.948317,-4.06033,-1.248221,-0.849543,-0.021907,0.580566,0.192627,0.130371,-9.569449,2.063852,-3.847582,-0.704362,0.664366,-0.81497,0.463867,0.109375,0.446045,-9.963869,0.615165,-0.595743,0.104148,1.320717,-0.066927,0.499756,0.099365,0.465088
-10.191037,-0.192702,-1.657605,-0.108837,-1.046111,0.248964,0.855713,0.327637,-0.051514,-9.256524,2.583856,-6.547255,0.158361,-0.803802,-0.58097,0.595947,0.067139,0.229004,-8.570962,-2.635573,-3.718119,-1.880303,-1.458688,0.114089,0.584717,0.182617,0.11792,-6.942992,1.043531,-5.643178,-2.251328,0.289515,-0.639998,0.456543,0.099121,0.463135,-9.053373,2.726885,0.208503,-1.148472,0.949497,0.229864,0.487793,0.08252,0.477051
-9.556546,-0.101916,-2.231066,-0.168297,-0.957261,0.053444,0.860107,0.321289,-0.077881,-8.593971,7.569599,-4.169635,-1.352801,-0.674475,-0.910368,0.604248,0.068115,0.209961,-8.865713,-3.984113,-3.869463,-1.551897,-0.783535,0.473976,0.588135,0.17627,0.114258,-8.394703,-0.759495,-6.106306,-2.14477,0.632828,-0.337449,0.465576,0.077881,0.473633,-8.320171,0.927594,-0.346207,-2.048687,0.822303,-0.105862,0.480713,0.063721,0.494873
-10.589593,2.605972,-1.283913,0.2509,-0.460562,-0.41671,0.841553,0.32666,-0.07373,-9.404684,2.446981,-4.739917,-2.990542,-0.558587,-1.155546,0.592773,0.069824,0.218506,-10.517839,-1.990062,-4.340556,-1.178629,-1.131421,0.539975,0.611816,0.162109,0.104248,-9.636724,-0.933318,-7.192255,-2.001732,-0.579902,-0.425358,0.463135,0.05957,0.483887,-9.400906,0.663389,-0.290433,-1.764958,0.348318,-0.207881,0.492432,0.044434,0.499756
-9.954462,-0.74517,-1.089986,-0.555163,-0.633444,-0.330572,0.843994,0.330322,-0.0896,-9.145681,1.010643,-2.591762,-1.469223,-0.279997,-1.392854,0.599121,0.077148,0.208496,-10.283953,-0.991784,-4.884292,-1.880606,-1.24462,0.923175,0.612549,0.144287,0.097412,-7.638776,-2.735756,-7.528631,-2.079364,-1.323632,-0.182883,0.47998,0.041748,0.46875,-8.967763,0.861101,0.267734,-2.12335,-0.424383,-0.28824,0.493896,0.025391,0.50708
-10.97848,1.626546,0.134495,1.10376,-0.390066,-0.491827,0.844727,0.341797,-0.099365,-11.362866,1.914089,-1.307147,-0.90027,-0.100989,-0.984786,0.600098,0.095215,0.208008,-11.100014,-2.1404,-5.507803,-1.381316,-1.341596,0.58034,0.619141,0.13208,0.074219,-7.893843,-4.805718,-8.517903,-0.457912,-1.419612,-0.01178,0.502686,0.037598,0.452637,-9.244828,-1.203992,-0.02022,-1.989564,-0.745148,-0.16074,0.508545,0.006592,0.497314
-10.38121,2.811124,0.229324,-0.716318,-0.840712,-0.771914,0.850586,0.362061,-0.104492,-10.699853,1.028679,-0.530249,-0.681306,-0.781134,-0.813931,0.617432,0.109375,0.202637,-9.562903,-1.093126,-4.69476,0.224805,-1.316395,0.177432,0.626221,0.131348,0.050293,-8.498894,-2.413687,-8.118878,1.366958,-2.626847,0.350268,0.530029,0.050537,0.409424,-9.953834,-2.407906,-0.308101,-0.250039,-1.788552,-0.137511,0.537842,0.007812,0.481201
-9.521257,-0.51324,-0.848013,-0.409751,-0.376985,-0.414512,0.849121,0.367432,-0.115234,-9.872675,0.169263,1.183257,0.692024,-0.537718,-0.641347,0.621338,0.116943,0.188232,-9.393351,-0.161724,-3.974235,0.104737,-0.675588,-0.139918,0.622803,0.133057,0.037842,-7.653927,-1.023407,-7.224393,0.787276,-3.043922,0.501429,0.572266,0.047852,0.365234,-9.583053,0.16506,0.016713,0.978917,-2.405187,-0.084396,0.573242,0.021484,0.451416
-9.363641,1.954376,0.394694,0.000676,-0.375885,-0.001063,0.842529,0.358887,-0.123047,-9.242781,2.202313,1.172167,1.734183,-0.315545,-0.830934,0.615723,0.130859,0.17334,-9.569837,-2.840832,-5.442024,0.347668,-0.684334,-0.166348,0.634277,0.132812,0.019775,-9.818908,-3.205026,-7.366429,1.299024,-3.035214,0.793129,0.594971,0.052979,0.321777,-11.934099,0.334784,-0.162054,0.3719,-2.744177,0.226654,0.622803,0.02124,0.412842
-9.54964,3.820667,1.451505,-1.054379,-0.084749,0.411318,0.837646,0.366943,-0.111816,-9.092028,3.064823,-0.470748,1.720177,0.12596,-0.397527,0.609863,0.154053,0.177734,-9.097042,-2.973441,-5.88498,2.324343,-0.400459,-0.44369,0.630127,0.149414,0.012695,-11.008468,-2.086482,-7.056626,3.173901,-4.280023,1.006542,0.635254,0.055664,0.248779,-14.159205,-2.36034,-1.645207,1.281493,-3.503478,0.384845,0.661377,0.037354,0.36377
-9.085073,0.697815,0.710784,-2.062189,-0.109462,0.446312,0.841797,0.363525,-0.112305,-9.34092,1.041205,-1.921484,1.715991,0.21516,-0.455439,0.61084,0.162842,0.168945,-9.350664,-0.071332,-4.22574,2.991743,-0.285938,-0.375677,0.637451,0.154541,0.000488,-9.548357,-0.076946,-5.444734,3.314713,-4.491656,1.143861,0.656494,0.047607,0.162109,-15.284495,-0.904416,-1.929739,2.903501,-4.053191,0.745859,0.717529,0.049316,0.29834
-9.16882,3.266358,1.634535,-2.322716,0.334515,0.374451,0.848145,0.372314,-0.091553,-9.313737,0.315305,-2.496964,2.531621,0.19275,-0.205848,0.611084,0.183105,0.163574,-8.943181,-0.518133,-3.496506,2.679413,-0.496156,0.053043,0.632324,0.149414,-0.022461,-10.822591,-0.00844,-3.620552,3.65227,-3.967327,1.208523,0.670898,0.035889,0.083252,-16.553776,-0.15451,-2.150281,2.521044,-4.300216,1.411515,0.75293,0.036621,0.213379
-9.764737,-2.581998,-0.751392,-3.232462,0.080964,-0.242839,0.841309,0.386963,-0.073486,-9.555485,1.315897,-3.441414,2.195422,-0.024875,-0.031838,0.608398,0.188721,0.156982,-8.825117,-1.387788,-3.13606,3.949589,-0.263394,0.124251,0.633301,0.14209,-0.047363,-10.975549,1.230584,-1.40708,4.274583,-4.67411,1.252486,0.676025,0.011963,-0.01416,-17.366753,-1.797691,-3.402766,3.058963,-4.752149,2.033628,0.780029,0.009277,0.111328
-8.830492,-1.026619,-0.350331,-1.929028,0.406987,-0.273699,0.846191,0.400879,-0.056885,-9.093869,0.114714,-3.222937,1.371899,-0.436583,0.226984,0.614258,0.19165,0.144531,-9.257074,1.802335,-0.823794,4.694766,-0.246315,0.520829,0.639893,0.131104,-0.073242,-8.02308,2.040612,-0.129825,4.207953,-4.082479,1.152345,0.676758,-0.008789,-0.095459,-15.315125,-0.198259,-3.434093,3.877712,-4.744713,2.394791,0.793701,-0.03418,0.00708
-8.78308,-2.616095,-0.797177,-2.06222,0.144422,-0.657319,0.838867,0.416016,-0.043701,-8.609491,0.748819,-2.559879,1.370514,-0.356149,0.211203,0.614258,0.191895,0.132324,-9.744822,1.476758,0.737017,3.465022,-0.780117,1.232555,0.64624,0.106201,-0.10376,-9.206694,2.623982,0.739212,4.120578,-2.645345,1.341819,0.675781,-0.049316,-0.143799,-13.883693,0.928352,-2.779671,3.395216,-4.390526,2.796383,0.790283,-0.091064,-0.087402
-9.636744,1.907399,-0.334908,-1.367554,0.618221,-0.135289,0.848389,0.428467,-0.029541,-10.758716,0.94445,-0.167145,1.036071,-0.481586,0.188766,0.625,0.196045,0.117432,-9.660394,0.075282,1.757658,3.981892,-0.795388,1.553958,0.657471,0.071289,-0.12207,-10.831692,3.115512,1.017715,3.588721,-2.872742,1.440485,0.653809,-0.094727,-0.188232,-13.1984,0.603397,-3.477633,3.30995,-3.928002,2.643676,0.772461,-0.158203,-0.152832
-8.766656,4.730562,-0.618426,-2.972236,0.548724,-0.615087,0.850098,0.438965,0.00415,-11.134634,-0.521602,0.688401,0.883482,-1.082795,-0.600373,0.630371,0.200439,0.099609,-8.91089,3.983208,2.105382,4.818121,-0.415654,1.355228,0.649902,0.033691,-0.133789,-7.911238,2.982193,3.038072,2.735766,-2.739057,0.957414,0.641846,-0.129395,-0.238037,-11.788639,2.079312,-2.246555,3.10012,-3.525556,2.423997,0.734619,-0.224854,-0.20459
-10.763403,3.977982,-0.351096,-4.137636,0.810155,-0.556821,0.843262,0.461182,0.042725,-9.511023,-1.540134,1.74124,0.889458,-1.256185,-0.728057,0.625244,0.223633,0.078613,-10.554895,6.466055,2.134232,2.569492,0.125032,1.485432,0.658936,-0.002686,-0.140381,-8.220978,2.656028,3.901292,2.162904,-1.049773,1.0319,0.623047,-0.161377,-0.250732,-10.233628,2.082103,-2.069399,1.79366,-3.025388,2.300214,0.705078,-0.281006,-0.25415
-11.846411,-1.296586,-2.912532,-5.467865,-0.128719,-0.851212,0.837891,0.471191,0.064697,-10.999824,-1.208152,3.763708,1.037349,-0.826399,-0.679513,0.627441,0.23291,0.046143,-12.654369,2.856801,0.797684,0.952659,-0.659567,1.549867,0.647461,-0.029297,-0.14917,-10.555179,3.010538,4.076185,1.474991,-1.255558,0.80403,0.623291,-0.182373,-0.269531,-9.350217,0.978701,-2.570315,1.551684,-2.320804,1.816718,0.660889,-0.323486,-0.280029
-11.545889,-10.735186,-3.593057,-2.704654,-0.929546,-0.145327,0.825928,0.468506,0.074951,-11.176313,-1.386705,2.717176,1.665488,-1.231617,-0.489955,0.614258,0.23584,0.024658,-10.657066,2.518595,0.876271,1.77993,-0.932129,1.083384,0.655762,-0.050781,-0.165771,-7.358432,2.274688,2.813974,0.538769,-1.415186,0.352014,0.61499,-0.19873,-0.293945,-8.265474,2.094682,-1.395091,1.293236,-1.68658,1.271579,0.646484,-0.351562,-0.300537
-8.605156,2.037835,1.283688,0.923926,-1.274857,0.168036,0.841309,0.469971,0.056885,-9.514205,-0.367257,2.132371,1.828513,-1.216414,-0.554552,0.626953,0.249756,0.001953,-10.204638,5.002179,2.228815,1.249809,-0.797644,0.787102,0.659424,-0.071533,-0.182617,-6.879486,1.466633,2.791586,0.414482,0.225215,0.438817,0.609131,-0.202148,-0.285645,-7.164646,1.946307,-1.263313,0.349073,-1.082292,0.931348,0.629883,-0.376465,-0.317871
-9.122637,4.159798,2.012995,-3.4211,-0.875126,-0.205296,0.829102,0.473145,0.064453,-9.721758,-0.906029,0.911377,1.970196,-1.31608,-0.420721,0.616211,0.250732,-0.037354,-10.100702,3.200715,1.304559,-0.787395,-1.159932,0.798477,0.644531,-0.075684,-0.196289,-10.005181,2.137214,3.233513,0.513398,0.353112,0.273647,0.610596,-0.222412,-0.280518,-7.091757,0.912716,-1.596194,0.190383,-0.369987,0.334746,0.613525,-0.379395,-0.31958
-8.723427,-5.318063,-0.035686,-2.250153,-1.130854,0.542374,0.839355,0.466309,0.056396,-9.260929,0.334765,0.398269,2.27213,-1.212912,-0.726442,0.619141,0.262939,-0.07373,-10.609257,-1.327048,1.032942,-0.567071,-1.219867,0.772009,0.640381,-0.0979,-0.218018,-7.854677,1.477022,2.210372,0.074682,-0.072468,0.227912,0.610352,-0.221436,-0.289062,-7.51895,1.237812,-1.297817,0.543825,-0.144175,-0.289879,0.613525,-0.393555,-0.319092
-9.148213,2.295167,2.620539,-0.336459,-0.992233,0.041219,0.830566,0.460693,0.048828,-9.231188,0.760311,1.266731,2.251998,-1.312959,-0.889672,0.602295,0.263428,-0.105469,-8.966005,-0.778329,1.074329,0.965458,-1.340154,0.647208,0.630615,-0.10791,-0.244385,-7.589941,0.492621,1.032159,0.760837,1.483634,0.368924,0.616699,-0.232666,-0.267334,-7.136903,1.348422,-1.40185,0.572371,0.214977,-1.021417,0.621826,-0.381836,-0.316895
-8.616743,0.213837,1.416125,-2.481273,-0.884258,0.256643,0.83667,0.465576,0.049561,-7.961085,-2.195909,-0.722191,1.719802,-0.938519,-0.521002,0.600586,0.276855,-0.131836,-10.301246,0.448391,1.072213,0.917031,-0.973744,0.859226,0.618896,-0.123535,-0.260254,-11.461417,1.411079,0.509916,1.054325,1.574019,0.482596,0.629883,-0.260498,-0.231689,-8.72977,0.586142,-1.515424,0.936114,0.835168,-1.649187,0.63501,-0.366943,-0.297607
-9.08504,-2.146078,0.66757,-0.877393,-0.959077,-0.524288,0.829102,0.479736,0.044434,-10.71732,-0.219155,1.766689,2.03619,-0.998333,-0.715905,0.589355,0.286133,-0.158203,-9.571371,0.639189,1.128777,0.711635,-1.69726,0.993909,0.610596,-0.153076,-0.280273,-9.582803,0.64058,-1.344661,0.473256,0.49144,0.335005,0.644287,-0.269043,-0.226807,-10.7815,1.243321,-1.146167,1.423481,0.707318,-2.3758,0.664062,-0.357666,-0.273438
-8.499354,-0.551202,1.132662,-1.239611,-0.438131,0.111329,0.835938,0.468994,0.04126,-8.262192,-1.110631,1.327667,0.897974,-1.273983,-0.545618,0.590088,0.281738,-0.187256,-7.213473,-0.063752,1.209587,0.754042,-0.884631,0.904605,0.61377,-0.172852,-0.29541,-7.570048,-0.667704,-1.6586,0.849148,1.403615,0.455771,0.640625,-0.286621,-0.208984,-10.300411,1.323791,-0.741747,1.119316,0.639472,-2.730318,0.702393,-0.324463,-0.258301
-8.915985,-2.227433,0.957713,-0.477014,-0.576252,-0.435165,0.833496,0.493896,0.034668,-8.634878,-2.060891,1.312447,0.998991,-0.914688,-0.783441,0.58252,0.301025,-0.209717,-9.048836,-0.338091,-0.096131,1.152595,-0.273499,0.648564,0.598633,-0.196045,-0.30249,-10.901757,-0.313256,-1.314439,1.062592,1.596497,0.583338,0.655518,-0.295898,-0.174072,-10.451165,0.277895,-0.931227,0.941398,0.792977,-2.981911,0.716309,-0.285645,-0.24585
-11.073475,-0.277563,1.996645,0.06097,-0.47921,-0.894641,0.823486,0.493652,0.019531,-8.419665,-0.842264,3.320337,0.519062,-0.765723,-0.190415,0.575195,0.293457,-0.229736,-9.078208,0.419272,-0.927337,1.062861,-0.484341,0.683929,0.602783,-0.20459,-0.29834,-9.959697,-0.990964,-2.542207,0.643792,0.318346,0.28942,0.644775,-0.305664,-0.16333,-11.020677,-0.194131,-0.876324,1.069192,0.822004,-2.958367,0.749756,-0.242676,-0.220215
-8.864067,-0.677625,1.981863,-0.810309,-0.827632,-0.719478,0.82373,0.496338,0.022217,-8.893619,-1.670162,1.669094,0.457892,-0.306477,-0.220275,0.579102,0.281738,-0.229004,-8.700064,-0.563485,-0.255876,0.809375,-0.317738,0.541777,0.590332,-0.218506,-0.298096,-7.346184,-1.780206,-2.934998,0.958499,0.688142,0.33643,0.644775,-0.331055,-0.154053,-10.272899,-0.47967,-0.435072,0.976892,0.524615,-2.651985,0.751953,-0.203369,-0.203613
-8.231091,-2.50232,1.360675,0.301413,-0.647645,-1.022465,0.805176,0.516113,0.011475,-9.211661,0.727935,1.247779,1.206695,-0.291734,-0.244359,0.567139,0.287109,-0.241943,-7.746998,-0.121879,-0.498622,1.292804,0.067367,0.243011,0.587646,-0.244141,-0.295166,-10.184148,-1.569407,-2.328854,1.03943,1.174705,0.251974,0.654541,-0.330811,-0.12793,-8.651857,-0.797863,-0.268176,0.864713,0.508105,-2.193083,0.762207,-0.179932,-0.195068
-9.130843,-2.274141,1.382708,0.636152,-0.159326,-0.075283,0.80835,0.5271,-0.005127,-9.851562,0.448914,-0.25502,0.538319,-0.244627,-0.459723,0.569092,0.299316,-0.255615,-9.30822,0.791599,-1.657066,1.272927,0.753039,-0.047801,0.597656,-0.249023,-0.274658,-11.301301,-1.780548,-2.401735,1.083804,0.022081,-0.048479,0.653076,-0.334717,-0.120117,-8.810325,-1.705893,-0.446851,0.655572,0.68121,-1.468028,0.775635,-0.155029,-0.180908
-9.46674,-4.4099,0.213954,1.424486,-0.267807,-0.108724,0.810791,0.515625,-0.018799,-10.312877,-1.784825,0.26421,0.965553,-0.740561,-0.027032,0.56665,0.2854,-0.271973,-11.054876,0.052067,-1.823214,0.827899,0.234403,-0.163163,0.599854,-0.253906,-0.263672,-8.426255,-1.400456,-2.021129,1.296653,-0.204579,-0.20161,0.653809,-0.338623,-0.111328,-9.38805,-2.199129,-0.513792,1.210421,0.547986,-0.634272,0.783447,-0.149658,-0.164307
-11.191394,-3.960746,-0.282236,1.999391,-0.051635,0.105111,0.80835,0.509521,-0.033936,-7.923332,0.784548,1.55067,1.602073,-0.158328,0.182513,0.562256,0.27002,-0.282715,-9.054075,-0.758878,-2.393486,0.754528,-0.120883,-0.231668,0.599121,-0.254883,-0.263672,-8.75864,-0.603447,-1.927512,1.001253,0.401048,-0.224431,0.663818,-0.336182,-0.098389,-8.312716,-0.679627,-0.27125,1.277625,0.262637,0.067774,0.781494,-0.158936,-0.154053
-8.78457,-6.205962,-1.94745,4.074705,-0.711076,0.688898,0.812012,0.493652,-0.077637,-8.658708,-0.370677,0.867354,0.937489,0.160787,0.634652,0.56543,0.261963,-0.285156,-9.201975,-1.415628,-1.410322,0.713122,0.133516,-0.426029,0.611572,-0.25,-0.257324,-9.885551,-0.887917,-2.444703,0.464983,0.024331,-0.302896,0.662109,-0.332031,-0.087646,-8.070052,-0.450828,-0.321126,0.662267,0.52958,0.80671,0.791992,-0.172363,-0.140381
-9.436308,3.77629,1.564699,5.340474,-0.249832,0.160594,0.808105,0.459473,-0.116943,-7.762963,-0.882275,0.274372,1.679763,0.701238,0.663625,0.572021,0.235352,-0.283203,-9.14198,-0.992237,-1.524691,0.866293,-0.081597,-0.366283,0.607422,-0.252686,-0.245117,-9.946856,-1.427411,-3.428679,0.493065,-0.124469,-0.392481,0.656494,-0.328125,-0.091309,-9.318225,-0.971301,-0.524778,0.512546,0.486366,1.295827,0.783691,-0.199463,-0.129639
-9.470395,-0.371334,0.292981,2.014177,-0.382186,0.460327,0.817627,0.438232,-0.137695,-11.345914,0.00597,-0.790956,0.934675,0.90457,0.981067,0.588867,0.210449,-0.276367,-9.962177,-0.583734,-0.511471,0.460608,0.236682,-0.560118,0.602783,-0.246338,-0.243408,-10.343608,-0.667791,-3.957606,0.652787,-0.329184,-0.305657,0.664795,-0.325195,-0.089844,-10.409028,-0.565077,-0.390197,0.601484,0.234943,1.886138,0.768555,-0.238281,-0.120117
-8.77253,-1.195588,-1.038019,5.373341,0.344831,0.253814,0.818848,0.398193,-0.162109,-9.863531,0.057161,-1.165994,0.626687,0.36299,0.473536,0.592285,0.191406,-0.269043,-8.89272,-0.503256,0.888824,0.141905,0.321918,-0.474984,0.616455,-0.244629,-0.233887,-10.487092,0.283007,-2.38554,0.262766,-0.642884,-0.282486,0.66626,-0.317139,-0.098145,-10.960951,0.247522,-0.467676,0.405294,0.028941,2.227204,0.76709,-0.281982,-0.118164
-10.186242,7.797331,2.904242,2.62137,0.269069,0.680608,0.824707,0.368896,-0.175049,-10.242066,-0.325225,-0.216916,-0.212229,0.628165,0.285683,0.599365,0.1875,-0.266846,-9.060379,-1.732029,-0.020389,-0.348135,1.281632,-0.626567,0.625977,-0.22583,-0.217773,-10.074111,0.405986,-1.059271,-0.077757,-0.557215,-0.143347,0.668701,-0.307373,-0.109619,-11.536125,0.79148,-0.549045,0.079279,-0.341897,2.383758,0.749512,-0.319336,-0.124023
-9.496729,-4.128426,-0.805111,0.579616,0.687234,0.103619,0.833252,0.372803,-0.162842,-9.136231,0.182943,-0.232701,0.030632,0.718504,-0.015022,0.606445,0.194824,-0.249023,-10.625148,-2.172767,-1.204735,0.068263,1.35183,-0.484468,0.640137,-0.213135,-0.196045,-11.387546,0.410783,-0.161769,-0.047828,-0.210539,-0.036575,0.663818,-0.306885,-0.108643,-10.746554,0.851758,-1.098936,-0.192319,-0.33566,2.262048,0.738281,-0.349854,-0.133057
-11.575394,-2.413387,-1.53475,4.711229,0.484337,0.563174,0.830078,0.336426,-0.172607,-10.695686,-0.223662,-0.980996,-0.834091,1.18909,0.456945,0.605713,0.197021,-0.228516,-11.685098,-1.018322,-0.571783,0.18337,1.197847,-0.443604,0.640381,-0.208984,-0.170898,-11.011391,0.638142,0.723152,0.202056,-0.595533,-0.00348,0.659424,-0.299805,-0.116699,-11.921849,0.855955,-1.146735,-0.218357,-0.103336,1.990033,0.715088,-0.383057,-0.134277
-10.473134,7.389042,2.060572,2.918075,0.472017,-0.382813,0.83667,0.31543,-0.175293,-10.113248,-0.567452,-1.086273,-0.777933,1.017797,0.780903,0.616455,0.180664,-0.205322,-11.798597,-0.45819,-1.482538,0.116307,0.692267,-0.170936,0.641602,-0.201416,-0.157471,-9.616231,1.112901,-0.073552,0.407496,-0.046841,-0.030257,0.665039,-0.306396,-0.111816,-10.496685,0.542452,-1.358279,-0.095498,-0.446191,1.647545,0.699219,-0.401367,-0.144287
-9.762925,-0.47257,-0.765591,0.458792,0.589685,-0.351574,0.844971,0.31543,-0.172119,-10.765799,1.368607,-1.301978,-0.522584,1.373799,0.833013,0.635986,0.165283,-0.188232,-11.232234,-0.222726,0.963322,0.34867,0.370987,-0.097636,0.645264,-0.208252,-0.151611,-10.65469,1.262709,0.67869,0.24688,0.355153,0.065916,0.658691,-0.305664,-0.093506,-9.869452,0.650626,-1.396472,0.402219,0.276405,1.224537,0.692627,-0.430664,-0.136475
-9.098535,-1.300053,-2.194782,2.776755,0.802806,0.186007,0.845215,0.295898,-0.168213,-11.168461,1.774602,-0.884868,-0.760982,1.00705,0.27814,0.633301,0.166992,-0.168701,-10.060538,0.856668,0.081328,0.615947,0.605017,-0.132064,0.643311,-0.206055,-0.126221,-10.443255,0.636607,0.225132,0.261134,0.198662,-0.182635,0.662354,-0.296143,-0.090332,-10.705476,1.513128,-0.818362,0.349466,0.03904,0.74043,0.682861,-0.436768,-0.125488
-10.300579,2.637985,-0.559779,1.976809,1.250383,0.256225,0.850098,0.274902,-0.148193,-12.491437,-1.375934,-0.790782,-0.369148,0.593962,0.201482,0.631836,0.15918,-0.15625,-11.332295,2.405369,0.177774,1.04045,0.859635,-0.35968,0.646484,-0.196045,-0.11084,-10.043003,1.524115,0.842356,0.660379,0.593615,-0.424463,0.665771,-0.293457,-0.082031,-9.196695,0.628597,-1.350444,0.231678,0.332082,0.463428,0.685547,-0.438965,-0.118408
-11.200161,1.475091,-0.709811,1.724459,1.248953,-0.186857,0.861816,0.274414,-0.130371,-10.493158,-0.404639,0.776775,0.794931,0.004872,0.275446,0.636475,0.157715,-0.155518,-11.803784,3.543456,0.258781,0.140391,0.446827,-0.436959,0.651855,-0.188965,-0.110107,-10.394367,1.298926,0.68976,0.217425,0.905497,-0.575379,0.676758,-0.277832,-0.066895,-10.764625,0.424126,-1.300749,0.418957,0.777204,0.182125,0.689209,-0.443604,-0.109375
-11.722518,0.339048,-1.104655,1.105819,0.854838,-0.190843,0.865967,0.272217,-0.118408,-10.244512,0.283779,2.081149,0.684885,0.536474,0.71419,0.641113,0.141357,-0.147949,-11.315545,-0.171479,-0.037151,-0.737995,-0.202827,-0.071252,0.653809,-0.185791,-0.120117,-10.908867,0.621899,-0.782902,0.624931,1.165234,-0.460352,0.684814,-0.270996,-0.032227,-9.76866,0.892699,-1.398369,0.9603,0.399392,-0.269038,0.702637,-0.436523,-0.097412
-11.290734,-4.609031,-2.841777,2.742784,0.34273,0.371348,0.86499,0.243164,-0.111572,-11.348109,-0.24156,0.687972,1.247187,0.712826,0.13896,0.640625,0.126465,-0.132812,-10.102238,-1.266034,-0.366593,1.186432,0.349905,-0.541136,0.657959,-0.179443,-0.091797,-12.047195,1.261333,-0.538631,0.880737,1.187035,-0.612807,0.68042,-0.253906,-0.013916,-10.41857,1.990412,-1.257526,0.974653,1.289695,-1.000973,0.724121,-0.416992,-0.054199
-11.508265,7.297274,1.987072,3.913493,0.51577,-0.115995,0.86377,0.231445,-0.120361,-12.645606,-0.043366,0.197228,1.192887,0.362995,0.36014,0.640381,0.125488,-0.14624,-12.317014,3.020498,0.308107,1.86434,0.696128,-0.666357,0.655029,-0.164307,-0.086426,-10.262958,0.408163,-0.995793,0.714109,0.790641,-0.747047,0.680908,-0.237793,0.008545,-13.009055,1.066892,-0.957364,0.470567,0.877871,-1.330975,0.736816,-0.384521,-0.046875
-10.001489,-0.058166,-0.205034,-0.778229,0.404558,-0.333279,0.873047,0.239014,-0.108154,-9.43789,-1.585651,-0.017076,0.647336,0.060899,0.407034,0.648438,0.114746,-0.13623,-10.522304,2.267308,0.175112,-0.219,-0.264851,-0.30983,0.650879,-0.161133,-0.083252,-10.217783,0.290708,-1.941882,1.422287,1.535376,-0.565393,0.686768,-0.231201,0.042236,-9.967176,-0.426647,-1.764208,1.442328,0.493986,-1.869157,0.752686,-0.348145,-0.019775
-10.949062,-4.021572,-0.916069,3.121667,0.761561,-0.313387,0.866943,0.229736,-0.093262,-11.198047,0.695699,0.145365,1.480316,0.574291,0.40498,0.63916,0.102295,-0.125732,-9.360694,-2.474842,-0.690125,0.366235,0.481535,-0.43254,0.65332,-0.15625,-0.073486,-12.461591,1.130485,-1.253153,1.299936,1.320529,-0.558579,0.687256,-0.203369,0.082764,-12.238899,2.138056,-0.892666,2.070654,1.380683,-2.480562,0.780518,-0.295898,0.015137
-11.28219,3.339235,1.273625,2.115212,0.132689,-0.072058,0.864502,0.223145,-0.093018,-10.349227,0.382457,1.155315,0.165418,0.155684,0.172203,0.638916,0.098145,-0.125,-11.359865,-0.766266,-0.740944,2.3608,1.071322,-0.882268,0.656738,-0.131348,-0.035645,-10.708056,-0.335805,-1.629563,0.958633,0.569453,-0.675121,0.687012,-0.186279,0.08374,-13.092882,1.640783,-0.846338,0.773772,0.499342,-2.706698,0.79834,-0.224365,0.04541
-10.193305,-0.60098,0.511534,0.996708,0.477812,-0.36991,0.870361,0.220947,-0.092529,-10.068141,-2.213006,-0.548547,0.940823,0.687854,0.515585,0.64502,0.083984,-0.121094,-10.845669,1.250941,-0.514012,1.217432,0.264904,-0.441048,0.65918,-0.124023,-0.042969,-8.939924,-0.851932,-1.987956,1.724974,0.980827,-0.488607,0.677734,-0.175781,0.100342,-11.309679,-0.979921,-1.564713,1.449498,0.743865,-3.023268,0.811523,-0.151611,0.05835
-8.982045,-3.372023,-0.319232,1.796312,0.013837,-0.15322,0.879883,0.212891,-0.084961,-8.570869,1.703369,0.40965,0.952715,0.496364,0.152475,0.656982,0.080811,-0.105713,-8.515477,-0.978041,-1.20468,0.775972,0.460114,-0.568395,0.652588,-0.117676,-0.034912,-11.072859,0.148928,-1.451263,1.549475,1.259844,-0.618475,0.673828,-0.157959,0.133301,-12.039304,0.701637,-0.793242,2.114604,0.795304,-3.200336,0.808105,-0.084229,0.073242
-9.701703,-1.282616,0.096316,2.156021,0.447683,0.241584,0.876709,0.207275,-0.085693,-10.380821,-0.372882,-0.567885,0.122197,0.9779,0.637236,0.654297,0.072754,-0.093262,-10.209896,-1.436725,-1.008174,1.780561,1.098333,-0.857279,0.651611,-0.104492,-0.004639,-10.688316,-0.836905,-1.459746,1.017777,0.348333,-0.737923,0.67041,-0.142822,0.138672,-11.19232,0.746942,-0.521415,1.026772,0.532744,-2.843804,0.802002,-0.015381,0.093262
-8.293927,-2.908944,-0.395286,1.664527,0.37773,0.107707,0.871582,0.194092,-0.078369,-9.776248,-0.243745,-1.836705,1.207278,0.272617,0.200621,0.647217,0.064941,-0.091553,-10.067175,0.578137,-1.183915,1.713563,0.486606,-0.850483,0.652832,-0.095703,0.004395,-9.048247,-1.503217,-1.796152,1.465455,0.595683,-0.883352,0.66333,-0.108643,0.146729,-10.723123,-1.487949,-1.13648,1.045257,0.828335,-2.612571,0.789795,0.042969,0.11084
-9.246635,-1.344896,0.141103,2.315367,0.731501,0.277236,0.884766,0.183838,-0.06665,-8.638312,1.346777,-1.734802,0.104484,0.452117,0.58804,0.657227,0.056152,-0.082275,-9.314331,0.414603,-0.849995,0.934364,0.631411,-0.956936,0.648926,-0.06543,0.012939,-10.438389,-0.248213,-1.369848,1.48981,0.92497,-0.833885,0.654053,-0.086182,0.160889,-10.695808,-0.833791,-0.710477,1.628973,0.581641,-2.117136,0.769775,0.107666,0.115479
-9.15118,-1.075367,-0.453764,1.671498,0.692342,0.032203,0.893311,0.175293,-0.057373,-10.09747,-0.664953,-1.150754,0.091764,0.370476,0.696361,0.662842,0.044434,-0.080322,-10.049054,-2.151878,-0.723517,0.262309,0.553056,-0.905535,0.641113,-0.048584,0.020264,-10.597705,0.407828,-1.341748,0.846703,0.223449,-0.867536,0.656494,-0.07373,0.175537,-9.951822,0.580886,-0.594316,1.211349,0.745837,-1.712568,0.743408,0.15332,0.128906
-10.233988,0.070374,-0.70302,1.508308,0.567004,0.298406,0.890625,0.16333,-0.044922,-7.489015,1.098283,-1.118096,0.245251,0.565734,0.558135,0.662354,0.030762,-0.064941,-9.336199,-3.511241,-0.365036,0.647502,0.228497,-0.781005,0.650879,-0.041504,0.035156,-7.998746,-0.352991,-1.658259,-0.159973,0.409612,-0.756574,0.646729,-0.060547,0.182617,-10.679293,0.228675,-0.741474,0.395781,0.673977,-1.34148,0.731445,0.180908,0.145996
-8.461773,1.119452,-1.427604,1.426134,0.20827,0.446678,0.89209,0.157471,-0.037109,-9.331289,1.215924,-1.510136,-0.670945,1.38811,0.545267,0.661133,0.030273,-0.04248,-8.547675,-2.197034,0.01211,0.613861,0.774654,-0.798793,0.643799,-0.033936,0.047363,-10.96272,-1.38358,-2.127074,-0.12445,1.402749,-0.369237,0.633545,-0.039062,0.202637,-9.655495,0.389498,-0.544098,0.327693,0.423157,-1.202358,0.705322,0.202881,0.157471
-10.816436,2.475827,-0.85109,0.575536,0.696928,0.31924,0.891846,0.147217,-0.022705,-10.600217,0.030171,-3.017781,-0.635362,1.031813,0.163088,0.660889,0.02417,-0.022217,-10.937771,-1.0982,-0.671892,0.139619,1.019911,-0.852907,0.637451,-0.005127,0.062256,-12.269279,-0.876814,-1.313359,-0.098537,0.018368,-0.866259,0.630371,-0.038818,0.19165,-10.281404,-0.010652,-0.628864,-0.694669,0.822432,-0.773652,0.682617,0.233398,0.17334
-9.467892,0.297353,-1.994931,0.730672,0.165046,-0.433886,0.892822,0.156006,-0.017334,-10.123662,1.634474,-2.050399,-1.043998,0.918351,0.153257,0.659424,0.023682,-0.005127,-10.178343,-0.300857,-0.467508,-0.362531,0.384357,-0.637911,0.638428,-0.00415,0.054688,-7.402935,-0.323734,-0.883919,-0.454331,-0.025454,-0.722313,0.624756,-0.016846,0.207031,-10.55679,-1.753865,-0.818753,-0.590517,0.236921,0.090241,0.671631,0.222656,0.172119
-10.130361,2.307111,-1.366734,1.021563,0.451412,-0.47016,0.899902,0.164307,-0.016113,-8.751017,-0.519193,-1.466003,-1.494112,0.610944,0.406543,0.664795,0.021484,-0.00293,-8.985429,-0.787597,-1.482966,-0.810945,0.772556,-0.824426,0.633545,0.015869,0.083008,-10.444947,-0.524199,-1.51811,-0.94182,1.667289,-0.741292,0.608398,-0.015381,0.223389,-7.958287,-0.344741,-0.576188,-0.235322,0.500217,0.271874,0.655762,0.231689,0.19751
-9.628644,1.709903,-1.022818,0.534006,0.067059,-0.958327,0.90332,0.181885,-0.018799,-10.274053,1.3435,-0.358955,-0.316486,1.332246,0.249934,0.664551,0.020752,0.016357,-11.254004,-2.066441,-0.334581,-1.082521,0.598725,-0.715293,0.631348,0.019775,0.087158,-12.333317,-0.792966,-1.108157,-1.026339,0.063978,-0.784013,0.599365,-0.000977,0.228271,-11.428483,0.5801,-0.696998,-1.037561,1.16435,1.119852,0.645996,0.207031,0.213867
-9.388291,1.16769,-1.188838,0.828768,0.243521,-0.528866,0.895996,0.184814,0.002441,-9.322173,1.518435,-0.209402,-0.683039,0.65648,0.134084,0.658691,0.006348,0.041016,-9.324385,-0.978725,-1.446542,-0.598057,0.221371,-0.769522,0.628174,0.032715,0.090332,-8.00998,-0.084661,-0.72166,-0.916424,0.076146,-0.907275,0.584229,0.001465,0.240234,-10.331707,-0.485095,-0.868654,-1.502177,0.138046,1.14222,0.637207,0.189209,0.227783
-9.722696,2.872594,-0.404922,0.151954,0.260028,-0.405106,0.905273,0.186768,0.000977,-8.883329,0.019531,-1.403852,0.495437,1.644739,0.118507,0.659668,0.003662,0.063965,-10.508847,0.184752,-2.115057,-1.250961,0.561795,-0.790151,0.618652,0.035645,0.110596,-9.715308,-0.153518,-1.110714,-1.406387,1.281125,-0.717787,0.579102,0.017334,0.26001,-9.446445,-0.362652,-1.174592,-1.146922,1.171526,1.724005,0.620605,0.15625,0.260254
-9.230855,-0.249843,-2.191149,-0.630866,0.135819,-0.583064,0.905273,0.198975,-0.000732,-10.783272,1.432274,-1.166523,0.85938,0.880428,0.069016,0.659912,0.003662,0.074219,-10.32214,-0.694026,-1.838437,-1.37456,-0.276054,-0.633001,0.62085,0.052734,0.105713,-11.143248,-0.814584,-1.914757,-0.978566,0.134088,-1.032871,0.571533,0.024658,0.266602,-11.506066,0.160214,-0.528485,-1.360337,0.76313,1.651912,0.620117,0.138184,0.2771
-9.77569,-1.24827,-3.298398,0.77705,0.019285,-0.502167,0.908447,0.201904,0.006348,-8.386137,0.896543,-1.944184,1.028246,1.056084,0.226369,0.658691,-0.00415,0.099365,-8.308185,0.232852,-1.542457,-0.646974,0.025204,-0.837294,0.619629,0.062744,0.110596,-7.743754,-0.090205,-2.017463,-0.346164,0.010684,-0.966149,0.562256,0.030273,0.264893,-9.172243,-0.467978,-1.163967,-1.083826,0.741594,2.010563,0.612793,0.10498,0.293701
-8.956374,3.524838,-2.103927,0.810554,0.038098,-0.693918,0.907227,0.216797,0.003906,-10.766792,1.033226,-1.451919,1.911011,0.568815,-0.046232,0.65918,0.009766,0.106934,-9.782132,0.768701,-1.012296,-0.903141,0.183808,-0.886822,0.613037,0.068604,0.112549,-9.706629,0.798414,-2.333516,-0.408177,1.108607,-0.794094,0.550537,0.030518,0.282715,-10.399855,0.305753,-0.779448,-0.456853,1.086534,1.691641,0.595459,0.07373,0.309326
-10.102613,1.068081,-3.004071,-0.504534,0.0908,-0.776694,0.907715,0.226807,0.011475,-8.904144,1.813066,-1.681161,2.223758,0.529067,-0.271892,0.657471,0.014404,0.118164,-9.385405,-0.621737,-1.472001,-0.94155,-0.113112,-0.696106,0.612305,0.071777,0.114258,-12.082271,0.010264,-1.123815,-0.404615,0.28241,-0.914966,0.547607,0.048828,0.288086,-10.259638,1.219983,-0.838921,-0.390825,0.603541,1.485473,0.586426,0.045166,0.318115
-10.613192,0.615927,-2.243554,0.4173,-0.126995,-0.465121,0.903564,0.233887,0.006592,-11.585438,1.83431,-1.931083,2.860517,0.46146,-0.396256,0.656006,0.030029,0.121826,-11.05067,-1.424765,-3.136632,-0.024191,0.276385,-0.901776,0.614258,0.092773,0.120117,-8.610938,-0.581249,-2.78995,0.808855,-0.22773,-0.772742,0.543213,0.057861,0.287598,-10.407617,0.584661,-1.003409,-0.229511,0.686334,0.957535,0.582031,0.036621,0.328125
-9.978996,2.221757,-1.866907,-1.226506,-0.449341,-0.54492,0.906982,0.24585,-0.002441,-8.212626,2.523814,-1.573044,2.889263,0.157758,-0.150623,0.662842,0.037842,0.122803,-10.634075,-0.346423,-1.82602,0.748703,-0.858268,-0.572423,0.615723,0.101807,0.10791,-9.255515,1.57008,-2.952058,1.126344,0.95737,-0.515548,0.541016,0.076172,0.296875,-9.545294,0.285773,-1.284621,0.837048,0.191139,0.326692,0.568604,0.032227,0.332764
-9.318307,-2.187949,-3.261029,-0.877125,-0.43758,0.122007,0.905029,0.251465,-0.008301,-11.009913,0.722904,-2.649969,3.369449,0.746278,-0.476141,0.655518,0.0625,0.135498,-8.682887,-0.053725,-1.543519,0.265384,-0.369349,-0.561549,0.621094,0.116211,0.102295,-11.465066,0.61298,-2.54732,0.317961,0.150734,-0.439656,0.532471,0.078857,0.295166,-9.163048,2.539169,-0.417415,1.209164,0.273154,-0.449718,0.562012,0.051025,0.333008
-9.926536,1.367812,-1.536045,-0.247972,-0.34547,0.338367,0.907227,0.243896,-0.012695,-10.41622,2.221057,-3.291349,4.132948,-0.21492,-0.858294,0.660645,0.087402,0.126709,-10.872903,-1.705908,-2.964966,0.998317,-0.28602,-0.51044,0.612793,0.126221,0.087646,-8.943566,-1.712119,-4.062708,1.50438,-0.231012,-0.506538,0.536377,0.090332,0.289307,-10.013656,1.628677,-0.617478,0.382252,-0.101676,-1.052426,0.549316,0.059326,0.328613
-11.381118,0.696577,-2.026866,-1.594681,-0.336147,-0.002663,0.900879,0.253906,-0.018555,-10.257142,1.988924,-4.119452,3.376593,-0.033883,-0.235637,0.655518,0.106445,0.116455,-9.918847,0.326456,-2.671797,2.21965,-0.696587,-0.583236,0.618164,0.137207,0.076172,-10.292907,0.556544,-4.184636,2.82535,0.393225,0.018896,0.536865,0.10376,0.275391,-10.140029,-0.88109,-1.507168,1.578845,-0.440456,-1.550826,0.548584,0.079102,0.328369
-9.65282,0.323399,-2.570498,-0.849259,-0.416132,-0.18689,0.903809,0.25,-0.018311,-11.583734,0.799494,-4.127789,3.214604,-0.911889,-0.264168,0.661865,0.114014,0.098633,-10.42858,0.31374,-2.366141,1.39096,-0.447838,-0.441841,0.620605,0.143555,0.053223,-11.385651,1.294513,-3.337352,1.99504,-0.702089,-0.022821,0.5354,0.118164,0.261963,-11.117682,2.042729,-0.666247,2.835568,-0.694502,-2.436713,0.543701,0.12207,0.30542
-10.835775,0.229118,-2.505856,-1.331524,-0.272945,-0.135755,0.90625,0.255371,-0.023193,-9.001316,1.709498,-3.070461,3.144711,-0.750668,-0.281503,0.66626,0.123047,0.078857,-10.396608,-2.559426,-3.293409,1.533434,-0.915552,-0.253946,0.620117,0.1521,0.035889,-8.838762,0.163065,-3.471107,1.999001,-0.927121,0.285433,0.555908,0.119141,0.241211,-11.286464,2.355847,-0.738474,1.839854,-1.329231,-2.554016,0.536377,0.1604,0.289062
-9.922515,0.261852,-1.927609,-1.063062,-0.384204,0.166382,0.90332,0.256104,-0.029053,-10.580536,1.849612,-4.01546,2.835647,-0.856915,-0.048741,0.667725,0.130859,0.053223,-9.394005,-3.387429,-4.060248,2.387095,-0.562854,-0.172991,0.626465,0.150879,0.019775,-10.613458,0.650462,-3.627551,1.972104,-0.595391,0.667919,0.560059,0.118652,0.21875,-11.126473,1.034554,-1.303995,2.097618,-1.198671,-3.391587,0.534668,0.197998,0.267334
-10.602088,-0.329225,-2.388526,-1.538586,-0.708945,0.340648,0.902588,0.256592,-0.04248,-8.896765,1.381646,-4.528054,2.324024,-0.569188,-0.441902,0.671387,0.142334,0.032959,-10.810037,-1.043875,-2.43375,2.403297,-0.722084,0.052506,0.622314,0.150635,-0.008789,-10.767554,-0.078309,-3.383141,1.064252,-1.668316,0.622793,0.585693,0.125977,0.197021,-13.031523,1.541987,-0.732962,2.073876,-1.349582,-3.438591,0.521484,0.243408,0.241211
-9.788865,-2.134734,-3.623161,-1.26161,-0.488527,0.489042,0.901367,0.25415,-0.047607,-11.144464,1.140665,-3.908344,1.562921,-0.72907,-0.164677,0.672607,0.149902,0.02002,-9.232797,-1.382962,-2.778355,1.216287,-1.216696,0.49283,0.636963,0.154785,-0.030029,-9.174834,-1.294115,-3.76628,1.070585,-1.703812,0.734988,0.600586,0.112305,0.157959,-11.980281,0.631343,-0.810712,1.465606,-1.987388,-3.434967,0.524658,0.295898,0.212402
-11.010241,-1.230896,-2.759005,-0.550788,-0.425085,0.450146,0.903564,0.240234,-0.052002,-8.976585,-0.522346,-3.651363,0.253569,-1.060971,-0.161184,0.675781,0.141846,-0.001709,-9.30783,-2.005866,-2.564155,1.39885,-0.543705,0.300317,0.636475,0.141113,-0.05542,-10.926729,-0.209897,-2.904062,0.798805,-1.498288,0.701833,0.618164,0.103271,0.137695,-11.418545,-0.679731,-0.986197,1.431022,-1.598723,-2.964127,0.519043,0.325928,0.176025
-10.548477,-2.890686,-2.732045,-1.097455,-0.55435,0.097009,0.901123,0.254395,-0.060303,-10.26101,-0.419662,-3.269684,-0.652097,-0.824198,0.414087,0.675293,0.149414,-0.01001,-10.50374,-0.875041,-1.154715,0.667455,-0.803925,0.470136,0.644531,0.131592,-0.06543,-10.674248,-0.267779,-2.656019,-0.493641,-2.448304,0.673503,0.638672,0.097168,0.110596,-12.473614,-0.217528,-0.631249,1.312982,-2.123578,-2.280479,0.522217,0.352783,0.145264
-9.832482,-2.485492,-1.863645,0.568032,-0.613496,0.277945,0.905518,0.246582,-0.071289,-9.354365,0.556701,-2.251369,-2.09713,-1.07771,0.087356,0.680176,0.146973,-0.02417,-8.92397,-2.73834,-0.664992,-0.820579,-1.10596,0.87803,0.65332,0.124756,-0.070801,-8.629205,-1.223768,-2.650444,-1.08335,-1.975713,0.761789,0.647461,0.083984,0.073242,-10.358557,-0.012952,-1.025136,0.698805,-2.368522,-1.594138,0.538574,0.377441,0.11792
-9.972557,0.846314,-0.331701,-0.102991,-0.345174,0.264666,0.889404,0.240234,-0.081543,-9.414264,-0.213396,-3.591601,-3.33173,-0.664823,0.125078,0.669189,0.147461,-0.026367,-9.15591,-4.111201,-0.611974,-0.769084,-0.463094,0.562067,0.65332,0.118896,-0.086914,-11.200151,-1.048986,-1.444676,-1.652777,-1.517344,0.935434,0.651611,0.064453,0.053467,-11.339402,0.17745,-0.379829,-0.165855,-2.197148,-0.93829,0.546387,0.393066,0.076172
-10.172228,0.635427,-0.013961,-0.707633,-0.720921,0.098026,0.900879,0.239258,-0.086914,-10.062051,-0.263304,-2.792444,-4.372724,-0.956806,-0.199912,0.681152,0.152588,-0.024902,-10.325192,-2.153401,0.319655,-1.144716,-0.712525,0.78466,0.646973,0.101074,-0.094971,-10.090356,-1.420815,-1.194803,-2.562304,-2.492401,0.675325,0.671875,0.05249,0.019287,-10.97662,-0.88362,-1.309212,-0.996326,-2.883538,-0.111818,0.555664,0.391846,0.049316
-9.495236,-1.993937,-0.556952,-1.470425,-0.555264,0.031545,0.891846,0.250244,-0.096924,-7.479332,-0.016927,-2.562652,-5.325936,-0.555499,-0.2623,0.672607,0.163574,-0.017578,-8.649429,-2.044501,0.082948,-2.673551,-1.020725,0.824916,0.66333,0.095215,-0.101318,-8.383542,-1.980138,-1.360042,-2.820054,-1.64726,0.892225,0.677246,0.04541,0.004883,-9.402919,-1.310934,-1.390545,-1.110156,-2.727431,0.645564,0.587646,0.38623,0.019531
-9.568746,-1.86523,-0.451929,-0.019769,-0.80418,-0.010853,0.889893,0.248535,-0.110352,-10.334276,-0.82456,-4.201671,-6.271607,-0.285752,-0.198037,0.671387,0.165527,0.001465,-9.402875,-3.189873,0.24088,-2.618255,-0.528547,0.73789,0.664062,0.094971,-0.099854,-11.722025,-1.762895,-0.652247,-3.127065,-1.230309,0.711858,0.677979,0.032471,-0.013672,-10.242412,-0.819958,-0.905037,-1.752056,-2.562262,1.391119,0.611328,0.37915,-0.00293
-10.113568,-1.113681,-0.542683,-0.700621,-0.597522,-0.324711,0.882812,0.255127,-0.123779,-9.908809,0.250471,-4.95096,-6.771671,-0.882154,-0.598944,0.666992,0.171631,0.007324,-10.278449,-1.637264,1.066254,-2.705028,-0.805446,0.380958,0.659668,0.091553,-0.10791,-10.111598,-1.741672,-0.140751,-3.503608,-2.528077,0.552098,0.675537,0.021729,-0.051514,-10.954243,-1.585308,-1.538077,-2.402424,-2.696092,2.35295,0.640381,0.349854,-0.023438
-8.18612,-1.735314,-0.138392,0.079806,-0.727633,-0.064573,0.88501,0.254639,-0.137207,-8.270457,0.961173,-4.467271,-7.770173,-0.935853,-0.843845,0.669434,0.181885,0.023682,-8.589405,-1.875755,0.794953,-4.037975,-1.033936,0.614216,0.661377,0.086914,-0.11792,-7.235864,-1.344106,0.807033,-3.584105,-1.547599,0.877982,0.693359,0.028809,-0.081787,-10.86902,-1.225742,-1.712574,-2.343091,-2.672859,2.796695,0.670898,0.313965,-0.056885
-9.231136,0.871325,1.296682,-0.377984,-0.528276,0.151652,0.879395,0.265381,-0.148193,-7.02813,-0.129381,-5.203709,-8.178553,-0.312391,-1.108613,0.660156,0.205322,0.053467,-9.538116,-4.58086,-0.289179,-4.27466,-0.63565,0.400013,0.672363,0.104736,-0.127686,-10.908045,-0.586897,1.35673,-4.012599,-0.755011,0.870539,0.697266,0.013672,-0.07666,-10.910352,0.316942,-1.499379,-3.040773,-2.447983,3.273932,0.710449,0.280029,-0.089111
-8.79073,-1.173647,0.226799,-1.005278,-0.834563,0.278344,0.886475,0.267822,-0.160645,-8.663664,1.528177,-5.247932,-7.903925,0.107917,-1.180201,0.667725,0.209229,0.088379,-10.252771,-3.31715,0.078411,-3.13784,-1.249129,0.278211,0.674561,0.0979,-0.125977,-11.242975,-1.080083,0.773262,-4.469347,-1.822116,0.579486,0.69165,0.016846,-0.108643,-11.630701,-0.55321,-2.205096,-4.013254,-2.019132,3.481821,0.73877,0.22583,-0.089355
-9.733449,-0.446095,0.768826,-0.350625,-0.447523,0.404169,0.865967,0.257812,-0.164795,-8.85271,1.223556,-6.376994,-8.822463,-0.039888,-1.337325,0.640869,0.202637,0.13208,-10.003639,0.077313,0.840129,-3.885799,-1.345299,0.138722,0.665527,0.105469,-0.145752,-8.96331,-0.664604,0.990416,-4.124046,-1.562753,0.600029,0.685791,0.019775,-0.119629,-12.519848,-1.083994,-2.301099,-3.935672,-1.872293,3.733526,0.756104,0.179932,-0.11377
-8.59542,0.732446,0.976978,-1.187703,-0.475398,0.031638,0.871338,0.262695,-0.166748,-7.668385,0.858686,-7.103569,-8.778298,0.165876,-1.581025,0.640137,0.192871,0.178467,-10.05885,-1.018095,0.093304,-4.901863,-1.716982,0.301874,0.659424,0.117676,-0.153809,-10.685325,0.580886,0.570165,-4.251133,-1.00163,0.530133,0.699951,0.034912,-0.124512,-12.037877,0.050805,-1.852999,-4.067661,-1.640673,3.894015,0.769531,0.124512,-0.125977
-9.837946,-3.007811,-0.781896,-1.366053,-0.251422,0.086497,0.869873,0.259277,-0.176514,-8.296004,1.667882,-6.843706,-9.29543,0.224388,-1.691462,0.628662,0.161621,0.210938,-9.136207,-2.80754,-0.026321,-4.632521,-1.717927,0.073604,0.667969,0.139893,-0.162354,-11.280916,0.455858,1.128173,-4.572746,-1.632405,0.371561,0.692871,0.043945,-0.145508,-12.587515,0.56216,-2.670377,-4.53315,-1.170967,3.875227,0.795654,0.076172,-0.133301
-8.926985,0.114154,0.089844,-0.275803,-0.317359,0.311695,0.870361,0.267822,-0.17749,-7.066961,1.356623,-6.877165,-9.754538,0.620855,-1.971604,0.618896,0.148926,0.260986,-10.191634,-1.834281,0.284471,-3.856651,-1.2163,-0.072295,0.659912,0.151123,-0.165527,-9.361412,0.131007,0.605433,-4.013454,-1.615149,0.498195,0.690186,0.055908,-0.164062,-12.606902,0.324499,-2.299383,-4.593846,-0.997671,3.490299,0.797607,0.027832,-0.149658
-9.848316,-0.440218,-0.239495,-1.653235,-0.592133,0.236793,0.869141,0.269287,-0.185303,-7.79943,0.538815,-7.772991,-9.94585,0.987243,-1.621381,0.613525,0.096924,0.30127,-10.721948,-1.53943,0.032843,-4.270381,-2.057249,0.175967,0.653076,0.166992,-0.182129,-10.574503,1.317483,0.746306,-3.525881,-0.826109,0.590532,0.689941,0.067627,-0.166992,-11.136642,0.70956,-2.337693,-4.103995,-0.902777,3.040304,0.799072,-0.004639,-0.165771
-10.165042,-3.809945,-1.623526,-1.239493,-0.799503,0.645269,0.865967,0.263916,-0.198486,-8.240263,1.943103,-7.962027,-9.944975,1.186192,-1.554543,0.600342,0.035889,0.329834,-9.701478,-1.809516,-0.080977,-3.733037,-1.769739,0.222225,0.651611,0.185791,-0.192871,-11.363673,1.745774,0.144937,-3.839379,-1.389803,0.334952,0.678467,0.069824,-0.183594,-11.35029,1.297256,-2.283981,-4.088873,-0.188027,2.442002,0.801758,-0.02832,-0.170654
-9.180257,-3.215282,-1.041144,0.653823,-1.139078,0.340447,0.86084,0.258057,-0.211914,-7.883704,2.249198,-8.341872,-10.040459,1.088544,-1.561649,0.592529,-0.019775,0.351318,-10.51142,-0.612985,0.916355,-3.06577,-1.904325,0.140827,0.636719,0.188232,-0.216309,-8.855966,0.746068,-0.417827,-3.679041,-1.400619,0.319501,0.68335,0.097412,-0.196289,-10.981358,0.910852,-1.908911,-4.006607,-0.518818,1.89843,0.793457,-0.053955,-0.190674
-9.045909,2.620852,1.502621,0.279869,-0.844784,0.111258,0.848145,0.260498,-0.232178,-6.245089,2.874303,-7.395128,-9.601317,1.516447,-1.906721,0.578613,-0.070557,0.353516,-8.72922,1.143085,0.584513,-3.332759,-1.918447,0.279799,0.636719,0.209717,-0.230469,-10.102614,0.941035,-0.184794,-2.996973,-0.295044,0.415379,0.679688,0.112061,-0.180664,-9.185463,0.832283,-1.993412,-3.51814,-0.196718,1.332304,0.802734,-0.050293,-0.199219
-8.577296,-2.081749,-0.156792,-1.07059,-0.845385,-0.255894,0.843018,0.271973,-0.23877,-8.265409,0.677395,-7.06366,-10.052096,1.980047,-1.550451,0.571289,-0.140869,0.355469,-11.060958,-1.586268,-0.188843,-4.103773,-1.39039,0.362883,0.62915,0.232178,-0.218018,-12.344159,2.11184,0.019895,-2.96288,-0.735964,0.358487,0.681152,0.11084,-0.196289,-10.418871,1.608547,-1.826093,-3.204217,0.144588,0.652054,0.800781,-0.038818,-0.191895
-8.949156,-1.567818,-0.502258,1.705008,-0.933539,0.425208,0.836426,0.242188,-0.258545,-8.530901,0.694796,-7.36991,-9.378671,1.888405,-1.183601,0.562256,-0.212402,0.335938,-11.362924,-2.723217,-0.721885,-2.672084,-2.231698,0.402002,0.621338,0.229492,-0.250244,-10.165164,1.40611,-1.628887,-3.378692,-0.827441,0.207252,0.678223,0.140137,-0.186279,-10.40455,1.715361,-1.73364,-3.296919,-0.122218,-0.138398,0.802002,-0.030762,-0.212646
-9.695166,2.450412,0.81098,0.748136,-0.915231,0.531337,0.831543,0.241943,-0.272949,-9.084968,1.514354,-7.64833,-10.179398,2.061729,-0.346117,0.554443,-0.279297,0.298096,-9.906688,0.524008,0.066986,-2.062399,-1.747279,0.484599,0.618896,0.24707,-0.258545,-11.645315,0.495451,-2.660742,-3.082969,0.10108,0.25685,0.676514,0.150879,-0.171387,-10.394486,0.883286,-1.880284,-3.149284,0.308044,-0.639713,0.808105,0.013428,-0.203613
-10.386313,1.58589,1.173966,0.62978,-1.083985,0.726432,0.819824,0.216797,-0.286865,-10.762808,1.865054,-8.292842,-9.893492,1.83645,-0.450559,0.544922,-0.346924,0.242676,-12.01584,1.951647,0.017728,-2.717896,-1.700466,0.412543,0.603516,0.25708,-0.267822,-12.156413,0.133726,-3.24623,-3.086653,-1.017994,-0.217097,0.671875,0.157227,-0.169922,-12.759717,1.02517,-1.266434,-2.877434,0.117283,-1.213692,0.80127,0.051758,-0.199707
-9.794218,0.691217,1.748968,-0.065822,-1.486143,0.428113,0.803711,0.209961,-0.309082,-8.281543,2.18948,-9.950387,-10.297479,1.75457,-0.456584,0.538574,-0.396973,0.164551,-9.025642,2.726681,-0.114896,-2.669129,-1.882456,0.239406,0.595947,0.258789,-0.275146,-8.528991,0.048026,-2.722049,-2.684239,-0.88259,-0.516036,0.666748,0.187012,-0.173828,-10.582708,0.554341,-1.157872,-3.190072,-0.588303,-1.210503,0.796631,0.078613,-0.205566
-8.811522,-0.063781,0.809799,1.047704,-1.274641,0.820624,0.79541,0.185059,-0.347168,-10.224218,1.035532,-8.982972,-10.204527,2.060827,-0.442188,0.546875,-0.429443,0.069092,-9.969035,1.313028,-0.852467,-3.357875,-0.696895,0.001296,0.591553,0.28833,-0.265381,-11.245435,0.40521,-1.979775,-2.598684,0.198286,-0.281808,0.658691,0.209473,-0.159912,-10.257315,-0.509204,-1.658866,-2.75773,-0.020029,-1.132828,0.795166,0.119385,-0.203613
-9.143297,2.875864,2.057275,1.345338,-1.251791,1.067722,0.782959,0.151855,-0.351562,-10.916088,1.815801,-7.958349,-10.210557,1.491242,-0.307577,0.552979,-0.436768,-0.014404,-12.004107,-1.091307,-1.884127,-3.11883,-1.251487,-0.197264,0.57959,0.312256,-0.264893,-12.114555,0.224359,-2.343094,-2.879354,-1.064364,-0.732848,0.650391,0.22583,-0.147949,-12.087309,1.217383,-0.869215,-2.339253,-0.361525,-1.613022,0.784424,0.164795,-0.206055
-8.144468,4.317955,2.981757,1.025634,-0.509837,1.175784,0.777588,0.129395,-0.362061,-11.039349,1.110188,-8.232066,-10.715046,1.06609,0.031684,0.556641,-0.414795,-0.122803,-9.524637,-0.749079,-1.491332,-2.508113,-1.340222,-0.114845,0.568848,0.318604,-0.254639,-8.274786,-0.231994,-2.774358,-2.66285,-0.800655,-0.53884,0.63501,0.24585,-0.14917,-10.27133,1.123014,-1.253862,-3.02233,-0.694576,-1.528808,0.771729,0.203369,-0.198242
-10.575394,4.907949,3.296409,0.471742,-0.167907,0.797637,0.768311,0.11377,-0.354736,-10.37579,1.180776,-6.396686,-10.386284,0.669885,0.063893,0.55127,-0.378174,-0.217285,-10.597035,-0.334259,-0.973954,-2.577196,-0.718041,-0.294578,0.556152,0.339844,-0.248535,-11.104546,-0.009776,-2.594481,-2.649671,0.231976,-0.56781,0.630615,0.265869,-0.124756,-10.627462,-0.280244,-1.345064,-2.797299,-0.152398,-1.808785,0.750977,0.253418,-0.193848
-9.671688,4.374352,3.311506,-0.708605,0.018919,0.568666,0.770752,0.111572,-0.350586,-10.244052,1.579648,-4.31499,-9.97152,0.812656,0.012384,0.55957,-0.314209,-0.291504,-10.802169,0.201545,-1.375146,-2.467353,-1.246611,-0.280917,0.546631,0.359863,-0.24292,-11.387162,-0.683563,-2.756091,-2.770065,-1.0862,-0.982389,0.617188,0.303223,-0.112793,-11.880121,0.12226,-1.100003,-2.513818,-0.658633,-1.751036,0.734863,0.299561,-0.189697
-11.101611,0.750367,2.787453,0.05296,-0.125552,0.343048,0.769531,0.102783,-0.363525,-9.990353,1.595433,-4.015715,-9.094718,0.694578,-0.236783,0.566162,-0.236328,-0.357422,-9.530733,-0.182225,-1.396188,-3.062065,-0.984281,-0.322784,0.536133,0.384766,-0.220215,-7.878901,-0.375365,-3.058954,-2.359726,-0.912736,-0.680629,0.601318,0.318115,-0.101074,-9.692159,0.047106,-1.102352,-2.549493,-0.850803,-1.579365,0.714844,0.345947,-0.180908
-8.345517,6.438011,3.984924,0.598078,0.008322,0.344691,0.760742,0.088135,-0.357666,-8.855435,0.803973,-3.182984,-8.57674,0.948862,-0.216493,0.568848,-0.161621,-0.385254,-9.594885,-1.778939,-1.028156,-2.919893,-0.939133,-0.372827,0.521729,0.400879,-0.199463,-9.531086,0.689688,-2.622962,-2.862533,-0.043912,-0.773732,0.592773,0.336426,-0.071533,-10.508278,0.582644,-0.831422,-2.57901,-0.507458,-1.632759,0.687988,0.383057,-0.162354
-9.578164,2.50247,2.399178,-0.81275,0.468906,-0.025798,0.766357,0.10791,-0.353027,-10.903765,0.994643,-3.952547,-7.328334,0.945582,-0.279894,0.575928,-0.070801,-0.396729,-8.828874,-1.789562,-0.762624,-3.291117,-0.727402,-0.326293,0.52002,0.419434,-0.169678,-10.383931,1.026805,-2.628864,-3.685718,-0.838037,-0.679622,0.581787,0.358398,-0.049072,-9.902866,0.761358,-0.966116,-2.93394,-1.10156,-1.507673,0.664551,0.423584,-0.147949
-8.184108,4.449107,2.213929,0.879643,0.83865,0.110023,0.777588,0.096436,-0.3396,-11.452689,-0.388447,-0.705939,-6.894585,-0.164878,-0.703933,0.578613,0.001953,-0.409668,-9.679418,-3.198412,-0.555283,-3.856837,-0.585144,0.02336,0.517578,0.433105,-0.141846,-7.597042,-0.036535,-3.663372,-4.64571,-0.789566,-0.467771,0.575195,0.367188,0.0,-10.010663,1.798815,-1.324183,-3.137328,-0.722646,-1.760426,0.641357,0.462891,-0.12793
-11.400802,3.749252,2.57824,-1.449517,1.293992,-0.19106,0.796631,0.112061,-0.321289,-7.949547,-3.029416,1.10748,-4.891453,0.16057,-0.094842,0.583984,0.055664,-0.399902,-8.552996,-1.682238,-0.297007,-3.664707,-0.500723,-0.247581,0.508545,0.44043,-0.097412,-9.341248,-0.747998,-2.889737,-4.48454,0.103161,-0.452707,0.573975,0.380615,0.057373,-10.301567,1.890382,-0.961364,-4.591795,-1.328822,-1.87054,0.608887,0.504395,-0.075684
-9.949621,-1.139596,1.090516,0.125213,0.342646,-0.211103,0.794189,0.110352,-0.307373,-10.196518,-0.27486,3.782779,-3.519247,0.558708,-0.245541,0.581787,0.088623,-0.381348,-9.358379,-0.554998,-0.905883,-4.663703,0.002159,0.072338,0.518066,0.450684,-0.037598,-9.714092,-0.325589,-1.779903,-4.671478,-0.673799,-0.529038,0.56543,0.377686,0.096191,-8.913034,-1.168659,-2.04847,-4.94494,-1.312894,-1.528478,0.591064,0.536133,-0.019775
-10.137863,3.845946,2.895658,1.063253,0.434599,0.038389,0.788086,0.100342,-0.302734,-8.520741,1.127326,1.613615,-4.21911,0.582113,-0.052875,0.575195,0.127441,-0.362305,-10.20081,-3.426563,-1.455385,-5.697085,-0.667091,0.322903,0.514648,0.440186,0.016357,-6.975418,-0.35266,-2.885318,-4.794115,-0.393471,-0.078563,0.56665,0.354736,0.148682,-9.967683,-0.316079,-1.710669,-3.727108,-1.226166,-1.723852,0.553955,0.560791,0.018066
-8.152054,6.282604,3.198793,-0.697587,0.335731,-0.302459,0.795166,0.111816,-0.300537,-9.873779,-0.062163,2.786707,-5.095619,0.748167,-0.354574,0.58374,0.18042,-0.333984,-8.221294,-5.134479,-2.002932,-4.606687,-0.90267,0.448429,0.522949,0.419189,0.058105,-8.745295,-0.554787,-2.712542,-5.088465,0.525311,-0.126945,0.549805,0.336914,0.21167,-8.774475,1.73017,-1.138001,-4.762478,-1.771901,-1.622938,0.535156,0.564453,0.071289
-9.675029,-0.025932,1.255459,-1.005124,0.54184,-0.512326,0.804443,0.12915,-0.303467,-7.603742,-0.602823,1.770422,-5.02166,0.686162,-0.165522,0.591553,0.22168,-0.309082,-8.874473,-1.836742,-0.731897,-3.931121,-0.480347,0.464789,0.515625,0.401855,0.093506,-9.803592,-1.32914,-3.834789,-5.385732,-0.252156,-0.267694,0.561523,0.315918,0.25415,-7.983229,-1.18827,-2.123024,-5.544275,-1.386991,-1.138345,0.50293,0.565186,0.144287
-8.97991,0.991411,1.776833,0.871371,0.121313,-0.204422,0.799805,0.116699,-0.290039,-9.289571,0.854591,1.472032,-4.357618,1.102296,0.064337,0.588623,0.243652,-0.257568,-9.202895,-0.687497,-0.728902,-5.409412,-0.941585,0.715127,0.535645,0.37793,0.130615,-7.904162,-1.593725,-4.232657,-5.058772,-0.405836,-0.147325,0.545166,0.279541,0.30127,-9.467722,-2.262658,-1.706599,-4.461474,-1.662797,-1.010337,0.510498,0.559326,0.185059
-8.477305,3.527897,1.405397,0.263948,0.178518,-0.313791,0.807861,0.127686,-0.287109,-8.815311,1.413429,1.015229,-5.416917,0.75788,0.106132,0.5979,0.281738,-0.209717,-8.496344,-3.601668,-2.122014,-5.743943,-0.874008,0.95771,0.529785,0.338135,0.178711,-9.422675,-0.624548,-3.714031,-5.347511,0.169242,-0.161736,0.562012,0.239746,0.348633,-8.21514,0.136095,-1.017941,-4.339994,-2.173422,-0.411146,0.500732,0.542236,0.232178
-8.364982,2.0988,1.755612,-0.106032,0.432691,-0.275122,0.799316,0.129395,-0.284668,-9.179134,-0.358553,-0.343187,-4.393287,1.05869,0.29726,0.596436,0.294678,-0.167236,-9.373444,-2.711828,-2.051865,-4.643801,-0.425916,0.536999,0.550781,0.298584,0.212402,-10.10451,-1.308479,-4.433935,-6.21074,-0.691527,-0.469731,0.55957,0.196777,0.373535,-8.82536,-0.434524,-1.578671,-5.658094,-1.948757,0.133445,0.533691,0.500488,0.290771
-8.58227,3.197542,1.232455,-0.051714,0.614954,-0.057848,0.80249,0.13501,-0.267578,-9.061666,0.589829,0.393834,-4.41476,0.848588,0.06499,0.593018,0.310303,-0.115234,-9.820156,0.29773,-1.612548,-5.405394,-0.921085,0.66017,0.555908,0.262939,0.232422,-9.04324,-1.715905,-4.570859,-5.939948,-0.737413,-0.528158,0.561523,0.135986,0.398438,-9.448763,-2.366216,-2.004111,-5.456064,-2.463038,0.581994,0.557617,0.45874,0.324707
-9.979714,-0.893766,0.183557,-0.96015,0.565804,-0.264716,0.8125,0.141602,-0.268066,-10.058453,-1.56648,-0.654489,-4.218724,0.967729,0.625827,0.602295,0.302979,-0.075439,-9.527231,-1.323252,-3.071986,-6.934549,-0.791186,0.74397,0.566406,0.197754,0.263428,-10.32055,-0.17405,-3.686982,-6.390269,-0.808183,-0.671282,0.574219,0.087158,0.418213,-9.594703,-0.844778,-1.935887,-5.004699,-2.4279,1.106549,0.59375,0.387451,0.349609
-8.631156,-0.407139,0.441736,1.454771,0.442414,-0.205941,0.815674,0.134277,-0.258057,-10.135911,0.526328,-1.50409,-3.731666,0.548413,0.324443,0.605225,0.305176,-0.042236,-10.516774,-2.932972,-4.156409,-6.581816,-1.052716,0.471313,0.579102,0.14502,0.28418,-9.644726,-0.395321,-4.588761,-7.633754,-1.513221,-1.080265,0.582031,0.01416,0.410889,-11.085372,0.930935,-1.848119,-6.314922,-2.68131,1.489097,0.645264,0.311768,0.37793
-9.012792,4.712953,2.3451,-0.014929,0.795231,-0.352034,0.81543,0.14917,-0.248291,-9.174651,-0.509963,-1.452641,-5.192739,0.269883,0.645738,0.599121,0.300293,-0.000977,-9.036223,-0.400054,-4.160536,-6.553565,-1.244457,0.250255,0.582031,0.078125,0.28125,-9.899078,-1.780936,-5.527958,-7.704609,-1.267605,-1.232221,0.578369,-0.035889,0.390869,-10.012627,-0.946486,-3.151901,-7.382269,-2.825083,1.791551,0.683838,0.202637,0.374756
-9.79914,-1.60546,-0.260215,-0.607471,0.545038,-0.482186,0.817139,0.151123,-0.242432,-9.947958,-0.956291,-0.896622,-4.443565,0.689657,0.416169,0.594971,0.282227,0.040283,-10.869484,0.731143,-4.479278,-7.537461,-1.134878,0.01668,0.578613,0.028564,0.269287,-12.160907,-1.163088,-4.797051,-7.391625,-1.807878,-1.739865,0.602783,-0.063232,0.363281,-12.349646,-1.2671,-3.038731,-6.985497,-2.240091,1.93946,0.709961,0.111084,0.353027
-9.90172,-0.753732,0.931942,1.652923,0.831916,0.01369,0.813721,0.146729,-0.219238,-10.666033,0.480573,-1.575175,-4.959104,0.368048,0.566847,0.590576,0.271484,0.083008,-10.564809,-0.255993,-5.911164,-8.30059,-1.732499,-0.501523,0.596924,-0.011719,0.252686,-10.92836,-0.010514,-4.617356,-7.695676,-2.824201,-1.96029,0.612549,-0.093262,0.315674,-13.59005,0.821115,-3.096689,-7.3112,-2.627656,1.857261,0.749023,0.031494,0.316406
-10.007583,6.64285,3.258926,0.818572,0.568773,-0.4927,0.825439,0.146729,-0.222656,-10.750152,-0.105349,-3.277539,-5.435191,0.466645,0.391522,0.596436,0.247559,0.111084,-9.583418,-1.669401,-5.703909,-8.322907,-1.550379,-0.738894,0.598877,-0.05249,0.226074,-9.570614,0.240296,-3.754809,-8.081575,-2.462842,-1.863644,0.629883,-0.120605,0.263672,-12.919525,1.047182,-3.932614,-8.167154,-2.26729,1.74567,0.759277,-0.052246,0.263672
-9.549509,-0.481775,1.284519,-1.341007,0.997906,-0.698075,0.839111,0.16626,-0.19873,-10.430534,-0.727821,-2.872918,-5.933574,-0.02506,0.488784,0.60083,0.216309,0.150146,-9.540593,-2.147015,-5.61981,-8.101208,-1.36557,-1.394992,0.609375,-0.081299,0.197021,-12.010832,-0.162324,-4.393822,-8.038419,-1.999031,-2.001798,0.626709,-0.122314,0.2146,-13.017382,1.41511,-4.022027,-8.13637,-1.87918,0.789241,0.769775,-0.110107,0.20166
-10.836452,-2.172891,0.698093,1.199418,0.689264,-0.361357,0.828369,0.167725,-0.189697,-11.880009,-0.309888,-1.197062,-6.347588,-0.114531,0.453372,0.587646,0.186279,0.169434,-10.774557,-2.099057,-3.828394,-8.116057,-1.3489,-1.513121,0.605713,-0.092773,0.158447,-11.504907,0.429613,-2.392833,-7.231989,-2.743125,-2.077776,0.635498,-0.11499,0.159668,-12.830882,2.045157,-4.167509,-8.151557,-1.581933,0.05796,0.762451,-0.122559,0.131836
-10.558022,0.604742,1.595736,1.381265,0.599801,-0.577744,0.830322,0.162109,-0.170898,-11.139148,-1.474016,-2.657518,-6.781095,-0.582856,0.481735,0.589111,0.140869,0.193848,-10.622711,-2.451072,-4.468785,-7.805086,-1.914479,-1.861994,0.615723,-0.096191,0.116699,-9.260893,1.755429,-2.463631,-7.445028,-1.874166,-1.874511,0.632568,-0.094238,0.131592,-11.875852,1.82456,-4.353679,-8.16371,-1.239569,-1.048904,0.76123,-0.108154,0.085693
-9.617754,2.89401,0.483512,0.863198,0.618836,-0.155858,0.836914,0.157715,-0.161865,-11.857804,0.295053,-1.939239,-6.536066,-0.797041,0.310845,0.591064,0.102539,0.196045,-10.16287,-2.190038,-3.11137,-7.472969,-1.610031,-1.772039,0.615967,-0.081543,0.083984,-11.63654,1.428873,-3.66911,-7.978467,-0.739039,-2.065701,0.63208,-0.082031,0.110107,-11.150216,1.715627,-4.059387,-7.884141,-0.664717,-1.793842,0.750977,-0.056641,0.062744
-10.928723,0.223296,0.145644,0.262867,0.82427,-0.025256,0.838623,0.161377,-0.151367,-11.013795,-0.234969,-1.002312,-7.075682,-1.010243,0.495565,0.593506,0.067383,0.194336,-11.30674,-1.310829,-1.508404,-7.297838,-1.550056,-2.098888,0.625732,-0.069336,0.048096,-11.545096,0.576239,-3.121672,-7.691103,-1.210715,-2.330439,0.609375,-0.043457,0.089355,-12.490812,1.679693,-3.871863,-7.782869,-0.21438,-2.544653,0.741455,-0.003662,0.051025
-10.102094,1.086552,0.342605,0.565709,0.855243,0.143929,0.841064,0.159912,-0.135986,-12.607782,-0.300276,-2.557101,-5.589127,-0.948737,0.441536,0.593506,0.038818,0.179199,-10.575049,-0.765803,-2.204103,-7.701858,-1.571155,-1.860843,0.611328,-0.037354,0.015137,-8.82007,1.252405,-3.714722,-7.424997,-0.312894,-2.038913,0.601807,-0.029053,0.101562,-11.791633,1.600372,-3.934493,-7.791709,-0.320912,-3.043369,0.703369,0.073242,0.056152
-11.764602,-1.362554,-1.016622,0.254297,1.073933,-0.201138,0.843506,0.158447,-0.120361,-11.3043,2.422741,-1.57571,-5.110643,-1.525248,0.38755,0.593262,0.006836,0.156982,-10.803634,-1.6131,-2.303446,-8.029989,-1.153884,-1.838072,0.610352,-0.020752,-0.001709,-10.636505,1.596237,-4.549389,-8.189917,0.765182,-2.234462,0.583008,-0.005859,0.128174,-11.082868,1.191982,-3.779924,-7.968775,0.403108,-3.220688,0.667236,0.121582,0.097656
-10.5815,-2.245054,-1.482684,1.523302,0.766957,-0.47302,0.848877,0.156982,-0.109863,-11.03159,0.597967,-1.678006,-4.370257,-1.32882,0.144967,0.598389,-0.014893,0.135742,-9.994639,-1.216451,-1.493021,-7.648889,-1.098364,-1.727988,0.601807,0.008301,-0.012939,-9.836331,-0.039334,-5.694526,-8.465954,0.374339,-2.388303,0.573486,0.00708,0.146484,-12.258484,0.576846,-3.565976,-8.08202,0.477302,-3.30729,0.621094,0.164307,0.148682
-11.235974,-0.334737,-1.006801,1.870114,1.045668,-0.759163,0.846191,0.167969,-0.087646,-9.973461,1.487338,-0.392222,-2.534711,-1.235357,0.280244,0.59082,-0.020508,0.116699,-8.620203,-0.0116,-0.932895,-8.134683,-0.297841,-1.456432,0.606689,0.030029,-0.011719,-7.929304,-0.243122,-5.537175,-7.932766,1.125576,-1.833481,0.554443,0.000732,0.183594,-10.499789,0.482291,-3.492499,-7.97094,0.411996,-2.995866,0.578857,0.180908,0.198975
-9.949603,-0.811255,-1.366116,1.47377,0.827959,-0.997266,0.849854,0.172119,-0.078857,-9.715501,1.578787,-0.491968,-2.118464,-0.734032,0.401931,0.592773,-0.034668,0.10083,-9.342507,-1.206597,-2.218398,-8.74999,0.31786,-1.235691,0.594971,0.040283,0.014648,-10.338993,0.605243,-5.020782,-8.388466,2.068112,-1.820853,0.535645,-0.00708,0.220703,-10.771809,0.936737,-3.410029,-8.352459,0.819528,-2.781819,0.526611,0.167969,0.261719
-11.611549,-2.742649,-1.661831,1.664865,0.873887,-1.018831,0.861084,0.176025,-0.066162,-10.662631,-0.084286,-0.916439,-1.164787,-0.584022,0.57545,0.601074,-0.051025,0.093506,-9.987643,-1.868522,-3.643524,-8.387922,0.671831,-0.901017,0.593018,0.046631,0.032471,-10.604841,-0.369557,-5.246481,-8.870948,1.419987,-1.80055,0.512695,-0.026367,0.250732,-11.103703,-0.0104,-3.874988,-8.873308,0.793746,-2.320764,0.485107,0.131104,0.303467
-9.985606,-1.290032,-0.847303,2.241103,0.34442,-0.811685,0.859863,0.186279,-0.055908,-10.807037,0.941026,-0.572296,-0.566078,-0.663527,0.449798,0.597168,-0.056152,0.089355,-10.884475,-0.763555,-4.258036,-8.330423,0.530809,-0.641351,0.579346,0.047363,0.056641,-8.336973,-1.004179,-5.799563,-8.336785,1.73714,-1.452964,0.483398,-0.055908,0.273682,-10.722834,-0.871037,-3.8827,-8.7005,0.767037,-1.681722,0.438965,0.076172,0.333252
-10.230899,-0.204965,-0.472733,1.796619,0.257325,-0.641428,0.858154,0.187744,-0.052002,-10.220002,-0.065732,0.056439,-0.667315,-0.967119,0.446942,0.593994,-0.065918,0.073242,-10.064856,0.047286,-5.261038,-8.282441,0.109512,-0.077723,0.570068,0.033936,0.068359,-10.543366,-0.98956,-6.068057,-8.181255,2.250428,-1.58656,0.4646,-0.092773,0.292725,-9.80443,-0.860971,-3.388068,-8.895835,0.919074,-0.916272,0.394775,0.005859,0.34375
-9.677661,-1.617078,-0.623017,1.144178,0.245893,-0.281379,0.849121,0.190674,-0.050781,-9.577044,-0.493375,0.629211,0.006648,-0.863557,0.369574,0.584229,-0.063965,0.06543,-10.06406,0.647135,-4.925758,-8.227383,0.312469,-0.015592,0.568604,0.016113,0.080566,-10.663123,-2.571343,-6.66806,-8.007808,0.891528,-1.80715,0.445068,-0.117432,0.284912,-10.427155,-2.477815,-3.364672,-8.614889,1.207115,0.298571,0.365479,-0.066406,0.334473
-10.634826,-3.235417,-0.733222,1.353179,-0.024372,-0.616089,0.863037,0.195801,-0.054688,-10.183869,-0.318929,0.642768,-0.18146,-0.632428,0.04364,0.601807,-0.069336,0.056396,-9.599604,0.966863,-4.430333,-7.133952,0.140374,0.009551,0.554199,0.002686,0.083252,-8.25742,-3.407998,-5.424798,-6.254801,0.510747,-1.630734,0.441162,-0.139404,0.283203,-10.554801,-2.831571,-2.732019,-7.544389,1.024181,1.005268,0.328857,-0.125,0.302979
-9.573467,-2.537402,-0.085543,1.921345,0.204834,-0.220361,0.857178,0.196533,-0.057617,-9.574842,-0.187774,1.493562,-0.752997,-0.677788,-0.756446,0.59375,-0.052734,0.039795,-8.589131,1.94949,-5.080646,-6.911515,0.726063,-0.277358,0.555176,-0.018311,0.103027,-9.001764,-0.742069,-2.84729,-5.28862,0.479009,-1.39902,0.432129,-0.159424,0.263916,-10.300668,-1.959908,-2.237998,-6.346482,1.098754,2.110343,0.303223,-0.180664,0.273438
-7.493305,-0.479051,-0.528056,2.462999,0.069627,-0.536336,0.851807,0.186768,-0.054443,-8.531806,-1.787402,2.595214,-0.694908,-0.673197,-0.384747,0.590088,-0.055176,0.033447,-9.250573,-0.736935,-5.738827,-7.239345,0.554866,-0.17592,0.540527,-0.041504,0.102783,-8.333872,-0.195784,-1.700902,-5.717592,-0.403244,-1.337884,0.43042,-0.171631,0.239502,-9.846481,0.324908,-1.532546,-5.727125,1.083733,2.019508,0.27417,-0.218018,0.22876
-7.683762,3.83777,1.110284,0.80186,0.865445,0.032592,0.840576,0.189453,-0.040039,-8.461065,-0.107868,1.811238,0.214235,-0.695457,-0.724572,0.579102,-0.037109,0.023438,-7.926507,-2.611168,-5.459833,-5.492544,0.276847,-0.290567,0.536865,-0.048584,0.100098,-7.150006,-1.137769,-3.525617,-4.773503,-0.023865,-1.082639,0.435303,-0.185303,0.217773,-8.674181,0.208983,-2.119998,-5.953838,1.329945,2.289527,0.249023,-0.241943,0.18457
-7.7803,-2.472305,-0.161261,-0.2573,0.794214,-0.116365,0.857178,0.187012,-0.025146,-8.572327,-0.571685,2.029232,0.533626,-1.028695,0.519555,0.588135,-0.050537,0.014893,-9.032823,-1.09894,-2.898584,-4.579689,0.213719,-0.275403,0.534912,-0.05957,0.092773,-9.75836,0.926736,-3.663452,-3.864093,0.054855,-0.661815,0.438965,-0.191406,0.200195,-8.854574,-0.600881,-1.884046,-4.356316,1.390296,1.903488,0.240967,-0.254395,0.148682
-9.920676,-1.432401,0.072286,1.227309,1.416599,-0.442161,0.861572,0.19043,-0.004395,-7.908687,1.416942,1.297841,2.006777,-0.413837,-0.183497,0.587646,-0.047119,0.012207,-9.028938,-0.938758,-2.830264,-4.937511,-0.394403,0.00104,0.538086,-0.071289,0.081055,-9.738964,1.302119,-2.657277,-4.70019,-0.873011,-0.749377,0.428467,-0.191406,0.177734,-8.631143,2.710366,-0.979292,-3.847945,1.33695,1.173329,0.237549,-0.256836,0.114746
-10.33098,-2.379149,-1.477744,0.469528,0.616253,-0.783234,0.857422,0.209717,0.00293,-9.850722,1.644355,0.002213,1.896016,-0.180236,0.155715,0.580078,-0.036865,0.012939,-9.040444,-2.473582,-3.139144,-4.592358,0.154616,0.110371,0.522461,-0.074707,0.077148,-7.456178,-0.265958,-2.615881,-4.205069,-0.839729,-0.289864,0.435059,-0.20874,0.154785,-8.886206,2.615153,-1.314047,-4.752781,1.055918,0.747037,0.221924,-0.246826,0.088867
-8.537368,-0.520512,-1.917795,1.648159,0.603331,-0.976707,0.849609,0.218994,0.005127,-8.166957,0.191787,-2.061166,3.031511,-0.456794,-0.244686,0.575439,-0.040283,0.004639,-9.687186,-1.396084,-3.367719,-3.274676,-0.4287,0.036378,0.528564,-0.09375,0.071045,-8.181737,0.137571,-2.951941,-3.203123,-0.249357,-0.350785,0.438965,-0.199707,0.131592,-7.216687,0.209253,-1.934694,-4.283941,0.836069,-0.203615,0.229492,-0.249512,0.067139
-8.726924,0.629202,-1.520198,0.015259,-0.02056,-0.212875,0.84668,0.215332,0.004883,-8.436291,1.022868,-1.161529,3.034096,-0.331848,0.624057,0.571045,-0.050293,0.006836,-8.224677,1.267423,-1.608874,-3.429471,-0.71893,0.241826,0.531982,-0.091553,0.046143,-9.147124,1.548349,-3.213738,-3.259548,-0.606439,-0.20156,0.433838,-0.198242,0.111328,-7.91217,0.747908,-1.183703,-3.074571,0.887242,-0.552894,0.237061,-0.227539,0.040039
-7.907181,-3.198066,-2.568454,0.627105,0.240842,0.213961,0.852051,0.217529,0.01001,-8.227,-0.759529,-0.398494,2.605669,-0.408637,0.5518,0.572266,-0.052979,0.006104,-9.062217,-1.227699,-1.990673,-4.288319,-0.660009,0.414495,0.525635,-0.101318,0.027832,-8.773773,1.073383,-3.797156,-3.726015,-0.770298,-0.174874,0.429199,-0.199219,0.090576,-8.104114,2.698744,-0.879725,-3.129509,0.430168,-1.509336,0.23999,-0.213623,0.025146
-10.633277,-0.250399,-1.571626,1.125719,-0.11198,0.221586,0.85498,0.206055,0.011963,-8.764945,-1.148663,0.357534,2.733955,-0.007723,0.866902,0.575439,-0.06958,0.014893,-8.845781,-1.651479,-1.817675,-2.749167,-0.647694,0.259196,0.52002,-0.100342,0.015625,-8.744158,0.423271,-5.778594,-3.698826,-0.843248,-0.175329,0.437012,-0.192139,0.070801,-8.65721,2.050596,-0.998646,-3.85089,0.373094,-1.845954,0.241943,-0.192139,0.008789
-8.360737,2.077382,-0.462585,0.460495,-0.144256,0.29677,0.857666,0.198486,0.003662,-10.062513,1.246804,0.907449,3.043593,-0.146583,0.128635,0.574951,-0.067627,0.012451,-7.028535,2.3044,1.813224,-2.803189,-0.022875,0.123443,0.527344,-0.100586,0.010986,-8.45777,0.213346,-2.633223,-3.73776,-0.905231,-0.021811,0.432373,-0.188721,0.043945,-9.377424,1.21946,-0.867325,-3.426998,-0.064421,-2.685231,0.255615,-0.169678,-0.003662
-10.36395,1.136805,-0.522078,-1.046151,-0.308365,-0.318163,0.860352,0.217529,-0.002686,-8.663833,-0.907391,1.12539,2.075797,-0.376802,-0.034924,0.583252,-0.054688,0.009277,-9.29974,1.575302,-1.495266,-4.513232,0.589584,0.13607,0.520264,-0.103271,-0.000244,-8.371437,-0.156835,-2.581489,-3.876145,-0.649681,-0.213509,0.432617,-0.188965,0.025146,-9.561361,2.031733,-1.471424,-3.819499,-0.506079,-2.9954,0.255859,-0.149414,-0.023438
-7.173945,-3.649853,-3.693407,-0.468269,-0.054171,0.235766,0.857178,0.204834,0.006592,-8.51907,-1.356863,0.872963,3.870539,-0.016402,0.090868,0.576416,-0.06665,0.022705,-8.889497,-0.993069,-1.336939,-3.979267,0.139971,-0.023595,0.519531,-0.109863,-0.003662,-8.780137,-0.291156,-1.466713,-3.741135,-0.464333,-0.090488,0.431396,-0.172363,0.014648,-9.840675,0.531567,-1.665697,-3.969225,-0.707695,-3.266104,0.260986,-0.132568,-0.037842
-10.204648,-0.829554,-1.825349,0.946407,-0.019792,0.291848,0.854248,0.205322,0.001709,-8.567508,1.335856,1.237168,3.377147,0.039662,0.47289,0.573975,-0.063721,0.025635,-9.32041,0.908686,-1.409039,-2.885709,0.541526,-0.314179,0.518799,-0.094482,0.002441,-8.727386,-1.12891,-1.436775,-3.88663,-0.240426,-0.559383,0.426758,-0.168457,-0.000244,-9.719839,-0.196094,-1.148284,-3.828429,-0.754761,-3.454083,0.260498,-0.101807,-0.043945
-8.532575,2.571991,-0.380994,0.094482,0.377628,0.461819,0.847168,0.192627,0.017822,-8.980256,0.56947,-0.190339,4.601756,0.551553,0.496459,0.566406,-0.071533,0.048584,-10.160077,1.913259,0.1329,-3.860281,0.065181,-0.434286,0.516113,-0.09375,-0.005127,-9.186796,-1.245065,-1.428016,-3.435496,0.041938,-0.408198,0.432861,-0.165527,-0.012207,-9.679472,-0.671728,-1.727146,-3.427843,-0.814972,-3.006149,0.257324,-0.088867,-0.057617
-11.35579,-1.562577,-1.5602,-1.279964,0.060019,-0.448883,0.85498,0.206299,0.014893,-10.361184,1.486264,-1.804019,5.219376,0.365029,0.267751,0.57373,-0.063965,0.062256,-9.079467,0.225866,-1.216704,-3.902143,-0.182674,-0.386689,0.524658,-0.092285,-0.019043,-9.930699,-0.660352,-1.29092,-3.630284,0.23628,-0.901909,0.439453,-0.149902,-0.006592,-9.403035,-0.395089,-1.298672,-3.52429,-0.707298,-2.858294,0.265137,-0.07959,-0.073242
-10.155426,-2.627788,-2.27817,0.196449,0.054517,0.308246,0.856934,0.198975,0.014893,-10.020547,1.319131,-2.674031,5.904497,0.124678,0.23375,0.572998,-0.062256,0.073242,-9.885084,0.086778,0.09687,-3.470314,0.507467,-0.972511,0.531982,-0.07959,-0.010254,-9.112369,-1.084146,-0.93769,-3.897339,0.096541,-0.902609,0.426514,-0.139893,-0.034912,-9.645493,-0.887007,-1.311094,-3.75361,-0.634687,-1.950541,0.266602,-0.067627,-0.075439
-9.886823,1.389472,-0.75442,-0.102464,-0.382029,-0.409736,0.857422,0.20752,0.008789,-10.163186,0.879472,-2.58503,6.564031,-0.114505,0.219425,0.577637,-0.05127,0.083008,-9.553238,1.252498,-0.229758,-3.670845,0.050126,-0.892465,0.521973,-0.067627,-0.03125,-9.130412,-1.242795,-0.961728,-3.724685,0.712584,-1.034406,0.441162,-0.114746,-0.017578,-8.346729,-1.215895,-1.296658,-3.72975,-0.720907,-1.641743,0.253418,-0.059082,-0.105469
-9.470787,-0.787033,-2.087588,-0.826368,-0.180251,0.030433,0.848389,0.211182,0.003418,-8.864165,1.304186,-2.624078,6.96415,0.044825,0.070347,0.56665,-0.036621,0.087891,-9.527767,-0.247846,-0.949881,-4.452398,0.391794,-1.031603,0.530518,-0.046387,-0.015869,-10.542586,-0.335142,-0.450876,-3.851796,0.843299,-1.116567,0.437256,-0.105469,-0.016602,-8.896444,-0.568143,-1.273778,-3.782807,-0.12565,-0.741766,0.264893,-0.044922,-0.102539
-9.969921,-1.6386,-2.184505,-0.629348,-0.075496,0.173788,0.858887,0.207275,0.005371,-10.525728,0.528285,-2.515001,7.269327,0.22702,0.129687,0.578369,-0.024902,0.102539,-10.445708,-0.978459,-1.388316,-3.840426,0.290165,-1.142155,0.524902,-0.03125,-0.014648,-10.336632,-0.344852,-1.252173,-4.469273,0.638289,-1.261343,0.441895,-0.093262,-0.022217,-9.537128,-0.597886,-1.304142,-4.371108,-0.182137,-0.343481,0.25708,-0.036865,-0.111572
-10.767544,-1.662744,-1.623202,-0.002315,-0.36735,0.274081,0.863037,0.197021,-0.004639,-10.428899,1.206939,-4.362635,7.897272,0.014303,-0.144421,0.588135,-0.009277,0.107178,-9.931095,-0.242868,-0.155674,-4.523268,0.135781,-1.113952,0.526611,-0.024658,-0.018799,-9.502003,-0.679802,-1.592122,-4.539901,0.820472,-1.036124,0.448486,-0.075928,-0.013428,-9.750941,-0.87641,-1.748284,-4.363275,0.248325,0.515179,0.262939,-0.03833,-0.134521
-10.054622,1.903234,0.028844,-0.398484,-0.339763,0.375745,0.856934,0.197021,0.000732,-12.020551,1.298725,-4.725918,7.557778,-0.39718,-0.080409,0.58667,0.017334,0.115234,-9.172178,-2.026095,-0.910884,-5.240914,0.303624,-0.807383,0.532227,-0.010254,-0.013428,-10.232363,0.225826,-1.239067,-4.682704,1.022295,-0.817712,0.453613,-0.064941,-0.00293,-10.53185,0.269349,-1.473686,-4.514507,0.241154,0.635441,0.272705,-0.023682,-0.141357
-10.306827,-0.1483,-0.628931,-1.657969,-0.620298,-0.081067,0.857666,0.198242,-0.014893,-10.032169,0.578557,-3.837346,7.906912,-1.29656,0.000334,0.59375,0.030762,0.088135,-9.658729,-2.689101,-1.885914,-4.690469,0.647942,-0.852872,0.534424,-0.000244,-0.000732,-10.670243,0.392199,-1.61997,-5.467449,0.857757,-0.846287,0.461182,-0.061768,0.000244,-9.902502,0.887644,-1.649275,-5.269252,0.433206,1.138292,0.288574,-0.013672,-0.152344
-9.548614,-1.555081,-1.598503,-0.630159,-0.472054,0.402335,0.861816,0.198242,-0.019531,-9.55043,0.993186,-2.821129,8.154052,-0.84758,0.257229,0.605469,0.047852,0.07373,-10.367471,-0.169505,-1.27995,-4.644536,0.622489,-0.758019,0.537842,0.0,0.006104,-10.557032,-0.600217,-1.790353,-5.499422,0.780151,-0.659595,0.462891,-0.046387,0.009766,-11.110735,-0.312341,-2.103184,-5.690736,0.844559,1.341275,0.302246,-0.00415,-0.165527
-10.095928,2.962322,0.014966,-0.503097,-0.540076,0.52037,0.858887,0.188721,-0.029541,-11.016888,1.239958,-3.65433,8.665604,-1.15004,0.211496,0.60791,0.058838,0.048584,-10.519575,0.292444,-2.137416,-5.773752,0.440195,-0.518223,0.5354,0.006104,0.019043,-10.826924,0.137683,-1.710962,-5.08856,0.708197,-0.521038,0.476807,-0.033691,0.013672,-11.403866,-0.32567,-2.20092,-5.219979,0.681748,1.60067,0.323486,0.017822,-0.164551
-9.810828,2.237296,0.36347,-1.619659,-0.344007,0.478046,0.859131,0.187012,-0.026855,-9.289631,1.033443,-4.387935,8.786778,-0.970666,0.375548,0.615723,0.0625,0.029541,-10.45099,-1.914168,-2.547102,-5.920368,0.285724,-0.327335,0.546387,0.01001,0.021729,-10.761388,1.023899,-1.65307,-5.537225,0.486623,-0.379781,0.49585,-0.033936,0.020264,-10.983138,1.12345,-1.940929,-5.337727,0.974879,1.690243,0.357666,0.038574,-0.171143
-10.343633,2.399068,1.142689,-1.425099,-0.251619,0.653256,0.861816,0.18042,-0.032715,-10.486731,0.611686,-4.585877,9.056653,-1.045251,0.659783,0.618652,0.055176,0.003662,-10.12957,-1.532629,-2.134889,-5.193086,0.426759,-0.308939,0.556641,0.003662,0.031982,-10.552546,0.232804,-2.143951,-5.76166,0.490818,-0.224006,0.496826,-0.023926,0.036865,-11.54452,0.768263,-2.229047,-5.876839,1.144993,1.713573,0.402832,0.047119,-0.157715
-10.376488,1.706208,1.046337,-2.28901,-0.371404,0.340929,0.869629,0.181641,-0.041504,-8.644776,0.977467,-4.123406,9.070669,-0.866644,0.797322,0.631348,0.040283,-0.014648,-10.796613,-0.266681,-1.535241,-5.377926,0.377548,-0.131205,0.552734,0.005127,0.041748,-10.989993,0.108309,-1.907231,-5.250916,0.410911,0.018372,0.510254,-0.026367,0.038818,-11.329176,0.041881,-2.403579,-5.364485,1.033857,1.556777,0.435547,0.064697,-0.139648
-10.782643,-0.38618,0.137253,-1.773361,-0.380167,0.475484,0.863525,0.176025,-0.046143,-10.3238,0.663236,-4.729623,9.148535,-0.488278,1.067119,0.628174,0.019775,-0.029785,-10.70171,-0.876976,-2.228699,-5.709891,0.134169,0.112745,0.55835,-0.009277,0.040039,-10.926739,0.876396,-1.675394,-5.084136,0.198547,0.076432,0.528076,-0.033203,0.038086,-11.010755,1.356356,-1.983269,-5.080809,1.179821,1.256108,0.479004,0.063721,-0.124512
-10.214811,2.079945,0.492201,-1.628244,-0.453848,0.302736,0.85791,0.182861,-0.045654,-9.045267,0.878318,-5.174604,9.086548,-0.60606,1.088817,0.623535,-0.000977,-0.028564,-10.849269,-0.86842,-2.133251,-4.93175,0.168914,0.118061,0.571777,-0.02002,0.03418,-10.391325,0.769095,-1.941347,-5.229924,0.206692,0.103741,0.544678,-0.032227,0.057861,-11.265033,0.994589,-2.129038,-5.55503,1.162023,1.12697,0.525879,0.060303,-0.105469
-10.181797,1.008264,0.125964,-1.89992,-0.320827,0.13355,0.868408,0.186768,-0.049316,-10.170776,1.126883,-5.366625,9.070833,-0.16866,1.144233,0.636719,-0.027832,-0.025635,-10.703669,0.978884,-1.224582,-4.664859,-0.041346,0.128878,0.579102,-0.020996,0.04126,-10.644271,0.163964,-2.28825,-4.916825,0.307625,0.119415,0.560791,-0.032715,0.064697,-10.794738,-0.222571,-2.282948,-4.984918,1.062143,0.872698,0.566406,0.060791,-0.072021
-9.898056,1.805852,-0.214698,-1.743356,-0.044877,0.204756,0.873535,0.192139,-0.061279,-10.563041,0.744841,-5.138855,8.731401,-0.777435,1.053489,0.638916,-0.046631,-0.035889,-10.472433,1.019094,-0.967519,-5.09239,-0.033788,0.267055,0.590332,-0.028809,0.040039,-11.264894,0.569205,-1.965545,-4.479874,0.223728,0.108395,0.575195,-0.043701,0.069824,-10.775654,0.845931,-1.842018,-4.399979,1.108611,0.655047,0.606201,0.049805,-0.047607
-11.417464,-0.445504,-1.006043,-2.154922,-0.099082,0.093118,0.875244,0.196777,-0.052979,-10.162993,0.663583,-4.139956,8.929283,-0.62706,0.996483,0.641602,-0.069336,-0.019531,-10.955462,-0.039643,-1.136662,-4.785316,0.093413,0.152976,0.597412,-0.038574,0.037109,-10.772821,0.954184,-1.691728,-4.505933,0.033276,0.13658,0.591797,-0.057617,0.070801,-11.236112,1.32591,-1.767437,-4.689822,1.015379,0.397601,0.636719,0.032471,-0.024658
-10.519732,0.540032,-0.558261,-1.198081,-0.288159,0.29102,0.880615,0.19458,-0.057373,-10.059401,0.614257,-3.691661,8.946065,-0.792649,1.135713,0.642334,-0.091064,-0.01001,-11.006614,0.099752,-1.119963,-4.42831,0.028784,0.188467,0.606201,-0.054688,0.032959,-10.413946,0.582543,-1.741888,-4.499284,0.324752,0.174527,0.60791,-0.06543,0.078613,-10.624684,0.340696,-2.139738,-4.525448,0.863829,0.114503,0.666992,0.012939,-0.002441
-11.241312,1.096031,-0.882197,-1.932067,-0.3121,-0.250125,0.878906,0.205078,-0.060791,-9.527197,0.676486,-4.36446,9.119759,-0.387356,1.10896,0.635254,-0.109375,0.010498,-11.083586,0.259387,-1.173182,-4.320744,-0.047195,0.239189,0.617432,-0.060303,0.025635,-10.839539,0.319221,-1.814488,-4.200338,0.301442,0.144043,0.621338,-0.069092,0.092529,-10.766719,0.66698,-1.786478,-4.030352,0.997183,-0.231832,0.692627,0.001221,0.013428
-9.475704,-0.301838,-1.539669,-1.270908,-0.325004,-0.145818,0.890381,0.210449,-0.062988,-9.495364,0.432103,-4.433894,8.976933,-0.464238,1.534826,0.64502,-0.130859,0.032959,-10.702028,0.514878,-0.884097,-4.172849,-0.192054,0.247279,0.625732,-0.060303,0.026367,-9.955579,0.543076,-1.826483,-3.995352,0.228968,0.096556,0.632812,-0.088135,0.09082,-10.694003,0.905751,-1.668855,-4.185224,0.73453,-0.3998,0.711426,-0.003906,0.038574
-10.538401,0.989333,-1.361162,-1.726452,-0.170842,-0.311383,0.87915,0.229004,-0.066406,-8.576139,0.778681,-4.976051,9.022768,-0.044382,1.456443,0.624512,-0.140381,0.066895,-10.326255,0.118742,-1.039461,-4.267469,-0.175088,0.337666,0.631592,-0.07959,0.013672,-10.330983,0.660407,-1.733107,-4.067081,0.676673,0.19288,0.646484,-0.095703,0.103027,-9.92051,0.164592,-1.904414,-4.043401,0.833738,-0.546656,0.731445,-0.019531,0.048828
-10.030623,-2.863432,-2.354241,-1.271106,-0.454694,-0.099232,0.885986,0.227295,-0.070557,-9.929096,1.218152,-4.522083,8.823129,-0.033208,1.641683,0.627686,-0.15625,0.098877,-11.07434,-0.769531,-1.516189,-4.154053,-0.154374,0.355531,0.642822,-0.08252,0.008301,-10.799522,0.15881,-2.111162,-4.098494,0.447859,0.051665,0.657959,-0.112305,0.109131,-11.135363,0.565961,-1.587227,-3.733331,0.888482,-0.75747,0.74292,-0.025879,0.069336
-10.265855,0.645451,-0.550437,-0.214136,-0.425986,0.058237,0.893066,0.233643,-0.076416,-8.30589,0.94948,-4.649673,8.805261,0.16974,1.320508,0.628662,-0.143555,0.141602,-10.611415,-0.62756,-1.481981,-3.766463,-0.558103,0.464961,0.649658,-0.097168,-0.008057,-9.684336,-0.171995,-2.495575,-3.841458,0.379699,0.082129,0.662842,-0.131592,0.109863,-10.310953,0.508791,-1.607184,-3.965077,0.506216,-0.773273,0.756348,-0.036133,0.076904
-9.674915,0.585784,-0.592629,-1.420164,-0.613593,-0.257861,0.884277,0.242676,-0.086914,-9.557244,1.404934,-4.57121,9.006055,0.500324,1.184256,0.616455,-0.126709,0.182617,-10.057424,-0.130803,-1.59662,-3.778517,-0.491477,0.523234,0.651367,-0.112305,-0.021973,-9.759179,-0.051927,-2.986011,-3.75705,0.633922,0.044731,0.677246,-0.143799,0.117432,-10.10987,-0.261116,-1.59181,-3.894785,0.764951,-0.697122,0.762939,-0.046387,0.086426
-9.369235,-1.805707,-1.708505,-0.893327,-0.481698,-0.054945,0.888672,0.246826,-0.090576,-8.671509,1.206087,-4.921582,8.71894,0.427945,0.826546,0.62085,-0.098877,0.218506,-10.048427,-0.510826,-1.616536,-3.867683,-0.649383,0.579991,0.662354,-0.116699,-0.045166,-10.671545,-0.42701,-3.458925,-3.871974,0.487367,-0.072627,0.687256,-0.14502,0.114746,-10.456824,-0.201744,-1.247981,-3.606031,0.452887,-0.632089,0.779297,-0.050049,0.09375
-10.155662,-1.342785,-1.20744,-0.199376,-0.659121,0.075595,0.890137,0.254639,-0.111084,-9.888344,0.969404,-5.345805,8.959388,0.702156,0.893037,0.618164,-0.056885,0.245605,-9.892266,-0.589991,-1.816354,-3.462573,-0.462893,0.540487,0.670166,-0.111328,-0.061523,-10.12954,-1.080994,-3.874685,-3.553971,-0.00145,-0.147928,0.691895,-0.166748,0.103516,-10.239402,-0.099769,-1.142561,-3.684491,0.402704,-0.369159,0.791504,-0.05542,0.090332
-9.4174,1.770284,0.157774,-0.012323,-0.576542,0.156205,0.882568,0.243896,-0.114746,-9.461225,2.068083,-4.718893,8.87478,0.552658,0.46731,0.609375,-0.010254,0.269287,-10.109106,0.048158,-1.893169,-3.373853,-0.387002,0.413379,0.670166,-0.132324,-0.079346,-10.061817,-0.679581,-3.839771,-3.246699,0.174019,-0.129104,0.704834,-0.169434,0.103516,-10.512642,-0.609646,-1.23044,-3.575579,0.144121,-0.176546,0.793213,-0.080566,0.08374
-11.310988,1.333253,-0.000862,-1.285465,-0.673154,-0.082517,0.891113,0.243408,-0.124512,-10.866225,0.930525,-6.121423,8.307614,0.770665,0.416101,0.617188,0.03418,0.280273,-10.403197,-0.3408,-2.338544,-3.552864,-0.285975,0.445037,0.682617,-0.130371,-0.092041,-11.473055,-0.590959,-3.65246,-3.378823,-0.105501,-0.197255,0.705811,-0.1875,0.09082,-10.53249,-0.361648,-1.112926,-3.242257,0.03638,0.003619,0.804688,-0.0896,0.082764
-10.25346,-1.134855,-0.242019,-0.506505,-0.76251,-0.07174,0.893799,0.256104,-0.132568,-11.438681,0.873983,-5.48382,8.116499,0.080212,0.136671,0.626953,0.095947,0.277344,-10.898389,-1.005172,-2.537687,-3.283499,-0.241444,0.25614,0.679688,-0.140625,-0.106445,-10.090854,-1.029658,-3.658443,-3.181267,-0.861916,-0.325112,0.71582,-0.175781,0.060547,-11.312868,-0.039291,-1.014332,-3.277903,-0.174616,0.180609,0.805908,-0.116455,0.069824
-10.177686,1.093307,0.312451,-0.416198,-0.815434,-0.032861,0.882568,0.262695,-0.147217,-10.077514,1.043837,-3.399053,7.564205,0.105645,0.037238,0.621094,0.147461,0.254395,-9.836349,-0.122946,-2.141278,-2.876289,-0.374122,0.19601,0.684082,-0.126953,-0.123535,-9.187851,-0.608755,-3.183185,-2.878891,-0.484811,-0.168932,0.718994,-0.18042,0.041504,-10.178044,-0.348944,-1.146784,-3.225988,-0.618506,0.296596,0.811768,-0.121826,0.046143
-9.563271,-0.897214,-0.387666,-0.530128,-0.681753,-0.064709,0.885254,0.264893,-0.156494,-10.671218,0.38613,-3.898437,7.542135,-0.07789,-0.02822,0.626709,0.195801,0.227539,-9.850113,-0.05433,-2.114902,-3.311478,-0.02905,0.086399,0.6875,-0.121094,-0.138672,-10.729619,-0.187736,-2.580937,-2.996333,-0.610007,-0.262232,0.727783,-0.187988,0.015869,-10.113556,-0.01071,-1.117121,-2.958762,-0.375108,0.352541,0.813232,-0.136475,0.027344
-9.761038,1.290688,0.431945,-0.47591,-0.689274,0.239395,0.879395,0.265625,-0.163574,-9.982634,0.934087,-2.525013,7.393218,-0.273684,-0.125167,0.628906,0.243408,0.188965,-10.270302,-1.12073,-2.215833,-3.147832,-0.296926,0.040473,0.696289,-0.120605,-0.156982,-10.201086,-0.333404,-2.355011,-3.012682,-1.026748,-0.289506,0.729004,-0.170654,-0.001465,-10.672229,0.353227,-1.090054,-3.028265,-0.721971,0.289823,0.817383,-0.155273,-0.00293
-10.487408,-2.219635,-0.641962,-1.059139,-0.616443,0.28833,0.876953,0.273193,-0.18042,-10.87376,-0.114983,-3.403177,7.294656,-0.221625,0.234453,0.635498,0.272949,0.138184,-10.112207,-0.971248,-2.327273,-2.908746,-0.154875,-0.05648,0.694824,-0.102539,-0.15918,-9.923337,-0.24575,-2.201604,-2.8634,-0.842656,-0.168821,0.734863,-0.184326,-0.02124,-10.250329,0.292168,-1.437583,-2.992846,-0.662569,0.250895,0.81958,-0.151855,-0.016846
-10.093681,-0.402648,0.267515,0.691414,-0.891793,0.442133,0.877197,0.252197,-0.199219,-10.613837,1.178511,-4.281924,7.682054,-0.874352,0.229497,0.643311,0.287354,0.066895,-10.867867,-0.793006,-1.975941,-2.822258,-0.491065,-0.064391,0.697266,-0.106689,-0.168457,-10.183504,-0.074203,-1.826767,-2.863453,-0.935843,-0.314128,0.734863,-0.162842,-0.043457,-10.861603,0.498093,-1.158423,-3.016287,-0.737396,0.018998,0.822998,-0.165527,-0.035645
-9.487199,3.429055,1.470053,-0.476173,-0.612736,0.205605,0.874023,0.253662,-0.205566,-8.711436,1.081993,-3.97784,6.918937,-0.68266,0.635831,0.650879,0.288086,0.01416,-9.453677,0.002507,-1.715889,-2.798685,-0.649707,-0.100309,0.695557,-0.083008,-0.184814,-9.946884,0.008067,-2.310961,-2.812776,-0.877039,-0.230995,0.743896,-0.155273,-0.07251,-9.863093,0.051033,-1.45464,-3.010256,-0.907108,0.027491,0.823486,-0.154541,-0.062256
-10.028654,-1.199335,-0.66607,-1.180011,-0.449972,0.124293,0.875244,0.261719,-0.199463,-10.472748,0.237668,-3.238704,7.201301,-0.516786,0.635068,0.662598,0.276611,-0.036865,-10.417295,-1.365571,-0.357055,-3.490382,-0.36894,-0.070003,0.704102,-0.065674,-0.200684,-11.057863,0.471988,-1.708435,-2.990935,-0.703755,-0.085203,0.746094,-0.152832,-0.09082,-10.596216,0.585371,-1.411733,-2.564863,-0.545884,-0.25188,0.831543,-0.146484,-0.084961
-10.430133,-1.021536,-0.748667,0.605614,-0.39304,0.376444,0.876221,0.250977,-0.220703,-10.173136,1.854132,-4.236915,7.320359,-0.651218,0.564936,0.671143,0.255371,-0.10498,-10.694062,-2.415854,-1.143064,-2.802259,-0.55893,-0.070132,0.703125,-0.057861,-0.211426,-10.513445,0.076216,-1.594938,-3.336476,-1.130621,-0.213803,0.734863,-0.131104,-0.119873,-11.683357,1.840498,-1.105283,-3.104564,-0.894427,-0.572116,0.834961,-0.13501,-0.11084
-10.144722,3.27861,0.342716,-0.436909,-0.212153,0.349143,0.880371,0.247559,-0.219238,-10.422583,0.500839,-3.898768,6.338665,-0.558498,0.353176,0.677734,0.232422,-0.147461,-9.941248,-0.45365,-0.108467,-2.79886,-0.33563,-0.166389,0.696533,-0.032715,-0.222412,-8.913345,-0.209944,-1.326336,-3.146677,-0.762229,0.033432,0.743652,-0.126221,-0.134277,-9.90856,0.202678,-1.782522,-3.502281,-1.047427,-0.603253,0.82666,-0.104492,-0.141846
-10.369169,-1.660668,-1.798512,-0.949823,-0.388402,0.181868,0.876221,0.250244,-0.224854,-9.372296,0.163806,-3.353094,6.602013,-0.646316,0.435534,0.675537,0.197754,-0.190186,-10.531562,-1.181073,-0.531131,-3.726195,-0.464273,0.10596,0.703125,-0.022705,-0.228516,-10.733635,0.383902,-0.866943,-3.291228,-0.102897,0.078349,0.73999,-0.120117,-0.151123,-10.176624,0.220396,-1.649971,-2.879634,-0.621375,-1.006475,0.837646,-0.081543,-0.153076
-10.711763,1.476742,-0.106133,0.60282,-0.186247,0.22834,0.875488,0.249756,-0.222168,-10.753155,1.395769,-3.214216,6.086739,-0.223815,0.410976,0.678711,0.166016,-0.212158,-10.699335,-2.523483,-0.899586,-3.375011,-0.555564,0.033969,0.697754,-0.008789,-0.244141,-11.147192,-0.055584,-1.034575,-3.773547,-0.637956,-0.106177,0.748047,-0.095215,-0.164062,-10.982236,1.310794,-1.288765,-3.343688,-0.815803,-1.000915,0.831543,-0.054932,-0.179199
-10.225095,0.513259,-0.566935,-0.870896,-0.368439,-0.060799,0.875244,0.255615,-0.231201,-10.818997,-0.022465,-3.471778,5.461266,-0.836057,0.366443,0.675049,0.129395,-0.249023,-10.945534,-0.883317,-0.564699,-2.845244,-0.607665,0.000509,0.706787,0.016357,-0.252441,-8.815971,-0.72313,-1.474245,-3.60427,-0.538239,-0.080718,0.733887,-0.077148,-0.172119,-10.075096,-0.225645,-1.729248,-3.866748,-0.792735,-0.935071,0.843018,-0.011719,-0.196289
