# sampling frequency: 40
# units are seconds/meters/radians/a.u.
seg1_acc_x,seg1_acc_y,seg1_acc_z,seg1_gyr_x,seg1_gyr_y,seg1_gyr_z,seg1_mag_x,seg1_mag_y,seg1_mag_z,seg2_acc_x,seg2_acc_y,seg2_acc_z,seg2_gyr_x,seg2_gyr_y,seg2_gyr_z,seg2_mag_x,seg2_mag_y,seg2_mag_z,seg3_acc_x,seg3_acc_y,seg3_acc_z,seg3_gyr_x,seg3_gyr_y,seg3_gyr_z,seg3_mag_x,seg3_mag_y,seg3_mag_z,seg4_acc_x,seg4_acc_y,seg4_acc_z,seg4_gyr_x,seg4_gyr_y,seg4_gyr_z,seg4_mag_x,seg4_mag_y,seg4_mag_z,seg5_acc_x,seg5_acc_y,seg5_acc_z,seg5_gyr_x,seg5_gyr_y,seg5_gyr_z,seg5_mag_x,seg5_mag_y,seg5_mag_z
0.4782474608763869,-0.1780764163535118,9.748579932924127,-0.011474446582394377,0.0014031042831479884,0.009335318473324293,-0.34975057773449864,0.027764258465688384,-0.4720349794106734,0.08571593092205154,2.3516798858987724,9.544401158489478,-0.009035056293446564,-0.004267017889305667,-0.009220856473592734,-0.8166884728123405,-0.03175328756581596,0.6184743001355912,-0.07663257992690116,1.9416831925994666,9.536284842258619,-0.002522957907086079,0.002524189625040378,0.0030319170727297847,0.9468947482229029,-0.14951332581613386,0.8464210819351582,0.24532511585330913,1.9616621227978026,9.727638253006223,-0.0019421019093760522,0.0020445726779808934,0.004957586483164154,0.4711679016559281,-0.15793458673677918,-0.6608252492886696,-0.725266814076371,1.8416620342988244,9.708252537209816,-0.004610217262619927,0.003577110540743125,-0.007250094342196221,0.3044323721360092,-0.37375887691687043,-0.7097115259163275
0.47188225930427086,-0.16408260469454639,9.759030252833094,0.001918080527114798,-0.0005009073346685412,0.010229089350161055,-0.3533903590474322,0.027264056612563824,-0.46932098768258157,0.07272227826337266,2.345942315318926,9.496113746388323,-0.01005304830518496,-0.002991750922132174,-0.00915565350991064,-0.8027597123184292,-0.037343142668685075,0.6180686204193341,-0.07823536369982036,1.912704561566116,9.532247275960685,-0.0119916580485612,0.003905645448853644,0.0025369479447214,0.9615035867468895,-0.1523546786677349,0.8446219074153344,0.2501688155971252,1.9445799477722772,9.695205455174568,-0.01272279218788792,0.0025105094234382916,0.007380641799914534,0.4848254929467841,-0.16090071040086074,-0.6621172224080915,-0.7079348280822386,1.8285147879750074,9.574596634307623,-0.013433475351892401,-0.002429419952218329,-0.0064658889308325425,0.3168656272846365,-0.37521084097325813,-0.7156144146826936
0.48043100318875365,-0.1521949122171719,9.72995848811953,0.005944824499242066,0.0031045795013223748,0.01404154520674916,-0.3468031568729946,0.013364897043398851,-0.4725756372465094,0.07144206835827377,2.3440394928281316,9.520514327593848,-0.008568307738027577,-0.005257824346385727,-0.01154550469442589,-0.8166995178289926,-0.04299377007138324,0.6079988912629198,-0.092782142028302,1.8939034687799543,9.554264020595355,-0.003278725640881776,0.0016313656946350852,0.002375199811003734,0.9472663544710339,-0.15617952106306,0.839649949775304,0.2602252083594223,1.8869741797383321,9.72322153648209,-0.0009510126586762403,0.005309050069736732,0.0051903856581246395,0.46962142526920725,-0.16463310484052485,-0.6700121287914772,-0.6770564908480635,1.7690363659624215,9.542530932716277,-0.004290071948854761,0.00784228506360752,-0.006535345947596644,0.30561094889500534,-0.37792123484578444,-0.7233837956362664
0.46758598032612986,-0.15566761971385196,9.747455073537868,0.003446846525426975,0.000739616712949209,0.009179426733085144,-0.3463019441992231,0.01922019444915637,-0.4698816448289662,0.060426367691612706,2.368105553316952,9.535983436500663,-0.011479197102246652,-0.002494187106448227,-0.008857212798945246,-0.8083926069807117,-0.03648021098351676,0.6139165845776824,-0.07138576003265325,1.93935984386049,9.525161938607393,-0.0006479114820960695,0.002421630966937102,0.0035117114305334577,0.9563861069682614,-0.1513294550648649,0.8446531368797869,0.2501247022546798,1.9547825840475992,9.722316267760073,0.0015772549440552152,0.006315670534502204,0.005391771280486037,0.4782140669868391,-0.1606778009510122,-0.6647544124189428,-0.7213515160153161,1.8526442922692308,9.646112579204,-0.0030432917612036488,0.008955090253974141,-0.0055688508508818365,0.3136889457060178,-0.37399484253292525,-0.7158482841787213
0.47311403972294047,-0.136742719348533,9.740479331393257,-0.009189790375061131,0.003889567674703962,0.013300348084404853,-0.35729411438078507,0.02774592767299237,-0.468800979434147,0.06267428397472816,2.32401218684082,9.529167803941203,-0.007274123799175511,-0.004552026003077771,-0.01341378482090615,-0.8017741398547765,-0.04026396459748319,0.618379121915533,-0.09167345794864705,1.902991454370608,9.533050785492813,-0.006466083497732111,0.0023850680329457574,0.0028445064033284814,0.9605203474813463,-0.15597200152360693,0.8480853901860551,0.2395977131372476,1.9165159803802503,9.732671619269682,-0.005762815012082779,0.0028062016663942648,0.005109503140623304,0.48138930524027074,-0.1616530752670096,-0.6642797008828494,-0.7191819023929067,1.7762379061214189,9.699732975188745,-0.008061999626026361,0.00036729690978984,-0.006849708315688315,0.31637853219219075,-0.3793627459752332,-0.7168286816325402
0.45685425050708633,-0.17264183444499864,9.74279072317024,-0.01418965656395407,0.0004685173877014635,0.009512998215833776,-0.34951716681156586,0.02459461590583293,-0.47399633261288066,0.06456426849360168,2.356578182244974,9.501416426590609,-0.010498397735460678,-0.004052576894258903,-0.010755026243770536,-0.8108524588077383,-0.027176945240072962,0.6151679080753993,-0.07432683083840254,1.926541201015976,9.547108514926729,-0.00686012548331812,0.004018683509162453,0.0020498710218731044,0.9544977128334102,-0.14230400399931495,0.8421346096008354,0.26757685594822944,1.9534526908134981,9.696261860427674,-0.006092453186945384,0.0019418135056004102,0.005463303622749415,0.47773647699763044,-0.15189151322586503,-0.665098263859446,-0.7129995726422425,1.87652861164329,9.632274705489772,-0.0060911178893215045,0.001003406054542588,-0.0077423428074514244,0.3124534629960895,-0.36667362899081585,-0.7168269607056202
0.4869381032754361,-0.15720058958366642,9.752376387766114,-0.006911335907199691,0.00032198405435707693,0.011886959125301643,-0.3582667878460247,0.021885899558767408,-0.4695371701910244,0.0734438432060757,2.349885062618723,9.554612727736405,-0.009899193177705793,-0.002955936643621904,-0.011557790878422932,-0.8176533227124066,-0.03565476799149444,0.6188155671254834,-0.08035948390174377,1.8759977116931401,9.54576286783713,-0.0100474926808534,0.004771385944655856,0.0025191879634790834,0.9451468184307497,-0.1538892858615497,0.8467243262634265,0.2507396523246208,1.8943900740366308,9.694488437859299,-0.010108875814459274,0.004207665803211117,0.005600021004989899,0.46749918571256066,-0.15866928211818712,-0.6615199708324699,-0.6680842910927492,1.7677277991366156,9.576843496922601,-0.013831433832843682,0.002304455773740912,-0.0038960246039442914,0.30246270443799134,-0.37596422579800326,-0.7153184251906031
0.45143289751488136,-0.18326821781448283,9.731977861929169,0.0011056124937443726,0.002095874294710392,0.011190846525372805,-0.3516958745208991,0.024098705616520992,-0.471781956244183,0.05913556991504136,2.3378538406758396,9.542258749511147,-0.008562184785969491,-0.005115614805480207,-0.010621666528980481,-0.805729649146758,-0.03190702377327206,0.6108671099811921,-0.07469375694947661,1.9071459054370048,9.56210105055728,0.0015399744233703624,0.0020312483536483236,0.0029408194268207106,0.9605289941938023,-0.14872395397307744,0.8406862223990924,0.2611837092004401,1.9433235540688922,9.711171723923707,0.005158217882683013,0.0060426174911539995,0.004915938885947314,0.48282488969835485,-0.1546363414422152,-0.6695001457581157,-0.7002678972409301,1.8341752932897288,9.64435435792341,0.0010003981644598776,0.007833739031413205,-0.008103177234903516,0.3170834968872951,-0.37228637046891805,-0.7217210545202378
0.48120535355295746,-0.16465559956896803,9.741638439370893,0.00394394940134102,0.0013286170016982579,0.009558685735102926,-0.3532500076312911,0.025338699202503978,-0.4827544618915685,0.07840985584590515,2.3599017805459104,9.539840679962714,-0.010067008459242341,-0.0029925461812044616,-0.009145579699226384,-0.8093798186262564,-0.03679687330329222,0.6109979814628111,-0.08441562977423789,1.9374625942079042,9.545378494181307,-0.007807879331275749,0.0027866107602102863,0.0021652719966131747,0.9550860140364923,-0.15600163742537115,0.8403173707007895,0.260349852700977,1.9431444952686068,9.711230360809227,-0.0063300192914316315,0.0031027140749087046,0.006434576609184694,0.47573543844903954,-0.15975449819749385,-0.6696293990442528,-0.7407046745178034,1.839948255695119,9.676425918698131,-0.009366688020421675,0.0030487013136405294,-0.00647165062625414,0.30927689498201355,-0.37766956103814786,-0.7221770775326072
0.47151927651963,-0.14129270646652115,9.757371334132761,0.0007003973849992367,0.0017148775115649031,0.0123493313836586,-0.352159352338049,0.021406497005605228,-0.4690986480046546,0.05694172552698753,2.3537294673703006,9.53094672737277,-0.008482027279916537,-0.0034513798896596837,-0.011850247384759711,-0.8120676175664789,-0.036077758287594255,0.6107456236788312,-0.07774589483921282,1.8940021383554513,9.543742404332464,-0.00500449606394875,0.001352431525507526,0.0032422224036507507,0.9521559963558898,-0.15283796320520807,0.8366454629105484,0.2452935876144009,1.9273263107360747,9.718871291101902,-0.0043763257578162944,0.0030651904480842136,0.005369634566564741,0.47425096713391884,-0.15880685939493241,-0.6723142276448273,-0.6995059882437168,1.8080605686668105,9.629947756188473,-0.00534416947712921,0.002286766128992951,-0.007498238344505402,0.3082994717145531,-0.37498532271742135,-0.7214431849016517
0.474089136510231,-0.15112957111698044,9.73524921012811,-0.009003069451508586,-0.00035008461037399025,0.011796209527508917,-0.34874534117032047,0.02141285623994435,-0.46961377450054026,0.08385474845206967,2.3565845073401253,9.549241834199588,-0.010008429346179973,-0.004759104347659825,-0.01123903754022598,-0.8081262997159658,-0.034101667651810434,0.621429754219048,-0.08280966820277814,1.9148307138603002,9.536713144715604,-0.007760012848591461,0.005597894111066115,0.0030790792635115396,0.9571633199922917,-0.1500728386884301,0.8487842408723963,0.26076172307642353,1.9388339836602781,9.698127631342878,-0.007843286088051203,0.001146383347502886,0.007834606854306765,0.4784972318537291,-0.1574526195060043,-0.6603992018264528,-0.7033285686780935,1.8176261190944067,9.62399508696872,-0.012757294962158309,0.000880101861936242,-0.006987493610809714,0.3122334175965794,-0.3727739796212977,-0.7126702607877365
0.48033934673369083,-0.1679169305688574,9.741625699741999,-0.01074818221987837,0.0018916615044137402,0.010595582698512135,-0.354621434522894,0.0150626111704174,-0.47299809473786847,0.057630639315775625,2.3494184394232915,9.532006898034373,-0.007952872149882783,-0.0038768508430570155,-0.01050460689927552,-0.8142369145568398,-0.031187965056991236,0.6213825053520267,-0.09438233237151718,1.8904929430709065,9.551544881162847,-0.003785596604503824,0.0015759497955006318,0.004197062018844924,0.9530996716063449,-0.14461809910509763,0.8531567394571209,0.2631108993799813,1.9173980991223647,9.72857294140489,-0.0007052813518882636,0.004818441061013723,0.005512278381596452,0.47340297491494254,-0.15228034248639333,-0.6572460081003985,-0.6893637102386833,1.807954397113335,9.587830475762622,-0.004965833933010517,0.00759515515137269,-0.00769471023342258,0.3073585779526602,-0.3700920138431541,-0.7092374766391276
0.4448648482396945,-0.15896697740999027,9.741590684694714,-0.004169083349081392,0.0026350215071908956,0.012490888466600514,-0.35144990225789835,0.025318094436909598,-0.47129341909048283,0.05747556598214164,2.3539683116551933,9.520452926642053,-0.010107195189687012,-0.0032736052119147806,-0.010975227711263765,-0.8088666820386409,-0.042845158183872585,0.6133388545575759,-0.08287661961098118,1.9399868075268858,9.541546674269348,-0.0023330159813081046,0.0028604370374633393,0.0022578461829072713,0.9577720423256485,-0.15916302238168314,0.8439902460305355,0.23805561458791685,1.957159100632908,9.694690875132787,-0.0012338178722694079,0.004787941263732963,0.004554675170976717,0.47844716175221325,-0.16410457800175735,-0.6654479179162833,-0.7304053233715297,1.8359580706077103,9.662182017900456,-0.004642533830743234,0.004287961500135544,-0.004230644963094858,0.31392625409205566,-0.3793694736303608,-0.7199939689588748
0.4714390458794776,-0.16979846801121048,9.73608940201179,0.0013005351603835225,-0.0007753937762579289,0.010486446909623234,-0.3463180957372009,0.02337265887200777,-0.47109412961022096,0.06720452372554789,2.360485784830449,9.525586021774313,-0.00918597907871226,-0.00306241624885921,-0.010778651774882783,-0.8049541321669049,-0.038324418658007654,0.6181003057691774,-0.09606956453001082,1.9187529597119923,9.539709310577155,-0.006276148551439613,0.002722294801849791,0.002068425336357117,0.958542759202943,-0.15501932439825644,0.8439413838038261,0.2566351992666574,1.9395192000799621,9.726007613654668,-0.00551391531729149,0.0029878921050395767,0.006724576986129346,0.4806668765997547,-0.1616375096980583,-0.6630531122915013,-0.697504163500196,1.8088137956079153,9.658298097348176,-0.008715925416631602,0.0018802187208240091,-0.005908834969228548,0.31368553443533087,-0.37692695857446634,-0.7180424566610413
0.4686142897272704,-0.16063601542950764,9.758218182465503,0.003761995285811114,0.0008241515658767523,0.011606176229318503,-0.3567584484147597,0.020168800789309466,-0.46442546607439006,0.07038690974763134,2.366229200148,9.546246535337547,-0.009594139572158739,-0.0038401433883353178,-0.010546413732969244,-0.8047016508791638,-0.04472267976933707,0.6160542481085554,-0.08334517569881153,1.9071886588474452,9.554268533543603,-0.008586930831004758,0.0037377384123962057,0.002914922548548731,0.9590172990443996,-0.15793608188261377,0.845676625203838,0.24195757919929928,1.9315805691008048,9.698012152873764,-0.0063730899808136406,0.0020930057526183186,0.0061207820591783375,0.4794342792264331,-0.16554989994460212,-0.6637294312059416,-0.7151169056869182,1.8130544946262914,9.618908420153515,-0.009216755680225782,0.0020497721055270117,-0.006631221082608327,0.31466452757270785,-0.3818096644489704,-0.7192622360591504
0.462145686114644,-0.14555444063369322,9.768707532825797,-0.004399544906500931,0.0013791116118431273,0.010800113553929014,-0.34290042019585865,0.017277525870165306,-0.47235469360461463,0.06842160699857888,2.342718733347875,9.550814137437637,-0.008706135132919898,-0.003909139959918642,-0.012185534408515084,-0.8123126642230952,-0.041297581122517954,0.6069646313873699,-0.07250590906583998,1.8984952139649114,9.55220521584298,-0.0053284215449370875,0.003952357471999321,0.001952045146245701,0.950907342988911,-0.15358597783869646,0.8339781069393253,0.26648455521016473,1.9116460680011524,9.737005194325674,-0.002942786373762258,0.004335845631135204,0.005940506040849125,0.47423310815156466,-0.16053875579481514,-0.6742468698561078,-0.6868063017896967,1.7980050916664634,9.59498002631842,-0.0051202049083489114,0.004099098951456854,-0.0064637778027006034,0.3085308661745106,-0.37816366485910446,-0.726323973652899
0.4676378509411977,-0.16358907506018247,9.74133837879026,-0.008661704572796653,0.001194364877468365,0.009879567725010217,-0.35480391301868985,0.021635873208041712,-0.46395000008853493,0.07551419173677064,2.369651323959176,9.543564642717618,-0.00958102628396509,-0.0037000115025163016,-0.009626552821608424,-0.8074338286733237,-0.03585135467601883,0.6095026438325203,-0.07910721803312327,1.9227525569820758,9.528466840252682,-0.0019400089203417592,0.001224810633607955,0.0030505104983912577,0.9599846466717491,-0.15096129196237004,0.836318272937743,0.2600457089768471,1.9440058446983952,9.712317696431228,0.0003515871331300846,0.004209077321709487,0.0061292571807428885,0.4791432910199199,-0.15758328334929012,-0.6713908135150924,-0.706898162974767,1.8272262902058152,9.64641967689114,-0.00405636841673743,0.0048032088243623,-0.005934240074117594,0.31318266808351825,-0.3757102278271528,-0.7217038663241023
0.4752848599828572,-0.1660644760319409,9.746862790048105,-0.005908214214517498,0.0015130149622181346,0.01263743247338942,-0.35458188364866094,0.014564702448873854,-0.46811625536798357,0.06162006426553006,2.3507166676185935,9.543325297617493,-0.010523330731533881,-0.004052208378169043,-0.010736937299558528,-0.8113192193468713,-0.03671397176674572,0.6146662651459682,-0.08473139847032073,1.9171938591538114,9.557194311945539,-0.007297888025507056,0.004929577231467046,0.003375199503164577,0.9519689324889059,-0.15348732826808045,0.8444673336027031,0.23788198591397836,1.9321847918615342,9.725899692227891,-0.006279032100201455,0.004119267629450432,0.006736227362671299,0.4726056357843431,-0.15578612903433206,-0.6647682075786833,-0.7104442313936984,1.8161945260223997,9.660575042332194,-0.009414867390663556,0.001993499912415934,-0.005562454414682213,0.31000515379083465,-0.3727857610527964,-0.7214513786897966
0.4670334764417186,-0.166664976867802,9.741314936643125,-0.0025938836966120015,-3.666899110603016e-05,0.010595888483442138,-0.34900408984990655,0.02092843831048909,-0.4715657676845536,0.07104923539199719,2.335545094655647,9.528650945069671,-0.010025391001975983,-0.004757883792778372,-0.01122800067117543,-0.8069864267554074,-0.03090029943774711,0.6020560249654486,-0.08597681660840316,1.9020401144898647,9.555270986096588,-0.0055925695326803845,0.0026428071474042655,0.0032187628685201434,0.9585115868034658,-0.14613267031013183,0.8296891174437158,0.24882898707628381,1.926778327773345,9.74145236163271,-0.00547008705369755,0.00333316434969526,0.005734065925928217,0.4800902739073118,-0.15348880738467643,-0.6760849443170821,-0.7183309251056601,1.815784078563519,9.592255042887103,-0.007648090055316414,0.0025803326734430213,-0.005381307629204313,0.3150979298967021,-0.3691228486095926,-0.7295300946130685
0.47503843454243433,-0.1670803155182297,9.763735253224546,-0.0034932412155536667,0.0023531169831069207,0.010019864134496582,-0.3583194074982169,0.025804777868921488,-0.475387995257834,0.07173460364681644,2.3616168203731798,9.536964444842033,-0.008355903352446145,-0.004513346693391454,-0.009347503238289449,-0.8101071427804317,-0.03155610816325262,0.6157583656197568,-0.07923830581258248,1.9160519117656076,9.545838241885168,-0.005400572897233772,0.0029840454984175796,0.00244562401955775,0.9566412223530762,-0.1486645723817959,0.8429145286933604,0.2553572372497882,1.9301466797657452,9.70000346688837,-0.004614106003727068,0.0035597038293378063,0.005040632939797104,0.4762612367196606,-0.15239151665235823,-0.6663019551386993,-0.6959306213906925,1.814455397104667,9.597069635087706,-0.007204856629797921,0.004089517790008438,-0.006927352393899235,0.3112366079363638,-0.37058192747828345,-0.7173078605875907
0.45961273900274446,-0.15402345050765512,9.734938331892357,-0.0018027610782039006,0.002643205298757109,0.011264064952029328,-0.3578024198027943,0.023357112649465592,-0.4722239637004301,0.06258597038863925,2.350660560406021,9.532914994627571,-0.00981824480476863,-0.004298903167637961,-0.010881676778369502,-0.8101428316232621,-0.027071709369355615,0.6093020240268892,-0.09490159395947394,1.9143411124032335,9.553284271832,-0.003787640792887783,0.00157294838937672,0.004195109365488531,0.9546804533441662,-0.1452786627117073,0.8380123228021622,0.24098952086977432,1.936146185977417,9.712322345905537,-0.0018440754353858005,0.004070780989756685,0.00556900098061064,0.47504423137690455,-0.15043669591414272,-0.6663154783463773,-0.7069850144152093,1.8177247024280305,9.626166019924353,-0.004435422333745021,0.004337244317328546,-0.005302436935326727,0.3097411777612554,-0.3664409656513643,-0.7243865836178677
0.45597675671792315,-0.14799732419817394,9.72330305662588,-0.002112941025357144,-0.0008170756269294706,0.010180469863579015,-0.3548791315365902,0.022631698194284,-0.4732246932247708,0.07402691618264023,2.3571575533756635,9.514153192616803,-0.00826263255819954,-0.0027089798917519156,-0.009656223182707861,-0.811091853499483,-0.03036820097403939,0.6145131546699171,-0.07497102377569918,1.9183097837517038,9.517769809258601,-0.005742888619308297,0.003022278773828314,0.001868974938164253,0.9539526002863034,-0.14767740376471292,0.8414612016470601,0.25211045760530815,1.9395907443568667,9.692076759505168,-0.0032285977985777197,0.003815729785738906,0.005303807260567075,0.4755311758236724,-0.1523874538394739,-0.666051268917099,-0.7125336533253182,1.818472988078467,9.64765919146395,-0.006843955918504743,0.004909905741658633,-0.006048422769085464,0.30951448900426154,-0.36936755836376983,-0.7204769252820092
0.47571624831274684,-0.15599547754585807,9.762879336979204,-0.006893525435234157,0.0003260589944344858,0.011863825125393922,-0.343405425364518,0.02508972247297956,-0.4728228421052047,0.07443872531902582,2.348324879539132,9.526740252167494,-0.009724970302398835,-0.0024945123780118596,-0.011189397017418156,-0.7983769011766979,-0.03691444699991438,0.6151112135282395,-0.08437151595356449,1.9046065680728885,9.55142519010437,-0.007397515773243146,0.003711655729446445,0.002241426806899177,0.9678073791515607,-0.15488033448350974,0.8421552021189819,0.2397596294903439,1.93440038626334,9.71270057672545,-0.005510957791419206,0.0029908163621895413,0.006718518788308571,0.4872411778140445,-0.16313600782588303,-0.6650400609331862,-0.7079458125222327,1.8139628830477896,9.640367167164909,-0.008359895257824934,0.0009325679299235812,-0.007143195736802557,0.32149486735927096,-0.376915940518652,-0.718803266023176
0.47794890634792053,-0.16637485711671207,9.740751790576086,-0.006133708810515943,0.0036228871755963556,0.00959340365775873,-0.3497437453716638,0.023369272939208804,-0.47204395386626186,0.08616561173535275,2.3479767611823794,9.520078155231225,-0.009612097509523184,-0.003838901376174033,-0.010534373388646679,-0.8005749278848688,-0.03865780158055679,0.6139398385258082,-0.08795701493229606,1.922208603474774,9.520778981810613,-0.005935902678604416,0.002680039671161679,0.002641132285807834,0.9637197951317894,-0.15114446570012186,0.8455684717119994,0.2802918847446061,1.9355516143585245,9.69502728136561,-0.0032756416219781852,0.0028030752407304633,0.004994078909986102,0.4860292059768036,-0.1597105377408255,-0.6645829089211474,-0.6933144619353997,1.8046311636065064,9.604201855701099,-0.007439985683818465,0.0026296150610609983,-0.006455103148301927,0.31953844251890756,-0.37521011016725064,-0.7190419512892626
0.46639282314500546,-0.1591032110271671,9.7404643446582,-0.000770090844360877,-8.003344919783606e-05,0.011183331379264456,-0.35463897608935985,0.023853572647370824,-0.47346812942187255,0.06334642152855977,2.3700924866343422,9.542893982107312,-0.00940295504105577,-0.003379939677606724,-0.01018905674101502,-0.8107984766566593,-0.03899004185969193,0.6215569627146172,-0.06549395414833534,1.8935708332355337,9.554291766265813,-0.00520859494315705,0.0033232840437963547,0.0016725058691578196,0.9529919376980727,-0.15488615278463871,0.8517979870738401,0.2512426141692175,1.9271625435776518,9.714654278371555,-0.0026081766101495917,0.0052021784797356314,0.005582643355547984,0.4741113623818237,-0.16157225178298296,-0.6583631485663725,-0.7021600047421133,1.8280488542463411,9.640621980282871,-0.0066378438638233245,0.004961188019967931,-0.0071192131075020985,0.3066313865303413,-0.37790798529473224,-0.7111803572076192
0.47769618361881666,-0.16575722649669483,9.774532187386061,-0.0017068844955943096,0.0028532171103162816,0.012800781165229652,-0.3488030238402425,0.024844223826011577,-0.47619857344954986,0.07506952388263165,2.341440036218098,9.528429564340234,-0.01055939078118053,-0.00419103894140074,-0.011641739900976234,-0.81107489463774,-0.03894585715263525,0.6132534813476606,-0.08756151055232868,1.9168613433794084,9.537877159337997,-0.00520859494315705,0.0033232840437963547,0.0016725058691578196,0.9546444743496579,-0.15376665519660043,0.8434712847994974,0.25432430030711206,1.9354149251486492,9.714184873477913,-0.002698078495054339,0.003845202871233379,0.006259406865956541,0.47550364100308856,-0.159248875020398,-0.6681683993362328,-0.7072421924623666,1.8072462460567105,9.682365431918843,-0.007160830312071552,0.005487158842210384,-0.006330854135270346,0.3107378447326883,-0.3749823663880153,-0.7221848710108292
0.4526121112631044,-0.16619084211008386,9.74104445814753,-0.007032084262697902,0.0026489126363180592,0.010364589850422014,-0.3531477174591759,0.02189593565183059,-0.47055485169882694,0.04479920735323327,2.3475714092826125,9.53493164681847,-0.01073631261869352,-0.00437179306613669,-0.010150308504698832,-0.8106047668363446,-0.0338542537703885,0.611664132472099,-0.1018043700407072,1.9119634122866296,9.56198577449119,-0.00727768917146311,0.0030825823012434785,0.0019618875298112954,0.9524469846558944,-0.15012693004553118,0.8393014661139336,0.24002254222627695,1.9411458983404672,9.726553406498121,-0.005995664534659614,0.0033065887388225895,0.004770392719694736,0.47453042809959695,-0.15802351698387979,-0.6679312067418761,-0.7190791852981561,1.8300940850138374,9.62883014156197,-0.008436646798549791,0.0029667283732430242,-0.007900891250733321,0.3090194699629543,-0.37278958470272994,-0.7238898835126658
0.46980941759364286,-0.15646245336312625,9.734373356862008,-0.006429768494951658,-0.0018277480053054192,0.010649728791402585,-0.35244280670775224,0.024345021969593837,-0.47348457967948865,0.06640658553758916,2.3562107809127557,9.532814659139124,-0.007252642441591939,-0.003979196595401143,-0.009718516762838207,-0.8047365684085348,-0.031048780667377866,0.6159713438530435,-0.06804950061067898,1.9194362722515956,9.542991927205666,-0.00478814766889135,0.0019342571867599241,0.004091552888129141,0.961567439669181,-0.14551934300888317,0.8445511597288341,0.2629715930701741,1.9174453189031075,9.703144930667825,-0.002985866396624949,0.003325125593975967,0.005625723388666733,0.47920611464400104,-0.15383521280747509,-0.664109749759992,-0.6959503547276376,1.8076978506116665,9.653838614187126,-0.005145223992165761,0.0026894835410293167,-0.007063332170652477,0.31807315830422617,-0.37154890079746833,-0.7175752604149391
0.4993882520916131,-0.1509518418410706,9.778639044526322,0.0014003397698904485,-0.000575353323651346,0.012012111308251623,-0.3519288969371549,0.022630849548235087,-0.4705630431560925,0.09224245174341617,2.344307298550352,9.519147370342782,-0.011606442469790158,-0.0030576319256160095,-0.012483293403701808,-0.809142112482378,-0.038580893905148315,0.6078649720020346,-0.062073459361563416,1.905980892377757,9.529150200274406,-0.008225458158991429,0.0018514786356042868,0.002074278413468705,0.9572714944144114,-0.1538646935582767,0.836370244096965,0.263678495729219,1.914847358268535,9.689692675646013,-0.006369168559238788,0.0020978693345775567,0.006109692964383988,0.4774260959258268,-0.1605150834627898,-0.6718308761280303,-0.6985415287672953,1.8163543493868834,9.599025107639463,-0.00867377734204015,0.001507822640757089,-0.00742863584413257,0.31292453822274313,-0.3744936612880513,-0.7248781435380386
0.45704639013130727,-0.1621649096831873,9.75180576331991,-0.00463537451012308,0.005403886813617867,0.010737153461532912,-0.3412398784145358,0.019732598201294665,-0.47797809185135154,0.056815217239876516,2.3494452855770724,9.517325952284109,-0.009086932301616083,-0.004265334185468848,-0.009186694434458841,-0.8090958476166766,-0.03480665929795025,0.6226706263506957,-0.08087863892653113,1.9097470734346746,9.543756218615346,-0.004938466755519261,0.0023137288131839726,0.0027417649577732507,0.953286114332434,-0.14782920387268783,0.8497699147965505,0.25933378241154115,1.9274344961472831,9.709075242767234,-0.0030277323097847144,0.002980791139218076,0.006611207548144645,0.47657569695762514,-0.15180036082680806,-0.6575215030120344,-0.7055208506480961,1.8270607296872583,9.565546384949553,-0.006310964627743664,0.004375948011337576,-0.006838809652961471,0.3110238899640282,-0.3705738099220709,-0.7085180515925369
0.46007277107841094,-0.16006537816028402,9.695086075108959,-0.001958504710735103,0.00022189448598170582,0.010314356118300325,-0.3560755945269038,0.024331837658116355,-0.4697936222379898,0.05714739842414064,2.3473697980233394,9.51783665775218,-0.008472624512924156,-0.003027605254528812,-0.009071629086649555,-0.8079089915316929,-0.03129488906847799,0.6162330883516679,-0.08447502059806,1.914773273128173,9.551014555099263,-0.0028693818678981473,0.00255343065291958,0.0024523936464010067,0.9549827934521803,-0.14472428904697998,0.8445967272018738,0.23335906334057877,1.9375844556453048,9.706102442509376,-0.0020337992768435275,0.005575971023070559,0.0055517432984053035,0.47359769553998615,-0.15211156658370795,-0.6635981553415174,-0.7051658488772249,1.816036333196691,9.683354564057632,-0.006156167348696885,0.005144055616818918,-0.004887088743404615,0.3105043182498811,-0.36691961789523414,-0.71584377953349
0.4901150473831485,-0.15279600182891145,9.773123785840264,-0.004956578387103736,-0.0014211714416632298,0.010999862200314013,-0.3553228052415434,0.025303536439376953,-0.4671125404096334,0.07674839665036622,2.3561493668778835,9.539591780373389,-0.009551895744758487,-0.002171382115545194,-0.011748954906269543,-0.800821281906319,-0.034949636308227394,0.6158053502543174,-0.07502289688802606,1.9095659914573404,9.532222302866737,-0.005280773136908839,0.002352961991411976,0.002165105527098522,0.9630015621253071,-0.1479839390443476,0.8435886935409561,0.2567800427464465,1.9273828333287093,9.723101224753393,-0.004411268831019206,0.0027267146875836184,0.006343994428827489,0.4848117576933722,-0.15361463604278247,-0.6653773119454152,-0.7264926777189429,1.8018551258524498,9.685333168822536,-0.006941027499505313,0.0006930274351342714,-0.007846019068627239,0.3170982059844364,-0.3693521906459433,-0.7163529026586649
0.47541927552735663,-0.173628741225856,9.774507299404169,-0.00797708932740453,0.00420978305400999,0.01118029259459604,-0.3593205816831822,0.021416187204078393,-0.47929607985617767,0.06222438544982821,2.344015580003918,9.5272390628285,-0.009631055436579255,-0.0038376618947194804,-0.010522329274421859,-0.8052177941153574,-0.03398504020696501,0.6157985123302336,-0.07029739494187498,1.9126984479688438,9.54432860405911,-0.009248225578193058,0.00405577078110178,0.0033810916914536263,0.9598163747109805,-0.15086367797173786,0.8455974418690672,0.24308817864747473,1.9408427305578644,9.699895339808494,-0.007180326170177222,0.002218588566842865,0.005811583593216415,0.48113712983621615,-0.15825505510643204,-0.6660259513098782,-0.7059273889369008,1.8310545767957016,9.552474887793752,-0.009432896395861642,0.00057388826780497,-0.006169024059040155,0.31831207677516477,-0.3710617139367157,-0.7187975893096947
0.44824006974115166,-0.15502259753070524,9.711658869912045,-0.003882577739771207,0.001968177817990411,0.011162214304133548,-0.35200233972018063,0.018745176251060397,-0.4805796826217638,0.07421088364162515,2.343783558144278,9.520551210710316,-0.009092913699149881,-0.004265229429776419,-0.009181673288196524,-0.8157294317192941,-0.030873649473894184,0.6142984128036475,-0.09044597635991523,1.8891979007459732,9.554429312601892,-0.00418372932805722,0.0032015832001711614,0.0034005418571068442,0.9500437562316351,-0.1486099671439987,0.8422357451899942,0.25508509759826714,1.903520933571491,9.718797275645757,-0.0018819634216868176,0.003727404684811321,0.006551442436218108,0.47040605880198916,-0.15627344258089068,-0.6649892858590253,-0.7072254241918372,1.7869473742200626,9.57937326594985,-0.006557785004797174,0.00775946100763233,-0.005923191006703293,0.30488728444008234,-0.3713253950947077,-0.7182605520606792
0.4699254576519611,-0.14798844705907438,9.767283739811221,-0.0013370621685851662,-0.0028843464038945475,0.011390151034103057,-0.34631105246175997,0.02507917515442232,-0.469869680930151,0.07750908637519638,2.3495881053475554,9.541203826053007,-0.008517819497941411,-0.0033026307085375533,-0.010899402708566824,-0.8074239341808732,-0.03330466197838725,0.6138367940840517,-0.08316548254718066,1.9173516798095274,9.54718705133325,-0.002528084750272864,0.0025132069962063527,0.0030290714896907323,0.9554251719344655,-0.1479226431603258,0.8426728090008957,0.25156540947614836,1.9382225699576927,9.742857226137037,-0.0005506642739612624,0.0023004829299653356,0.0052117148949574,0.4762540953296117,-0.15459411261049533,-0.6667639865724202,-0.7158109453760461,1.8226348771192467,9.713094282947239,-0.002626607438470381,0.006323718986522953,-0.004520786717338165,0.3139182800658326,-0.3688693696396364,-0.7178070611878701
0.48883261917193266,-0.15771298349167004,9.77310999413358,-0.004426319898596511,0.003910026558499033,0.010825463752981707,-0.3480456329738191,0.02410743099046691,-0.4732759875409839,0.06259167349011302,2.3441745364714013,9.516810815356518,-0.010891235807659754,-0.003164154445412978,-0.011706161250705682,-0.8010663877608644,-0.037688173898482884,0.6136743232749422,-0.07833642727040116,1.9209343178346159,9.55920687528849,-0.008156340396873367,0.002818788159860603,0.0015777343376377562,0.9607395902082719,-0.15504002965576072,0.8439236686595433,0.24946259165506282,1.9256579583444318,9.716250090116427,-0.005751952083589707,0.0028189473723484997,0.005089265952965861,0.4830821785495687,-0.16094976409840855,-0.6664984499355339,-0.7268561904301293,1.823707177369845,9.617164905862492,-0.009866549227957702,0.0017856658012771582,-0.00780666151299238,0.31831671748654744,-0.3747239436324414,-0.7190380724058638
0.4521081494681925,-0.15067362827718533,9.722461330171503,-0.0035795807420897874,0.0040530740938083945,0.011447048182870517,-0.35357091966182597,0.016998317126560282,-0.463236183604385,0.06521814177309916,2.3562305127214724,9.52555145274839,-0.010855021101521454,-0.0028880081308017527,-0.009872379445804689,-0.8127862803030047,-0.03698019116195857,0.6139448787137411,-0.06713386830023577,1.9120179270168185,9.557188887353872,-0.007543905827846001,0.0017699997510202167,0.0032236528569279162,0.9555939218513707,-0.15429238927866465,0.8407837068719859,0.25781589473151817,1.9406738730256696,9.701628333484658,-0.0057029161435663235,0.003831586920439506,0.005397978800492599,0.47377880583358933,-0.16219218967557544,-0.6695853642188875,-0.7107010364878823,1.813894979386037,9.594781728656633,-0.007664120579844077,0.001161724029185877,-0.0059878853544154155,0.3097702746330836,-0.37595794363812063,-0.7202264723968007
0.4762019817292985,-0.1525625967853633,9.755967213012413,-0.003721816242593828,-0.0022715254542743,0.00966328204943583,-0.34555921869698647,0.01604586905189688,-0.46916196357963386,0.07287645338482344,2.3415632956493226,9.534600557931567,-0.007095687914670816,-0.003792182986712386,-0.011197020461394345,-0.8164648014531048,-0.037344643898340094,0.6093279013095068,-0.054069720707844396,1.914007728232056,9.533673817381446,-0.004647906499610792,0.00386688840047822,0.003101469050163604,0.9477594872455198,-0.15352345797324057,0.8371774267866088,0.2664370752092008,1.9157393000859482,9.725975221036972,-0.002884816557997835,0.0053513644456238615,0.0062401141813923835,0.470112615004922,-0.160000967948948,-0.670558617090731,-0.7005495490458301,1.8079879524369387,9.64240062500395,-0.006650992189700183,0.005307617051640371,-0.005610490453220958,0.30341092713145834,-0.37475006648398385,-0.7228910234160323
0.47481829579898205,-0.16644993316040743,9.773665615303372,-0.005068983555865554,0.002275104819081631,0.010295233303454379,-0.3553731417209698,0.016530915497259466,-0.47518621646486126,0.07070779678103892,2.3532601674296116,9.534857090756658,-0.008909863668791861,-0.003944265182222315,-0.009749218562318295,-0.8127664589971609,-0.040326911872644006,0.6169559734649078,-0.08158436228986995,1.9194775659457908,9.543461989069666,-0.003405719732433352,0.002249423976827627,0.0026469100620510467,0.9512326654385947,-0.15710445343228777,0.848172819856501,0.24165729769690658,1.9473835161331758,9.727795232904404,-0.0005987095791869266,0.0012868300613521231,0.004902006143712011,0.4733358459786852,-0.1613932699099608,-0.6639747548246189,-0.7163138593472974,1.8235619383015191,9.651439758757185,-0.00369232558597934,0.0038565739007503765,-0.007164630312526484,0.30930480165840785,-0.3788834884614712,-0.7148509552685226
0.47049014062347216,-0.162195449551249,9.74516467628382,-0.005543972535210713,0.0030545330600193488,0.010704602436058901,-0.35663306235966274,0.02288440895018212,-0.4788254347776126,0.061019816443214664,2.348990549686761,9.518759691733713,-0.009645020831423578,-0.0038364577357043995,-0.010512303420447828,-0.809631832007946,-0.027417786784520816,0.6151691595132964,-0.09417999605714397,1.9116593299891376,9.543836120766803,-0.007131465441088593,0.002698087219052679,0.003305759976305549,0.9540001569034624,-0.14616990221663892,0.8455966826892992,0.24153923798700122,1.9239960284288706,9.709400951951185,-0.004937830640391901,0.0027001642535857528,0.005382328824074631,0.47675909075946543,-0.15408391499927615,-0.6648207542102635,-0.7092322240576538,1.8287982292977865,9.630218356347664,-0.008684936359899871,0.0018542517785535314,-0.005922920290382121,0.30854805581147976,-0.36936643058739116,-0.717787468531658
0.46215431574018256,-0.1624950894097057,9.739621104468617,-0.0010350827528710247,-0.0008034455969779035,0.011671984786976283,-0.3477972164071054,0.01751732362671061,-0.47402436120670655,0.0683090662307886,2.3409512620959734,9.515796635614274,-0.00943488208138773,-0.0033775174944169215,-0.010167990248088182,-0.8059518123576308,-0.02902917808533946,0.6188572542041822,-0.05921606046355979,1.9026970102482479,9.539211485465533,-0.004940519103988431,0.0023107171338919625,0.0027388123904830484,0.9576991721467324,-0.1449509360183296,0.8487272452006436,0.25272420738559676,1.9188206000737529,9.724901032302382,-0.004414482877278935,0.0020603323164889854,0.005043743220252417,0.48021627650200804,-0.15329890583907416,-0.6599735561165232,-0.7121746005674985,1.8063910304061723,9.623200409688849,-0.006539098393472983,0.002912052899748889,-0.006369581470516187,0.31320296424819793,-0.36666805183649526,-0.7121916020605489
0.4789664706354801,-0.1614760001944064,9.801350686323248,-0.0033047728527874527,0.0013967886268802033,0.012281501981569567,-0.35168441084794533,0.030440235353189904,-0.4690840861244133,0.06645441652137668,2.3454551759301507,9.528202128092595,-0.0101710366133176,-0.00327071228764942,-0.010931047357960348,-0.8098728694058991,-0.03732796147957318,0.609303050113845,-0.07079692597713319,1.9219192230700757,9.544155938841678,-0.007158904473788213,0.0024524773018828956,0.0016783670096031731,0.9541202060979526,-0.1550130181474747,0.8405591163299645,0.25808691895178276,1.9464159066165367,9.715701948518237,-0.005079493536756193,0.005219030726734289,0.005676779693052692,0.47620968939647096,-0.16001940610404258,-0.671339156582592,-0.7142893869150663,1.8367471895427017,9.624546643391389,-0.009147736151742114,0.003423439136983432,-0.006046788715796222,0.3102532913539889,-0.376691859649429,-0.7219364946585481
0.4630129456471991,-0.15045304786584382,9.738804695785001,-0.003662524586031206,0.003840100977845012,0.009901222911169646,-0.3524234548421625,0.023119567053033478,-0.471290146779449,0.07314029096628982,2.344147931217084,9.513214278341312,-0.00926794575323227,-0.0031936456216978487,-0.011653457648189832,-0.8086474790983786,-0.032332035944669234,0.6138179942601143,-0.07653863904532866,1.9158379502075131,9.532627273419628,-0.003284875706803809,0.001621351300277982,0.0023683522862819775,0.9561484135697652,-0.1493893955169827,0.8431700182739492,0.255960872354125,1.916186281020263,9.746664945921165,-0.001596383291710447,0.0035801098416733414,0.005885878601152202,0.4779452421582755,-0.15754679100711955,-0.6684515809223779,-0.7009427142583197,1.8079225798027254,9.657213188102022,-0.004125970749821815,0.005070354326860044,-0.008799269706726034,0.3117217636112451,-0.37033813599845306,-0.7182858292402031
0.4659259235664477,-0.1584532836849008,9.750429707934735,-0.006267427603137596,-0.0007837430177599082,0.010772562096434696,-0.3553685104108508,0.027267430760407958,-0.4724793718895031,0.08147620184832269,2.350728015796002,9.542254080780397,-0.010248194793091364,-0.004939010411484175,-0.009705381014576705,-0.8037367057714652,-0.04082704988167306,0.6154690492385401,-0.0834785119482598,1.9267554263281552,9.546984982019763,-0.004891649260538519,0.005118042814987158,0.0036576525608416227,0.961720785244714,-0.15480275428773976,0.8441572445576833,0.2675122605997738,1.9505549219110507,9.709343826137346,-0.0024137046548470095,0.003031534231304778,0.004294576119199336,0.4809116074705217,-0.16114993599951158,-0.6630607731908684,-0.7229251958769026,1.847180230682307,9.65373250608472,-0.006741205010633638,0.0028547756696118854,-0.005299799607607814,0.314419867169808,-0.3779026227795891,-0.7178001267332208
0.47732706713715684,-0.16639408932642816,9.784467161203798,-0.005814895514240381,0.002343089123113211,0.011204327624610754,-0.3519299946042691,0.024583347904659936,-0.4703150633922302,0.055075568433124625,2.3434425663422576,9.525065676621393,-0.007942580034085461,-0.0021976937027141773,-0.011687273111859645,-0.8132800447293256,-0.030564988336907795,0.6167236405611761,-0.07113659380207568,1.9149206725962322,9.521251636559493,-0.009229031265514468,0.0022117438909896735,0.0019637570778551763,0.9505801406911217,-0.14638166613712056,0.8456267683887304,0.25414412152684496,1.9238874309081309,9.725123235199028,-0.007977167439389976,0.0036808704896221373,0.008097809647217279,0.46943883775393025,-0.15552841270458864,-0.6640134052681693,-0.7111399959815996,1.7964802949414012,9.61666224963436,-0.011110622349912617,0.0027713343033003144,-0.00516216729455499,0.3063696521871812,-0.3713184827359504,-0.7133828013411715
0.466278535555315,-0.1825297590543134,9.745994892992554,-0.0024661779886271753,0.0035302059305537628,0.010760118643225727,-0.35045121296824494,0.03190318311345315,-0.4671378485129581,0.07171752407473672,2.3443501158270874,9.526678671151826,-0.010371046766807878,-0.0035924793863960007,-0.010353416963447557,-0.8047426303530651,-0.035059071392949795,0.6116712982080276,-0.09380380391854899,1.9109998664587846,9.540658552305388,-0.003991768874750656,0.0035398115695645695,0.0026264341420543366,0.9599509906319923,-0.15582876722783162,0.8378336823910286,0.24501195587818456,1.936930765661622,9.723223734455729,-0.002456570536285176,0.0026872013822002434,0.005280068080219863,0.4823132543288099,-0.1627092538358127,-0.6708661372419581,-0.7049529726502062,1.8235560326848734,9.637900238803379,-0.004184151403558891,0.004023140798988106,-0.007887045590309054,0.31537801139482025,-0.3769288713178017,-0.7226875099527712
0.4644509800236735,-0.1616106243834715,9.750448018007862,9.34914629788702e-05,4.6087524599535505e-05,0.011781746869052414,-0.35434228386640454,0.022376079133340974,-0.467126271914735,0.0577704437878392,2.3536755959202234,9.534281929302336,-0.008350738994868191,-0.002977444248264216,-0.011455986818605636,-0.8064498488297889,-0.03678945833257209,0.6109869356492055,-0.07018351146601705,1.9229304447533309,9.540663244273746,-0.006061887506391698,0.003299088431839445,0.002912824124240149,0.9563023618621235,-0.1565010971096262,0.8403125758195028,0.25132643850356784,1.9327902475037344,9.717318563454146,-0.003218670260945367,0.0038195955901306044,0.005293683054279007,0.4777085806915621,-0.15899690536016126,-0.6672115157171263,-0.7183328966919781,1.805298720451147,9.597111204166156,-0.0074616914317352295,0.006048433087986658,-0.006616327089686335,0.313189815428816,-0.3781512818311877,-0.720725528823625
0.4692206687499184,-0.1550622550499931,9.761254779526794,-0.0027652307277906767,0.0014453301446219404,0.010468253235145268,-0.35508125337605545,0.021887911805511202,-0.46809742469563287,0.07455695716425961,2.354712826857571,9.535864267965795,-0.008946927861187361,-0.004080075161043128,-0.010653089623529328,-0.8098811273368511,-0.0366361702195875,0.607576977502631,-0.08502221802562941,1.9044495045301788,9.522135592584824,-0.0036271902482785993,0.001660574205337888,0.0017906929416734397,0.953581858342429,-0.15555406576030195,0.8349525850338086,0.23692965392750648,1.93898124455882,9.729589408141225,-0.0018341352849792708,0.004072670506853579,0.005560900169846518,0.4771666497517845,-0.15688459510490713,-0.6745569074862603,-0.722497836336833,1.8373445473254448,9.64715843453605,-0.004736282352972167,0.004902520487283572,-0.005585913743040548,0.3107279558785881,-0.3730312546780758,-0.7241397324652298
0.4794674854105806,-0.16540147939414418,9.744662833459982,-0.0048368212988405025,0.0021536746512230017,0.011172171956238517,-0.3563382279916319,0.023848412182212734,-0.4722345989835678,0.06320775384792462,2.3505100850718335,9.543630455677079,-0.00923870610580273,-0.0029183728031580473,-0.009813627243399393,-0.8052328088566528,-0.03457830143323751,0.6114175083728118,-0.0695647377501307,1.9175021121045268,9.557763432949384,-0.00840214248575574,0.004067910251558604,0.002128955103876721,0.9573022408454617,-0.15310266431350864,0.8392924162491654,0.26091375684558227,1.9365149513179185,9.711042065505014,-0.007175408059617462,0.002226438545312402,0.0057994514035315395,0.4803979423096673,-0.15923944950602564,-0.6667416408142328,-0.6984409420604479,1.8246872154289977,9.644551015690139,-0.009492646851600986,0.002593068459907522,-0.006932765661193423,0.3139215148136605,-0.3744867748235505,-0.719266660289042
0.47308487543038374,-0.1514558277717657,9.755178196110307,-0.005265231440888952,0.00040027010594832703,0.011531028822969726,-0.35635023783063724,0.02409538265065993,-0.4736980515285729,0.05623763426162062,2.354187950637642,9.547678269757846,-0.008356726720918653,-0.0029763637715146648,-0.011451989356068192,-0.8059745282253485,-0.03687021428575746,0.6075681029830724,-0.06571677891161685,1.906789189827037,9.527332469851684,-0.00574702015770174,0.0030142453364416584,0.0018620905882125015,0.9572897633562659,-0.1502231129387325,0.8343795131163643,0.24999528455714604,1.9068944246805446,9.699433382004663,-0.0044492070162170305,0.0023862556711375634,0.007319401191273023,0.47741710481415567,-0.15638839433931015,-0.6738326416083165,-0.7043331281372553,1.8029071998664106,9.610051775200967,-0.007347806272872928,0.003653870005900889,-0.007377426174236316,0.31146168455383905,-0.3735181536877477,-0.7241418738421227
0.45151403738687634,-0.19250785336769705,9.746537954413935,-0.00446207760974415,0.003075157172559078,0.012202099686884975,-0.3497026756763865,0.021894367435100853,-0.4671641095004976,0.060488600737233514,2.366440667120812,9.532540128497894,-0.011520342755092372,-0.004266341135809626,-0.010881146130720297,-0.8074466832525781,-0.028488490171040277,0.6110355228365904,-0.0879354050745198,1.917112789432578,9.548885574653955,-0.0020902799024541015,0.0036789240075345356,0.004738670496688127,0.955161551841353,-0.14770396106540418,0.8399864824035014,0.2503597159873425,1.9499905101415964,9.723046980579774,-0.002072887246526496,0.004565232777687171,0.005235929540083448,0.47869632714765864,-0.15313601294185308,-0.6670442972986235,-0.723791809591398,1.809181801378718,9.619287035074297,-0.005294295332386327,0.004023860881406002,-0.00539707833374344,0.3117110027978181,-0.3683872607806564,-0.720485689028799
0.4670045377371362,-0.16145878128599706,9.727493268179607,-0.00027431773628177366,-0.0008793657223244804,0.010742755684923772,-0.35337800223020066,0.025552584151063207,-0.4681035184539795,0.0732980821036989,2.3523540182868192,9.549967674387947,-0.010192984472808695,-0.0032704321313856174,-0.010916968544934137,-0.8039867381190808,-0.034661011639560216,0.6180088138382516,-0.07985114660408153,1.9150116914548747,9.553776612301657,-0.006233645563855112,0.001116834021169982,0.0022705890762942512,0.9588112440407138,-0.1528198241397035,0.8444046369792201,0.24559601407079046,1.9402931376121206,9.723818599057257,-0.004022650025086298,0.004608631701339751,0.006290770590085087,0.4796852913164072,-0.16091261982483093,-0.6637860529461304,-0.706391244960265,1.8212754502126138,9.666636754412433,-0.007809601008762752,0.005222059832170259,-0.007500297206988915,0.3163779041496901,-0.3737456342091206,-0.7146370865484604
0.46595736972710733,-0.17376904162570106,9.762063765001717,-0.0033170335273158833,2.0416422147683925e-05,0.011472778771874277,-0.3538881981543875,0.01799226567159508,-0.4722659493072137,0.057142203473067796,2.3470820864701185,9.549422884894318,-0.00814210927647052,-0.005805364544190819,-0.011065809371169596,-0.801079121323867,-0.03528887959188447,0.6119072956331951,-0.09415476174705238,1.9096855147816592,9.537614656730394,-0.0074046809018152165,0.003702619842734362,0.0022315772544285253,0.9646397853724661,-0.15218977918723925,0.8397111990812685,0.25866492525697427,1.9321549956968844,9.711970128794176,-0.0063112428881839855,0.0031203051545980283,0.0064022192205934365,0.48403876177952987,-0.15805894762386663,-0.6697143220776866,-0.7074992586718142,1.8193040593705612,9.666927602762765,-0.007439029213176159,0.0012030251891665428,-0.007068733674410326,0.3187971590229393,-0.37423633114235155,-0.7212372679382388
0.45894955936084286,-0.16169342514443208,9.738816164126192,-0.006369853651972161,0.0029155529996816587,0.010065859981069885,-0.3582218010272145,0.021630504397696856,-0.4639228571878303,0.05712091715005509,2.3517935945909594,9.537920555298983,-0.009461815056844187,-0.003377154039740522,-0.010149893764071665,-0.8052257112818572,-0.039744805169241705,0.6098319489225587,-0.08200549726991062,1.928399473985836,9.540090479132923,-0.004821718086143112,0.0016806326808675763,0.0024572916981425454,0.9585040576121109,-0.1541036200136559,0.8380717872532197,0.25747123488963497,1.9403101937267806,9.690340185719815,-0.0048900199092988235,0.003049394435828343,0.004388739666624153,0.48061495829016343,-0.1619591831829364,-0.6696415742256903,-0.7145209065741105,1.8403198002330579,9.592203798919968,-0.007872674377018631,0.0024168056152762104,-0.008703373068609875,0.314168216760155,-0.3757061711165977,-0.7190223595929753
0.47768067850715706,-0.13774608724092396,9.73140171088527,-0.0017174384236764294,9.050690157333861e-05,0.011177203351538677,-0.3484410557254378,0.02627888085372713,-0.4610610284604609,0.06641236350855594,2.3651839775534915,9.53108687973719,-0.009675946349400158,-0.003836056427881797,-0.010492192446082777,-0.8078923708140087,-0.03342198873385517,0.6192139298042271,-0.07556992165553919,1.8853029407854298,9.53813553396285,-0.004870421280760651,0.0032750277985325238,0.0022432912130958384,0.95301990862179,-0.1497847278438271,0.8493041363965358,0.261484828805005,1.9385305392590606,9.711915932238952,-0.004310452052977882,0.004089530782119016,0.005655075515064303,0.47485739243372993,-0.15546510908651442,-0.6579529178427258,-0.6881398842703745,1.794876017642954,9.602206842112574,-0.0065737947254371374,0.006338857192930124,-0.006524766846060699,0.3083266769213401,-0.3740005470600983,-0.7133871775294189
0.4887869840849093,-0.18011303254828842,9.761799514271969,-0.00481779514898783,0.0001573546537433834,0.013299040657706655,-0.3483225521772546,0.025334971161796845,-0.4771774273883402,0.08182445202780238,2.3378852226153732,9.54855271794506,-0.009006109846992408,-0.004349969583821739,-0.012473932421002292,-0.8081518520338421,-0.03699771655704212,0.6127077495860777,-0.06296500627627796,1.918114799374878,9.54281299761185,-0.0032147510421209257,0.0025876720437211786,0.0018738103242661142,0.958540786566221,-0.15333307090702286,0.8417258860556874,0.25113158116964995,1.9310172355908268,9.70501275229128,-0.0004904864344026996,0.003978386004169478,0.006811629236790222,0.4779633505670265,-0.16068603463299017,-0.6654844278183127,-0.6967429110260807,1.8289646645187383,9.673603040987715,-0.005021004745770261,0.0051213692326632365,-0.007381123866030355,0.3132010116794586,-0.3769267489418541,-0.717064725790558
0.4391593999612452,-0.15516173239837716,9.749866011899334,-0.005586863175042716,0.004218028898172217,0.009941278895470928,-0.35124195943875136,0.014833891112912619,-0.47790857173007134,0.06454276249870847,2.3461707301847188,9.524004815380112,-0.00965783004742087,-0.00369995870067699,-0.009574253881552296,-0.808395043468489,-0.04046806515526105,0.6105932750572752,-0.10060322923162003,1.9273655289970146,9.531340106989951,-0.006600250877940969,0.0029940801552581185,0.0031053671879713333,0.9577450431181558,-0.156783967119982,0.8378614984337938,0.243671196177278,1.9335454914688552,9.711266920579776,-0.0065490074942269865,0.003614842107073069,0.006075217393763807,0.47669454847468407,-0.1614879633207057,-0.6715696633626682,-0.7341753208864779,1.8310045175958765,9.60814284950108,-0.009739337818465709,0.004208550218517048,-0.008130455209643781,0.31195198492791704,-0.37620388798960164,-0.7246290296724524
0.44076645324783,-0.16588259822882354,9.710849174693076,-0.002786797945941439,0.0019808564202395316,0.012643584580762387,-0.3520158747699999,0.019968145534922533,-0.4820421421710014,0.0554502173905711,2.3632945556895395,9.527952928795015,-0.008845033793910172,-0.00542537176609021,-0.009993002020629147,-0.8108558026979681,-0.031169652771494742,0.6116006464664161,-0.08155351183360011,1.9042391710860846,9.531613264144637,-0.004724164910045289,0.0028905738090141157,0.003591163315325331,0.9520045968329242,-0.14692957583500263,0.8412253946641931,0.2490746625207717,1.9302023255818885,9.719170857720654,-0.003924889051014409,0.001747374915202668,0.006976796388239209,0.47502717254216315,-0.15289766484195716,-0.6679955089807674,-0.6946385693309396,1.8118265243306448,9.63164280930433,-0.006873015889518357,0.002076694880242333,-0.007259592754197956,0.3104901119839225,-0.36961056257827835,-0.7209681663158088
0.49381236232686065,-0.163379150679189,9.754936322586145,0.0007704713855110964,-0.002237191638174634,0.01145072353251925,-0.3428826274340499,0.015808566969137683,-0.47040475074270327,0.09191603371509637,2.346897166180211,9.542792421578307,-0.01035390216127609,-0.0020576902097510547,-0.012467920036454238,-0.8152225141021641,-0.038444089588320116,0.6142331134672505,-0.08471040281178897,1.9224353664462168,9.5412699231822,-0.006600268378711127,0.0029930699792727515,0.0031043776233187553,0.9475319922090926,-0.15470692608754816,0.8406097365381927,0.2538354851101025,1.9366846302641918,9.705104823443762,-0.004358509970977723,0.0030778542008006084,0.005343343368294968,0.4701430996434496,-0.15873689541830296,-0.6669113885094542,-0.7043373486208798,1.8242005347514392,9.633290394322195,-0.008805860879164419,0.0028242149083236366,-0.005773425181675447,0.3031777239481755,-0.37499160407991194,-0.7199599403627805
0.45946147722022224,-0.15088438906640123,9.788667710663574,-0.006082028116678024,0.003628047990667572,0.00955400223808593,-0.3470743486537733,0.023377454118159252,-0.47401821024040036,0.07202126088602678,2.3403590702751917,9.510135407859712,-0.010278115080589371,-0.004940605991042212,-0.009685225853403683,-0.8125297292856192,-0.035415423257592206,0.618058603787314,-0.07618027153238839,1.8898349905816594,9.558224684957162,-0.005091863774551059,0.002689177735494591,0.001387043044874536,0.9571393925185523,-0.1517916992152067,0.8478260117946234,0.2537772154190282,1.9262069226513003,9.727222977793115,-0.002873882745699992,0.005354240500714803,0.006230993871323673,0.47580053944240713,-0.15575956922767922,-0.6621072383581998,-0.7145016505738393,1.8048294599233243,9.620005177319353,-0.005607167297231768,0.004597119026945369,-0.005680520095286297,0.30978511647908197,-0.3725345290669306,-0.7146147915974884
0.45997951244048435,-0.1657070264465436,9.682100929424733,-0.004695577064556842,0.0018232506700296032,0.01050735690005076,-0.35044968998328946,0.019700682250817194,-0.4693597009783314,0.06116056867074873,2.357230103060928,9.538018193648574,-0.009788658602201525,-0.002352280296293039,-0.010215285711971918,-0.8079149422919262,-0.036049672660512885,0.6114627626205077,-0.0823248093528894,1.9277757827088178,9.536939220815261,-0.002896782136767145,0.00438146258043506,0.0038629589576326217,0.9573375548714506,-0.15185168259109597,0.8422095276028436,0.237968133988352,1.951571171138835,9.695651512480575,-0.0018792182714923596,0.0030599538224848014,0.005246156716335294,0.4772368563723775,-0.15580508041631902,-0.6657803013046233,-0.7201739182477319,1.8372858898556816,9.656374282951491,-0.005894999924590926,0.006575996450377836,-0.005360403676374669,0.3127012580754051,-0.374976606734619,-0.719261844518983
0.47712723771521537,-0.16432890248819823,9.760720141842931,-0.00299065928687506,-0.0018059237715021066,0.01090546020859971,-0.35368396571007854,0.023615557893526387,-0.4761622899873209,0.06634776700697316,2.356116342243148,9.54685828031452,-0.00828293075685509,-0.004454616367796869,-0.01170287661615298,-0.8156793415187497,-0.04295998841975121,0.6194716781996685,-0.08131066424199267,1.9234235505996646,9.553816109046272,-0.009550045138327254,0.00248954148097787,0.003004612299515944,0.9492621228554428,-0.16024468906255124,0.8496862900790056,0.25759017906437043,1.9319187370873543,9.713337454465297,-0.00768566141064156,0.0035414358049110626,0.007421105720892885,0.4709365352196078,-0.16595321746164515,-0.6575546083927014,-0.7033132738247804,1.7955545094785799,9.632748397201652,-0.009505696147793206,0.0011774604526963916,-0.007543356920374737,0.3078592232292197,-0.3825439111954416,-0.7109362505014043
0.47726605345114825,-0.16418515211942217,9.777598898195901,-0.002500951792696205,0.002690344220497948,0.012133736526966577,-0.3496965149915425,0.02042937980276285,-0.46667811538215975,0.07828164633263773,2.3560845306048748,9.540140811947632,-0.009927150783261765,-0.004428793364743078,-0.011739409851384906,-0.8137466150370004,-0.03663230521508367,0.6183363885414254,-0.08602284515948681,1.9005782032134064,9.556604494923798,-0.0035570655835957155,0.0026268949487810852,0.001296150979657576,0.9495301113130076,-0.15346181682054114,0.8447309952002745,0.2534430619960314,1.952525818762675,9.69717740109756,-0.0026831902156994043,0.003849001719304673,0.006244244152110378,0.4704077869636065,-0.16016765172145453,-0.6639663014099713,-0.6995000210891308,1.812451009431188,9.605388329988182,-0.005685791725163984,0.0048742490742139126,-0.008547527269367531,0.3044167925839408,-0.3766942932303956,-0.7153246751521708
0.4509918381954663,-0.14345412770670665,9.731662160224017,-0.0029018776372610636,0.00039844515909314365,0.01030620864496539,-0.3580439177227121,0.016766731944027266,-0.4732114539090204,0.06912925587218938,2.3449824151480523,9.53605786457559,-0.008956750852872826,-0.003942640788811531,-0.009718074488804946,-0.8091395783503815,-0.031118479255936367,0.6135466282906007,-0.08239732019364847,1.9207958260049427,9.554336016054327,-0.005407784729230572,0.002970010097619151,0.002435826213493257,0.9542040043724002,-0.14646383526787826,0.8409586397215383,0.24257538052431038,1.9365164340929995,9.725936942869424,-0.00482784087183656,0.004733282088663806,0.005987567718644926,0.47746853225832364,-0.15387562765236193,-0.6677580506101546,-0.7234456896984058,1.8206193238499675,9.63593787609628,-0.007361950628304021,0.00399529657928789,-0.0058696951530675355,0.31244409855406013,-0.3691181609027708,-0.7204875926235628
0.4732373522683687,-0.16025918559636457,9.749088913161888,-0.0045571550170139885,-0.0005035664266486802,0.011988584612240784,-0.34676980629506027,0.024338977231089465,-0.466205415525636,0.06237739573251352,2.348605592329066,9.540137190472015,-0.008768716151483471,-0.0036187127365658474,-0.010287709958242843,-0.8049710785762999,-0.03396683952037264,0.6165303765101161,-0.0901217509909086,1.904382582734683,9.564114505672341,-0.0034829955667173523,0.0012721086337102016,0.003135622825893961,0.9580929844500766,-0.15134806790134683,0.844395377642532,0.2504214767069544,1.9213250662595844,9.728274860327884,-0.0015445631018231778,0.003925357455491449,0.004894305228641145,0.4801711304444836,-0.15921316473984518,-0.6645429570059331,-0.7159824961422834,1.8045364468680771,9.634813831199832,-0.005890894760912159,0.0048169683064317225,-0.007476734731865908,0.3136860699439586,-0.37497301957682827,-0.717068338030309
0.45551353840977865,-0.17266822144157262,9.755671753711255,-0.003217357240656472,0.0022208310579264266,0.01085943215818142,-0.3587733650889599,0.022622589558277187,-0.47172872428380025,0.09224120622069212,2.351548372861492,9.510680181478158,-0.011845018562607446,-0.003109145124787574,-0.010017446523166208,-0.8186663188763765,-0.03315941615165848,0.610945146109603,-0.07587160353421728,1.9338069190532017,9.545232316983599,-0.007381366428023563,0.003939216966036416,0.0038540960483280018,0.946808480931527,-0.1517928832210395,0.8383875127413204,0.2554232388952058,1.9587873557027071,9.697185120980443,-0.005546215403840255,0.0019917879906328597,0.006378534651044532,0.46744369902064686,-0.15631764830106293,-0.6691160122105284,-0.7176639107466045,1.855893330414002,9.629950208848264,-0.00862080543669908,0.0014718800483512677,-0.007451789835056074,0.30242655425913806,-0.3715782445693702,-0.7236225866670345
0.4819133352946351,-0.15006690435382355,9.736963266350237,-0.0018027622657503667,0.0017854635699294924,0.012605369215284462,-0.3572911588587464,0.023351932570507057,-0.46929793748491644,0.06723922319679357,2.3516801725489542,9.53763267132075,-0.007890745031480349,-0.0036706675975141574,-0.011924201450693785,-0.8093811467442454,-0.03804680737722324,0.6098066187779293,-0.07589250901731756,1.9018375691561695,9.55755797490202,-0.008357560308246966,0.002467471228973441,0.0023350506264754036,0.9545915206827945,-0.15479873743492661,0.8381108583087696,0.25125801743736015,1.9080374647148874,9.736971791096595,-0.005927781811983615,0.004336925437099438,0.005055747278351252,0.4766957857708781,-0.16319107925919946,-0.6710605498496413,-0.7022173654212125,1.7934547342181857,9.598974294065865,-0.009354883244671425,0.001937563032298174,-0.005590614096361627,0.31220409741909105,-0.3798648093404211,-0.7238943881578972
0.46004645053425686,-0.1660777528939809,9.783390050213654,-0.0018014204020058119,-0.00012345763405619036,0.009626384147115181,-0.3467474183419582,0.021160528746107122,-0.4640149705918681,0.08616989763479355,2.3460149770416003,9.527325333828172,-0.009868802561353087,-0.0040245608604361615,-0.008988512440091303,-0.8032678791917099,-0.04194207653669275,0.6096333386394176,-0.08607045406854384,1.9184040671109692,9.538795222544014,-0.0005839405292473534,0.0033680512926995833,0.003021424489880061,0.9621164806495309,-0.158783201143149,0.8373583222917744,0.24508151627488828,1.9401414687791991,9.712508278523199,-0.00015185636496836327,0.004842747928472401,0.0064567586408115695,0.48234053375148267,-0.1660781017555824,-0.6666762275142238,-0.7076040591630751,1.8257416790732328,9.635432547541017,-0.0030762530040444355,0.006124901376836018,-0.006751009671089193,0.3163707753609403,-0.38229604061639183,-0.7202438458130326
0.4752340253480597,-0.1706848321349697,9.760703281886228,-0.007879901091153342,0.0016871257321156921,0.011082397328993104,-0.3526783266809524,0.022634158699583958,-0.47275415636828144,0.06581616683364694,2.3540159561786536,9.550595736753841,-0.009492743195214239,-0.0033757530228742355,-0.010129806768061729,-0.8164306790526438,-0.033151812381421286,0.6211936932144964,-0.08975822624125022,1.923492169007542,9.546057669204218,-0.006481466180266073,0.0023639751558975366,0.002821846667763211,0.9503651681521147,-0.14706715506453719,0.8500299436904715,0.24424162994319734,1.9395972351402782,9.712638273508123,-0.004013720942185549,0.004613499040642932,0.006280642387546664,0.46975426762426037,-0.15615141759026585,-0.6547306008476655,-0.7253841537997556,1.8204675727839061,9.637151929860217,-0.009672759685391257,0.0025138136681951305,-0.005874040935358297,0.3053990711742738,-0.37327200396933713,-0.7124014546704731
0.46259122661848323,-0.16763298450839378,9.692880634596786,-0.0038379004401226362,0.001960333769321987,0.011119842027860033,-0.35391354007495196,0.025563709262355915,-0.47395943823218156,0.07854450300332745,2.36087789888634,9.508040396235545,-0.009494735758351107,-0.003375710108314572,-0.010127799817517703,-0.8066874473136866,-0.03923136530969132,0.6110464106485411,-0.07609776293700088,1.8956601296750306,9.534488126131702,-0.003995858432118308,0.0035328191276675744,0.002623539098556592,0.9570018745547695,-0.15534230183982034,0.8349224993343773,0.24938217778967564,1.936787345916576,9.720443971836179,-0.0019211154643876674,0.0027155722252840127,0.00622764127593719,0.4769200031646521,-0.16492625491312854,-0.6732400711297255,-0.7082376721080516,1.8108049544102685,9.62840317281927,-0.004687124057545483,0.004535139732436773,-0.007100744374813931,0.3139232782585843,-0.3791261815647715,-0.7207271981967237
0.46537194765756296,-0.15080190629237109,9.759629947099533,-4.0214778754183364e-05,-0.001013772410305831,0.01160965224594055,-0.3509505785317282,0.028000888390018953,-0.46933887530186014,0.0750624778960026,2.365200092305333,9.544367330309324,-0.009834713110115838,-0.002486017681440808,-0.011115171979293854,-0.8071601153902723,-0.03665076519663047,0.6168469689790682,-0.07406518356050612,1.9185888478009125,9.555984839675453,-0.007627209641936027,0.0031127179537508124,0.0013693790630630578,0.9581205875549944,-0.15155442384718573,0.8480595876927634,0.2443066838811424,1.936360012522555,9.699339587155388,-0.006825700920265531,0.0037699333636242627,0.006724618233098362,0.479445733748592,-0.15798243531910172,-0.6638187169031317,-0.7030398954175272,1.8273527447736013,9.614802608214571,-0.009987533413548508,0.0013350356180775944,-0.008272799115880686,0.31515457034991995,-0.37326017371921855,-0.7153662062417095
0.4668515780713818,-0.17116548223672318,9.78891984798016,-0.0062481542514438975,0.0031266502976096213,0.011580372505520764,-0.3568193393566395,0.020673160898643024,-0.47199321310856807,0.06823736589419811,2.3403550996383853,9.540410454200302,-0.010451009308887413,-0.003726726812938794,-0.011229158146863533,-0.806422739901498,-0.03835156240623904,0.6171291165297267,-0.08196900155784248,1.901764878646974,9.565825017873651,-0.004629756452236814,0.002019850679910155,0.0016821737198749961,0.9568725747503981,-0.15591993277537633,0.8498237710271852,0.25011572632874113,1.9235647637286246,9.729128940507607,-0.002404769265559173,0.003035413426960557,0.004285459614422888,0.4816686660779058,-0.16160167089294813,-0.6598870518970182,-0.6889377428807396,1.787084843637497,9.626207365508003,-0.006411864125475328,0.005333943110225429,-0.0066873742480379516,0.31540475096106857,-0.37447962693792447,-0.71414491122854
0.4589136604034548,-0.16231291725791216,9.715032392499593,-0.0074039646458420455,0.0009057132754120396,0.010666016406600145,-0.35387925674128523,0.01847778597498084,-0.4710439938718021,0.07748991766934486,2.3537887629864107,9.53363390148523,-0.008972712518977207,-0.0039414177032233485,-0.009707041389656649,-0.7996024780269159,-0.03446454137071283,0.6155451176561486,-0.07782068437156743,1.9356392540357301,9.525612709179129,-0.002875516794249493,0.0025424471752495017,0.0024485562127619107,0.9644252891668955,-0.14997814019810018,0.8409113321403564,0.2638657011475538,1.9470485934686173,9.70013874541987,-0.0013997613314444173,0.0020747553558465555,0.005890082972962179,0.4831089669393817,-0.15457632018106085,-0.6643765620934,-0.7187539928493681,1.8402563373417116,9.63794223679281,-0.003693459361401676,0.004198022882609563,-0.005653945597789283,0.31904557468476447,-0.3708153776214288,-0.7185554359773124
0.46887873554955783,-0.14954556067602626,9.736666865852172,-0.0008263367608525197,-0.00031887679842578187,0.00959424005042033,-0.34801215427461063,0.027515509405767326,-0.4683861722385555,0.06373308022254207,2.362834042392899,9.541378217201986,-0.010856164147538039,-0.004509492881486257,-0.010998810933620708,-0.8196130001925687,-0.03942604819266535,0.6145180330862927,-0.07258609635159403,1.9089711433976262,9.54961202600805,-0.008407280926714012,0.004060865594985067,0.002120068640109885,0.9455714315140534,-0.15614585803531456,0.84137258292559,0.23510630460174958,1.93844188037618,9.719665030603327,-0.007158376586085972,0.0029064910209949816,0.00707343082221433,0.4655073843400712,-0.1604296988274707,-0.6661231079477667,-0.7089819531845201,1.8125827522950446,9.629356112145826,-0.011102673892288679,0.0013287462762283577,-0.005784807323921911,0.30123385549338966,-0.3781673527919101,-0.718729948269826
0.48267016540837515,-0.1651384679351116,9.74856505523791,-0.0018860480062015473,0.003481413228697944,0.014038521070588247,-0.3465590516549783,0.02141928204152489,-0.471096179932323,0.07370565397952603,2.341277412160494,9.538438471688355,-0.00859964832606033,-0.003291569772764805,-0.010846348975535906,-0.8081365583464171,-0.04037372659932007,0.6144982040807697,-0.07486171073006356,1.9103290885183715,9.533336244022243,-0.004606398816819633,0.0022584784283510417,0.0033076715570134374,0.9556004805071009,-0.15380093014800417,0.8410226250733132,0.2666046953410057,1.922797116043727,9.717038835671648,-0.002679234235095516,0.0038509244415431544,0.006238189950539956,0.47773616939642427,-0.16090373260579252,-0.6632828653485288,-0.6858898075060402,1.8000838924075484,9.613125881264022,-0.0068219745800495975,0.003464346455179217,-0.006663109819569562,0.31270640011357087,-0.3783946012920065,-0.7192585634958228
0.46622278456606897,-0.16466438199007397,9.73747130817279,-0.00498875866442218,-0.0002605832218006459,0.010199446424814861,-0.35663036530603065,0.022395915345256198,-0.4785824394610977,0.07195978342917309,2.3458798132078527,9.550851200422228,-0.009191835256015206,-0.004399261071894904,-0.010046346084402325,-0.804516169287736,-0.02871915366896466,0.6112742596217555,-0.07996025371268062,1.9177850583232559,9.564412926787993,-0.0077989090735991915,0.003007094823050322,0.0037640713312736464,0.9585397312968141,-0.14754486767776084,0.8348298379654284,0.2532608095210301,1.9272396037959436,9.715680690688645,-0.0056330365114271135,0.004859920548893389,0.005683341351649822,0.47840737806593553,-0.15515178351875572,-0.6723898153660762,-0.7084958358660302,1.8179188537644033,9.616190141727307,-0.007698869056136004,0.003162935017359134,-0.0067586986419306255,0.3146228350700402,-0.36911981222498086,-0.7256223801037872
0.45498495071812795,-0.15750825631681784,9.737191099759933,-0.004272441989044358,0.0022042960221794676,0.009338729436965955,-0.3497335838886607,0.025562797190557887,-0.47033052510993534,0.04785354517614357,2.3811393610294584,9.550119568203074,-0.009557918147856692,-0.003642567550815926,-0.011946700059707471,-0.8098647226592441,-0.03727525987309589,0.6114994028112035,-0.09041483373471233,1.9209026181840154,9.54331039362068,-9.748875141183188e-05,0.0008647211656921889,0.0019060761393375932,0.9578179593806451,-0.1523502671463108,0.8417216875175216,0.23272894497005014,1.9274536954391783,9.755857744261904,0.0019345697207636214,0.0022755026992581596,0.0051085646184787946,0.4774565190275785,-0.15803397292624732,-0.6684420164466127,-0.7213151257184653,1.8109838552500384,9.672754844575326,-0.0028020417511267826,0.00897845117332609,-0.006612739111226278,0.31196642401414487,-0.3742451776678345,-0.7197479385661328
0.4702474373545735,-0.16060774186523658,9.731413364476325,-0.00047311279529596556,0.0011331218672069531,0.01280448874875466,-0.3528955442285943,0.02287083760691286,-0.46933383538454,0.07143539602994045,2.355081510370248,9.528013686105055,-0.009911860808315713,-0.004158314641450301,-0.00988940972248976,-0.8050255790871345,-0.026873384092474847,0.6068355645064336,-0.07171421335210196,1.9282022166646524,9.531576795096484,-0.008359628976886559,0.0024644390033452352,0.0023300982313175823,0.9578163811468773,-0.14366746235100913,0.8313776102074923,0.24459061799299361,1.9619864079239908,9.718666277357007,-0.0051106824102054626,0.004219102073802575,0.005345775247132196,0.48036696663828005,-0.15076123019955331,-0.6724568912811101,-0.7247955216183926,1.852928413123213,9.69538889726599,-0.007375997312195068,0.00258268899687477,-0.006478285745157674,0.31632878921185315,-0.3659437800954667,-0.7251425141034028
0.47566511284186175,-0.1525423625584622,9.776012192991793,-0.0042634044580411295,0.00020595829426732918,0.011466673432525125,-0.3541018296680308,0.02091295285590008,-0.46786317643687225,0.07432023805716023,2.3391370877986684,9.528666655734414,-0.010278946310242303,-0.003400623942034369,-0.011789783906247764,-0.8049962237187177,-0.03139875436742019,0.6115844093277545,-0.0718325152065551,1.895725234442739,9.543951466988245,-0.011479971561199011,0.004181387917962454,0.0022949189601333617,0.956854457153387,-0.1494289011635831,0.8399903890877212,0.2614268135662637,1.90860088982804,9.704743407636814,-0.010787704918597565,0.0015222902396191367,0.005921010303624389,0.4811209294913332,-0.15511293579154464,-0.6687491288215064,-0.69210522917897,1.7934112936779982,9.600377356266124,-0.013084533978609111,-0.0024900145574517614,-0.0076320802581145535,0.31684411277581787,-0.3713090886071166,-0.7200121342734839
0.47575550580139386,-0.17760614028663352,9.73773331970501,-0.01009323443891827,0.003363937326330123,0.00949233054763461,-0.3516185872354682,0.026762885693112384,-0.461522818259196,0.07644291495822778,2.3582764731345347,9.525507738556186,-0.00919981663293226,-0.004399161377615936,-0.0100413173983355,-0.8101134638024972,-0.03581715668526183,0.6112212662668923,-0.08959162419790959,1.8961814115339604,9.534892916812051,-0.003996903878022652,0.003528818667562446,0.002622588645081475,0.9561105405103993,-0.1511258128880387,0.8405029362832954,0.26720446981081936,1.9357819535379308,9.695748981589611,-0.002103845834283669,0.004221739162671795,0.006209317285171575,0.47671986594921034,-0.15609143850293672,-0.6694352491768347,-0.693850109519564,1.8228352910452492,9.539513750280863,-0.006020797162412911,0.005795927565853592,-0.007317216286297617,0.3126962769348017,-0.3757102552223824,-0.7209701302341492
0.45004401234139674,-0.1558752210162014,9.72557927627418,-0.003981526396351495,0.0009154316933116792,0.010960857008922104,-0.35531664455669937,0.023838548807038947,-0.4666265462912956,0.07028790264541346,2.354957147075988,9.541595926115578,-0.008800649520332094,-0.003615314832318923,-0.010267667149040876,-0.8020264544684146,-0.03709150558527152,0.618303934472555,-0.06426841641100149,1.9055438070032473,9.55151452637484,-0.0026571289332070723,0.003123315724029127,0.003303880403456859,0.9632073474867271,-0.15165290627740616,0.8431356672417551,0.25022003937514525,1.9223791575678242,9.716722856886262,-0.0008162264731580935,0.0066677764981933375,0.004498248983177398,0.4840896922193239,-0.16090529822624816,-0.66260046276374,-0.710972160667934,1.8074868319478279,9.658610313194355,-0.0033921962005117766,0.008451195933766973,-0.0049111182256502475,0.3210137252512585,-0.37569331773852455,-0.716360717188575
0.4697273961977185,-0.16304496547816544,9.782054251743984,-0.0012501893020451797,-0.00017032227838250093,0.012918020515177176,-0.35016762408749796,0.021399654344223796,-0.46423132124821614,0.06352211840773724,2.3582964804527244,9.54577014044264,-0.010924337981525653,-0.004775291304517892,-0.012814717188545046,-0.8115639055736101,-0.038208452339777925,0.6134816730358841,-0.07795780405293402,1.9150098591881413,9.537432774636446,-0.0017551938377505696,0.00155007541719689,0.0022735940255296933,0.9517158519925074,-0.15277316336611563,0.8425088934695502,0.23556986587930373,1.9514642193440028,9.74756171990061,-0.0021640564671245705,0.0025427890167666286,0.004605415141255706,0.4752929094363297,-0.15992863369879382,-0.6637632994116095,-0.7301221583716603,1.8246753634234423,9.702690176438916,-0.004209343273202183,0.0029619681380540497,-0.006983925469068248,0.30929234178522486,-0.37522337947283796,-0.7168074572345033
0.4606651317554901,-0.16442579609154997,9.742748121700485,2.8940865939071422e-05,0.0037174859433085237,0.011053686520233068,-0.357795878246757,0.021647125823956368,-0.4717384698645995,0.06087607270029949,2.348076650021853,9.526172331353907,-0.010425727496067166,-0.003460341558686261,-0.00938409833041927,-0.8235550749110246,-0.0327132049108977,0.6097312128485421,-0.09496078246920335,1.9294448602523386,9.530647643226333,-0.010603373864857655,0.004441180750404149,0.00267712984823174,0.9411942274914746,-0.1498097255447879,0.8362157653015886,0.2558014635377942,1.957309677293083,9.672265085855315,-0.011634602276620267,0.0019689108609649312,0.00789656690508203,0.4630467530685157,-0.15582839074589383,-0.6695764406400886,-0.7091440257195177,1.8447863764923456,9.611455481931994,-0.011787527764453243,-0.00032699433793812333,-0.00756378376906693,0.2982925564539229,-0.37353393566423326,-0.7199439609062442
0.45887760179966613,-0.14455224445218065,9.73037524103775,-0.0034448492889775926,-0.0010304097632310002,0.01128865528289658,-0.35830532889168093,0.029217812463307968,-0.4729400978640776,0.06627392164704211,2.3467632947262484,9.53505043597233,-0.009207800630242782,-0.004398061974293285,-0.010036312690623786,-0.8105944105631901,-0.042722687493399435,0.6084578852813527,-0.09033673111237851,1.8884029192666636,9.55241141445693,-0.006850205768277251,0.0021625371408695677,0.000612734890977134,0.9550327816439785,-0.1572741893952778,0.8352034380852504,0.2554618073950215,1.892101134916662,9.692909329504507,-0.005628071229064141,0.004862853380347364,0.0056782674507128185,0.47569861256807583,-0.1639502392142078,-0.67348604748236,-0.6970445339517757,1.7730227233389304,9.58047248055965,-0.010001685437233183,0.0016744592988271157,-0.006768066154464584,0.3082876021430084,-0.37865203031947464,-0.726322636456316
0.46873791760147077,-0.16601302924268363,9.765166520943271,-0.005385123456049855,-0.0006425273033476546,0.011338858409361784,-0.3529189032821128,0.02043678267263668,-0.4727567049309213,0.08258273429483232,2.3547442895767188,9.524663452569241,-0.00888496019512949,-0.004012255351896607,-0.013003638810815284,-0.8042433607867439,-0.029524417258297492,0.6183746566580824,-0.07898923386910042,1.9239522132491986,9.540703606393203,-0.002487596852530678,0.0009018170131275097,0.0032363130216518364,0.958893862285066,-0.14692627984476483,0.8477617063662446,0.25974645509310496,1.9443065862454783,9.71606986748742,0.0014600813423721467,0.0032606459951867264,0.004460599754262818,0.48238721688647346,-0.1528547511989883,-0.6634141115226732,-0.7034076612502965,1.8162096890162611,9.63825783267909,-0.0016002598055589793,0.008698623455296513,-0.006232743580292524,0.31637613920036656,-0.369105227469492,-0.7131765496007036
0.4679198514436784,-0.16862181793244288,9.748275157430113,-0.007483373833543875,0.004609039318170274,0.00996213971147722,-0.3553354969287439,0.01725400478430208,-0.47030288381670154,0.062194217998870475,2.3624287171980245,9.548043610254386,-0.011575015623171243,-0.004137202435230938,-0.009911755562626674,-0.8074410706379196,-0.03589820321377493,0.6075502192453829,-0.08007800054631975,1.9095163462629845,9.538516604683348,-0.004582944860254745,0.004819216533467486,0.0026031126390185745,0.9558433798849003,-0.14970379687317886,0.8360951283639702,0.23468197574800426,1.9455548685909478,9.734824034286962,-0.002437529288316397,0.0033582866400851457,0.006557137775861156,0.4752220825703747,-0.15638199102986958,-0.6735715260267537,-0.742479539926069,1.8413897502887195,9.677636852271519,-0.007658817941681349,0.00455357393791134,-0.006158179449167949,0.3102367529223563,-0.37205545976239046,-0.7246269294872977
0.4634037269798874,-0.16498818804276763,9.702907884659398,-0.002156692814953002,0.0008560647995421533,0.011550259224836252,-0.3590061708741221,0.016029731222107046,-0.47149624756327346,0.052815227818248864,2.3298313867894787,9.523802190773921,-0.009238897614801567,-0.004530001860618351,-0.010946300516887346,-0.8147505113940113,-0.03234163030983051,0.6140849338536967,-0.08087248781662137,1.9081883202569776,9.53877575310549,-0.0066074428479681434,0.0029830341897434005,0.003094538420129336,0.95398504971181,-0.1471543375013267,0.8448738570235802,0.24573320735235438,1.917729213576872,9.731691243348411,-0.006060682769402484,0.0026404044847902434,0.0066999455613734205,0.4718762456560288,-0.15407607459393727,-0.664782659277673,-0.7171086249828875,1.806650613488289,9.632581783185934,-0.00999769012654714,0.0016704624132666294,-0.006771076536224153,0.3102650608541214,-0.3718036829378834,-0.716570218490145
0.4804140743392503,-0.16395884265071103,9.764662913675485,0.0017553854558502685,-0.0024565422475549266,0.01139245189093933,-0.36098959549659454,0.02067159488089802,-0.47440116727647824,0.0744361467113516,2.3600880542961695,9.541910556481717,-0.008628589142080458,-0.0032882122523708135,-0.01082831688678022,-0.8054549817156733,-0.030962789137913536,0.6196350244855479,-0.06933195015202243,1.912988090262464,9.53907529827137,-0.007948225875948282,0.003388536284440667,0.002412254811153908,0.9586196841711704,-0.14889184070113584,0.8463190120528981,0.27084355668989596,1.9359272139599515,9.718275065494637,-0.007054533416314191,0.0042713375139187375,0.0063874646081443715,0.4782182600724911,-0.15287685641333787,-0.6658224909451579,-0.6838984791532493,1.8214577836704136,9.602564090616855,-0.010315559449231647,0.0022467149797116906,-0.007052503388819231,0.31465692062001094,-0.37155356006971546,-0.7170750940664808
0.46627564312019076,-0.14812602990721208,9.769687536775104,-0.0028734985377338006,0.00429683032556516,0.011124922710156028,-0.3480126639383601,0.024099008327400917,-0.4691261270491784,0.05951750769231018,2.354808235795675,9.517547350711103,-0.010490915105742953,-0.003725204644513708,-0.011203038989514757,-0.7983922073164712,-0.029318359916675564,0.6161503616148651,-0.08952458063904951,1.8898587255597477,9.548860525885644,-0.002341234819982662,0.0028404732831019304,0.002254118019466792,0.962526825231382,-0.1477203143404682,0.8450539852856442,0.24832960904451115,1.9013612473479433,9.713053981833328,-0.0011917866873780662,0.00545797787672182,0.005830577328961823,0.48530228093996036,-0.15385652825723978,-0.6651342726458327,-0.6964380423862102,1.7926522221585788,9.60292752687602,-0.003618257626717723,0.005238264833992371,-0.006563223543020449,0.3212510130261304,-0.37007748938833573,-0.7158789792379093
0.45193715256945194,-0.15716495310647688,9.719541415956797,-0.004941744028286777,0.0011099089246419279,0.01097588051765744,-0.35486479601622384,0.02214023128781791,-0.4715167471563293,0.06263315042653118,2.3602363061797456,9.538329712156768,-0.008419442965489852,-0.0028292265658169417,-0.010482000533778804,-0.8132983577029996,-0.033413188995339696,0.609954036536988,-0.07522285161835188,1.9201153196984073,9.52994536352454,-0.0018780844129635402,0.002173167428324281,0.0025522196743724516,0.9505112688019097,-0.1457450517284926,0.8363419912369834,0.26103431530459675,1.939377016337422,9.738339122113413,-0.0009622125091851484,0.0042971019382511,0.00486036665483647,0.4728106446730447,-0.15511399749372837,-0.6699052460784104,-0.718122811518047,1.8321046549472704,9.675842116703794,-0.003799302164281774,0.006578603786417013,-0.004886861598799741,0.3077954067317807,-0.37132665525050407,-0.7241309408168461
0.46865078483514633,-0.15840355121012364,9.764388630878404,-0.006444143133832153,-0.002654428614815715,0.0119502089102882,-0.3474817942148921,0.018963871831029454,-0.46474561925894003,0.0692681063699713,2.359249337786647,9.523313360035843,-0.01049490394013988,-0.003725142803380943,-0.011200024793796464,-0.812323032948598,-0.028209070358546175,0.613000481159434,-0.08271932095355582,1.917217100066346,9.542027349101037,-0.007533762343376278,0.004315646093664161,0.0024983558088804802,0.9520205866476518,-0.14353197150287214,0.8392371889082128,0.2557729120566383,1.9391606131000687,9.717203702186161,-0.006534179251649342,0.0036305222501346367,0.006049914106711976,0.4718704014179666,-0.15164862579067645,-0.6660313474502881,-0.7225959048430609,1.8103307400160975,9.654849911586755,-0.01065848986747157,0.001422344399205752,-0.007941493194296266,0.307317308820929,-0.3669279168173662,-0.7194944537215904
0.4729880088999461,-0.154819923546996,9.741433675984442,-0.004745078416364169,0.0035193085322160586,0.011913239663400807,-0.35337029038592144,0.02433110253274983,-0.467374034263897,0.0649688192577827,2.349027151980283,9.527527753665671,-0.009114351398101619,-0.002458258899428774,-0.009411006947999893,-0.8077073250123747,-0.03305751974571995,0.6038199652269006,-0.08184399479150277,1.9124018326415795,9.55897313287571,-0.008168656744774929,0.002805655959186301,0.0015539677038875256,0.9575129788640898,-0.14928712766767177,0.8307057599388326,0.2428610966791846,1.920553641828125,9.69726797205798,-0.005820968425699486,0.0021487816095077973,0.007019897091955886,0.4752000964971117,-0.15203146077613502,-0.677284999215552,-0.6981317349765315,1.8079315855620464,9.611143861849367,-0.007387061263350975,0.0011720820531000028,-0.007090888911293166,0.31265875346983857,-0.37156874562423037,-0.729763054164105
0.46757394190194534,-0.16255724075391345,9.730598619640302,-0.001093379379060215,-0.0010402799169403176,0.010076913626098844,-0.3541310522098261,0.017259884820140996,-0.4722655063846574,0.07956742689738397,2.3567327636661157,9.54104476063956,-0.009594841873457625,-0.0036370869300690356,-0.011922687536225428,-0.8042281496707963,-0.04059606452804764,0.6149771857816532,-0.07610560372837054,1.8990558325900806,9.54504921443901,-0.004731360421871666,0.002876558954551884,0.0035833653371284573,0.9600287093874459,-0.1540421859769532,0.8453833441204747,0.26451477220932124,1.9207472510807824,9.706199253348638,-0.0028559852280291686,0.005359046246694879,0.006216795855025699,0.4809127769235528,-0.16163502578846048,-0.6628110402754624,-0.7026003440071606,1.8181641590761326,9.605184847953577,-0.00566085949533359,0.006608320786187781,-0.006431275469215267,0.3146539749898627,-0.3759501448338107,-0.7197558579007993
0.4837925859474661,-0.16375017745147316,9.758584292767107,-0.0022711382685852745,0.001182583972545847,0.012188852575728578,-0.3528911980067854,0.025065847494253342,-0.46835238202098495,0.058249101877654696,2.350339331728261,9.532215575829555,-0.0083227050358262,-0.004309828169703273,-0.010749921536191106,-0.8037645652600603,-0.03827652393488418,0.6097912977255155,-0.06724879329855142,1.9242779334524296,9.554651657674963,-0.0020486362786889087,0.004391686128274234,0.0026208260812887445,0.9616965881287091,-0.15507432430466458,0.8414740009560912,0.24156206557427184,1.9417309275548984,9.716239440884486,0.0005611499052375526,0.0026906439539798026,0.006128514003962446,0.4837995736845696,-0.16243597901420187,-0.6681957137465987,-0.7155317262126065,1.8111489346637268,9.661690026775524,-0.003970261286407865,0.00616592069535783,-0.005329857812006711,0.31636914466487365,-0.37716739912695557,-0.7185397789676115
0.47177456284785746,-0.15774836161551023,9.724558805313604,-0.0019305555791520076,0.002729975052156286,0.010300223899042648,-0.35436576948662085,0.02750702597474817,-0.4690687370846406,0.06292864038599358,2.3561624048670153,9.529092619606729,-0.00933347413513962,-0.00291610226810033,-0.00975031164274557,-0.8115972566606121,-0.03321178354863454,0.60798931846825,-0.0813009317538427,1.9332574337328905,9.540676873649922,-0.006731359007115832,0.003605115176049372,0.003371182653719473,0.9512111684368257,-0.14844672544031326,0.8353879526340423,0.2463892987666321,1.9487434994196087,9.702116632079266,-0.0046823193655684,0.002224172773268621,0.005672969666186636,0.4742718420963964,-0.15634013908908445,-0.6701462458255634,-0.7233564409728473,1.833366522323898,9.64952634630934,-0.008552768655880434,0.0028435494431154943,-0.006863352015126919,0.30730924574230245,-0.3725473857827139,-0.7241280322020152
0.47322339031879845,-0.14486452848102238,9.723805418479287,-0.003397820490191098,0.00033608036682692305,0.012066081174245059,-0.3563428216283489,0.025556901769460634,-0.47247510309739377,0.07520014786964764,2.3492103960697652,9.53434142649607,-0.010292740238504421,-0.003267078588871619,-0.010849659251645122,-0.8044838835330645,-0.03471497474961524,0.6158133049177259,-0.09062127739751939,1.8888071621213471,9.545797014247837,-0.009071637286135775,0.004374895805913409,0.0025833036283395743,0.963169186361026,-0.15363079328285992,0.8407150894755716,0.26088093953159164,1.8983294664275634,9.715463803705356,-0.008770807153693211,0.0031647000853871456,0.006458935302530487,0.482110773581902,-0.16045346840986477,-0.6660076536658602,-0.7071161677654029,1.791829978255561,9.612117386687256,-0.011563527494043373,0.0014663404453283129,-0.006527305002288262,0.3178375449994227,-0.37423308415985357,-0.7163508225652735
0.4719141326486527,-0.15803108951190545,9.758322257717163,-0.006121159570994049,-0.0005714968583736184,0.012232879949026599,-0.34483531069368273,0.023126501881123335,-0.4689093355122434,0.06540248835476685,2.3448947849874093,9.518298553529661,-0.009285962593981399,-0.0046597429402981125,-0.01184627892772748,-0.8181691019959221,-0.03632540460270674,0.611263341806652,-0.06310178884369311,1.9080893301863118,9.541288975932753,-0.0031722142335958423,0.0009832419853629329,0.0020789634567234456,0.9475445412906676,-0.15252017648323962,0.8396100832539947,0.2591543391472722,1.9389838499008187,9.690619683686279,-0.0009673795723983687,0.003630793492127526,0.0035661304491606516,0.4659696402941894,-0.16047076720941794,-0.6695445809961609,-0.707749661361906,1.810772378327704,9.606203316483912,-0.0038929866619822743,0.005459127620644098,-0.008359471183702281,0.3031728770608289,-0.3752370178178677,-0.7214246961802824
0.469390210796255,-0.17415910840881899,9.742182033309062,-0.005683741438223479,0.0031812615076065457,0.00975193798604371,-0.3536536052184322,0.026536628339892288,-0.4717614547611491,0.06886543488946534,2.350235239181559,9.539101735000244,-0.01008456296566777,-0.004223688514967731,-0.0074664872677860875,-0.8020353393230257,-0.04037586235958775,0.6137424085613756,-0.08725594499815964,1.9076180382946173,9.543911143245962,-0.005414951038402377,0.002959984581257898,0.0024269869242376473,0.9616504280156016,-0.15875101861276764,0.8400470261109309,0.2285655071953233,1.9324313265362365,9.723646415516296,-0.002279589039005035,0.0057298711477808874,0.006188915288083707,0.4842871888990113,-0.1626807453120226,-0.6681966422379104,-0.7225074043990071,1.8254971647175795,9.629084781673525,-0.007152977734832256,0.004375027107130726,-0.005436802491986015,0.3202794206654865,-0.3793585313267679,-0.718551580746141
0.45465003698177825,-0.15975878639634378,9.73033596240534,-0.00026721870009806134,0.0016246453393210642,0.01074678145714987,-0.35115206414074607,0.023108601303929194,-0.464952056338575,0.07436581495937587,2.3490502674358535,9.547941368422984,-0.008386909465900911,-0.00456971416759213,-0.01256998556233417,-0.8010611257426128,-0.03442725338703799,0.617259137039868,-0.07883500825277302,1.918896203246279,9.551228194950939,-0.00421938011583299,0.002941947306534996,0.0017633591476737412,0.9612562088673007,-0.15187345326513477,0.8436428980708527,0.25278550980996073,1.9433690513746298,9.745651310101517,-0.002105056916893001,0.0035573534387867024,0.004909026877925335,0.48603247121588733,-0.15629565522556635,-0.6648672093699527,-0.7110675241789801,1.8079587578432534,9.669099268373495,-0.005680916115014613,0.005204705148879191,-0.00703885334464341,0.31954863762038377,-0.37447504755300093,-0.7158686755349295
0.48380457527407383,-0.15468710032352165,9.774731134353894,-0.0013332015359470441,-0.00038527712174323876,0.011363191462085363,-0.3535870309170669,0.02237128231644334,-0.4642021833433909,0.08159817072948802,2.341180933219645,9.544855410223635,-0.010620571116520053,-0.00224415881824511,-0.01091300006219338,-0.8152491020503058,-0.032163344031975676,0.6113967139295491,-0.0724623974115528,1.9188757139953554,9.53973341508106,-0.010999659223887912,0.001676950063440497,0.0011636307159337655,0.9485765897932625,-0.14884013678496552,0.8422500831985813,0.27226982456108995,1.9410971274197395,9.705959749673358,-0.010717664371024234,0.0032179284861107776,0.007499636370408535,0.4720922799056782,-0.15241362186670776,-0.6687103345611842,-0.7026706057478755,1.822985882964673,9.620625548715864,-0.011437688141771676,-0.000926216211553806,-0.007300448650667332,0.3056080168355358,-0.36961765630295523,-0.7207067822283632
0.4701583075115806,-0.16266036789088148,9.741443243801118,-0.005738449306180535,0.0023453501034387037,0.011134722558406931,-0.3548332139001003,0.026768305685440308,-0.46662444065121206,0.0590829750793353,2.3485893850171187,9.512171555848731,-0.007485826360229217,-0.005896297112446188,-0.010257823602804647,-0.8089015316258578,-0.03587264535552903,0.6087753827032905,-0.10106482606806937,1.8963138272938131,9.544868037308222,-0.0043412626078814,0.00356504016649844,0.0020429766471165437,0.9543686198254607,-0.15380448265417201,0.839567588427476,0.2307358651271859,1.9150313921563469,9.705217668868109,-0.001867323590585542,0.0030627693438687632,0.005232029104878949,0.47817465277341625,-0.159032222364075,-0.6701450375806465,-0.6944875633104117,1.7854250270683196,9.56321829131926,-0.004721310796586955,0.0034729545296113946,-0.006196591256270108,0.3136558909583182,-0.3757135022048804,-0.7258565756071147
0.4604413233590913,-0.14260785086334254,9.723540534792688,-0.0029885737351232123,0.0007170753147275557,0.010911564416835016,-0.3533554071449272,0.017250135424460817,-0.46690050781218956,0.056168763853060494,2.352944382879281,9.548469588971054,-0.00902858106966685,-0.003939696146240326,-0.009670864860174218,-0.7981411714548476,-0.03200296091556931,0.6162138476205481,-0.08042111421217271,1.9145564723523472,9.552085794306006,-0.0015388431856066304,0.00212696320337153,0.0031289757400170997,0.9632660382573398,-0.14747822250924403,0.8455345075510063,0.24084868506837692,1.9428823862825901,9.717366561575554,0.0007171199841808556,0.005061278886167028,0.005764318516939213,0.48384767569898834,-0.15456885827231004,-0.6636493539468573,-0.7189348373162406,1.8466481601275622,9.665115895320014,-0.005069757154197358,0.008880620384317611,-0.006007569723865651,0.3217392763853535,-0.3690992874154503,-0.7153936579090115
0.4891713165326236,-0.1722636610302512,9.781022037944512,-0.003328194624474855,-0.0008313040430567274,0.01279518327846906,-0.3509576620899059,0.025073871340572727,-0.47080980902417896,0.06541602343521709,2.3384062061143367,9.533448614948991,-0.010469639023560223,-0.0020471393153733307,-0.012390721219517358,-0.8047422662150644,-0.03133370514307174,0.6142686980947746,-0.0779246832232551,1.907540063261283,9.545185910119702,-0.00787711878895621,0.00435383742756645,0.001916715221151701,0.9585958017056554,-0.14723317066624533,0.8414187453924806,0.24932269693790926,1.9181986845340302,9.741512623217636,-0.0052446146156382755,0.0025225355847038394,0.0069859817318209646,0.4803851365838069,-0.15511751183132133,-0.6692313692771859,-0.7031289232783637,1.79532529748617,9.668700206790861,-0.008778936522316542,0.0013786476823247824,-0.006404129925693046,0.31634568965359455,-0.37082318056084096,-0.7224528460061137
0.4726051745804142,-0.17276023402919036,9.753018695910463,-0.005554406142335516,0.0028537943128914126,0.009099223946342574,-0.3458182645731397,0.018245451856262532,-0.4706204904805812,0.05425501476803751,2.3688867027976936,9.513884071293004,-0.010973492824139668,-0.002767901050522229,-0.008855521668037018,-0.8108381057282688,-0.036515653782251675,0.6127061463579808,-0.09453926010292918,1.935417015135257,9.540842728068998,-0.006075203881485536,0.003279048521121088,0.0028971373102627826,0.9533916949769371,-0.15379527508176338,0.8395754663045649,0.25839785777721813,1.9739044468472935,9.688244801196841,-0.005017032554068276,0.0013616746431505567,0.006016786560749846,0.47524721249015295,-0.16243376146233918,-0.6691049519346985,-0.7254011772919577,1.8551268376839234,9.583226168105826,-0.0064309742550936605,0.0025127385519653923,-0.007907591295697406,0.30806509538798466,-0.37791427016281504,-0.7199745135294018
0.4513591206096277,-0.14536314855567567,9.701096340424339,0.0017994064069207763,0.0008992910054159194,0.010043867694783246,-0.3553225441638018,0.010173530858452837,-0.4700723491962011,0.04862666234664735,2.3582791944996746,9.541964668076695,-0.00884854193489163,-0.0036116935515275,-0.0102365672623355,-0.8086182322938654,-0.03611391306219532,0.6190371431459344,-0.08305261674489926,1.8966353878526951,9.55054724148709,-0.006952834141247087,0.003019224020339048,0.002510934829762932,0.9561389730700828,-0.15229654062127,0.8453971525805378,0.2595654073344784,1.8985598074649508,9.716763506380914,-0.00480700954029501,0.00474596459564158,0.005963252915685314,0.47653222055203587,-0.1603897910037293,-0.6613263119478354,-0.7046341415110727,1.7911305772362731,9.606769191862172,-0.009216640324900131,0.00433946399368104,-0.005914426799696704,0.31150656509908153,-0.3761930728909792,-0.7126643735048176
0.48264123171888923,-0.15892838756834052,9.791609335806644,-0.0024157742036986017,-0.001865657315470661,0.014150880989464055,-0.3534261973209688,0.02288097183540009,-0.47470077954234213,0.08451895635699397,2.328290570508646,9.52420070793827,-0.007711975760127393,-0.004934470326000616,-0.013630050861131329,-0.8088852344244247,-0.0357672181545879,0.613169087803377,-0.06666154677224682,1.8931892923433176,9.51995025791204,-0.002757761222308518,0.0019083622621199866,0.002166085066946291,0.9553525437383114,-0.15211487349959926,0.8385661156926976,0.26682206528575214,1.915770144358519,9.71583983306848,0.00037328223831707474,0.003529549658428783,0.0048199652051899985,0.4762501515029201,-0.15971499853887575,-0.6662155481029938,-0.6956989237139937,1.7958521447035336,9.675647301973958,-0.003073283524150866,0.004713324135743166,-0.00735466178499078,0.3119665582674018,-0.37375694291802686,-0.7195044086684685
0.4821146911867399,-0.16128370016738158,9.774707170394223,-0.008457854669236578,0.0034441350586195667,0.009171490505477317,-0.3536220268827434,0.0199392006870005,-0.46909000568366815,0.06479814911890139,2.34326211865098,9.511809046867219,-0.010794444730145939,-0.00244187641661694,-0.009420172638216063,-0.7927551035159196,-0.032139600420867005,0.6201042993684615,-0.08884172264896252,1.9468870680548174,9.532161654749235,-0.007537867040314618,0.004309622735080141,0.0024924506743000756,0.968170707581384,-0.14821854061895712,0.8491644028550354,0.24716930716970092,1.964519464089286,9.681691559946412,-0.00667309717215319,0.0019329874312660042,0.0076921711968447985,0.4894881782232094,-0.1564875769505538,-0.6600084848324816,-0.7181988517939741,1.855991298274307,9.590126747379248,-0.009649834748465353,0.001070241400393335,-0.006503733364168209,0.3259074571509205,-0.37128728205051736,-0.7114993540453571
0.45359627903522054,-0.1556003623655271,9.712682180125896,-0.005326213702906761,0.002728351786548798,0.009979186095058266,-0.348304421936142,0.022402512293979982,-0.4754744657672461,0.056636626011772606,2.3673191509255136,9.560203489499754,-0.008882640421189048,-0.0037416176238988276,-0.011145592030232765,-0.804994873316426,-0.038587974666367215,0.6071165428716457,-0.09342510688343186,1.893777237302427,9.546608905193926,-0.006416498637911352,0.003321251437132658,0.002318438940542974,0.960631404928018,-0.15734718079017754,0.8332043306394928,0.24805977480309893,1.9117042502724217,9.728892777683594,-0.003320510248412358,0.00635110227723242,0.0055626709910187614,0.4796043671035089,-0.1615214349551646,-0.6740332699053267,-0.6983570915468458,1.792328498165592,9.59997264919743,-0.007871973466000938,0.003075689779922952,-0.005700991153146501,0.3143944350001021,-0.3771762225601931,-0.7246367838787859
0.4835059152649936,-0.17222531521761228,9.752543166318771,0.0016223041226810595,0.00038787403752472705,0.012071304861718401,-0.35143759522232576,0.0223871232346415,-0.47032343282854366,0.06031424965911409,2.358802575624289,9.524932756087376,-0.010321665777097746,-0.003266672219635556,-0.010829555817084582,-0.8110714583440778,-0.031476589725658435,0.6191790417680924,-0.0760062428367412,1.9177533376908618,9.52075923048637,-0.0013437861185262867,0.002471214082512906,0.002359781308944952,0.9542577956541145,-0.1463961145437764,0.847550072373211,0.24786183247749421,1.9421309155410125,9.71212805175476,-0.0002450361169508199,0.0028133078740516853,0.005826342429619842,0.4736360018371537,-0.15448909338759365,-0.6581988941953604,-0.72195179119488,1.8422605730209982,9.680698973888655,-0.004452078702456902,0.006324501650791007,-0.006053301008232739,0.3078305311717801,-0.37156122799558083,-0.7143647729962024
0.47265909914513593,-0.16292112844669362,9.769184779990344,-0.0012058850025743674,0.001283600354148452,0.00858447368750095,-0.34486574952494425,0.02899093194791512,-0.47158228135330715,0.0719347647759724,2.3586235956127504,9.518286000820757,-0.0110426771293928,-0.003029703168085858,-0.010671520066479551,-0.8064645498867877,-0.03539616909324573,0.6080226946039292,-0.08919649991973105,1.9400351806213054,9.549502432808094,-0.00949022065521681,0.00344273172141887,0.002488287404949937,0.9573110958717885,-0.15067945838083413,0.8375583007407983,0.2527651866076924,1.9487454896638727,9.698102348048812,-0.007199637287470927,0.0019104602855220928,0.0067324582008580726,0.48011035040315986,-0.15784321325668582,-0.6726154349229279,-0.7099907593342479,1.8350904036851567,9.616993892399622,-0.008941905977251974,0.0009609717806416652,-0.0068521497889929275,0.31389965631660344,-0.37498090160617203,-0.7256141486843682
0.4446645373390706,-0.155117467777238,9.724054499330432,-0.0025557510038940728,0.0029980551195946436,0.012723816224150945,-0.3572634573638538,0.016755495341609535,-0.4671144720026165,0.052507750360600645,2.3311604612773342,9.545258770874643,-0.008199725338498479,-0.004106473476586281,-0.01221068601509675,-0.8118138402770065,-0.028567853620197425,0.6183797844037544,-0.07463671982152983,1.8953712660498963,9.55205568341269,-0.00334279412137605,0.0031987609768610787,0.0021476009114834342,0.9515636148546907,-0.14590041448168592,0.84585781906225,0.25906683208372533,1.9033917938293878,9.731078889278107,-0.003475503818878916,0.0039804303825596654,0.005923858976592368,0.47483165176950676,-0.15233736821671084,-0.6618959733165388,-0.7005118829781334,1.7865181329198239,9.614438025086027,-0.0064380405396935415,0.004257767041655265,-0.005786236153861738,0.3095317052855361,-0.365210201887015,-0.7138889547504386
0.47176630242177386,-0.1649335413900069,9.769193788671656,-0.008027058821812186,-0.0007080756403708273,0.010085671695959602,-0.3563716569091814,0.02165983250767979,-0.4768769313193332,0.06582350999856766,2.353029444358344,9.534904750917816,-0.008435233165012029,-0.002695662286081091,-0.009540868634001895,-0.8086622382655769,-0.02845643776364441,0.6125046942539387,-0.0895059580521078,1.9211660595003246,9.523879598406216,-0.0038801645493314486,0.0028947226324287805,0.0023381257347320013,0.9542188141570324,-0.14572186952040553,0.8419279799610087,0.25063222571950394,1.9478548131314686,9.712270942127411,-0.0035305552084404826,0.002967776897167349,0.005613193138383314,0.47796870528577573,-0.15337019166987548,-0.6663037733290911,-0.7166171949042214,1.833214406769644,9.638844435418275,-0.006927874040456559,0.004422334049201674,-0.006511656612325286,0.31121559475432814,-0.36643593997380375,-0.7214618160590515
0.46819304678153273,-0.15983538927300583,9.757592132836328,-0.004935499377749085,0.0036428696106623718,0.01100397264136689,-0.34754558934257546,0.025080725786908984,-0.47156892731765504,0.06095382149578958,2.349681551103902,9.527182842433328,-0.011476933769071869,-0.003945451746561734,-0.011353143651689199,-0.813521846227661,-0.03526768781490761,0.6141505873835245,-0.0923586261367626,1.909153560207502,9.545429137532116,-0.007220953142041233,0.004029760305104608,0.001441649265198738,0.9524796955635816,-0.1510511645651648,0.8444381361003388,0.23763713347978566,1.9296406272680544,9.692219222400308,-0.006287556194310465,0.003145734427146164,0.0063567297423483,0.4726068652606033,-0.15748925675843653,-0.6642600939656251,-0.7082092916971994,1.8060504621878186,9.61639457955199,-0.009232705192912766,0.0029318505055379138,-0.006526015050085212,0.3090420626070637,-0.37278345714304734,-0.7175419266740094
0.4597826140582309,-0.18289795773127063,9.713721666648757,-0.0006134867442032115,0.002601181919514305,0.01267057893848102,-0.3511322926758025,0.022859647957936106,-0.4625116366368244,0.08557298345392099,2.337977836554917,9.537074214392524,-0.009827764867274408,-0.0039604092245207195,-0.011322891260093334,-0.8103381511280889,-0.029487160554995943,0.6205940170689,-0.08074180246958343,1.9144560787494118,9.545671890489606,-0.0029558717415371157,0.0015601194983694752,0.002933345257277042,0.9542423819720575,-0.14931077960711137,0.8490452696802513,0.2580949553976831,1.9310892007959217,9.714887438786032,-0.0023358265378274796,0.004053867224593778,0.004580946944742455,0.47605247323999883,-0.15428643757689284,-0.6613944989239868,-0.7007028484816583,1.8217042286107745,9.630404849072148,-0.004963978384587511,0.0050894490474392646,-0.007387296054096351,0.31125398661960046,-0.3705772140450871,-0.7124248937881013
0.4833452164976717,-0.16254257930472002,9.768726638663956,-0.0002553731538157073,-0.0028191448955784447,0.007707566257259435,-0.348238735060567,0.015063664391922197,-0.4686546529615425,0.08223708802736003,2.356251353338554,9.525769908838392,-0.00900431767544257,-0.002259671782865514,-0.010860605767333326,-0.8113304679497368,-0.03207146815341685,0.614798981645176,-0.07647499488723553,1.9045590568953992,9.55531457665459,-0.005539903302769465,0.00357906501027601,0.0027026703550714357,0.9551743705651936,-0.14696450197094735,0.8407118436431222,0.24905335220432862,1.944552255258527,9.712973281731129,-0.005523304698940128,0.0026746420503980903,0.007636433467588661,0.4752675981007539,-0.15777494802516293,-0.6674508528492545,-0.7033612788152507,1.8205642535604591,9.61688931896615,-0.008183839420712529,0.003644949432804752,-0.005984432635454084,0.3097659366100592,-0.3696095405834799,-0.7187685749939001
0.46438805510220243,-0.1532996416553718,9.779805372410932,-0.0067248413118922365,0.005610258450023026,0.013372260334506383,-0.3552955629574592,0.027737598916808326,-0.46320068525971814,0.054509927057609237,2.3484732493518927,9.532518293899294,-0.00825791204431478,-0.00578405673019819,-0.010998871369836538,-0.8098669815517182,-0.030091916630856624,0.6157223414517216,-0.08710623636329723,1.9073211337811362,9.534299144492607,-0.006492753506546642,0.0023479057346160676,0.002805102416059577,0.9549611185214131,-0.14788794370376043,0.8456064917338353,0.24376085709855813,1.9034385729737544,9.730621983965063,-0.0050459337687036405,0.004579186325670254,0.0043419246880445584,0.4772440592992022,-0.15481952246407932,-0.6650599009710433,-0.7178764991577837,1.8026549391193747,9.624755319770758,-0.009351535167077697,0.005313415756199204,-0.0057548857521833715,0.3105083590674683,-0.3696056136182133,-0.7158412011753249
0.4466538487703861,-0.15652159135423305,9.701141075535423,-0.0038656057939513338,-0.0007863707218785404,0.009480432423341359,-0.3534632195455807,0.029235887957376246,-0.4781057022195159,0.07588134103756217,2.3576059700702774,9.53047736916343,-0.010281396528864053,-0.003008462569010601,-0.008993358070661057,-0.8138038792599868,-0.0312942010805984,0.6067301309594934,-0.07550671511689719,1.9125809399935654,9.534554478513067,-0.004024366210378172,0.0032841675605375397,0.000991185673362629,0.9494846520932592,-0.14821173004592886,0.8329574178204643,0.2488945214604283,1.9408456631157043,9.699786889181171,-0.003482669305102143,0.0033151250770009307,0.004629626576208812,0.4747229511295617,-0.15493645271660456,-0.6752938316876848,-0.709985392543984,1.8393074345944282,9.632636909068658,-0.004494213134739928,0.003524264467259147,-0.007271456337237108,0.3075356701582135,-0.370109793792628,-0.7280372175741546
0.48576216124949,-0.17272248012461494,9.780296165852382,-0.002955167864376581,-0.0018217311916063283,0.010838143907463332,-0.3473574237068595,0.026071979885683473,-0.4784046401557721,0.06731945262004156,2.339447266249147,9.5382349940746,-0.008690459608517645,-0.0032814353704500657,-0.010789238513550554,-0.8076658370106725,-0.03378240959846887,0.6143382990515658,-0.09152887415049127,1.9107574787037678,9.541903585930083,-0.006078273653804213,0.003275036090175757,0.002893203241653768,0.956662878859774,-0.14718967786926493,0.8438762829096879,0.24992466959607534,1.9289209526883477,9.708152210277358,-0.003754167163085619,0.004129584202922436,0.0065783457056149885,0.4799129137467016,-0.15728580410606696,-0.6667608747511051,-0.7229913076899136,1.8003633018871548,9.597733551796113,-0.00817983849639086,0.003641954476200032,-0.005985443990736916,0.31221480193510776,-0.37253392897148563,-0.7177974611098102
0.4691407487055858,-0.17305413599885217,9.752291597574576,-0.005390550841124823,0.004426343460251956,0.011406191353871512,-0.3504407485701872,0.02018620255420296,-0.4681377455429198,0.08067806375125611,2.3611165013478463,9.52797263377678,-0.010022764145798632,-0.004289209609012564,-0.010747111277345539,-0.8083909516383484,-0.037462779787917504,0.6136960833204066,-0.08316435872210892,1.9218110469031093,9.549307412826414,-0.005200652734727609,0.0035338606881405283,0.003279416071434851,0.9568273597693604,-0.1538049172983842,0.8417447167423339,0.2692154969834183,1.931949466231158,9.744472297535413,-0.0024266439091686636,0.0033600920522536127,0.006542029863771392,0.4767293464127581,-0.16241022075774467,-0.6669196009627286,-0.7008932871801854,1.831153025748214,9.617975321657251,-0.006070045768132564,0.003324130379042842,-0.007024653058756741,0.31075592338113256,-0.3771753560370577,-0.7180317902794126
0.47088550957490527,-0.12731567222550932,9.721634534845679,-0.0031949418424605663,0.0008375990937707933,0.010008418125828328,-0.35321998617352496,0.029724269612365933,-0.47810664338261,0.07741943181121004,2.34381752007188,9.544053422802605,-0.009965535862162398,-0.004031220804225377,-0.00892197437832768,-0.8062298361312936,-0.029746043211158896,0.6093516806721611,-0.08125058803492467,1.9008184646707809,9.540063661046114,-0.007616156756648921,0.0033342755292569072,0.002977151147179053,0.9610186862351356,-0.14727874561108004,0.8392022518821791,0.25435125798893543,1.924953967366092,9.71620415343744,-0.005900005946430252,0.0043594899265884625,0.005022260786942608,0.4803834684454185,-0.15244134062591302,-0.6699959730285877,-0.706117414489754,1.7991062653693912,9.624381891884429,-0.010097611682323074,0.0026194493747180867,-0.00662963598444904,0.31561527458000466,-0.36667216420897264,-0.7202562383791593
0.4734585754154042,-0.1682395852438916,9.76315243177513,-0.002584008386289687,-0.00037968392403743133,0.014038229581304478,-0.3556081082761111,0.02629005871774906,-0.471991435671139,0.06775933311941296,2.3396448088245285,9.527989605693618,-0.008648965260533773,-0.005017069566552195,-0.01288437530059008,-0.8088829656984802,-0.02855458558075611,0.6186126667003697,-0.07649204543273588,1.9041537942169222,9.552185609821858,-0.0037603180855817864,0.0022686386395095234,0.002057555495866615,0.9535486525719848,-0.14394845315576504,0.8475307121380408,0.2508659557636267,1.913801287513948,9.703221550751005,-0.001616493834242616,0.003234374779351029,0.006840206025446425,0.477253176596282,-0.15383207696647022,-0.6640945133472643,-0.7131001887615569,1.799531287448577,9.632222386747719,-0.004785003177747439,0.005496146086385214,-0.00694232257865186,0.31052152493899854,-0.3691128440364193,-0.7119356971362687
0.4779820969844445,-0.16333221531367198,9.757118252296324,-0.004862898997942441,0.002476495998396092,0.011730053064915716,-0.3514665570698561,0.026055055748544036,-0.4732448566740075,0.08391897999471062,2.3477798933265337,9.517662496755928,-0.010291367848524498,-0.0030093196692156533,-0.008986298455695091,-0.8054620434660884,-0.038454493118718,0.6127327279405073,-0.07750054711294162,1.9332768213894287,9.540665662049822,-0.005201670158577115,0.0035328599364872065,0.0032784345701160392,0.9592530729744833,-0.15481234710442726,0.841003208392827,0.2527605992069328,1.9553770785442472,9.713453762214204,-0.005145897895863491,0.0032221324888157686,0.005010767014127239,0.47917797059251915,-0.1636196636218071,-0.6657033733586766,-0.6970550578439672,1.8436746274629499,9.61881658027392,-0.007111914747641879,0.002606039070727093,-0.007569255576615035,0.3161200290378408,-0.37839064956563956,-0.720491724860465
0.45351844972823924,-0.1617212174369008,9.740456309469481,-0.0019398911317060968,0.00135062786511541,0.009481471076109542,-0.3526528623576013,0.018723217413211292,-0.4703212143585364,0.05318960965119019,2.3533130291391613,9.524545744272165,-0.008273158296117921,-0.002365441958149859,-0.010095554375565483,-0.7969070048581356,-0.0415942385969181,0.6132644776453124,-0.0891590892255224,1.9087933486695874,9.555063558749895,-0.006372914022282455,0.001722801098177883,0.0025225220000453397,0.9648675059662342,-0.15414338217618634,0.8399734331232062,0.25149328855654846,1.9231415828504808,9.730564299087508,-0.005427547018584425,0.0033703147681019303,0.00566728874550868,0.4887129634497628,-0.16239778482405123,-0.6643281994002602,-0.7038627788711767,1.7912331206046068,9.617585421128208,-0.009071813588425183,0.0019339271885213554,-0.006696625556678682,0.3229737237642707,-0.3786196750919434,-0.7156328631722496
0.47663845039784486,-0.16689735099986602,9.72334455569099,-0.004338239112118546,0.0005266417947444086,0.012054938565837376,-0.34719349190397636,0.021636859862305097,-0.4586392793763117,0.06987282625438523,2.354457872038487,9.52612188275172,-0.010782861720749937,-0.004181081622377911,-0.011494106602002584,-0.8054380722199046,-0.04127823740375836,0.6171956899157046,-0.07904858820313622,1.9170889901991037,9.538760430531969,-0.003983773087523937,0.003747491237137916,0.004243374531513159,0.9563259746853727,-0.15671247663466495,0.8434878279561011,0.25589011779526954,1.9621391575104845,9.71339758873628,-0.0008623872972226513,0.0020960174123202083,0.006828724050424025,0.4767588431814883,-0.1643141723143592,-0.6627469750016939,-0.7211614779405654,1.8384705062567175,9.628351463681556,-0.004017426574299147,0.005103721771526734,-0.004419658448224142,0.3134488540917937,-0.37716943924314333,-0.7160883669649677
0.46155272819108634,-0.1627950423760816,9.77978662513795,-0.003085162948219684,0.0010386613392178055,0.011531005255629135,-0.34903044315362425,0.021666877714959735,-0.47473816626438375,0.07014987600997206,2.3521316594134154,9.526694825380515,-0.008918565244828074,-0.0037371581694754536,-0.011122559003667619,-0.8057031203965453,-0.03570648408494827,0.6153534748309796,-0.08188834684047094,1.9050900896538674,9.560282722268381,-0.006739561421507035,0.0035920891024002585,0.003361382561707514,0.9585906223105068,-0.15158159307153524,0.8458588418733062,0.24891131221919438,1.9323972682147108,9.722776627058478,-0.006697039410812671,0.00515442008888708,0.0060112237254405345,0.47968048715143735,-0.15653519665507679,-0.66530275770082,-0.7216819375711152,1.8260004362833304,9.607238209488235,-0.009174585013428282,0.0025684745656130064,-0.00804988150454255,0.3132053949808845,-0.37521586551766256,-0.7151123795877816
0.463370225021234,-0.1735094387889483,9.740700126883688,-0.006673843915967538,0.0025459092043683316,0.01112856049578811,-0.3536036841744484,0.023107243631370955,-0.4661536229688851,0.06470907479766708,2.3415685025614543,9.554685636345706,-0.009134701757554244,-0.004194066200942821,-0.011464898102584447,-0.8098629847454033,-0.030562191450024416,0.6164668269250492,-0.08548760379138655,1.909885821249185,9.527395994719614,-0.0038355543497678355,0.0012972833182954247,0.002544190209486989,0.9566591766444408,-0.14695323181406705,0.8431408207715849,0.25679391406373603,1.9168439490799547,9.7251255259607,-0.0019164347028541866,0.002052011798186767,0.004913293662076235,0.47481656102186237,-0.15601349939066408,-0.6630736476608396,-0.7139033112476962,1.7991694595865269,9.647203696198847,-0.0046100294454473,0.00590383711984651,-0.0064973358212756195,0.31221995506983036,-0.3696023409093408,-0.715114290992376
0.4621662427019699,-0.1535935892208526,9.745276265928329,-0.003873264310701211,-0.00025879604522365365,0.011642636693911947,-0.3532139542812372,0.0245977817084903,-0.4783611043574023,0.07284232528621731,2.341234777120104,9.51577801929171,-0.009795474375564293,-0.003703099588660481,-0.009481640849247868,-0.8139874005689796,-0.04207364449082526,0.6155369833878505,-0.08369664971343665,1.9190584022883446,9.546664807308114,-0.007815292859812237,0.002985021740684976,0.0037424299222571828,0.9526588859032484,-0.15451377500354843,0.8403218916015066,0.2640079036438752,1.9431131019854928,9.702512253000709,-0.0076550644895853615,0.0035747000590112977,0.007362468549908639,0.4718586976368473,-0.16189614902547075,-0.6654224216963093,-0.7033988582102414,1.8137101189932683,9.626195132102245,-0.00921471123342752,0.0029168698247459975,-0.00653406468517346,0.30831727980186574,-0.3781557828297607,-0.7177781629988397
0.46751887887043597,-0.16998165040006216,9.734663125448975,-0.0033796575737999146,0.0028600842861281734,0.012082060029651384,-0.3587389190697698,0.020417669342321948,-0.46782734179639485,0.061665828853364246,2.336481308143119,9.523626801755968,-0.00985869300564446,-0.0039590082076544336,-0.011302804264083395,-0.801801084729358,-0.0419266629138903,0.6101156719530567,-0.08448777584979206,1.8740196144420278,9.51595731112606,-0.004345360325334263,0.0035580374514333464,0.0020390816896849904,0.9592014892275167,-0.15970239252020008,0.8403218069335331,0.24486353294549956,1.8862005273116131,9.713486807959944,-0.004276718504517128,0.004110026851118029,0.005616566310140884,0.4793934463010187,-0.16609929017800992,-0.6688501492262624,-0.707411294183707,1.791932802385471,9.605104290110456,-0.006488237286130681,0.0031975558895278385,-0.0048840279741427985,0.3141651725629943,-0.3788822867696082,-0.7212162978536303
0.47061023652537104,-0.17709400286536806,9.76313308876575,-0.0048248614543405935,-0.0005878838147453943,0.009491456293255467,-0.3500072519280667,0.01971334152228843,-0.4752223872491578,0.07649212077615375,2.3652594699587466,9.557571495013292,-0.008713408990364118,-0.003279134338819063,-0.010774204181962553,-0.8147535997101439,-0.03186547843395498,0.6135853761959598,-0.07120011796028637,1.920366948565869,9.563684856479076,-0.0016648082555372158,0.002742084264956905,0.003407708373111009,0.9488089045661239,-0.1486160168788504,0.8405367376076414,0.25345035726841525,1.9471829838624783,9.736384234519914,0.0003903974606274151,0.0041927683352733554,0.006108143785919316,0.46988364564947344,-0.15510641884603096,-0.6696384197676531,-0.7158993246873536,1.8252289856039352,9.614375422255542,-0.0037572030441614663,0.004811627865816355,-0.007008320238533864,0.30585866308722315,-0.3723015782442152,-0.7199720785671921
0.4665072365410321,-0.14884102040056973,9.756145790577444,0.006376157465740545,0.0011739983589373851,0.008285006809007067,-0.3538641625876849,0.01749832067558596,-0.4693370442844363,0.058329381524592466,2.4017112862327674,9.541840804271787,-0.009447506253038342,-0.004597914243018197,-0.008500177187132736,-0.8049841269113288,-0.03355511937640333,0.613345610229209,-0.09070041822784874,1.9550093368355408,9.566378325329504,-0.0052027050831967795,0.0035308490088485182,0.0032764635041446486,0.9578618403666258,-0.1489175491256214,0.8431511875873028,0.2434770917879877,1.980568245514219,9.6906811873775,-0.0043695436323490005,0.0034162431044738534,0.007576664932286048,0.47943729352557324,-0.15726487733284775,-0.6650482307497386,-0.7371561372833642,1.8527878501142956,9.666253826501986,-0.007611802879375545,0.0045126320003692575,-0.0061713073456742965,0.3163655066070569,-0.3730166991545536,-0.7178117676327836
0.46506562818911273,-0.15042488493186126,9.705517326720576,0.002687010056765576,0.003431965881944308,0.015780149306645067,-0.3551715755464784,0.023864204117412552,-0.47908006534364866,0.06858431981390162,2.359122012950639,9.518246457004219,-0.011765074585567739,-0.004530756620561882,-0.012578395900959024,-0.8071740326814639,-0.030288052690202783,0.61742656268983,-0.08297186420501014,1.9089284433323666,9.540364417517235,-0.005618201179188979,0.0026037075312846784,0.0031863709140166037,0.9564662377716159,-0.14085504543948496,0.8423476792128364,0.24421148821653516,1.9279392165778868,9.737707413774102,-0.003184928640350827,0.0038351155840604333,0.005257232638258443,0.4753038652731314,-0.15017008765683407,-0.6643674559447954,-0.7115468040724977,1.8082423373599474,9.662119652951327,-0.006204941014273293,0.004303084064147419,-0.006863116824466099,0.3126927485405543,-0.3664304417415327,-0.7180490553787107
