# sampling frequency: 40
# units are seconds/meters/radians/a.u.
seg1_acc_x,seg1_acc_y,seg1_acc_z,seg1_gyr_x,seg1_gyr_y,seg1_gyr_z,seg1_mag_x,seg1_mag_y,seg1_mag_z,seg2_acc_x,seg2_acc_y,seg2_acc_z,seg2_gyr_x,seg2_gyr_y,seg2_gyr_z,seg2_mag_x,seg2_mag_y,seg2_mag_z,seg3_acc_x,seg3_acc_y,seg3_acc_z,seg3_gyr_x,seg3_gyr_y,seg3_gyr_z,seg3_mag_x,seg3_mag_y,seg3_mag_z,seg4_acc_x,seg4_acc_y,seg4_acc_z,seg4_gyr_x,seg4_gyr_y,seg4_gyr_z,seg4_mag_x,seg4_mag_y,seg4_mag_z,seg5_acc_x,seg5_acc_y,seg5_acc_z,seg5_gyr_x,seg5_gyr_y,seg5_gyr_z,seg5_mag_x,seg5_mag_y,seg5_mag_z
-2.697954,-5.846377,7.217002,0.001111,0.058794,-0.033193,0.444336,0.664062,-0.785156,-2.916426,9.076762,2.527726,-0.142432,0.028666,0.245417,0.250732,-0.95166,-0.13623,-1.731982,-2.027318,9.368222,-0.283231,0.150304,0.033375,0.017578,0.186768,-1.039307,2.94175,-3.744571,8.925917,-0.555274,-0.034258,0.195259,-0.391357,0.19873,-0.898438,-4.908894,-6.613395,4.987255,0.451919,0.05448,-0.002812,0.589844,0.521729,-0.625
-2.60586,-5.494702,7.278127,-0.104934,-0.009199,-0.024922,0.435791,0.657471,-0.773193,-3.00006,8.683396,2.603901,-0.244384,0.016073,0.190616,0.240479,-0.962646,-0.130615,-1.803228,-3.164845,9.200384,-0.598793,-0.016564,-0.004109,0.010986,0.19165,-1.027588,2.691502,-4.440186,8.764259,-0.169073,0.142372,0.057885,-0.394287,0.195557,-0.889648,-4.70977,-5.687031,5.335877,0.066482,0.172589,-0.029413,0.584961,0.516113,-0.610596
-2.380444,-5.995969,7.24325,-0.276655,-1.4e-05,-0.040232,0.437744,0.672119,-0.770264,-2.759685,8.563849,2.873806,-0.11377,-0.011971,0.177481,0.236084,-0.957275,-0.135498,-1.503266,-4.155205,9.079345,-0.310863,-0.074279,-0.018634,0.010742,0.209229,-1.025635,2.413592,-3.538342,8.836247,0.049001,0.223405,0.017487,-0.386475,0.201416,-0.894043,-4.865316,-6.130687,5.187014,-0.522929,0.279403,-0.036823,0.590576,0.529785,-0.603271
-2.380577,-6.373117,7.200472,-0.070278,0.040898,-0.06029,0.44165,0.665283,-0.769287,-2.746052,8.826008,3.002224,0.080104,-0.007419,0.228627,0.236328,-0.963135,-0.134766,-0.921254,-3.729759,9.111865,0.14748,-0.057043,-0.030692,0.01416,0.19751,-1.029785,2.002466,-3.149711,8.848389,-0.068762,0.128405,0.08006,-0.378906,0.196045,-0.897217,-5.167042,-7.267037,4.786615,-0.438843,0.294628,-0.04734,0.599854,0.53125,-0.593506
-2.273218,-5.944649,7.370148,0.024082,0.073399,-0.090321,0.438721,0.671387,-0.762207,-2.478311,9.129711,2.78074,0.012439,0.015908,0.295897,0.226807,-0.956787,-0.126465,-0.872955,-2.555092,9.082184,0.145863,0.151994,0.003162,0.014648,0.200439,-1.023438,2.255132,-3.286527,8.873994,-0.132323,-0.080017,0.0803,-0.383545,0.205566,-0.887939,-5.188074,-7.403793,4.714294,0.161359,0.180006,-0.043346,0.600342,0.537842,-0.587158
-2.464575,-5.844015,7.322709,-0.161393,0.129981,-0.078158,0.44043,0.677979,-0.768799,-2.559427,8.97107,2.727602,-0.100151,0.094357,0.26743,0.219971,-0.961182,-0.138184,-1.69226,-2.359716,9.075169,-0.260682,0.145936,0.052513,0.014893,0.206543,-1.03125,2.540828,-3.512774,8.876487,-0.213536,-0.088981,0.092305,-0.388672,0.211182,-0.893311,-4.96212,-6.354187,5.008784,0.324763,0.154004,-0.081145,0.597412,0.533936,-0.596924
-2.72439,-6.396392,7.115884,-0.094337,0.070021,-0.127685,0.448975,0.675537,-0.766602,-2.784983,8.944,2.690976,-0.120868,0.102872,0.207856,0.222656,-0.962891,-0.141357,-1.62779,-3.258549,9.171778,-0.508986,-0.017293,-0.007082,0.026611,0.218018,-1.026611,2.570093,-3.723829,8.8231,-0.270241,-0.007571,0.081566,-0.37793,0.217041,-0.892822,-4.852259,-6.152867,5.024942,-0.224488,0.264367,-0.073023,0.611328,0.534424,-0.588867
-2.653734,-6.017405,7.319696,-0.017133,0.056504,-0.070793,0.443604,0.674805,-0.764404,-2.762468,9.065902,2.777517,-0.065826,0.066378,0.184447,0.210938,-0.967041,-0.141602,-1.666172,-4.082365,9.04465,-0.250233,0.017898,0.063635,0.02002,0.22168,-1.022705,2.38233,-3.880765,8.740182,-0.137638,0.056926,0.074562,-0.383057,0.218262,-0.887695,-5.117229,-7.302323,4.627909,-0.552272,0.371538,-0.050756,0.608643,0.543213,-0.573975
-2.574064,-6.053208,7.317819,-0.11386,0.003746,-0.10277,0.442627,0.683105,-0.762939,-2.550537,9.223019,2.667921,-0.081127,0.040849,0.174926,0.210205,-0.962646,-0.141357,-1.400556,-3.403433,9.196822,0.106258,-0.103037,-0.101577,0.015137,0.222168,-1.023926,2.543075,-3.567209,8.761946,-0.0462,0.030696,0.099367,-0.381592,0.22168,-0.89209,-5.342387,-7.865456,4.33218,-0.004849,0.308411,-0.016989,0.614258,0.548584,-0.572998
-2.5481,-6.282654,7.390072,-0.107738,0.043831,-0.082522,0.437744,0.685791,-0.764648,-2.458011,9.212748,2.655887,-0.171499,0.092533,0.164968,0.196533,-0.962646,-0.148926,-1.005772,-2.479082,9.279067,-0.093808,-0.00318,0.03649,0.009521,0.227051,-1.025635,2.684079,-3.381971,9.00032,-0.268862,0.085259,0.072663,-0.386719,0.230957,-0.89209,-5.266799,-6.848262,4.573804,0.406716,0.248439,-0.014577,0.610596,0.540527,-0.577393
-2.509706,-6.315467,7.475642,-0.084603,-0.015104,-0.092997,0.436279,0.682129,-0.758545,-2.41111,9.01639,2.629845,-0.135052,0.130005,0.119024,0.195068,-0.967285,-0.148193,-1.572987,-3.089299,9.125131,-0.43784,-0.038816,-0.037289,0.008789,0.230713,-1.021973,2.654419,-4.426502,8.813441,-0.450426,0.104481,0.125248,-0.380127,0.238037,-0.884277,-5.332933,-6.125647,4.782757,0.005359,0.29564,-0.031741,0.615967,0.538818,-0.568359
-2.546698,-6.247989,7.484946,-0.125246,0.026543,-0.095894,0.440918,0.693848,-0.757324,-2.43194,9.15631,2.747293,-0.096178,0.190099,0.041989,0.204346,-0.960205,-0.146484,-1.329608,-3.876286,8.874381,-0.256885,-0.187313,-0.060313,0.008545,0.243164,-1.018311,2.444889,-4.652723,8.601859,-0.018594,0.133098,-0.040506,-0.372314,0.243652,-0.88501,-5.479385,-6.727854,4.453419,-0.444411,0.254814,-0.089213,0.625488,0.550293,-0.557373
-2.323444,-6.463814,7.406873,-0.121771,-0.077582,-0.114809,0.443604,0.69751,-0.760498,-2.366936,9.198966,2.93058,-0.096202,0.184883,-0.010225,0.210938,-0.959961,-0.151855,-1.136691,-3.640674,9.039866,-0.021792,-0.11419,-0.157908,0.010986,0.243408,-1.022461,2.370043,-3.561523,8.953069,0.089228,0.139101,-0.028783,-0.36499,0.240967,-0.891602,-5.30599,-7.528332,4.03314,-0.246526,0.1624,-0.115677,0.629639,0.556396,-0.553711
-2.304917,-6.295122,7.406997,-0.015483,0.028839,-0.090478,0.446045,0.691895,-0.754639,-2.529575,9.168859,2.91135,-0.090537,0.201735,0.000245,0.212402,-0.967041,-0.14917,-1.358249,-3.657755,9.259405,-0.209347,-0.154458,-0.009998,0.008789,0.24292,-1.013672,2.00015,-3.685435,8.864923,-0.311857,0.11366,0.013539,-0.361084,0.240723,-0.883789,-5.39566,-7.471311,4.171046,0.083902,0.170837,-0.055329,0.633545,0.548096,-0.547363
-2.425144,-6.169444,7.387145,-0.076314,-0.018689,-0.079718,0.435059,0.687988,-0.752686,-2.605821,9.337714,2.833675,-0.013412,0.110376,0.055308,0.203857,-0.973389,-0.147461,-0.654237,-4.092974,9.296067,-0.216543,-0.105172,-0.081097,-0.005371,0.246094,-1.01416,2.016669,-4.405401,8.632198,-0.208761,-0.09513,0.068871,-0.369141,0.243652,-0.883545,-5.692355,-6.946461,4.308364,0.177191,0.063821,-0.061875,0.625977,0.545166,-0.553223
-2.45309,-6.422134,7.278355,-0.098288,0.030717,-0.06565,0.435791,0.69873,-0.75,-2.499363,9.492067,2.89529,-0.111583,0.122077,0.1083,0.201904,-0.963379,-0.147705,-1.086508,-3.983814,9.005468,0.013586,0.111005,0.007146,-0.002197,0.250244,-1.011475,2.470812,-4.137657,8.431312,0.010675,-0.079269,-0.048512,-0.37207,0.25,-0.879395,-5.370193,-6.693574,4.399307,-0.027086,-0.067955,-0.128431,0.623047,0.554199,-0.548828
-2.324364,-6.248842,7.327519,-0.052825,-0.024099,-0.057012,0.424805,0.693359,-0.750488,-2.439867,9.078224,2.796435,-0.248088,0.104302,0.073674,0.191162,-0.966064,-0.156494,-1.285158,-3.210522,9.018506,-0.000923,-0.004002,-0.099301,-0.008057,0.24585,-1.016357,2.210811,-3.536507,8.814002,-0.10703,-0.021337,0.052234,-0.380859,0.246094,-0.880859,-5.105171,-6.953689,4.375276,-0.198495,0.003804,-0.114953,0.612793,0.548828,-0.549561
-2.509596,-6.353398,7.153861,-0.13274,0.022455,-0.060541,0.444092,0.702393,-0.749023,-2.504921,8.797316,2.777249,-0.074431,0.150524,0.073091,0.209717,-0.962402,-0.155029,-1.023341,-3.460641,9.17775,-0.355152,0.056915,0.026532,0.01123,0.259766,-1.012939,2.233415,-4.307506,8.483871,-0.393029,-0.148922,0.057804,-0.365234,0.260498,-0.874756,-5.307751,-7.389374,4.321098,-0.19321,0.022694,-0.089977,0.628662,0.561523,-0.541748
-2.57576,-6.420443,7.056325,0.005101,-0.046796,-0.045704,0.430176,0.703369,-0.752686,-2.732791,9.376733,2.783881,0.065811,0.093235,0.073534,0.197998,-0.966797,-0.157959,-1.299322,-4.365968,9.078913,-0.245362,0.090828,-0.016698,0.003418,0.264404,-1.013184,2.573339,-4.625411,8.312905,-0.013645,-0.092962,0.01217,-0.37915,0.260498,-0.878662,-5.251367,-7.485201,4.255958,0.03272,-0.021494,-0.076032,0.619629,0.561035,-0.551025
-2.563156,-5.988447,7.231881,-0.040205,-0.068442,-0.042174,0.432617,0.702637,-0.750977,-2.462268,9.367128,2.817439,-0.227254,0.078939,0.081566,0.200684,-0.965332,-0.16333,-1.317701,-3.92571,8.849603,0.163366,0.065985,-0.0645,0.00708,0.26001,-1.015869,2.564542,-3.756444,8.614674,0.045526,0.066264,-0.05015,-0.370117,0.258301,-0.877197,-5.098058,-7.024612,4.388573,0.168918,0.016909,-0.03071,0.623047,0.558105,-0.552246
-2.351414,-6.297276,7.194116,-0.175535,-0.118115,-0.040814,0.422119,0.70459,-0.752197,-2.562382,8.60184,2.809061,-0.208054,0.102045,0.026856,0.193848,-0.966797,-0.164551,-1.400746,-3.067131,8.950543,0.017327,0.04986,-0.058107,-0.000488,0.257568,-1.01416,2.186804,-3.876124,8.632742,-0.215257,0.065625,0.070205,-0.376221,0.261719,-0.877686,-5.22114,-6.564089,4.543634,0.028342,0.092514,-0.034018,0.615723,0.555176,-0.547119
-2.276058,-6.501967,7.149821,-0.099998,-0.058535,-0.051803,0.433838,0.720947,-0.750488,-2.47656,8.972447,3.015181,0.048977,0.09965,0.011254,0.203125,-0.951904,-0.165039,-1.262189,-3.415906,9.152906,-0.391177,0.012125,-0.023722,0.013184,0.280273,-1.014648,2.127307,-4.294262,8.615794,-0.202684,0.005053,0.008596,-0.36792,0.280029,-0.876221,-5.446185,-6.674959,4.449097,-0.229657,0.083491,-0.074909,0.629883,0.574951,-0.546631
-2.519191,-6.277194,7.146613,-0.103121,-0.028,-0.050119,0.425049,0.727295,-0.757324,-2.739839,9.45262,3.021403,-0.15504,0.141292,0.057997,0.195068,-0.951416,-0.173584,-1.197067,-4.319952,9.179147,-0.303182,0.094594,-0.01197,0.008301,0.290527,-1.015869,2.47365,-4.145675,8.55048,-0.114741,-0.05582,0.028965,-0.374756,0.2854,-0.881592,-5.516497,-7.207913,4.252103,-0.285364,0.033073,-0.109208,0.621582,0.582275,-0.545898
-2.450493,-6.458488,7.037068,-0.113109,-0.057975,-0.067588,0.417236,0.717285,-0.749756,-2.5926,8.920732,2.815321,-0.245847,0.076888,0.079227,0.189209,-0.962402,-0.173584,-1.544715,-3.994692,9.462313,0.009071,0.071327,-0.092337,0.001953,0.2771,-1.013428,3.221116,-3.949789,8.680518,-0.191596,0.091223,0.02073,-0.379883,0.275879,-0.875977,-5.279298,-7.481584,4.183181,-0.060523,-0.006542,-0.092799,0.61499,0.570801,-0.541016
-2.260453,-6.164957,7.055979,-0.064866,-0.053885,-0.034843,0.419922,0.721436,-0.741699,-2.492764,8.864031,3.023611,-0.107893,0.098474,0.089891,0.191895,-0.957764,-0.17041,-1.597618,-3.555084,9.235759,-0.251679,-0.048713,-0.033655,0.004883,0.287354,-1.003906,2.878742,-4.30586,8.586575,-0.320651,0.482598,0.149633,-0.362549,0.290771,-0.872559,-5.071894,-7.040091,4.351713,0.122202,0.026298,-0.076287,0.616699,0.575439,-0.537354
-2.206128,-6.163624,7.101335,-0.236566,-0.057288,-0.043744,0.42041,0.717041,-0.746338,-2.514752,9.092675,3.185758,-0.189376,0.024292,0.060574,0.193848,-0.966064,-0.180908,-1.531136,-4.306753,8.654177,-0.444693,-0.115984,-0.011192,0.005127,0.29126,-1.007812,1.728256,-4.596704,8.617002,-0.201557,0.546227,0.106302,-0.344727,0.286865,-0.883057,-5.020145,-6.557768,4.45746,-0.068953,0.062561,-0.081315,0.620117,0.571533,-0.540039
-2.26405,-6.761892,6.923867,-0.242442,-0.064636,-0.040216,0.416504,0.72583,-0.742188,-2.415036,8.760011,3.081304,-0.285593,0.04137,0.055676,0.192139,-0.962158,-0.182861,-1.117828,-4.588088,8.46223,-0.108717,-0.151866,-0.031821,0.0,0.296631,-1.005371,1.371872,-4.386939,8.572641,-0.137477,0.330866,0.101374,-0.338623,0.292236,-0.883545,-5.064227,-6.996444,4.2926,-0.456521,0.124779,-0.095109,0.617676,0.580322,-0.530029
-2.30706,-6.817143,6.955232,-0.019078,-0.060949,-0.056871,0.412598,0.720459,-0.743652,-2.524236,8.818445,3.016418,0.02701,0.049921,0.060919,0.188232,-0.969971,-0.182617,-0.512728,-3.865542,8.769435,0.102511,0.003313,-0.049484,-0.002441,0.286865,-1.002441,1.496191,-4.482696,8.540765,-0.112324,0.107157,0.043212,-0.3396,0.288818,-0.878418,-5.306995,-7.853721,3.800898,-0.29833,0.139714,-0.053892,0.618652,0.576904,-0.520752
-2.104276,-6.428103,7.092245,0.019024,-0.083079,-0.078661,0.407715,0.730957,-0.745361,-2.212985,9.40307,3.099741,0.023058,0.068302,0.097141,0.184326,-0.957031,-0.185303,-0.938239,-3.5171,8.910903,-0.13126,0.191721,0.013385,0.000732,0.299805,-1.006592,1.933309,-4.489522,8.696396,-0.115368,-0.090894,0.021216,-0.343018,0.304199,-0.881348,-5.28137,-7.702295,3.887934,0.254468,0.009081,-0.047314,0.615967,0.586426,-0.528809
-2.055041,-6.323331,7.079765,-0.105494,-0.059323,-0.062529,0.404297,0.732422,-0.732422,-2.36082,9.061335,3.189176,-0.304572,0.121406,0.093235,0.183105,-0.960693,-0.18335,-1.485204,-4.097771,8.84587,-0.354432,0.120964,-0.029651,0.003418,0.30542,-0.993164,2.297302,-4.55853,8.709639,-0.208125,-0.047928,0.020843,-0.343506,0.306152,-0.871094,-5.032451,-6.629351,4.207712,0.35288,0.00276,-0.076848,0.614746,0.580811,-0.526367
-2.079907,-6.683039,6.966125,-0.195513,-0.051257,-0.072515,0.405762,0.734375,-0.740234,-2.395871,8.50256,3.124449,-0.157553,0.092389,0.073671,0.185059,-0.964355,-0.195312,-1.331732,-4.526782,8.998295,-0.226653,0.011039,-0.050069,0.005615,0.312012,-1.000977,2.121137,-4.673455,8.659844,-0.219603,0.018433,0.037137,-0.342285,0.308105,-0.877441,-5.167716,-6.294694,4.271951,-0.218507,0.065952,-0.1005,0.61377,0.585449,-0.531494
-2.177102,-6.769745,6.899128,-0.071208,-0.030337,-0.075094,0.404297,0.735352,-0.734863,-2.407891,9.163927,3.252631,0.047747,0.138965,0.093838,0.183594,-0.963867,-0.187256,-1.135678,-4.180198,9.205709,-0.067401,0.028622,-0.082613,0.004395,0.313477,-0.996094,2.525799,-4.504407,8.517314,-0.129132,-0.033532,0.002578,-0.341797,0.312012,-0.868896,-5.340008,-7.302146,3.935371,-0.502829,0.011802,-0.166051,0.61377,0.592773,-0.518066
-1.99251,-6.430378,6.973592,-0.078892,-0.057468,-0.099686,0.409912,0.744629,-0.739258,-2.185167,9.397501,3.038872,-0.244251,0.123814,0.111173,0.188965,-0.957275,-0.195557,-1.234469,-3.634512,9.433117,-0.141036,-0.060308,-0.08424,0.010498,0.323242,-0.998535,3.317138,-4.243986,8.637648,-0.266945,0.178408,0.047131,-0.331543,0.32373,-0.874268,-5.073259,-7.902702,3.767531,-0.054038,-0.091982,-0.166587,0.617188,0.600342,-0.522949
-1.803184,-6.333139,6.903914,-0.249975,-0.046948,-0.066734,0.401123,0.742432,-0.728271,-2.004722,8.89706,3.060561,-0.381246,0.225333,0.117542,0.178711,-0.96167,-0.200928,-1.027769,-3.568983,9.36364,-0.51682,-0.178756,-0.158172,-0.004639,0.327637,-0.988037,3.053256,-4.637219,8.469025,-0.571505,0.591519,0.128338,-0.319824,0.331055,-0.868408,-4.82422,-7.043418,4.149488,0.265325,-0.090108,-0.17842,0.605957,0.593262,-0.518311
-1.883606,-6.590014,6.843991,-0.393267,-0.000789,-0.061935,0.398682,0.749512,-0.728516,-2.359615,9.008706,3.632834,-0.395517,0.226837,0.130113,0.177979,-0.960938,-0.2146,-1.326976,-4.489793,8.359985,-0.957094,-0.133035,-0.135503,-0.007568,0.349854,-0.986084,1.542061,-4.89872,8.395384,-0.643574,0.805972,0.138856,-0.303223,0.347168,-0.870117,-4.770942,-6.341875,4.460214,-0.241,-0.067362,-0.227962,0.599365,0.601074,-0.521973
-2.171529,-7.228924,6.593736,-0.356291,-0.049618,-0.065416,0.397949,0.772217,-0.727783,-2.499208,8.395162,3.651976,-0.525741,0.152133,0.089824,0.17627,-0.946289,-0.227539,-1.631672,-6.176067,8.14637,-0.616397,-0.295003,-0.028704,-0.016357,0.376709,-0.980713,0.56311,-5.550651,8.07758,-0.47605,0.553039,0.151263,-0.289307,0.375488,-0.875,-4.552529,-7.548267,3.96638,-0.923508,-0.009215,-0.248252,0.595947,0.628906,-0.508545
-2.261675,-7.355057,6.623944,0.043728,-0.071506,-0.114939,0.391602,0.759033,-0.722656,-2.481968,8.136398,3.155172,0.130576,0.178254,0.09305,0.171387,-0.959229,-0.219482,-0.352594,-5.488054,8.255429,0.350267,-0.251178,-0.201471,-0.026367,0.358398,-0.978516,1.196363,-5.685309,8.130856,-0.033876,0.340608,-0.025807,-0.285156,0.362549,-0.872803,-4.88357,-9.135179,3.495164,-0.303897,0.150447,-0.0723,0.595459,0.621338,-0.498047
-1.988965,-6.584262,6.971653,0.086261,-0.097155,-0.129331,0.390625,0.754883,-0.723145,-2.420442,9.774666,3.598751,0.313281,0.185856,0.103085,0.171143,-0.966797,-0.210449,-0.754293,-3.688609,8.958443,0.225521,0.089342,-0.067426,-0.026611,0.346924,-0.983154,1.292738,-5.031444,8.440533,0.105135,0.379221,-0.04606,-0.2771,0.354492,-0.875,-5.3989,-8.23614,3.777056,0.721294,0.025009,-0.045021,0.594727,0.606445,-0.510986
-2.098588,-6.802985,6.984003,-0.128277,-0.051943,-0.126707,0.38501,0.761963,-0.729248,-2.45428,9.662391,3.61688,-0.397774,0.202224,0.169741,0.170654,-0.960693,-0.226562,-1.3146,-4.142232,8.677237,-0.439916,-0.02834,-0.069919,-0.026855,0.362061,-0.987061,1.028628,-4.507944,8.535121,-0.071684,0.251568,-0.036388,-0.27124,0.358154,-0.882812,-5.037204,-6.348145,4.383737,0.555759,-0.087071,-0.126789,0.592773,0.607178,-0.530273
-2.046886,-7.006306,6.937317,-0.068561,-0.087498,-0.128672,0.384033,0.768066,-0.717773,-2.537384,8.238657,3.255334,-0.328509,0.174816,0.092047,0.169678,-0.955811,-0.223389,-1.162936,-5.209736,8.181552,-0.32293,-0.018641,-0.031651,-0.025146,0.374023,-0.97168,1.087612,-4.494511,8.316609,-0.224396,0.261306,0.054506,-0.260254,0.366943,-0.873047,-4.899101,-6.440769,4.305023,-0.446546,0.072694,-0.15174,0.59375,0.618164,-0.509033
-2.190191,-6.809739,6.91484,-0.111925,-0.073802,-0.112808,0.37915,0.773926,-0.7229,-2.565181,8.769143,3.484733,0.150679,0.178275,0.04355,0.168945,-0.953369,-0.220947,-1.200708,-4.892527,8.530596,0.032128,-0.013465,-0.073885,-0.028809,0.376953,-0.977051,0.730322,-4.835122,8.401651,-0.22138,0.237401,0.06055,-0.255859,0.373779,-0.877441,-5.219184,-8.110167,3.802035,-0.65317,0.097726,-0.17389,0.589111,0.632568,-0.500732
-1.802778,-7.032454,6.789546,-0.037255,-0.116228,-0.16675,0.373047,0.769043,-0.722656,-2.393482,9.549603,3.54985,-0.046454,0.118441,0.071432,0.164307,-0.960693,-0.224854,-0.663311,-4.464364,8.736465,-0.107265,-0.033619,0.001641,-0.029541,0.373047,-0.97876,1.170774,-5.169735,8.249701,-0.14786,0.032053,0.050685,-0.257568,0.372314,-0.876709,-5.072861,-8.625141,3.602223,0.171099,-0.04797,-0.150253,0.586914,0.626465,-0.508301
-1.813903,-6.497674,6.902451,-0.03674,-0.06401,-0.108153,0.370117,0.771973,-0.727295,-2.209385,8.817316,3.397488,-0.304561,0.1533,0.113275,0.162354,-0.958496,-0.234375,-0.705691,-4.938464,8.314791,-0.269493,0.15138,0.038185,-0.026367,0.378418,-0.981445,1.352455,-4.992857,8.095118,-0.002498,0.205454,0.041969,-0.252441,0.372559,-0.883301,-4.68665,-7.20504,4.032081,0.565773,-0.059739,-0.145178,0.582764,0.621094,-0.520264
-1.814582,-7.01651,6.681935,-0.257563,-0.10332,-0.145098,0.372314,0.778076,-0.714844,-2.540937,8.586824,3.482334,0.015427,0.128206,0.093941,0.168945,-0.953613,-0.223145,-1.300014,-5.156103,8.523869,-0.057571,0.133201,0.060692,-0.015625,0.383057,-0.970947,0.600275,-4.598945,8.540162,-0.0517,0.142667,0.0787,-0.24292,0.378174,-0.873291,-4.660895,-6.584564,4.270813,-0.160581,0.042663,-0.148092,0.587402,0.628174,-0.507812
-1.824273,-7.201598,6.679278,0.007309,-0.086603,-0.114132,0.360352,0.778564,-0.710693,-2.31294,9.400856,3.602021,-0.024231,0.068308,0.093156,0.158203,-0.957764,-0.22168,-1.019697,-4.724858,8.701121,-0.096265,0.060075,0.031408,-0.02417,0.383545,-0.964844,1.268441,-4.993717,8.432369,-0.341136,-0.097936,0.15199,-0.251709,0.385254,-0.865967,-4.813627,-7.810157,3.852579,-0.58009,0.069554,-0.153486,0.577637,0.633057,-0.493408
-1.61811,-6.58424,6.885177,-0.107908,-0.129884,-0.108877,0.359131,0.777588,-0.715332,-2.192537,9.144745,3.435115,-0.369351,0.088986,0.120471,0.161377,-0.958252,-0.234375,-0.885092,-4.696431,8.610732,-0.242253,0.090285,0.069065,-0.01709,0.386475,-0.969482,1.670988,-5.70284,8.162962,-0.263254,0.177918,0.154361,-0.244141,0.392578,-0.868408,-4.82099,-8.617848,3.473859,-0.133443,0.019902,-0.154695,0.579834,0.636475,-0.494629
-1.553296,-7.063343,6.576281,-0.218086,-0.065676,-0.08105,0.353027,0.784668,-0.710938,-2.124813,8.326009,3.370832,-0.328524,0.096148,0.134816,0.153076,-0.957031,-0.239502,-0.94848,-4.935553,8.562246,-0.332551,0.101452,0.022143,-0.019043,0.396973,-0.964111,1.011751,-5.598598,8.42442,-0.191136,0.216675,0.079525,-0.241211,0.398682,-0.866455,-4.709188,-7.910074,3.744436,0.315068,-0.063054,-0.106224,0.572266,0.638428,-0.499512
-1.669182,-7.127835,6.507891,0.009248,-0.080579,-0.073777,0.354248,0.783936,-0.712158,-2.374601,8.298884,3.497257,-0.037659,0.111445,0.145201,0.155762,-0.956787,-0.24292,-1.382745,-5.421704,8.370332,-0.269332,0.073696,0.028155,-0.011719,0.401611,-0.962891,0.97833,-5.745001,8.323816,-0.224163,0.137067,0.09988,-0.229492,0.398193,-0.867676,-4.528318,-7.238032,3.968265,0.046187,-0.032686,-0.105656,0.575195,0.634766,-0.502686
-1.697985,-6.728177,6.667535,-0.013276,-0.065084,-0.06612,0.351074,0.782715,-0.714111,-2.253693,8.952527,3.526263,0.047386,0.055637,0.143737,0.14917,-0.959961,-0.241211,-1.098202,-5.170796,8.567107,0.049172,-0.040632,-0.041356,-0.018066,0.397461,-0.965332,1.203255,-5.550757,8.260552,0.024954,0.162164,0.010489,-0.22998,0.400146,-0.869873,-4.677852,-7.590827,3.864832,-0.184524,0.040005,-0.052538,0.572266,0.635986,-0.499756
-1.538563,-6.917934,6.616672,-0.136138,-0.065301,-0.063209,0.348633,0.798828,-0.715576,-2.201004,9.144856,3.666458,-0.228709,0.115932,0.18398,0.144775,-0.945312,-0.253174,-1.051003,-4.365939,8.581724,-0.07747,0.03757,-0.024545,-0.016846,0.412109,-0.967773,1.185724,-4.601613,8.282714,-0.031806,0.333234,0.045204,-0.224365,0.412109,-0.87207,-4.840621,-7.846964,3.843606,-0.053624,-0.00183,-0.104841,0.568359,0.653076,-0.503174
-1.697306,-7.040279,6.648421,-0.081839,-0.029697,-0.040216,0.349365,0.790527,-0.705566,-2.317549,8.527268,3.456407,-0.304511,0.055587,0.198815,0.141846,-0.958252,-0.246826,-1.199027,-4.664869,8.306668,-0.428509,-0.028483,0.038318,-0.014404,0.41333,-0.951416,0.509182,-4.780096,8.22148,-0.402745,0.319967,0.155603,-0.212891,0.411865,-0.860352,-4.700239,-7.676067,3.818827,-0.009772,-0.03364,-0.087304,0.571533,0.642822,-0.493896
-1.386902,-6.943465,6.676379,-0.161038,-0.057135,-0.019606,0.343994,0.785645,-0.708496,-1.907564,8.733625,3.614887,-0.081224,0.070146,0.189667,0.135986,-0.962646,-0.254639,-0.696334,-5.345896,8.246376,-0.433611,0.003941,0.005081,-0.018555,0.414307,-0.954834,0.727793,-5.687788,8.009294,-0.463152,0.110092,0.143995,-0.211426,0.412354,-0.864502,-4.586012,-7.677397,3.83073,-0.166017,-0.040528,-0.092635,0.564697,0.636963,-0.496826
-1.635147,-7.319816,6.606262,-0.177271,-0.007401,-0.010014,0.347656,0.788574,-0.706299,-2.208707,9.152327,3.918951,-0.213063,0.105337,0.237339,0.132812,-0.963623,-0.257324,-1.156114,-5.511313,8.211362,-0.241561,0.146364,0.038507,-0.012939,0.422119,-0.951172,1.028739,-5.811565,7.768505,-0.164677,0.238357,0.089981,-0.202881,0.419189,-0.860107,-4.544646,-7.972242,3.787226,-0.207177,-0.013877,-0.096097,0.5625,0.643311,-0.494141
-1.580589,-7.33577,6.66889,-0.090119,-0.049985,-0.022281,0.358154,0.798828,-0.698975,-2.063595,8.713805,3.835618,-0.309355,0.071308,0.187245,0.143311,-0.953369,-0.260254,-1.486176,-5.162312,8.293801,-0.160244,0.01262,-0.009902,0.001953,0.434326,-0.944336,0.598192,-5.269282,8.19969,-0.171702,0.363376,0.093413,-0.179199,0.431396,-0.857178,-4.656473,-8.048289,3.758773,-0.063662,-0.017062,-0.058544,0.578857,0.653564,-0.487793
-1.568888,-7.294317,6.710384,-0.125706,-0.076384,-0.038039,0.341309,0.796631,-0.705811,-2.01505,8.749222,3.879395,-0.08098,0.119058,0.148041,0.125977,-0.957031,-0.27002,-1.078081,-5.093567,8.148982,-0.306591,-0.04385,0.018745,-0.012207,0.435059,-0.946533,0.559422,-5.639005,8.020566,-0.389821,0.279925,0.15722,-0.186279,0.437012,-0.859863,-4.602637,-7.873089,3.796345,-0.023375,-0.043813,-0.108722,0.559082,0.648682,-0.494141
-1.415125,-7.393653,6.653363,-0.10302,-0.057126,-0.036563,0.353516,0.802246,-0.694336,-2.029005,9.029313,4.124967,-0.19641,0.120139,0.114523,0.13501,-0.949219,-0.265869,-1.21703,-5.723148,7.841742,-0.370881,0.040598,0.042296,0.002441,0.452148,-0.936279,0.388237,-6.160922,7.67761,-0.201635,0.418237,0.11439,-0.163574,0.446289,-0.85083,-4.523664,-7.889955,3.809762,-0.132711,-0.031138,-0.081505,0.570801,0.658936,-0.483643
-1.61339,-7.337342,6.658131,-0.043905,-0.066816,-0.04552,0.334473,0.80542,-0.699707,-2.103176,8.594172,3.835498,-0.205351,0.102321,0.10557,0.11792,-0.949707,-0.275146,-1.192581,-5.952025,7.830723,-0.089362,-0.029405,0.030846,-0.016602,0.453857,-0.939697,-0.212056,-5.740338,8.043991,-0.009211,0.295744,0.068921,-0.172852,0.44751,-0.859619,-4.666127,-8.141267,3.713182,-0.114177,-0.010788,-0.07861,0.553711,0.662598,-0.485596
-1.513048,-7.158974,6.609159,-0.01812,-0.067112,-0.044658,0.342041,0.802246,-0.702148,-1.990846,8.758302,3.762695,0.023885,0.113471,0.081293,0.126953,-0.954834,-0.279053,-0.807672,-5.248776,8.074857,0.084674,0.085869,-0.01067,-0.005371,0.447998,-0.94458,0.235935,-5.636938,8.06122,-0.193246,0.050208,0.085443,-0.159424,0.447998,-0.858398,-4.678495,-8.088442,3.736747,0.069628,-0.074343,-0.074651,0.560303,0.655273,-0.491455
-1.553819,-7.066011,6.615451,-0.078416,-0.07085,-0.038355,0.340332,0.805908,-0.700195,-2.003642,9.121573,3.88326,-0.14291,0.124753,0.092147,0.126709,-0.952148,-0.278809,-1.323533,-4.872302,8.168359,-0.192436,0.146301,0.013263,-0.000488,0.456055,-0.941895,0.559994,-6.157587,7.855326,-0.246861,0.164208,0.075517,-0.155273,0.457031,-0.854736,-4.526091,-7.6704,3.882975,0.113096,-0.060626,-0.077448,0.558594,0.659912,-0.492188
-1.44935,-7.134843,6.583377,-0.144763,-0.078126,-0.03809,0.335938,0.812988,-0.697998,-2.01476,8.59075,3.963942,-0.313081,0.123913,0.051918,0.123047,-0.945557,-0.282715,-1.470703,-5.530301,7.903549,-0.386888,0.022248,0.00439,-0.005371,0.464844,-0.936035,0.104325,-5.949363,7.91312,-0.038073,0.259744,0.01189,-0.151611,0.462402,-0.85376,-4.478811,-7.395483,3.99849,-0.073163,-0.035916,-0.096664,0.555664,0.665283,-0.491211
-1.391803,-7.354135,6.48474,-0.130489,-0.088072,-0.056717,0.334229,0.818115,-0.695312,-2.035841,8.304788,3.973023,-0.089092,0.123308,0.022353,0.126221,-0.943115,-0.284912,-1.126462,-6.038403,7.801225,-0.177315,-0.001578,-0.01731,-0.003174,0.471924,-0.930908,0.047388,-5.583965,7.977523,-0.157658,0.148838,0.039676,-0.148438,0.466309,-0.853027,-4.430325,-7.796409,3.770426,-0.280879,-0.012004,-0.115169,0.55249,0.672119,-0.488525
-1.27724,-7.240279,6.434049,-0.061615,-0.034632,-0.048655,0.331787,0.805908,-0.693848,-2.028137,8.905229,4.168815,-0.013677,0.134082,0.037844,0.123291,-0.95752,-0.2854,-1.118713,-5.608334,7.98799,-0.024759,0.083829,-0.031326,-0.002686,0.459717,-0.931885,0.14639,-5.905232,7.787983,-0.225968,0.154831,0.067761,-0.145996,0.454834,-0.853271,-4.521977,-8.215442,3.540256,-0.139101,-0.010666,-0.100181,0.551514,0.6604,-0.484619
-1.550433,-7.201235,6.398725,-0.116301,-0.044569,-0.059327,0.334229,0.810059,-0.691406,-2.130032,8.90763,4.03845,-0.229321,0.107414,0.073571,0.125,-0.955322,-0.289307,-1.252343,-5.38234,8.055745,-0.191894,0.077882,0.022391,0.002686,0.462402,-0.927734,-0.064027,-5.992294,7.875405,-0.14896,0.128731,0.045277,-0.13916,0.461426,-0.845947,-4.495366,-8.020613,3.607357,0.074833,-0.087452,-0.11394,0.550049,0.661621,-0.484375
-1.393461,-7.269995,6.30355,-0.077746,-0.056724,-0.052167,0.326416,0.815186,-0.686279,-1.964576,8.478049,3.926985,-0.214784,0.100754,0.074365,0.119385,-0.949219,-0.290527,-1.144855,-5.751441,7.917863,-0.283139,0.108377,0.002615,-0.001953,0.4729,-0.922363,0.116138,-5.997025,7.876942,-0.198829,0.041578,0.047485,-0.142578,0.470459,-0.842773,-4.121939,-7.733962,3.825383,0.010755,-0.079127,-0.113122,0.54126,0.667725,-0.483398
-1.311182,-7.238901,6.414672,-0.09668,-0.08476,-0.055153,0.317871,0.810547,-0.688965,-2.050961,8.469184,4.110036,-0.091902,0.102378,0.070516,0.114014,-0.955566,-0.298096,-1.434555,-5.954144,7.911008,-0.149326,0.102333,0.012751,-0.001221,0.473145,-0.924316,0.21302,-6.074709,7.835835,-0.14868,0.137122,0.04654,-0.141846,0.469238,-0.843262,-4.194094,-7.86454,3.695498,-0.154854,0.061867,-0.064459,0.537598,0.663574,-0.48291
-1.213167,-7.435404,6.359073,-0.065628,-0.041122,-0.06596,0.324707,0.820312,-0.685791,-1.913259,8.722185,4.212804,-0.046039,0.094041,0.065992,0.121826,-0.946289,-0.295898,-1.2552,-5.771086,8.046592,-0.095294,0.026114,-0.019965,0.006104,0.482422,-0.92041,0.105635,-6.064013,7.931413,-0.142914,0.126807,0.049435,-0.130615,0.478516,-0.839111,-4.586132,-8.08272,3.651679,-0.049359,0.004969,-0.072885,0.54541,0.674561,-0.479004
-1.286658,-7.185837,6.40185,-0.026116,-0.059469,-0.07845,0.322998,0.82251,-0.690918,-2.010042,8.866891,4.279089,-0.139492,0.11037,0.084859,0.121094,-0.943604,-0.299561,-1.280329,-5.759569,8.031248,-0.199682,0.062015,0.022621,0.008789,0.488525,-0.921631,0.225641,-6.113101,7.812818,-0.152553,0.170155,0.061978,-0.125488,0.485596,-0.84375,-4.213424,-7.854535,3.710859,0.120479,-0.114468,-0.144654,0.543213,0.676514,-0.488281
-1.27703,-7.305286,6.322473,-0.114264,-0.047679,-0.093059,0.323975,0.82251,-0.692627,-1.980127,8.684776,4.171897,-0.174131,0.076541,0.094684,0.123291,-0.945557,-0.308594,-1.307748,-6.053135,7.921246,-0.221241,0.011188,0.023279,0.012207,0.491455,-0.922119,0.01469,-6.018718,7.810785,-0.107217,0.242689,0.071928,-0.114502,0.485107,-0.847168,-3.962332,-7.623775,3.75642,-0.018997,0.028234,-0.095584,0.544189,0.674561,-0.489014
-1.243539,-7.358133,6.3654,-0.046399,-0.071247,-0.079399,0.320801,0.821777,-0.684082,-2.000925,8.587554,4.167641,-0.149646,0.070195,0.119387,0.118408,-0.946533,-0.30542,-1.173106,-6.075472,7.759001,-0.098977,0.058767,0.033241,0.011475,0.491455,-0.916016,-0.256833,-6.004113,7.856595,-0.164102,0.183447,0.098701,-0.114746,0.48877,-0.840088,-4.461043,-7.951391,3.743811,-0.205456,0.075758,-0.081267,0.54126,0.680176,-0.477051
-1.131261,-7.293732,6.462038,-0.086168,-0.035425,-0.084033,0.310059,0.823975,-0.686279,-1.947366,8.629571,4.211176,-0.13466,0.037907,0.125574,0.106445,-0.947266,-0.309814,-1.343635,-5.670324,7.949404,-0.077264,0.068921,0.025463,0.004639,0.49292,-0.916748,-0.112927,-6.111627,7.77988,-0.17557,0.078426,0.091901,-0.119141,0.489014,-0.841064,-4.424448,-8.30691,3.551223,-0.083235,-0.060294,-0.140561,0.527344,0.67749,-0.481201
-1.055273,-7.502942,6.417375,-0.085858,-0.013051,-0.080707,0.30957,0.825439,-0.689209,-1.760031,8.606703,4.206362,-0.178536,0.074704,0.146743,0.105957,-0.944336,-0.319336,-1.234597,-5.642856,7.794129,-0.239066,0.039899,0.044031,0.008057,0.499268,-0.917725,0.183816,-6.242251,7.60618,-0.212165,0.150352,0.098441,-0.111328,0.49585,-0.840576,-4.189216,-8.112304,3.63176,0.118822,-0.056521,-0.109567,0.530273,0.679199,-0.487549
-1.297513,-7.418198,6.455428,-0.066123,0.012265,-0.072123,0.310059,0.829346,-0.69165,-2.002804,8.550283,4.134309,-0.135344,0.098281,0.122371,0.106445,-0.943604,-0.327148,-1.403211,-5.975979,7.705559,-0.22936,0.069536,0.022725,0.013428,0.506592,-0.917236,-0.31557,-6.425456,7.712735,-0.188022,0.249391,0.081288,-0.101807,0.500244,-0.842773,-4.318537,-7.817058,3.772892,0.013215,-0.026288,-0.12074,0.528809,0.682617,-0.491943
-1.326316,-7.473626,6.350118,-0.135109,-0.027674,-0.083265,0.308838,0.830322,-0.690674,-1.937402,8.893125,4.302103,-0.081556,0.097938,0.094327,0.108154,-0.944336,-0.328857,-1.398288,-5.897236,7.768485,-0.144959,0.024393,-0.021818,0.014893,0.507812,-0.919678,-0.446306,-6.300594,7.657648,-0.133412,0.105688,0.026778,-0.100342,0.503906,-0.842285,-4.239265,-7.98358,3.753249,-0.157166,-0.078708,-0.158785,0.525879,0.68335,-0.489258
-1.343821,-7.614257,6.221242,-0.072142,-0.056288,-0.105274,0.309326,0.838135,-0.682373,-2.001644,8.896424,4.332751,-0.226653,0.122305,0.0888,0.108887,-0.938232,-0.326172,-1.335662,-5.80551,7.70664,-0.200894,0.071273,0.001956,0.018066,0.515381,-0.908447,-0.154895,-6.023225,7.596994,-0.128032,0.123313,0.03581,-0.094727,0.510986,-0.83252,-3.899275,-8.309727,3.658565,-0.117858,-0.026838,-0.153701,0.525146,0.69043,-0.480713
-1.236774,-7.355053,6.323475,-0.083453,-0.095325,-0.099035,0.303711,0.843018,-0.672119,-1.949247,8.594516,4.307283,-0.194398,0.092015,0.06855,0.105713,-0.930908,-0.321289,-1.457835,-6.107761,7.686607,-0.288238,0.059571,0.029583,0.019775,0.527344,-0.894287,-0.434824,-6.020344,7.546474,-0.224662,0.179849,0.073911,-0.091064,0.519775,-0.822266,-4.0429,-8.278323,3.672556,-0.005629,0.090927,-0.09588,0.525391,0.698242,-0.471924
-1.245185,-7.661141,6.281838,-0.141133,-0.098151,-0.116792,0.293701,0.848877,-0.674316,-1.993296,8.69851,4.3682,-0.08052,0.109696,0.092559,0.097412,-0.928223,-0.325928,-1.219642,-6.405475,7.749075,-0.1742,0.103684,0.035805,0.012207,0.533691,-0.896484,-0.495809,-6.492732,7.503988,-0.21811,0.071015,0.096495,-0.093994,0.525879,-0.820557,-4.222622,-8.206727,3.658919,-0.035648,0.066657,-0.102757,0.514893,0.704102,-0.474121
-1.047456,-7.697532,6.375877,0.013865,-0.142215,-0.121532,0.293701,0.838379,-0.677002,-1.835205,8.96123,4.340332,-0.074512,0.06666,0.08579,0.098877,-0.94165,-0.331299,-1.394787,-6.10289,7.850699,0.018493,0.151771,0.028195,0.021973,0.521729,-0.900391,0.01068,-6.350247,7.475189,4.1e-05,0.046957,0.02892,-0.09082,0.514893,-0.825439,-4.068757,-8.269942,3.606007,-0.015033,0.05278,-0.098789,0.517334,0.690674,-0.477539
-0.809859,-7.33232,6.446431,-0.04583,-0.133623,-0.105092,0.285645,0.844238,-0.673096,-1.543807,8.71317,4.344384,-0.258095,0.119195,0.094875,0.095215,-0.934082,-0.333496,-1.350531,-5.629961,7.80618,-0.102173,0.065285,0.011171,0.018066,0.531738,-0.894775,0.302248,-6.082116,7.70372,-0.177792,0.253648,0.100689,-0.086182,0.524902,-0.817871,-4.043522,-8.270998,3.57735,-0.024619,0.061755,-0.092903,0.514404,0.700928,-0.471924
-0.804593,-7.496272,6.364506,-0.109194,-0.119907,-0.101024,0.287109,0.842041,-0.68042,-1.720811,8.123037,4.249371,-0.231204,0.149812,0.055341,0.10083,-0.937744,-0.341064,-1.408797,-5.99142,7.54965,-0.302501,0.043176,0.021566,0.025146,0.530273,-0.897949,-0.338262,-6.804185,7.560008,-0.312735,0.392169,0.118542,-0.071045,0.525879,-0.824219,-4.041664,-8.183271,3.589187,0.029771,0.03068,-0.101129,0.51709,0.695312,-0.480469
-0.821032,-7.547972,6.329693,-0.023562,-0.094718,-0.098841,0.284912,0.838623,-0.667969,-1.774679,8.253519,4.320044,0.020908,0.15424,0.048235,0.102295,-0.940186,-0.332275,-1.380421,-6.441703,7.398342,-0.165146,-0.022225,-0.021096,0.025635,0.533203,-0.883789,-0.686147,-6.933399,7.437215,-0.018975,0.269164,0.008171,-0.064697,0.524902,-0.810547,-4.203618,-8.036581,3.659917,0.039024,0.029957,-0.086098,0.519287,0.693848,-0.468018
-0.90187,-7.284096,6.293882,-0.016304,-0.07515,-0.086117,0.272705,0.841797,-0.676514,-1.937212,8.784113,4.480232,-0.030122,0.143222,0.061105,0.092285,-0.937988,-0.338867,-1.242854,-6.343864,7.459166,-0.065024,0.0592,-0.021956,0.016113,0.531494,-0.888184,-0.62868,-6.153251,7.544235,0.047685,0.222104,-0.014194,-0.067627,0.525146,-0.822266,-4.185528,-8.086474,3.635263,-0.068123,-0.062828,-0.116702,0.506348,0.693604,-0.475098
-0.87655,-7.363191,6.201743,-0.100944,-0.063714,-0.065286,0.275879,0.8396,-0.672119,-1.890438,8.693771,4.466506,-0.205283,0.066585,0.116356,0.094971,-0.939697,-0.34375,-1.423847,-6.250398,7.647405,-0.179097,0.076459,0.015922,0.022705,0.534668,-0.887695,-0.696628,-6.032985,7.518321,-0.226893,0.143032,0.080916,-0.060791,0.527832,-0.816406,-3.900192,-8.296866,3.548786,-0.084199,-0.047856,-0.113496,0.510254,0.697021,-0.471191
-0.919619,-7.548874,6.148047,-0.100362,-0.074822,-0.043643,0.280029,0.843994,-0.677246,-1.868005,8.474868,4.420481,-0.190373,0.05417,0.141864,0.098633,-0.935791,-0.351807,-1.335933,-6.372714,7.439331,-0.199874,0.08892,0.031364,0.031738,0.54126,-0.890625,-0.603019,-6.611501,7.292421,-0.312166,0.110038,0.104234,-0.048828,0.536133,-0.817627,-3.954898,-8.321352,3.511591,-0.03054,0.001826,-0.06129,0.516357,0.700439,-0.475342
-0.866125,-7.519303,6.150703,-0.064566,-0.070401,-0.037904,0.280029,0.85791,-0.667969,-1.846579,8.427926,4.434864,-0.177152,0.044187,0.150212,0.097412,-0.923828,-0.349365,-1.497476,-6.232958,7.346254,-0.116808,0.158509,0.006121,0.038086,0.55542,-0.88208,-0.777363,-6.888745,7.164291,-0.151388,0.150482,0.052478,-0.044189,0.550049,-0.808105,-4.020299,-8.196732,3.585016,-0.01055,-0.016884,-0.082891,0.513672,0.711426,-0.469971
-0.864889,-7.560004,6.114299,-0.091557,-0.072112,-0.045112,0.264648,0.854248,-0.660645,-1.86169,8.33211,4.540682,-0.185432,0.063297,0.147428,0.084229,-0.925293,-0.350342,-1.680845,-6.082764,7.415894,-0.186437,0.130236,0.014138,0.030762,0.557129,-0.871826,-0.778544,-6.38695,7.297782,-0.050118,0.089776,0.005983,-0.053955,0.547607,-0.802246,-3.914131,-8.162118,3.52873,-0.045181,-0.022226,-0.066791,0.500977,0.708008,-0.466553
-0.84743,-7.590749,6.096834,-0.029793,-0.059779,-0.045409,0.263672,0.852539,-0.671875,-1.934469,8.304472,4.591378,-0.103754,0.053895,0.145963,0.082031,-0.931641,-0.360107,-1.713265,-6.322936,7.460701,-0.255681,0.105729,0.029007,0.032227,0.556396,-0.881592,-0.560339,-6.090184,7.279316,-0.153707,0.17385,0.072276,-0.050293,0.545166,-0.810547,-3.92052,-8.191557,3.545697,-0.016308,0.033852,-0.055626,0.503174,0.70752,-0.473877
-0.753648,-7.469966,6.179406,-0.078656,-0.066543,-0.05286,0.268311,0.854736,-0.665527,-1.781582,8.608248,4.706933,-0.125702,0.012541,0.163118,0.084473,-0.929932,-0.359131,-1.604934,-6.59824,7.310684,-0.236275,0.069031,0.059531,0.040527,0.562988,-0.871826,-0.8851,-6.457065,7.410533,-0.337536,0.261009,0.126303,-0.034912,0.555664,-0.798828,-4.066497,-8.122116,3.557636,-0.032748,0.0126,-0.067455,0.506348,0.707764,-0.466553
-0.772105,-7.749662,6.115654,-0.0615,-0.01709,-0.053832,0.26123,0.857666,-0.667725,-1.714243,8.358353,4.559903,-0.227043,0.052922,0.190174,0.074707,-0.924805,-0.367188,-1.477795,-6.641568,7.253624,-0.129802,0.143173,0.015102,0.040283,0.568848,-0.873535,-1.239811,-7.538943,7.376242,-0.349209,0.118298,0.128068,-0.033936,0.563232,-0.799316,-3.911593,-8.284617,3.468942,-0.098811,-0.013752,-0.080188,0.497559,0.713623,-0.467773
-0.964749,-7.637586,6.150204,0.042009,-0.044094,-0.056619,0.266357,0.859863,-0.667236,-1.852481,8.168101,4.453239,-0.033315,0.036391,0.184527,0.07666,-0.923096,-0.36377,-1.828346,-6.4822,7.381013,-0.034338,0.166934,0.000469,0.048584,0.569092,-0.874023,-0.889355,-7.555653,7.227137,0.105806,-0.010388,-0.054971,-0.03125,0.563232,-0.802734,-3.977366,-8.467686,3.462878,0.000767,0.029815,-0.036662,0.504639,0.714844,-0.466797
-0.799332,-7.374606,6.19937,0.008853,-0.077773,-0.063568,0.26416,0.850342,-0.666992,-1.544044,8.763324,4.668494,0.057025,0.026909,0.139971,0.075195,-0.9375,-0.365723,-1.747477,-6.266718,7.327232,-0.053616,0.058736,-0.043126,0.049316,0.5625,-0.872559,-0.575281,-6.124511,7.453166,0.193719,0.112824,-0.063805,-0.02832,0.547852,-0.806885,-3.880231,-8.24369,3.5496,0.165216,-0.023388,-0.053567,0.504639,0.701416,-0.472168
-0.769705,-7.381405,6.207439,-0.078359,-0.097989,-0.052534,0.254639,0.855713,-0.665283,-1.654198,8.829847,4.631066,-0.239348,0.025051,0.151852,0.064941,-0.928223,-0.371094,-1.527949,-6.183987,7.299629,-0.181173,0.079174,0.002748,0.044189,0.570312,-0.869629,-0.87351,-5.829859,7.458476,-0.289204,0.122928,0.062666,-0.032715,0.559082,-0.799805,-3.695805,-7.803173,3.730579,0.067736,0.047425,-0.059883,0.496094,0.707275,-0.473145
-0.706054,-7.471876,6.142707,-0.133003,-0.11933,-0.051233,0.261719,0.862305,-0.661377,-1.524073,8.319069,4.608929,-0.281076,-0.0096,0.118476,0.070557,-0.921143,-0.374023,-1.729822,-6.340029,7.21978,-0.278483,0.076043,-0.005897,0.052734,0.580322,-0.861816,-0.775748,-6.851878,7.071594,-0.420848,0.069686,0.106918,-0.022461,0.571045,-0.787354,-3.854839,-7.833893,3.662228,-0.177962,0.106659,-0.042743,0.505615,0.713135,-0.464844
-0.597032,-7.616637,6.12289,-0.19013,-0.145777,-0.046262,0.24707,0.858154,-0.651855,-1.525425,8.351564,4.749549,-0.176301,0.006662,0.114231,0.057861,-0.927002,-0.371338,-1.654697,-6.554374,7.066915,-0.277889,0.014343,0.015304,0.044922,0.577637,-0.852783,-0.703433,-6.927972,6.854497,-0.108253,0.177404,0.022834,-0.028076,0.568115,-0.783203,-3.874409,-8.261598,3.500582,-0.303766,0.063998,-0.114359,0.49585,0.71167,-0.452393
-0.486631,-7.805034,6.102532,-0.187628,-0.136775,-0.050609,0.256104,0.869873,-0.658203,-1.421368,8.4677,4.877666,-0.231075,0.003204,0.075761,0.067139,-0.917236,-0.38501,-1.538145,-6.547763,6.98562,-0.180152,0.032017,-0.003693,0.055908,0.5896,-0.856445,-0.864099,-6.249568,6.98522,-0.121371,0.216912,0.051679,-0.010742,0.577393,-0.790771,-3.737699,-8.555864,3.308427,-0.171457,0.070408,-0.085107,0.507568,0.722412,-0.455566
-0.476207,-7.895369,6.093227,-0.15533,-0.147286,-0.065081,0.234131,0.864502,-0.656006,-1.437962,8.285411,4.8746,-0.226046,0.05501,0.077797,0.050049,-0.92627,-0.39209,-1.633246,-6.35005,6.950278,-0.158798,0.038567,0.003141,0.040283,0.587402,-0.857666,-0.985952,-6.660852,6.914826,-0.386883,0.193755,0.110112,-0.022217,0.579346,-0.785645,-3.87648,-8.443199,3.324562,-0.033948,0.079733,-0.08389,0.490234,0.716797,-0.455811
-0.486781,-7.797309,6.053392,-0.124585,-0.12753,-0.067186,0.243408,0.873047,-0.652832,-1.522697,8.355787,5.007546,-0.174346,0.084648,0.034585,0.062256,-0.916748,-0.397217,-1.630596,-6.382984,7.052369,-0.299981,0.056804,0.002893,0.05542,0.599121,-0.849609,-1.077764,-7.153575,6.737561,-0.193364,0.18349,0.05212,-0.005859,0.588867,-0.782471,-3.909522,-8.202967,3.370496,-0.037141,0.016028,-0.121021,0.498291,0.724854,-0.454102
-0.431875,-7.722003,6.052779,-0.152865,-0.133126,-0.079608,0.234375,0.87915,-0.648193,-1.673176,8.387395,5.11803,-0.240722,0.058341,0.075326,0.056152,-0.910156,-0.400391,-1.860825,-6.915835,7.063451,-0.376367,0.055945,0.061127,0.049805,0.607666,-0.842041,-1.0593,-6.462421,6.972692,-0.07419,0.216588,0.034255,-0.005859,0.591553,-0.777588,-3.892608,-8.195641,3.435852,-0.133584,0.032815,-0.12506,0.493652,0.730225,-0.450439
-0.30597,-7.790684,5.980102,-0.161564,-0.08423,-0.084878,0.236572,0.880615,-0.64917,-1.394133,8.235118,5.075937,-0.277165,0.037221,0.071123,0.061768,-0.913574,-0.408203,-1.651531,-7.06794,6.914168,-0.204254,0.00077,0.016517,0.057373,0.607178,-0.841309,-1.049958,-6.536408,6.9504,-0.420679,0.217942,0.158584,0.007324,0.597412,-0.771484,-3.876111,-8.326722,3.399792,-0.11114,-0.021357,-0.151426,0.494385,0.729004,-0.449219
-0.381347,-7.901937,5.904762,-0.130823,-0.085854,-0.10348,0.230225,0.877441,-0.645264,-1.538646,8.003207,5.03323,-0.226046,0.094334,0.092796,0.058594,-0.915283,-0.412842,-1.693681,-6.741571,6.956638,-0.136624,0.065437,0.045898,0.058838,0.606934,-0.838623,-1.14239,-7.685541,6.726138,-0.369153,0.263758,0.150671,0.014893,0.603516,-0.769043,-3.599137,-8.490498,3.330908,-0.142351,-0.031812,-0.169577,0.490479,0.72876,-0.447998
-0.412132,-7.914436,5.854243,-0.053658,-0.063043,-0.095471,0.221924,0.875488,-0.643066,-1.511185,8.168061,4.999344,-0.062037,0.053397,0.073145,0.04834,-0.917236,-0.413818,-1.832334,-6.798247,6.967516,-0.228693,-0.006807,0.031452,0.048584,0.607422,-0.835205,-1.253365,-7.421626,6.760527,0.058363,0.270732,0.031154,0.01001,0.5979,-0.768799,-3.618018,-8.7976,3.326307,-0.120893,0.034556,-0.098644,0.480469,0.72876,-0.445312
-0.580778,-7.68822,5.896523,-0.081038,-0.101391,-0.069928,0.221924,0.895752,-0.645264,-1.593512,8.443339,5.130881,-0.174113,0.080656,0.084146,0.052246,-0.899658,-0.41626,-1.730255,-7.105451,6.775164,-0.215499,0.016032,0.052194,0.056641,0.63208,-0.830566,-1.25483,-6.533717,6.923871,-0.067263,0.324613,0.077692,0.022461,0.616943,-0.765869,-3.688498,-8.80342,3.362666,-0.019005,0.036388,-0.103112,0.482666,0.746582,-0.441406
-0.341601,-7.981387,5.902888,-0.148357,-0.105322,-0.065583,0.227295,0.881836,-0.634277,-1.648,8.056483,5.038012,-0.227223,-0.009923,0.088282,0.060303,-0.913574,-0.415771,-1.930671,-7.015513,6.862973,-0.059125,-0.013204,0.030767,0.065186,0.61499,-0.824951,-1.623146,-6.962354,6.855019,-0.293215,0.306779,0.161403,0.044678,0.603516,-0.755859,-3.667589,-8.682554,3.372306,-0.02276,0.097834,-0.043655,0.494385,0.72998,-0.434814
-0.406114,-7.955665,5.91105,-0.044538,-0.07149,-0.029805,0.221436,0.88623,-0.64209,-1.425591,8.13258,5.078133,-0.089318,0.039279,0.091877,0.054688,-0.907959,-0.425049,-1.62511,-6.552498,6.792504,-0.091329,-0.01617,0.030912,0.061279,0.619629,-0.831543,-1.547641,-7.334236,6.665016,-0.16341,0.213568,0.088945,0.039062,0.609619,-0.760498,-3.94118,-8.573525,3.427789,-0.045654,0.110083,-0.03412,0.490479,0.735596,-0.439697
-0.224317,-7.771428,5.930451,-0.108568,-0.076853,-0.034041,0.218506,0.891113,-0.635254,-1.532877,8.285076,5.183771,-0.19391,0.015589,0.091173,0.050049,-0.9021,-0.423096,-1.7798,-6.734332,6.719558,-0.296452,0.042584,0.055915,0.059814,0.631104,-0.81958,-1.477796,-7.194868,6.754442,-0.15054,0.241356,0.083991,0.046631,0.619385,-0.751709,-3.687084,-8.630202,3.366582,-0.130328,0.038715,-0.074655,0.487549,0.742432,-0.430908
-0.313176,-8.030627,5.798137,-0.113506,-0.046764,-0.013057,0.218994,0.892822,-0.640137,-1.373825,7.851078,5.164723,-0.249718,0.029506,0.08142,0.04834,-0.898438,-0.436279,-1.942606,-7.285891,6.646176,-0.244802,-0.02918,0.024432,0.061523,0.633057,-0.822998,-1.646434,-7.34656,6.718176,-0.207086,0.220852,0.078547,0.051514,0.619629,-0.754639,-3.586658,-8.76362,3.14297,-0.102025,0.142213,-0.001934,0.491455,0.742676,-0.434814
-0.276686,-7.958432,5.753052,-0.029012,-0.039671,-0.007248,0.224365,0.887207,-0.638916,-1.606721,7.790269,5.246439,-0.045791,0.038199,0.079789,0.053711,-0.903564,-0.437256,-1.81513,-7.209816,6.600939,-0.047983,-0.036063,-0.008468,0.066895,0.630859,-0.825195,-1.638492,-7.452976,6.473535,-0.079878,0.230385,0.058025,0.063721,0.618408,-0.754639,-3.879972,-8.701702,3.211021,-0.016137,0.129127,0.006894,0.497314,0.739014,-0.436768
-0.285657,-7.927054,5.838793,-0.05487,-0.034878,-0.016935,0.210938,0.886475,-0.630127,-1.433222,8.19869,5.292041,0.008279,-0.016268,0.077991,0.039062,-0.909668,-0.425537,-1.800325,-6.923066,6.678286,-0.033343,-0.051046,0.019338,0.051514,0.628418,-0.815186,-1.80277,-7.044026,6.607676,0.0163,0.235594,0.033336,0.05542,0.616211,-0.744873,-3.712863,-8.566028,3.141439,0.006111,0.078377,-0.005403,0.483887,0.735352,-0.422363
-0.179096,-8.018116,5.820374,-0.063101,-0.009945,0.009339,0.217529,0.888916,-0.634033,-1.321268,8.400582,5.333235,-0.112329,0.034258,0.098977,0.044678,-0.905762,-0.436035,-1.522775,-6.781454,6.594656,-0.103352,-0.007898,0.004322,0.059814,0.630615,-0.816895,-1.798113,-6.868973,6.655909,-0.152073,0.110494,0.065904,0.068359,0.619141,-0.74707,-3.693454,-8.510487,3.05438,-0.047327,0.11184,0.014113,0.496582,0.737305,-0.42627
-0.270847,-7.948477,5.815697,-0.088408,-0.033664,0.004599,0.218018,0.888428,-0.63623,-1.418491,8.147696,5.399441,-0.228385,0.019617,0.082248,0.044434,-0.904785,-0.44165,-1.839764,-6.958664,6.64816,-0.250915,0.056446,0.042249,0.062012,0.634277,-0.817627,-1.687187,-7.365504,6.430412,-0.289201,0.096652,0.071379,0.06958,0.622559,-0.749756,-3.758787,-8.473198,3.072277,-0.090256,0.09318,-0.024771,0.497559,0.734375,-0.426025
-0.268341,-8.062438,5.718041,-0.065977,-0.01149,-0.007275,0.217041,0.893555,-0.636963,-1.385544,7.923481,5.35188,-0.120078,0.024945,0.080563,0.039307,-0.89917,-0.447754,-1.865325,-7.469395,6.538206,-0.255254,-0.024166,0.018343,0.059814,0.644775,-0.816162,-1.809917,-7.723571,6.333835,-0.146559,0.124099,0.05158,0.071533,0.630615,-0.744385,-3.705157,-8.592673,2.987536,-0.103676,0.06975,-0.012005,0.496582,0.742432,-0.428223
-0.253319,-7.875262,5.768568,0.024962,-0.05548,-0.015483,0.213379,0.901367,-0.62915,-1.36467,8.082574,5.393902,-0.037568,0.001167,0.067985,0.037109,-0.89209,-0.443604,-1.672195,-7.524983,6.533111,-0.005043,0.017899,0.011216,0.05835,0.650635,-0.811523,-1.73138,-7.416353,6.374907,0.031743,0.086349,0.010595,0.07251,0.636719,-0.741699,-3.717216,-8.567898,2.961902,0.05321,0.088678,0.001984,0.494873,0.746826,-0.421875
-0.153597,-7.745173,5.79435,-0.040927,-0.006839,-0.030481,0.219238,0.900391,-0.630127,-1.292464,8.055997,5.410193,-0.087815,0.009628,0.078891,0.041504,-0.894043,-0.444336,-1.888523,-6.986916,6.671382,0.073113,0.006505,-0.005349,0.065674,0.648193,-0.809814,-1.56228,-7.030119,6.440821,-0.021121,0.167825,0.048142,0.082275,0.632812,-0.737549,-3.882298,-8.210324,3.075763,0.129566,0.06327,-0.003848,0.501465,0.740479,-0.42334
-0.250666,-7.981397,5.742314,-0.059209,-0.008304,-0.037312,0.20166,0.895508,-0.624268,-1.444418,8.07947,5.381991,-0.053,0.015216,0.088587,0.025391,-0.900635,-0.441895,-1.727587,-6.789391,6.690006,-0.125137,-0.028386,0.020267,0.050537,0.641602,-0.803711,-1.955717,-7.200808,6.473179,-0.141047,0.235367,0.073057,0.071533,0.631104,-0.729736,-3.779924,-8.091864,3.191107,-0.047667,0.006819,-0.054199,0.485107,0.740234,-0.418945
-0.295254,-7.867395,5.712944,-0.028011,-0.005221,-0.035782,0.210938,0.894775,-0.628418,-1.321791,8.375781,5.372965,-0.084169,-0.018796,0.096683,0.032715,-0.899902,-0.44751,-1.673635,-7.126117,6.556693,-0.216575,0.019764,0.037696,0.060303,0.649658,-0.807861,-2.031685,-7.240499,6.389573,-0.09653,0.08833,0.039763,0.085449,0.629395,-0.733887,-3.623418,-8.402173,3.039988,-0.160473,0.047321,-0.070013,0.494141,0.740479,-0.418213
-0.254218,-7.797179,5.657602,-0.134673,-0.037883,-0.036174,0.215576,0.895508,-0.627686,-1.225113,8.252837,5.404807,-0.253308,0.017815,0.114978,0.036133,-0.900391,-0.455322,-1.646254,-7.081814,6.517696,-0.103091,0.047438,0.013292,0.068848,0.646729,-0.803711,-1.706753,-6.969867,6.436498,-0.157773,0.088378,0.037569,0.092529,0.633301,-0.731689,-3.63664,-8.594994,2.908888,-0.078156,0.044421,-0.064236,0.497559,0.74292,-0.41748
-0.378351,-8.138156,5.57492,-0.13448,-0.046635,-0.056997,0.206543,0.905273,-0.621582,-1.370683,7.928637,5.39124,-0.213521,0.022976,0.089565,0.029785,-0.888184,-0.453857,-1.918901,-6.855541,6.601216,-0.219637,0.083073,0.0235,0.065186,0.659912,-0.794922,-2.02608,-7.330765,6.391115,-0.330031,0.125859,0.077849,0.091553,0.645996,-0.722412,-3.476117,-8.489002,2.980735,-0.007729,0.071912,-0.088762,0.495117,0.750244,-0.412842
-0.232066,-7.875621,5.685058,-0.061623,-0.105409,-0.048315,0.207764,0.900879,-0.625,-1.274485,8.189155,5.522034,-0.094282,-0.003329,0.085793,0.029297,-0.897217,-0.462646,-1.825026,-7.31516,6.535105,-0.345703,-0.009434,0.039721,0.066406,0.658936,-0.797852,-1.979639,-7.54748,6.259189,-0.148944,0.036036,0.030969,0.093506,0.642578,-0.724854,-3.665557,-8.301426,3.051884,-0.045756,0.137676,-0.042025,0.498779,0.745605,-0.415283
-0.10535,-7.823735,5.680075,-0.174058,-0.083813,-0.062356,0.200439,0.907715,-0.618164,-1.150833,8.316331,5.606097,-0.283583,-0.013122,0.107105,0.025146,-0.886719,-0.465088,-1.523532,-7.581152,6.395956,-0.230067,0.073779,0.050365,0.065674,0.670166,-0.788086,-1.745206,-6.993634,6.319244,-0.146841,0.066475,0.0363,0.092285,0.651855,-0.719238,-3.699863,-8.367447,2.928642,-0.150668,0.077376,-0.109518,0.492432,0.751221,-0.40918
-0.14306,-7.984828,5.598187,-0.154386,-0.110272,-0.050792,0.196289,0.906006,-0.617676,-1.130942,7.829531,5.428877,-0.324824,-0.022265,0.118913,0.018066,-0.885498,-0.476562,-1.904424,-7.296702,6.535297,-0.12882,0.089931,0.034752,0.066406,0.665527,-0.787842,-1.82675,-7.471689,6.327959,-0.443594,0.088765,0.134464,0.093506,0.655029,-0.713379,-3.545978,-8.47091,2.865028,-0.105927,0.083742,-0.092037,0.487305,0.750244,-0.40918
-0.174177,-8.026829,5.537615,-0.177679,-0.101308,-0.062311,0.204346,0.912842,-0.610596,-1.247041,7.722053,5.629961,-0.185869,-0.001589,0.101013,0.025391,-0.882568,-0.474121,-2.014257,-7.099549,6.385356,-0.229328,0.013604,0.021487,0.077881,0.675293,-0.782227,-1.956039,-8.144916,5.986602,-0.202216,0.144333,0.05246,0.107666,0.659912,-0.705566,-3.639232,-8.509771,2.853061,-0.155106,0.1008,-0.091893,0.49585,0.755127,-0.398682
-0.020102,-8.333091,5.506936,-0.142422,-0.151257,-0.083844,0.192627,0.907715,-0.612793,-1.091387,7.954147,5.716681,-0.111977,-0.036616,0.077499,0.01709,-0.887207,-0.481934,-1.770674,-7.434279,6.178762,-0.251859,-0.042774,0.03619,0.069336,0.67334,-0.782227,-2.006512,-7.318662,6.085647,0.051787,0.150005,-0.000717,0.104736,0.654785,-0.710449,-3.554481,-8.757851,2.694636,-0.141398,0.058037,-0.101672,0.488037,0.752441,-0.400391
0.115243,-8.186493,5.56724,-0.059785,-0.129573,-0.085752,0.20166,0.915527,-0.609619,-0.941524,8.06335,5.808147,-0.199215,0.050175,0.070063,0.029785,-0.881348,-0.484375,-1.541487,-7.393346,6.077684,-0.104735,0.047255,-0.001919,0.082764,0.67749,-0.776855,-2.005722,-7.053268,6.14113,-0.282394,0.099652,0.060559,0.119141,0.662598,-0.702881,-3.525898,-8.767682,2.704494,0.000902,0.084711,-0.097243,0.503174,0.754883,-0.39502
0.088722,-8.094925,5.552765,-0.101689,-0.126606,-0.113019,0.193848,0.911621,-0.612305,-1.201423,7.70071,5.689772,-0.233394,0.05844,0.076211,0.023193,-0.881836,-0.494629,-1.946097,-7.083548,6.267416,-0.113828,0.086495,0.005529,0.078369,0.677002,-0.783203,-2.091194,-7.955244,5.940516,-0.31404,0.044573,0.068951,0.116699,0.665527,-0.704346,-3.7348,-8.542559,2.825503,0.057429,0.059482,-0.097407,0.496094,0.753418,-0.403809
0.103028,-8.205358,5.548093,-0.132022,-0.117827,-0.104313,0.178711,0.918945,-0.607178,-1.006071,7.786577,5.762987,-0.117381,0.075625,0.048595,0.012695,-0.875488,-0.494629,-1.893343,-7.170521,6.230917,-0.287882,0.001541,-0.010684,0.071045,0.688721,-0.770996,-1.913416,-7.745288,5.896236,-0.032831,0.057651,-0.052693,0.107178,0.668945,-0.699463,-3.68941,-8.382579,2.89503,-0.031331,-0.01432,-0.156417,0.482178,0.760254,-0.396973
0.131901,-8.200743,5.466886,-0.11441,-0.109025,-0.112205,0.183594,0.917969,-0.594238,-1.194208,7.940178,5.829899,-0.203011,0.103137,0.058283,0.019043,-0.87793,-0.488281,-1.747187,-7.676922,6.000904,-0.278351,0.026326,0.006102,0.080078,0.689697,-0.76001,-2.008811,-7.179054,6.03357,-0.173659,0.137703,0.017584,0.115723,0.668945,-0.687012,-3.480741,-8.678123,2.843069,-0.231853,0.003958,-0.175574,0.486816,0.761719,-0.384277
0.041993,-8.180855,5.4652,-0.09537,-0.10052,-0.093828,0.177979,0.915039,-0.596436,-1.136764,7.627517,5.709587,-0.234259,0.083811,0.054667,0.018555,-0.880859,-0.49585,-1.867958,-7.634147,6.013927,-0.093141,0.06685,-0.043505,0.075928,0.685547,-0.759766,-2.313483,-7.90363,5.837403,-0.378655,0.045765,0.037236,0.117676,0.67041,-0.683594,-3.558353,-9.184895,2.76681,-0.152439,0.039831,-0.115129,0.483398,0.757812,-0.383545
0.14778,-8.16815,5.394396,-0.101024,-0.098672,-0.092216,0.169922,0.931152,-0.598633,-1.239396,7.609648,5.788463,-0.112715,0.106216,0.061311,0.014404,-0.864746,-0.502441,-1.928641,-7.335724,6.146001,-0.132158,0.062615,-0.042929,0.07251,0.705078,-0.759521,-2.078366,-8.206641,5.718713,-0.057803,-0.000552,-0.047061,0.112793,0.686523,-0.689941,-3.576771,-9.075087,2.77025,0.078966,0.008578,-0.128233,0.47876,0.774414,-0.390137
-0.003158,-8.184868,5.423749,-0.064116,-0.098222,-0.08592,0.167725,0.925537,-0.596924,-1.30675,7.851241,5.880317,-0.098891,0.066396,0.052816,0.01416,-0.869385,-0.503662,-2.030221,-7.50571,6.12515,-0.221756,0.041493,-0.010178,0.072021,0.700439,-0.755615,-2.028397,-7.103224,6.001375,0.093821,0.101376,-0.081585,0.112793,0.681885,-0.688477,-3.45705,-8.655585,2.934567,0.121997,0.043135,-0.074336,0.473145,0.769775,-0.392578
0.300549,-8.008372,5.500899,-0.101272,-0.099429,-0.062385,0.165771,0.925781,-0.59375,-1.145337,7.876275,5.918521,-0.208718,0.039012,0.066421,0.015625,-0.868896,-0.507812,-1.875209,-7.629255,6.057598,-0.198569,-0.005216,-0.019207,0.072754,0.704102,-0.753662,-2.156246,-6.951873,6.106558,-0.35865,0.07092,0.06035,0.114258,0.68457,-0.678955,-3.598006,-8.438498,3.066082,-0.061704,0.092228,-0.091885,0.475586,0.767334,-0.387695
0.277332,-8.068709,5.428802,-0.186933,-0.069153,-0.051434,0.155518,0.931396,-0.592041,-1.102579,7.709128,5.981948,-0.289889,0.019952,0.078823,0.008301,-0.864502,-0.515869,-1.742008,-7.591558,6.014142,-0.262625,0.02555,0.008583,0.068359,0.708252,-0.747803,-1.99756,-8.143714,5.660132,-0.479171,0.03496,0.076722,0.112061,0.693848,-0.670166,-3.501462,-8.662914,2.948853,-0.211624,0.047336,-0.132016,0.465332,0.774658,-0.383545
0.306972,-8.292432,5.302504,-0.172298,-0.05606,-0.041897,0.154785,0.931641,-0.592529,-1.112715,7.464045,5.915614,-0.241317,0.01229,0.099967,0.007568,-0.864014,-0.525146,-1.886002,-7.801007,5.938823,-0.273243,0.028015,0.015398,0.070068,0.713379,-0.744873,-2.017099,-8.218399,5.542869,-0.052347,0.109755,-0.008061,0.112793,0.692383,-0.673096,-3.303296,-9.002763,2.71123,-0.231265,0.086607,-0.098169,0.467773,0.775146,-0.383789
0.278699,-8.422644,5.355365,-0.110162,-0.076488,-0.043018,0.158203,0.9375,-0.587891,-1.063338,7.537958,6.023429,-0.107165,-0.002507,0.086979,0.008545,-0.857422,-0.523438,-1.809218,-7.841769,5.828717,-0.114726,0.005864,0.014292,0.073486,0.716309,-0.745117,-2.119158,-7.210142,5.850263,0.01068,0.097891,-0.007652,0.117676,0.697021,-0.671143,-3.487604,-9.209279,2.440118,-0.105749,0.1316,-0.046097,0.4729,0.780029,-0.376221
0.553319,-8.334796,5.35499,-0.10355,-0.037876,-0.018111,0.159424,0.935547,-0.582275,-0.927605,7.845649,6.176886,-0.132381,0.019895,0.096567,0.00415,-0.859863,-0.522705,-1.688062,-7.410375,5.911385,-0.101791,0.030182,0.005692,0.075684,0.714844,-0.736084,-2.038744,-7.289581,5.72263,-0.375261,0.044717,0.095785,0.121582,0.69873,-0.660156,-3.655625,-9.018366,2.509713,0.058581,0.022082,-0.06811,0.47168,0.775635,-0.375
0.169012,-8.373084,5.34211,-0.17884,-0.024874,-0.016192,0.153076,0.947266,-0.582275,-1.191891,7.917452,6.224788,-0.275036,0.044789,0.112,0.002441,-0.846191,-0.533936,-1.993151,-7.449856,5.905266,-0.377266,0.091781,0.050734,0.072754,0.731934,-0.733643,-2.256341,-8.375628,5.467554,-0.475727,0.095498,0.089661,0.119873,0.717041,-0.653564,-3.389339,-8.581045,2.678658,0.014634,-0.027875,-0.126969,0.467285,0.785889,-0.378906
0.206933,-8.525546,5.167405,-0.146653,-0.042618,-0.031222,0.155518,0.949463,-0.579834,-1.152799,7.488473,6.141423,-0.333328,0.018404,0.097576,0.00293,-0.845215,-0.537354,-2.101841,-8.208973,5.688503,-0.403138,0.025511,0.017409,0.078857,0.738037,-0.726074,-2.374456,-8.53552,5.391923,-0.12065,0.043058,-0.004985,0.124268,0.716553,-0.651123,-3.335465,-8.636536,2.649926,-0.220009,0.040042,-0.097803,0.466309,0.786377,-0.371094
0.08108,-8.425003,5.138858,-0.076493,-0.081098,-0.056253,0.157471,0.947266,-0.580811,-1.083005,7.333506,6.127353,-0.093736,0.056306,0.062351,0.00415,-0.844238,-0.544189,-1.898578,-8.21507,5.606953,-0.002433,0.030547,-0.019829,0.082031,0.738037,-0.729004,-2.072294,-7.753446,5.541997,-0.010793,0.070798,-0.025454,0.128174,0.716553,-0.656006,-3.302328,-9.116372,2.460946,-0.188105,0.019406,-0.107434,0.46875,0.790771,-0.374023
0.397165,-8.437671,5.195626,-0.081712,-0.114639,-0.092272,0.142334,0.948486,-0.572754,-1.061613,7.766522,6.264382,-0.040643,0.080649,0.035466,-0.003906,-0.845703,-0.544678,-1.979356,-7.33681,5.849649,0.058413,0.042973,-0.061887,0.071045,0.736084,-0.728516,-2.229513,-7.833035,5.556347,-0.220598,0.134161,0.031485,0.12085,0.71875,-0.648926,-3.198202,-9.093008,2.4073,0.093145,0.075805,-0.079512,0.457031,0.788574,-0.371338
0.409922,-8.421285,5.196106,-0.035368,-0.089586,-0.097977,0.148193,0.948242,-0.571289,-1.02979,7.629901,6.271651,-0.215172,0.109064,0.052059,0.006348,-0.841797,-0.544678,-1.883703,-7.392693,5.740313,-0.251238,0.009147,-0.004194,0.080322,0.740234,-0.720459,-2.282226,-8.149801,5.47306,-0.075371,0.072047,-0.017241,0.132568,0.717041,-0.643799,-3.536569,-8.628254,2.600134,0.156504,0.080715,-0.050942,0.46875,0.78833,-0.369385
0.479443,-8.224095,5.140584,-0.066573,-0.077567,-0.093074,0.144775,0.946533,-0.57373,-1.059763,7.338214,6.155652,-0.156893,0.118085,0.044378,0.006104,-0.844971,-0.550293,-1.829294,-7.997096,5.662813,-0.264064,0.036894,-0.017586,0.079346,0.739746,-0.718018,-2.115803,-7.46906,5.545376,-0.013422,0.079894,-0.055117,0.129639,0.717773,-0.644287,-3.388672,-8.514878,2.598098,-0.083,-0.041556,-0.160094,0.463379,0.786621,-0.372559
0.355145,-8.31813,5.098037,-0.127432,-0.080362,-0.084288,0.134033,0.955322,-0.57373,-1.140559,7.605225,6.259296,-0.110479,0.107843,0.065637,-0.004883,-0.837891,-0.552002,-1.929736,-7.940345,5.533624,-0.10196,0.04866,-0.015681,0.072266,0.747314,-0.718018,-2.257253,-7.485394,5.438592,-0.329146,0.079114,0.048081,0.124512,0.728027,-0.639404,-3.107327,-8.923137,2.475062,-0.159823,0.036887,-0.120294,0.452393,0.795898,-0.369873
0.516843,-8.265911,5.069437,-0.110208,-0.078154,-0.064534,0.137939,0.956299,-0.571533,-1.092474,7.464945,6.295543,-0.32533,0.092254,0.064199,0.003662,-0.831299,-0.562012,-1.922819,-7.642591,5.536611,-0.200644,0.04565,-0.023916,0.078125,0.753906,-0.714355,-2.265105,-8.385519,5.140088,-0.352599,0.037684,0.036895,0.130615,0.734619,-0.634033,-3.438114,-8.991899,2.478759,-0.030234,0.072884,-0.10864,0.45752,0.797852,-0.37085
0.402758,-8.34615,5.015332,-0.136884,-0.057234,-0.07797,0.135742,0.949219,-0.569824,-1.23836,6.906175,6.187198,-0.224835,0.101403,0.089069,0.003418,-0.84082,-0.567627,-2.083063,-7.98955,5.506238,-0.265433,0.049862,0.022512,0.079102,0.746338,-0.712158,-2.220198,-8.220231,5.114736,0.018076,0.10365,-0.026104,0.133301,0.722412,-0.636475,-3.332064,-8.845365,2.4886,-0.017664,-0.042036,-0.148239,0.455322,0.789307,-0.369873
0.497012,-8.459501,5.003874,-0.070085,-0.039923,-0.076682,0.134033,0.952148,-0.553467,-1.101881,7.290198,6.300844,-0.002567,0.083917,0.060895,0.004883,-0.836182,-0.550781,-1.967916,-8.013091,5.393434,-0.087517,0.005208,-0.034417,0.08252,0.748779,-0.693359,-2.302661,-7.323942,5.363799,-0.058639,0.129584,-0.022047,0.136719,0.72876,-0.617432,-3.150029,-8.803195,2.453864,0.000491,0.023524,-0.099843,0.453857,0.794434,-0.353516
0.421932,-8.24868,5.059531,-0.096792,-0.032748,-0.075933,0.123535,0.958008,-0.554932,-1.206778,7.727244,6.421574,-0.189091,0.112023,0.082701,-0.003418,-0.828857,-0.558105,-1.96842,-7.527931,5.457861,-0.114284,0.040273,0.000954,0.073242,0.756592,-0.695801,-2.340601,-7.624878,5.157227,-0.361733,0.097163,0.080792,0.131836,0.739502,-0.614014,-3.375628,-8.778235,2.545844,-0.039527,0.016509,-0.126636,0.443115,0.799805,-0.356445
0.504338,-8.443233,4.985383,-0.200418,-0.043543,-0.056746,0.134277,0.955322,-0.553955,-1.084627,7.286387,6.271495,-0.353058,0.059736,0.069519,0.008057,-0.830078,-0.570312,-1.898146,-7.724598,5.332299,-0.377142,0.003768,0.017084,0.085205,0.757812,-0.690186,-2.253717,-8.419763,4.938974,-0.349848,0.104523,0.045579,0.144531,0.738037,-0.611328,-3.091008,-8.921113,2.517361,-0.181337,-0.042291,-0.174088,0.449951,0.797119,-0.356689
0.416805,-8.578589,4.852329,-0.102816,-0.058318,-0.05171,0.121582,0.958984,-0.558594,-1.101776,7.001997,6.303379,-0.192525,0.116497,0.060261,-0.003662,-0.826416,-0.578369,-1.899898,-8.358376,5.109836,-0.296407,0.064365,0.006701,0.074219,0.767334,-0.693359,-2.413638,-8.461765,5.007445,-0.123849,0.117582,-0.00602,0.133301,0.741943,-0.616211,-2.930782,-9.265213,2.340087,-0.191054,0.048981,-0.112301,0.438232,0.801758,-0.358887
0.54124,-8.338397,4.865269,-0.054201,-0.071546,-0.049041,0.125,0.963135,-0.551025,-1.234442,7.088579,6.369052,-0.114962,0.078176,0.038283,0.003174,-0.821777,-0.577393,-2.105187,-8.188589,5.211629,0.00728,0.042319,-0.035876,0.080811,0.767578,-0.684814,-2.398415,-7.882249,5.186404,-0.015047,0.065715,-0.036953,0.141846,0.743164,-0.606934,-3.144246,-9.350564,2.298514,0.0193,0.063697,-0.053495,0.44458,0.803955,-0.353027
0.578178,-8.293991,4.891617,-0.120934,-0.080949,-0.050041,0.129883,0.961914,-0.557129,-1.019703,7.29722,6.452609,-0.097762,0.083215,0.033767,0.008301,-0.822998,-0.587402,-1.907943,-7.50107,5.452982,-0.062777,-0.012488,-0.034006,0.085449,0.766846,-0.693848,-2.195684,-7.638783,5.235106,-0.199855,0.052305,0.017804,0.146484,0.744629,-0.611084,-3.094891,-8.753758,2.481739,0.218313,0.018789,-0.086568,0.448486,0.801758,-0.365234
0.729415,-8.452609,4.883078,-0.183767,-0.061884,-0.035176,0.124756,0.96582,-0.549805,-1.148072,7.328051,6.583734,-0.275959,0.108999,0.046267,0.00708,-0.816406,-0.590576,-1.975192,-7.763159,5.325474,-0.397683,0.01158,0.010016,0.082764,0.774658,-0.68042,-2.222301,-8.351976,5.058591,-0.405574,0.153364,0.055436,0.149414,0.752686,-0.599121,-2.992972,-8.305417,2.605316,-0.114183,0.06004,-0.110355,0.443115,0.80835,-0.35791
0.533157,-8.596752,4.829282,-0.143633,-0.038324,-0.044267,0.12085,0.965332,-0.543945,-1.269026,6.824356,6.518712,-0.273985,0.103933,0.043289,0.008301,-0.817627,-0.593994,-2.163766,-8.578778,5.115267,-0.309161,-0.043192,-0.022924,0.07959,0.775391,-0.672607,-2.653266,-8.781526,4.911377,-0.131457,0.160695,-0.015621,0.149658,0.750488,-0.594482,-3.212952,-8.963715,2.341766,-0.396922,0.11268,-0.104515,0.441895,0.805176,-0.346191
0.650018,-8.610079,4.891999,-0.079552,-0.043513,-0.069936,0.117432,0.975342,-0.543701,-1.154811,7.025563,6.498593,-0.002727,0.107197,0.03081,0.007812,-0.809814,-0.589111,-1.81721,-8.226636,5.102076,0.068065,-0.058643,-0.066485,0.077148,0.783691,-0.674072,-2.474487,-7.770475,5.057502,0.110991,0.029487,-0.085582,0.144531,0.760986,-0.595947,-3.297264,-9.569758,2.084221,-0.106871,0.012499,-0.106629,0.435547,0.815186,-0.343506
0.66848,-8.491585,4.875035,-0.099679,-0.037296,-0.053887,0.109863,0.973145,-0.540283,-1.064579,7.687019,6.737924,-0.09589,0.132888,0.025986,0.002686,-0.811523,-0.592285,-1.803275,-7.490048,5.354061,-0.126745,0.017226,-0.029735,0.073242,0.783447,-0.670898,-2.141355,-7.458009,5.078722,-0.323324,0.046498,0.031411,0.14209,0.76123,-0.584961,-2.991218,-9.172206,2.232276,0.182239,-0.036409,-0.125599,0.429443,0.813721,-0.347412
0.677441,-8.552576,4.802666,-0.166617,-0.04705,-0.043613,0.121826,0.973633,-0.533203,-1.219262,7.263409,6.653381,-0.392191,0.10728,0.054553,0.015625,-0.806641,-0.600586,-2.019103,-8.164757,5.128097,-0.494911,-0.034627,0.037221,0.083252,0.786621,-0.658936,-2.351181,-8.666359,4.640891,-0.489532,0.09022,0.076654,0.156738,0.76416,-0.575195,-2.857249,-8.675472,2.454086,-0.01122,0.00281,-0.109758,0.439941,0.810547,-0.344482
0.594351,-8.749654,4.727507,-0.132308,-0.070385,-0.055787,0.106201,0.980225,-0.532715,-1.05966,6.663377,6.508939,-0.194482,0.137128,0.004335,0.005859,-0.801514,-0.604248,-1.761981,-8.927817,4.853561,-0.202557,-0.035319,-0.059908,0.06958,0.794678,-0.656982,-2.37184,-9.313671,4.541344,-0.153192,0.101648,-0.028519,0.142822,0.769287,-0.575195,-2.851788,-8.999223,2.320962,-0.271709,0.042464,-0.124625,0.421875,0.818359,-0.340576
0.64686,-8.592024,4.778269,-0.067008,-0.104918,-0.061285,0.106934,0.975098,-0.53833,-1.346852,7.110975,6.731874,0.024302,0.166913,-0.01984,0.012695,-0.806152,-0.611084,-2.019477,-8.35114,4.956135,0.082582,0.007929,-0.089365,0.071533,0.789062,-0.666992,-2.462449,-8.526536,4.778549,0.116163,0.134481,-0.111732,0.148193,0.765625,-0.585205,-2.963016,-9.46459,2.077281,-0.130245,0.062346,-0.097147,0.425049,0.815918,-0.344482
0.749268,-8.467269,4.78049,-0.127582,-0.10212,-0.058963,0.103271,0.975098,-0.527588,-1.236095,7.407231,6.803098,-0.158639,0.111738,-0.030405,0.012939,-0.80835,-0.606201,-1.840593,-7.915024,5.190146,-0.139598,-0.078282,-0.090586,0.067383,0.788818,-0.654785,-2.501803,-7.838122,4.991744,-0.063856,0.057955,-0.06017,0.148438,0.760986,-0.57251,-3.094637,-9.192517,2.169713,0.096221,0.027574,-0.094737,0.424805,0.814697,-0.336914
0.821528,-8.666125,4.71328,-0.160033,-0.092701,-0.0405,0.094971,0.977051,-0.526367,-1.311181,6.978057,6.723124,-0.266871,0.114152,0.02224,0.007812,-0.80249,-0.614258,-1.727447,-8.388972,5.006646,-0.289189,-0.001706,0.001996,0.05957,0.791992,-0.651855,-2.342915,-8.012441,4.806585,-0.230162,0.005187,-0.009814,0.140869,0.768066,-0.572998,-3.021899,-8.880303,2.330439,-0.053769,-0.018246,-0.122509,0.414551,0.815674,-0.340576
0.752336,-8.722982,4.70582,-0.145951,-0.054218,-0.020902,0.099121,0.98584,-0.518555,-1.313971,6.873986,6.780948,-0.138627,0.106807,-0.004987,0.014648,-0.794678,-0.609375,-2.020063,-8.52773,5.050566,-0.124024,-0.001492,-0.055507,0.063721,0.803223,-0.648193,-2.311511,-8.382407,4.746005,-0.253943,0.073894,0.00223,0.145996,0.780762,-0.562012,-2.941264,-9.136407,2.195716,-0.246814,0.001418,-0.120075,0.416748,0.830322,-0.328125
0.64878,-8.883721,4.607733,-0.124412,-0.084523,-0.049444,0.10376,0.987793,-0.520996,-1.529544,6.99634,6.89197,-0.129713,0.135683,-0.002738,0.02417,-0.796631,-0.619141,-2.184486,-8.265749,5.111532,-0.104399,-0.073377,-0.025157,0.070801,0.800781,-0.646973,-2.516864,-8.656935,4.587748,-0.142791,0.141724,0.005556,0.156006,0.778809,-0.562256,-3.03493,-9.585593,1.99642,-0.186831,-0.001057,-0.103565,0.422852,0.823975,-0.331299
0.782192,-8.741912,4.639044,0.002643,-0.064792,-0.041963,0.102295,0.980957,-0.517578,-1.314984,6.846619,6.705496,-0.096655,0.080967,-0.020229,0.023926,-0.796875,-0.616699,-1.778876,-8.367448,4.945131,-0.101816,-0.167875,-0.052589,0.066406,0.797852,-0.641602,-2.319286,-8.323629,4.557258,0.066487,0.150168,-0.023868,0.156494,0.773438,-0.560303,-2.938581,-9.530326,1.98747,0.135098,-0.063475,-0.08023,0.419922,0.81958,-0.328857
0.87374,-8.486411,4.709634,-0.091689,-0.081518,-0.04773,0.109131,0.983398,-0.52124,-1.29308,7.142938,6.884129,0.001616,0.162661,-0.011518,0.036377,-0.793945,-0.619385,-1.574542,-8.308244,4.93065,-0.084471,-0.050681,-0.011644,0.072754,0.802734,-0.645508,-2.357177,-7.833971,4.628732,-0.087281,0.225762,0.009304,0.168701,0.777832,-0.562012,-2.824834,-8.831352,2.294191,0.19915,-0.04476,-0.100933,0.427246,0.821777,-0.337891
0.794066,-8.681327,4.461313,-0.109614,-0.062933,-0.046124,0.098145,0.984375,-0.514404,-1.541611,7.237263,7.068053,-0.18947,0.087736,-0.000876,0.029541,-0.79541,-0.621338,-1.969111,-8.538494,4.91546,-0.215568,-0.051394,0.017088,0.064697,0.803711,-0.637939,-2.586779,-8.469339,4.54314,-0.291366,0.157172,0.099546,0.162354,0.779297,-0.552734,-2.739273,-8.644525,2.384917,-0.102535,-0.074954,-0.11354,0.41333,0.822754,-0.335938
0.782916,-8.551438,4.502327,-0.05169,-0.099706,-0.068939,0.085205,0.980469,-0.512695,-1.429197,6.713475,6.886899,-0.222125,0.07284,0.002148,0.022217,-0.795898,-0.625,-1.874054,-8.871129,4.819789,-0.150403,-0.120209,0.030905,0.054932,0.798828,-0.635742,-2.424468,-8.78726,4.361768,-0.064963,0.184641,0.044808,0.160156,0.773926,-0.549316,-2.512318,-9.168883,2.141998,-0.246554,-0.010028,-0.133813,0.402344,0.82251,-0.325439
0.727068,-8.686029,4.49764,-0.090352,-0.102884,-0.088367,0.085938,0.983887,-0.512451,-1.551646,6.732587,6.759541,0.031251,0.053996,-0.015016,0.028564,-0.792969,-0.627197,-1.761045,-8.662515,4.697514,0.06501,-0.093619,0.015391,0.05957,0.804443,-0.639404,-2.631012,-8.390374,4.398963,-0.003081,0.250026,0.074113,0.170898,0.7771,-0.552734,-2.766102,-9.500394,2.052983,0.022404,0.068504,-0.042199,0.407959,0.823486,-0.332031
0.861014,-8.582026,4.555053,-0.015907,-0.118027,-0.091395,0.085449,0.990479,-0.515869,-1.459685,7.281367,6.928105,-0.050908,0.062069,-0.022527,0.032959,-0.788574,-0.628906,-1.704093,-8.026012,4.785487,0.004003,-0.047416,-0.005339,0.060547,0.807373,-0.639404,-2.83345,-8.419578,4.353484,-0.151853,0.13902,0.051353,0.17627,0.783936,-0.54834,-3.014729,-8.954669,2.244621,0.227046,0.01563,-0.10393,0.406006,0.825928,-0.335938
0.915604,-8.481131,4.642048,-0.107866,-0.093118,-0.085519,0.081543,0.989014,-0.503174,-1.542684,6.826806,6.788588,-0.28717,0.013721,0.011756,0.030273,-0.786865,-0.625,-1.798337,-8.302218,4.810199,-0.291448,-0.032689,0.058895,0.05957,0.809082,-0.625244,-2.530711,-8.714487,4.304892,-0.151257,0.064007,0.056506,0.175781,0.781738,-0.537842,-2.846559,-8.674624,2.315949,-0.047808,-0.020582,-0.109407,0.4021,0.824219,-0.325684
0.987772,-8.834229,4.491596,-0.13897,-0.083023,-0.065805,0.072754,0.984619,-0.508545,-1.394421,6.463109,6.841682,-0.089919,0.017844,-0.012578,0.025635,-0.789307,-0.635742,-1.800949,-9.038576,4.568635,-0.202482,-0.04638,0.012393,0.051758,0.80835,-0.631592,-2.536972,-8.811897,4.275401,-0.112099,0.178469,0.031402,0.17334,0.78125,-0.541016,-2.787727,-9.278273,2.0834,-0.315887,-0.002964,-0.125969,0.394287,0.828857,-0.330322
0.977742,-8.798276,4.465585,-0.036729,-0.083859,-0.055014,0.07251,0.994385,-0.505615,-1.524259,6.882288,6.951695,-0.003303,-0.008802,-0.028162,0.028564,-0.780518,-0.630859,-1.735184,-8.762612,4.550397,0.092018,-0.051197,-0.018937,0.054199,0.815918,-0.630127,-2.848423,-8.777315,4.214293,-0.041671,0.095765,0.02423,0.178711,0.789551,-0.539307,-2.76958,-9.823082,1.876499,-0.117405,-0.037937,-0.114377,0.395264,0.834473,-0.326172
1.035324,-8.651901,4.392211,-0.051368,-0.078962,-0.058882,0.073486,0.987305,-0.501953,-1.293412,6.909916,6.855432,-0.094263,-0.010151,-0.022425,0.02832,-0.78833,-0.634033,-1.575552,-8.056857,4.807577,0.069936,-0.015118,-0.032894,0.052979,0.80957,-0.628906,-2.478782,-8.431725,4.252393,0.044899,0.002748,-0.019505,0.174805,0.780762,-0.539551,-2.561572,-9.560822,2.021359,0.189418,-0.102575,-0.073951,0.394043,0.82959,-0.327637
0.856586,-8.62857,4.332338,-0.085041,-0.112513,-0.025789,0.06958,1.000977,-0.499023,-1.505145,6.869828,6.863085,-0.074216,0.008725,-0.029185,0.032227,-0.776123,-0.633301,-1.75011,-8.18922,4.782064,-0.218146,0.022021,0.023338,0.055908,0.822754,-0.62207,-2.465129,-8.265166,4.334675,-0.118485,0.114376,0.017265,0.178223,0.795898,-0.532715,-2.345061,-8.823212,2.342772,0.191776,-0.028664,-0.094389,0.391602,0.840332,-0.329834
0.948825,-8.611831,4.322199,-0.149147,-0.145575,-0.040899,0.061035,1.000977,-0.498047,-1.544701,6.786724,6.961225,-0.186117,-0.027645,-0.049037,0.025146,-0.772461,-0.639404,-1.998409,-8.798145,4.691929,-0.183367,-0.027101,-0.011348,0.048096,0.822266,-0.623047,-2.865135,-8.729938,4.297944,-0.187535,0.112876,0.036968,0.174072,0.795654,-0.53125,-2.430267,-8.708148,2.378551,-0.220372,0.056351,-0.074712,0.385986,0.840332,-0.326416
1.042139,-8.877593,4.277635,-0.087491,-0.161311,-0.057823,0.064209,1.00293,-0.48584,-1.488766,6.481217,6.898892,-0.063888,-0.010844,-0.061411,0.034424,-0.769287,-0.634033,-1.724397,-8.640229,4.715064,0.078968,-0.079543,-0.049101,0.053223,0.824219,-0.616699,-2.668566,-8.785959,4.206723,0.073754,0.049361,-0.034407,0.181641,0.797363,-0.524414,-2.598466,-9.462919,2.048804,-0.302876,0.091006,-0.068262,0.391602,0.847656,-0.311279
1.353504,-8.611522,4.362405,-0.027108,-0.152757,-0.064672,0.064453,0.987793,-0.491943,-1.379737,6.814839,7.075218,0.016061,-0.027066,-0.045902,0.036133,-0.78833,-0.639648,-1.507929,-8.071442,4.690915,0.032812,-0.024376,-0.018229,0.053467,0.805176,-0.625244,-2.526096,-7.770544,4.407088,0.13334,0.077177,-0.042951,0.184082,0.776855,-0.534424,-2.6637,-9.638151,1.931177,0.063938,0.028822,-0.060621,0.391846,0.827148,-0.318848
1.564016,-8.612755,4.427515,-0.156822,-0.110424,-0.044496,0.064453,0.991699,-0.497559,-1.094283,6.902126,7.072436,-0.186214,-0.017039,-0.021098,0.039551,-0.780029,-0.651611,-1.350124,-8.155818,4.649878,-0.226535,-0.012382,0.01511,0.05957,0.813477,-0.62793,-2.514545,-8.075075,4.309175,-0.409154,-0.053641,0.067361,0.187988,0.789795,-0.532227,-2.560232,-8.966975,2.194343,0.198881,-0.006595,-0.09416,0.394043,0.831055,-0.331299
1.397884,-8.742214,4.36191,-0.165623,-0.055061,-0.018046,0.06665,1.001465,-0.48999,-1.31502,6.513758,7.07495,-0.299838,0.029174,0.014904,0.043701,-0.769775,-0.650879,-1.578759,-8.691805,4.603162,-0.322159,0.088649,0.00456,0.062256,0.824707,-0.612793,-2.28756,-9.587189,4.083057,-0.439697,-0.006319,0.020354,0.192627,0.800049,-0.521729,-2.692415,-8.554592,2.331108,-0.102468,-0.027182,-0.137244,0.396729,0.836914,-0.322998
1.304547,-8.810642,4.252122,-0.215379,-0.055871,-0.032237,0.055176,1.003174,-0.481445,-1.393725,6.203338,7.15112,-0.203616,0.011603,-0.048627,0.033691,-0.769287,-0.653564,-2.201739,-9.010474,4.543348,-0.173172,-0.056971,-0.077123,0.049561,0.825439,-0.609131,-2.702737,-9.713406,4.119392,-0.01451,0.153955,-0.093173,0.182617,0.799072,-0.518799,-2.449485,-9.212045,2.042278,-0.444093,-0.121286,-0.208369,0.380127,0.84375,-0.312744
1.195266,-9.204797,4.101168,-0.125402,-0.047834,-0.053067,0.05249,1.012207,-0.480713,-1.579532,6.241197,7.15977,-0.003439,0.071405,-0.059742,0.036621,-0.76001,-0.654297,-1.790328,-8.867085,4.699818,0.007986,-0.172219,-0.131503,0.047119,0.83374,-0.613281,-2.78862,-8.710987,4.210571,0.215828,0.128523,-0.127427,0.177979,0.803223,-0.524414,-2.294945,-10.038673,1.73681,-0.23695,-0.046006,-0.150501,0.376465,0.855469,-0.310059
1.254159,-8.928412,4.205174,0.042116,-0.044403,-0.08325,0.060791,1.008057,-0.476562,-1.542947,6.774782,7.273921,0.117246,0.037146,-0.070942,0.049072,-0.767334,-0.649658,-1.65654,-8.48842,4.814059,0.133653,-0.145105,-0.124624,0.048828,0.827881,-0.613037,-2.534696,-7.958759,4.31435,0.063292,0.180181,-0.065457,0.189697,0.800049,-0.520508,-2.524485,-9.938863,1.838686,0.221617,-0.090239,-0.073845,0.383057,0.851562,-0.315674
1.024066,-8.864441,4.15021,-0.117135,-0.069124,-0.069916,0.046875,1.005127,-0.476807,-1.368283,6.435105,6.631755,0.133882,0.10692,-0.037194,0.041748,-0.771729,-0.644775,-1.482346,-8.691502,4.584052,0.180792,-0.138046,-0.104471,0.036621,0.820557,-0.617676,-2.6075,-9.129073,4.00108,0.002583,0.176614,0.059316,0.18335,0.794678,-0.521729,-2.360965,-9.007252,2.177255,0.297738,-0.123455,-0.153078,0.365967,0.845215,-0.321533
1.320756,-8.949441,4.087333,0.060301,-0.084037,-0.107803,0.051025,1.003662,-0.474609,-1.79146,7.299632,7.164013,0.23091,0.158921,-0.129479,0.053711,-0.777832,-0.63916,-1.846483,-7.681666,4.88798,0.304054,-0.106949,-0.191844,0.036621,0.814209,-0.622803,-2.859564,-7.977388,4.453379,0.495523,0.258332,-0.250513,0.188477,0.787842,-0.52832,-2.092264,-9.020916,2.086843,-0.09541,-0.080125,-0.075961,0.373535,0.839844,-0.316895
1.121401,-8.509471,4.24982,0.012085,-0.102231,-0.078925,0.046143,1.002686,-0.476807,-1.470564,6.966643,7.070409,-0.201794,0.079703,-0.03338,0.051758,-0.770508,-0.643066,-1.311955,-7.876644,4.967384,-0.241945,-0.206375,-0.020439,0.02832,0.819092,-0.615234,-2.592632,-7.086328,4.56628,-0.051219,0.095877,0.054287,0.187256,0.792236,-0.527344,-2.434722,-9.437908,2.000654,-0.022938,0.014581,-0.084815,0.367676,0.84668,-0.314453
1.32459,-8.740184,4.21168,-0.163627,-0.102868,-0.101573,0.046631,1.001465,-0.471191,-1.723615,6.607429,6.818943,-0.067568,0.153502,-0.101444,0.059814,-0.775635,-0.641357,-1.477733,-8.741922,4.583848,-0.196207,-0.08647,-0.057465,0.030273,0.820801,-0.613281,-2.568786,-8.137633,4.19419,-0.332757,0.163886,-0.022787,0.191162,0.790039,-0.518799,-2.410816,-9.141386,2.074619,0.149072,-0.090725,-0.145989,0.368408,0.840088,-0.31665
1.30379,-8.978261,4.089237,-0.05839,-0.127074,-0.091978,0.035645,1.006836,-0.478027,-1.640453,6.781203,7.050861,-0.046714,0.08113,-0.048619,0.059082,-0.768555,-0.652832,-1.279438,-8.549214,4.445374,0.079001,-0.150547,-0.019951,0.023682,0.824707,-0.623779,-2.832316,-8.657124,4.135059,-0.020326,0.10264,0.058476,0.191162,0.798828,-0.527344,-2.213784,-8.978472,2.128324,-0.047658,-0.061669,-0.144705,0.357178,0.848389,-0.327637
1.620096,-8.524062,4.206854,-0.041933,-0.093749,-0.06825,0.032959,1.004395,-0.467041,-1.477816,6.823618,6.97591,-0.122719,0.129078,-0.051911,0.060059,-0.771729,-0.645264,-0.736132,-8.075989,4.547903,-0.099988,0.040144,-0.024924,0.022705,0.822021,-0.614258,-2.954625,-8.228755,4.690613,-0.075755,-0.244625,-0.120337,0.181396,0.794922,-0.516846,-2.303161,-9.319376,2.068211,-0.155718,-0.04486,-0.143404,0.355469,0.846436,-0.315674
1.49159,-8.5782,4.102062,-0.218278,-0.098634,-0.066432,0.026611,1.011475,-0.459961,-1.55915,6.877427,7.051316,-0.214903,0.085542,0.002077,0.060059,-0.765381,-0.650635,-1.381249,-8.373997,4.688685,-0.319504,0.142647,0.068462,0.025146,0.831055,-0.603271,-2.407173,-8.301701,4.415309,-0.296387,-0.464076,0.003191,0.175537,0.80249,-0.513184,-2.222341,-9.40745,2.106514,-0.02787,-0.140134,-0.195608,0.347168,0.85498,-0.314209
1.561868,-8.841842,3.916227,-0.18831,-0.092787,-0.019128,0.022705,1.014404,-0.46167,-1.559826,6.402101,7.069061,-0.394768,0.108349,-0.00173,0.058838,-0.756592,-0.661377,-1.49943,-8.834019,4.672673,-0.308146,0.044535,0.015365,0.022461,0.838135,-0.600586,-2.24611,-8.735511,3.951967,-0.298312,-0.363117,-0.081098,0.164307,0.807373,-0.509521,-1.850822,-9.154009,2.132794,-0.045,-0.125742,-0.200374,0.341064,0.856445,-0.318359
1.447328,-8.792065,3.927532,-0.169703,-0.077959,-0.046678,0.026367,1.013428,-0.45459,-1.937012,5.88746,7.190374,-0.216722,0.097146,-0.009066,0.064941,-0.756104,-0.662354,-1.86179,-8.937851,4.582779,-0.169096,0.027533,0.041853,0.027344,0.835938,-0.595703,-2.264687,-8.590403,3.811685,-0.104834,-0.107615,0.019976,0.168213,0.805908,-0.51001,-2.003504,-9.263493,2.1181,-0.201871,-0.017976,-0.145313,0.340576,0.857422,-0.311035
1.354795,-9.086769,3.935749,-0.134982,-0.087579,-0.071372,0.023438,1.017822,-0.462402,-1.995239,6.188323,7.229353,0.034026,0.055405,-0.047893,0.068115,-0.758789,-0.670166,-2.12857,-8.966145,4.603449,-0.061612,-0.176751,0.040155,0.027832,0.835693,-0.604736,-2.6339,-8.494327,3.800957,-0.12637,0.064447,0.046585,0.170166,0.808105,-0.511963,-2.271782,-9.671847,1.854566,-0.146968,-0.059559,-0.14123,0.337646,0.857178,-0.31958
1.409911,-9.006464,3.87556,0.021446,-0.066238,-0.103483,0.019531,1.009521,-0.451416,-1.871309,6.70706,7.276573,0.038714,0.082499,-0.070675,0.068604,-0.763428,-0.658691,-1.452187,-8.78131,4.43065,0.029291,-0.216667,-0.022139,0.023438,0.830078,-0.597412,-2.430211,-9.102697,3.496125,-0.166441,0.172995,0.13722,0.175049,0.804932,-0.496826,-2.074363,-9.638224,1.845256,0.165845,-0.137138,-0.130568,0.331543,0.851562,-0.311768
1.292967,-8.716728,3.978981,-0.051855,-0.102282,-0.126741,0.014893,1.014893,-0.456543,-2.139207,6.572037,7.269745,-0.121118,0.085666,-0.073881,0.069336,-0.756836,-0.667725,-1.850661,-8.718632,4.373502,-0.028436,-0.131482,0.044129,0.018555,0.834717,-0.602539,-2.727808,-9.159405,3.589115,0.097724,0.376834,0.029435,0.179443,0.806641,-0.506348,-1.898659,-9.00344,2.037874,0.271223,-0.064417,-0.141195,0.325195,0.855713,-0.32666
1.46494,-9.066317,3.867038,-0.098276,-0.113726,-0.146043,0.013916,1.028076,-0.448486,-1.97577,6.315658,7.109942,-0.010764,0.035495,-0.117655,0.07666,-0.742432,-0.663818,-1.42109,-8.819701,4.226917,-0.005137,-0.266196,-0.044956,0.019775,0.848389,-0.595703,-3.180467,-8.477845,4.026136,0.116002,0.21403,0.052643,0.188232,0.819336,-0.504883,-2.059661,-8.852898,2.082061,-0.047669,-0.041227,-0.141015,0.328857,0.869873,-0.318848
1.531094,-8.913377,3.910635,0.056565,-0.114292,-0.169277,0.010254,1.012207,-0.456299,-1.961703,6.729864,7.151886,0.110747,0.090166,-0.077951,0.078613,-0.75708,-0.669434,-0.898345,-8.637373,4.272974,0.068575,0.008672,0.038279,0.018799,0.834961,-0.606934,-2.791913,-8.452357,3.85044,-0.066376,-0.104278,0.022489,0.184814,0.807617,-0.510742,-2.032093,-9.496962,1.779681,-0.134595,-0.073663,-0.185362,0.321289,0.86084,-0.32666
1.638209,-8.529024,4.053479,-0.072809,-0.121365,-0.14673,0.007324,1.010986,-0.448975,-1.928563,6.936718,7.179274,-0.131857,0.013977,-0.089455,0.084473,-0.758545,-0.666016,-1.623846,-8.389518,4.538879,-0.03399,0.046497,0.0092,0.023193,0.833252,-0.601074,-2.372357,-8.672692,3.724099,-0.10518,-0.074948,0.03456,0.187256,0.804688,-0.504395,-2.078605,-9.537676,1.807624,0.174439,-0.114782,-0.178001,0.317871,0.856689,-0.325195
1.646822,-8.866104,3.81556,-0.142934,-0.120984,-0.153913,0.005127,1.018066,-0.446777,-1.785916,6.188863,6.988073,-0.301785,0.059448,-0.073734,0.0896,-0.749512,-0.672852,-1.381211,-8.552796,4.511027,-0.168034,-0.034469,0.040325,0.026367,0.838867,-0.596191,-2.511769,-8.71596,3.776472,-0.090869,0.028287,0.003219,0.189453,0.810303,-0.501709,-1.823787,-9.010002,2.05354,0.181451,-0.203719,-0.239625,0.315674,0.860352,-0.328613
1.811261,-8.797063,3.838218,-0.042183,-0.135464,-0.139346,0.000977,1.010498,-0.440674,-1.949341,5.897692,6.93984,0.011687,0.034786,-0.128759,0.095703,-0.755615,-0.667236,-1.500712,-8.760262,4.476819,-0.057882,-0.035767,-0.006265,0.025635,0.833496,-0.590088,-2.4468,-8.605193,3.80877,-0.010601,0.097165,0.028655,0.193115,0.80542,-0.498047,-1.645268,-9.004436,2.015155,-0.090165,-0.136985,-0.216168,0.311035,0.855225,-0.323975
1.743664,-8.637366,3.862127,-0.105218,-0.103001,-0.130566,-0.009033,1.02002,-0.443848,-1.90561,6.67353,7.199343,0.094299,0.055439,-0.095326,0.090576,-0.747803,-0.669922,-1.243713,-8.550717,4.554025,-0.011057,-0.079664,0.009754,0.020752,0.842773,-0.595459,-2.57091,-8.323645,3.854668,-0.016107,0.146751,0.014685,0.189209,0.812744,-0.498291,-2.01458,-9.50894,1.869162,-0.124272,-0.14467,-0.205133,0.301514,0.865234,-0.324951
1.936929,-8.944815,3.782367,-0.131715,-0.098916,-0.135835,-0.011963,1.02002,-0.442383,-2.088991,6.746594,7.244407,-0.21362,0.01729,-0.052494,0.091797,-0.744385,-0.675781,-1.225848,-8.481506,4.599566,-0.118948,0.038788,0.034365,0.020752,0.845215,-0.595947,-2.672004,-8.381659,3.90123,-0.163189,0.086256,0.069271,0.192627,0.815186,-0.495361,-1.89983,-9.605729,1.975668,0.074369,-0.309348,-0.275678,0.291016,0.869385,-0.332275
1.878282,-8.853067,3.781104,-0.024177,-0.048167,-0.105407,-0.012207,1.016602,-0.425049,-1.802785,6.086673,7.042371,-0.219304,0.014138,-0.005146,0.094482,-0.741699,-0.663818,-1.328758,-8.754942,4.476462,-0.17491,0.033161,0.054398,0.024658,0.842773,-0.577148,-2.534037,-8.833252,3.801659,-0.172527,0.037421,0.046323,0.198975,0.815918,-0.479248,-1.497664,-9.355642,2.131445,0.113089,-0.301205,-0.242969,0.284668,0.863525,-0.321777
1.952876,-8.571951,3.843565,-0.091586,-0.068216,-0.102394,-0.021973,1.016113,-0.435303,-2.053186,6.224829,7.123346,-0.019573,0.008838,-0.009842,0.08667,-0.744141,-0.678467,-1.336742,-8.82276,4.384327,-0.071584,0.054692,0.05235,0.02124,0.841309,-0.589844,-2.592878,-8.490657,3.881841,0.023994,0.086198,0.023606,0.193115,0.812012,-0.492188,-1.581957,-9.255189,2.190659,0.010412,-0.270075,-0.231277,0.268799,0.865479,-0.335449
1.907696,-8.798087,3.7219,-0.160716,-0.018833,-0.067747,-0.01416,1.026611,-0.423584,-1.795453,6.624722,7.195033,-0.164925,-0.0315,0.009803,0.095459,-0.734375,-0.674805,-1.331733,-8.436574,4.511432,-0.090787,0.048538,0.052689,0.030273,0.855225,-0.578125,-2.552156,-8.218609,3.869839,-0.255403,0.049435,0.06424,0.200195,0.825439,-0.481445,-1.473148,-9.391042,2.201493,-0.094256,-0.340422,-0.276296,0.269531,0.876953,-0.327148
1.763452,-8.925412,3.64095,-0.091178,-0.047926,-0.06956,-0.018066,1.023438,-0.430176,-2.158964,6.117405,7.105844,-0.296844,0.01315,0.034415,0.094971,-0.733643,-0.686035,-1.663855,-8.598991,4.563248,-0.252391,0.083872,0.084821,0.033203,0.853516,-0.581055,-2.636619,-9.111552,3.641249,-0.311935,0.167977,0.118849,0.205566,0.823486,-0.477539,-1.21533,-9.680487,2.139353,-0.113214,-0.315633,-0.233315,0.260742,0.872314,-0.33374
1.768488,-8.842835,3.629954,-0.092403,-0.061056,-0.050412,-0.018555,1.027588,-0.430176,-2.04248,5.977238,7.132978,-0.051126,-0.075848,-0.008298,0.094971,-0.72998,-0.688232,-1.744761,-9.066643,4.317311,-0.16256,-0.063007,0.047726,0.031738,0.858154,-0.57959,-2.87647,-9.009443,3.69094,0.068062,0.246458,0.019973,0.208252,0.825684,-0.480957,-1.229798,-9.773304,2.110653,-0.003869,-0.271325,-0.195081,0.254395,0.87793,-0.335205
1.906233,-9.021482,3.633688,-0.108093,-0.091409,-0.054515,-0.022949,1.024658,-0.428467,-1.986726,6.477781,7.262514,-0.001397,-0.012383,0.005922,0.092041,-0.73584,-0.690186,-1.279565,-8.764043,4.305556,0.062016,-0.008479,0.033239,0.031494,0.852783,-0.582275,-2.893432,-8.125011,3.920612,0.006316,0.177309,0.058017,0.211914,0.822021,-0.481689,-1.207401,-9.627842,2.100717,0.040632,-0.255327,-0.18596,0.248047,0.872559,-0.341797
2.071697,-8.947641,3.67519,-0.04598,-0.077356,-0.038227,-0.031738,1.016846,-0.416016,-1.948555,6.530371,7.410032,-0.187773,-0.065348,0.007608,0.08374,-0.737793,-0.682861,-1.549034,-8.231648,4.345147,-0.053845,0.053125,0.047826,0.027588,0.846436,-0.569824,-2.77224,-8.516351,3.708368,-0.307369,0.115621,0.105077,0.20752,0.817627,-0.463867,-1.249402,-9.462158,2.172863,0.027718,-0.281959,-0.16459,0.232178,0.867188,-0.333496
2.012994,-8.926005,3.636046,-0.130072,-0.069893,-0.044256,-0.028809,1.026123,-0.419678,-1.901296,5.967252,7.389753,-0.260162,0.005219,0.00916,0.085693,-0.727051,-0.695312,-1.677676,-8.699228,4.23968,-0.333144,0.009832,0.085195,0.033936,0.856201,-0.570557,-2.866775,-9.330627,3.47797,-0.228106,0.189268,0.087818,0.214844,0.825439,-0.465088,-1.063191,-9.435016,2.176292,-0.055717,-0.322155,-0.22308,0.22876,0.876709,-0.337402
2.045293,-9.191303,3.548322,-0.076097,-0.075822,-0.056671,-0.033447,1.025635,-0.41626,-2.125158,5.80448,7.397956,0.004318,-0.018379,-0.034048,0.088867,-0.729004,-0.689697,-1.759261,-9.46773,4.17989,-0.118833,-0.025562,0.031625,0.032959,0.856201,-0.566406,-3.104513,-9.114137,3.689006,0.122617,0.218045,0.025266,0.217529,0.821045,-0.462891,-0.921445,-9.603668,2.03432,-0.061026,-0.293621,-0.182571,0.221436,0.874023,-0.331543
2.055584,-8.986245,3.618653,0.004629,-0.083398,-0.075604,-0.034424,1.027588,-0.41748,-1.925247,6.449745,7.461851,0.099928,-0.006418,-0.037917,0.090088,-0.729004,-0.693115,-1.628257,-8.886019,4.343532,0.214998,-0.081637,0.01221,0.031494,0.854492,-0.57373,-2.975269,-8.099031,3.822745,0.128337,0.161335,0.034056,0.22168,0.824707,-0.469971,-1.173049,-9.631196,1.93129,0.083267,-0.297831,-0.190163,0.215332,0.877197,-0.342041
2.115822,-8.888567,3.621881,-0.037933,-0.061224,-0.079393,-0.032715,1.023438,-0.415283,-2.002731,6.461775,7.458268,-0.143765,0.007712,-0.021292,0.094971,-0.72876,-0.693848,-1.434088,-8.159022,4.285582,0.04569,-0.035941,0.027083,0.036621,0.85498,-0.573486,-2.852491,-8.440753,3.652815,-0.262136,0.183434,0.155882,0.230957,0.825195,-0.458252,-1.114744,-9.35442,2.089193,0.13965,-0.427947,-0.235728,0.209717,0.875977,-0.344238
2.108635,-8.879246,3.614106,-0.075018,-0.058492,-0.074027,-0.037842,1.022217,-0.413818,-1.975154,5.94492,7.38066,-0.179774,-0.001724,-0.027243,0.089355,-0.728027,-0.696777,-1.692317,-8.636167,4.191657,-0.304428,-0.018373,0.083332,0.033203,0.856445,-0.564209,-3.161033,-9.500277,3.461551,-0.214291,0.189415,0.075021,0.22998,0.823486,-0.454346,-0.845562,-9.184489,2.260322,0.050268,-0.444746,-0.268468,0.195801,0.871338,-0.345215
2.156424,-9.009003,3.465638,-0.079553,-0.039464,-0.100276,-0.049561,1.021973,-0.408691,-2.012541,5.920207,7.39382,-0.010915,0.03398,-0.048064,0.084229,-0.730225,-0.694092,-1.73245,-9.341761,4.12533,-0.102739,-0.077838,0.005734,0.027832,0.855469,-0.558838,-3.172141,-9.141953,3.559343,0.138848,0.120309,-0.002423,0.224365,0.819824,-0.452881,-0.7064,-9.329793,2.350208,-0.041455,-0.456693,-0.282622,0.179443,0.868164,-0.342041
2.132729,-8.995666,3.408252,-0.009478,-0.06061,-0.124394,-0.047119,1.023926,-0.406006,-1.985369,6.165674,7.574298,0.017487,0.049405,-0.057613,0.092041,-0.728516,-0.692871,-1.555144,-8.824796,4.090385,0.187565,-0.065619,-0.033144,0.032715,0.854736,-0.564697,-2.978008,-8.410104,3.536447,0.056475,0.135125,0.003629,0.234619,0.822266,-0.456787,-0.338067,-9.554846,2.267519,0.016235,-0.477525,-0.306305,0.174805,0.874023,-0.345947
2.200007,-8.927469,3.436433,-0.013777,-0.073865,-0.153431,-0.047852,1.031006,-0.410156,-2.046295,6.203792,7.520675,-0.015646,0.058,-0.078172,0.098877,-0.717773,-0.695557,-1.563567,-8.443692,4.178673,-0.036605,-0.074803,-0.00281,0.031982,0.863037,-0.566895,-3.094025,-8.803481,3.441281,-0.165044,0.124238,0.083535,0.237793,0.831299,-0.452637,-0.198984,-9.629963,2.343574,0.099561,-0.370025,-0.262656,0.16748,0.882568,-0.350586
2.220231,-8.90142,3.440309,-0.008412,-0.09183,-0.139347,-0.050781,1.030029,-0.416504,-1.998807,6.081099,7.416139,-0.057628,0.04039,-0.071748,0.101318,-0.719971,-0.702881,-1.500276,-9.069536,4.138921,-0.177319,-0.058653,0.025693,0.034668,0.863525,-0.570312,-3.009782,-9.211884,3.288518,0.026526,0.078878,0.011386,0.243408,0.830811,-0.459473,-0.404335,-9.561339,2.436207,0.092479,-0.35376,-0.246621,0.15918,0.883057,-0.359863
2.115365,-8.872314,3.413132,0.01688,-0.089353,-0.140779,-0.059326,1.019043,-0.412842,-2.120565,5.74617,7.254185,-0.013818,0.043552,-0.078787,0.096924,-0.726318,-0.701416,-1.690121,-9.330714,4.031975,0.137664,-0.071035,-0.018944,0.026123,0.853027,-0.572998,-2.957757,-8.676461,3.408837,0.191647,0.183579,0.024371,0.237305,0.819824,-0.459717,-0.233537,-9.696741,2.489774,0.031914,-0.374797,-0.250618,0.144775,0.872559,-0.358643
2.241351,-8.851205,3.43421,0.026893,-0.123836,-0.12853,-0.060547,1.02417,-0.407227,-2.138088,5.961351,7.300588,0.196625,0.007451,-0.103534,0.101318,-0.726318,-0.692871,-1.5056,-8.505976,4.179272,0.28207,-0.122318,-0.051849,0.0271,0.853516,-0.570312,-3.244505,-8.419848,3.519694,0.06295,0.15098,0.048695,0.243652,0.823975,-0.45752,-0.111373,-9.83464,2.49678,0.076094,-0.283622,-0.175531,0.139648,0.876709,-0.35498
2.322044,-8.888067,3.447718,-0.000204,-0.105985,-0.106901,-0.068604,1.018311,-0.41333,-2.053047,6.381186,7.378172,0.08404,0.010192,-0.08441,0.101318,-0.732178,-0.695801,-1.367503,-8.342484,4.422535,-0.011391,-0.068718,0.024104,0.025391,0.852295,-0.577393,-2.984364,-8.607515,3.419436,0.067151,0.06334,0.06833,0.243652,0.817627,-0.464111,-0.253734,-9.774112,2.549754,0.126607,-0.233674,-0.15856,0.13208,0.871338,-0.365479
2.370924,-8.857504,3.482417,0.046396,-0.104583,-0.093948,-0.067871,1.021484,-0.410889,-2.115464,6.159475,7.279025,-0.023182,-0.011404,-0.054332,0.106201,-0.724121,-0.694092,-1.479557,-8.908935,4.150313,-0.027238,-0.068846,0.028998,0.028076,0.856934,-0.573975,-2.931256,-8.381539,3.487774,0.127509,0.160972,0.045798,0.248779,0.821289,-0.463379,-0.229655,-9.595378,2.611149,0.131833,-0.268457,-0.144287,0.128418,0.876953,-0.365479
2.448662,-8.752651,3.615199,-0.076445,-0.11445,-0.05982,-0.077148,1.018311,-0.397949,-1.97452,6.086179,7.286151,0.001393,-0.013982,-0.084538,0.101074,-0.73291,-0.684326,-1.386555,-8.590493,4.195656,0.174519,-0.061461,0.00394,0.017334,0.850586,-0.571777,-3.247923,-8.273426,3.625754,-0.06401,0.104387,0.0739,0.246338,0.81665,-0.450195,-0.024493,-9.498707,2.629255,0.004305,-0.222815,-0.161863,0.116943,0.87207,-0.362793
2.547644,-9.181374,3.454635,-0.087039,-0.064618,-0.058385,-0.073486,1.01123,-0.406738,-2.086607,6.133195,7.320454,-0.03473,0.047299,-0.068828,0.108643,-0.737061,-0.69458,-1.499701,-8.092412,4.412671,-0.003873,-0.018789,0.003132,0.023682,0.845947,-0.57959,-3.098499,-8.905818,3.390819,-0.161252,0.021594,0.069179,0.25293,0.812988,-0.460449,-0.238186,-9.724968,2.5116,-0.125938,-0.176487,-0.121414,0.117188,0.865967,-0.366211
2.421686,-8.961012,3.531488,0.058751,-0.069303,-0.042673,-0.077393,1.022705,-0.407471,-2.178132,6.021747,7.352863,0.006501,0.033635,-0.085493,0.108643,-0.72583,-0.69751,-1.579454,-8.726633,4.246582,-0.209287,-0.078075,0.033746,0.020508,0.85791,-0.576172,-3.089302,-8.958327,3.198257,0.102908,0.107661,-0.000836,0.25,0.821777,-0.462402,-0.239334,-9.935269,2.425771,0.031445,-0.275418,-0.150754,0.108887,0.875977,-0.367676
2.558349,-8.721341,3.512394,-0.057076,-0.044265,-0.047074,-0.081543,1.018066,-0.408936,-2.102672,6.233563,7.426577,0.04389,0.050699,-0.077253,0.108643,-0.729492,-0.696045,-1.224814,-9.227073,4.143478,-0.028238,-0.036963,-0.012774,0.019775,0.854736,-0.579102,-3.181601,-8.402871,3.471924,0.03991,0.074686,9e-05,0.249268,0.818359,-0.464355,0.120017,-9.563402,2.584828,0.187363,-0.280001,-0.156574,0.10083,0.87085,-0.372559
2.380234,-9.107225,3.362297,-0.029895,-0.05742,-0.057429,-0.072021,1.018555,-0.403076,-2.250318,6.142911,7.321753,-0.015396,0.051583,-0.072901,0.122314,-0.731445,-0.691162,-1.619814,-8.925832,4.306602,0.170539,0.02337,-0.011472,0.031494,0.848389,-0.575684,-3.125783,-8.955261,3.349837,-0.130245,0.078085,0.085113,0.262939,0.817383,-0.455078,0.1762,-9.344002,2.652387,0.032356,-0.208795,-0.09975,0.109375,0.871826,-0.368652
2.461105,-8.842358,3.444116,0.053475,-0.05803,-0.042672,-0.081299,1.016113,-0.399414,-2.208349,6.072318,7.347195,0.061029,0.050167,-0.091705,0.114014,-0.730225,-0.69043,-1.499273,-8.42892,4.257478,0.106846,-0.053537,-0.045787,0.018799,0.846436,-0.577881,-3.277054,-9.036837,3.425093,0.191347,0.125204,-0.022099,0.255859,0.812988,-0.45874,0.10569,-9.602226,2.586859,-0.08033,-0.181232,-0.127789,0.094727,0.871094,-0.365967
2.423874,-8.803081,3.423085,-0.03262,-0.089118,-0.066439,-0.085693,1.019775,-0.407471,-2.305949,6.146409,7.293759,0.055932,0.046406,-0.106988,0.118408,-0.729736,-0.695068,-1.481011,-8.563494,4.178385,0.004321,-0.00547,0.022994,0.020752,0.849121,-0.582031,-3.441514,-8.008288,3.819079,0.218236,0.004271,-0.014003,0.255371,0.816162,-0.472168,0.144143,-9.767211,2.443092,0.042471,-0.178044,-0.094118,0.092285,0.871338,-0.373047
2.629727,-8.887658,3.365336,-0.00284,-0.084357,-0.043865,-0.086914,1.024658,-0.396729,-2.066595,6.203062,7.259981,0.063396,0.045031,-0.124595,0.120605,-0.723877,-0.681885,-1.331511,-8.615044,4.42257,0.02588,-0.043753,-0.032004,0.019043,0.855469,-0.574707,-3.080967,-8.334837,3.797665,-0.231411,-0.142386,0.052072,0.252686,0.821533,-0.456055,0.186758,-9.443355,2.536319,0.184004,-0.173292,-0.10835,0.087891,0.878174,-0.368652
2.681952,-8.611334,3.418349,-0.037934,-0.07098,-0.034941,-0.08667,1.012451,-0.395752,-2.217055,6.273454,7.473702,-0.059782,0.071784,-0.084792,0.126465,-0.73877,-0.684082,-1.314502,-8.744293,4.496869,-0.131927,0.021348,0.010418,0.023438,0.844727,-0.57251,-3.015972,-9.534879,3.457828,-0.174948,-0.011683,0.024777,0.256592,0.814941,-0.451904,0.245597,-9.10416,2.611845,0.009781,-0.183915,-0.124,0.084229,0.866699,-0.368896
2.630127,-8.903732,3.299946,-0.117392,-0.048276,-0.031872,-0.081055,1.025391,-0.395508,-2.273264,5.775171,7.293138,-0.1153,0.016005,-0.076569,0.134521,-0.722412,-0.688477,-1.692051,-9.339163,4.287994,-0.064563,-0.077107,-0.003359,0.026123,0.856201,-0.573486,-3.283499,-9.023313,3.594844,0.313518,0.023258,-0.060858,0.26123,0.821045,-0.460693,0.310273,-9.480117,2.530831,-0.241454,-0.187023,-0.116844,0.086182,0.87915,-0.366943
2.568813,-9.072406,3.242541,0.055071,-0.064868,-0.026402,-0.09668,1.023193,-0.389893,-2.263577,5.691576,7.222753,0.179831,0.041693,-0.086086,0.122314,-0.726562,-0.680664,-1.300123,-8.964322,4.220703,0.315445,-0.110393,-0.046516,0.010986,0.853516,-0.575439,-3.202129,-7.779926,3.941216,0.238007,-0.030474,0.004069,0.245117,0.815918,-0.458496,0.373665,-10.085544,2.172517,-0.099777,-0.194549,-0.091528,0.069336,0.87793,-0.359131
2.674546,-8.576481,3.438509,0.068284,-0.062163,-0.018269,-0.091553,1.009766,-0.400391,-2.242031,6.526965,7.287716,0.228855,0.007012,-0.101013,0.129395,-0.73877,-0.683838,-1.414696,-8.019234,4.598307,0.220393,-0.081648,0.002817,0.016113,0.838623,-0.590576,-3.114408,-8.170095,3.797421,-0.18051,-0.075885,0.112487,0.255859,0.807617,-0.467529,0.333297,-9.781224,2.259048,0.293368,-0.191881,-0.057174,0.072021,0.865234,-0.375732
2.443457,-8.677165,3.411384,-0.120224,-0.063004,0.001931,-0.094482,1.014893,-0.398926,-2.263212,6.494805,7.217145,-0.144738,0.050323,-0.083093,0.128418,-0.738281,-0.689697,-1.484964,-8.309079,4.631836,-0.217967,-0.143466,0.019127,0.008545,0.843262,-0.587646,-3.082642,-9.407568,3.309955,-0.21477,0.030257,0.072124,0.251465,0.811035,-0.4646,0.233079,-8.884857,2.652995,0.235779,-0.220624,-0.088388,0.062256,0.86377,-0.38208
2.424465,-9.078985,3.272867,-0.054114,-0.095936,-0.026777,-0.082275,1.016113,-0.382324,-2.651112,5.718518,7.127055,-0.073743,0.040523,-0.106017,0.147217,-0.737305,-0.675049,-1.605903,-9.446868,4.256666,-0.16322,-0.151713,-0.016932,0.021973,0.845947,-0.572998,-3.388199,-9.589079,3.175622,0.175545,0.137685,-0.01928,0.268799,0.808838,-0.454834,0.387337,-8.891957,2.597354,-0.187816,-0.231035,-0.117485,0.073975,0.864502,-0.36377
2.428325,-8.883237,3.302344,0.06683,-0.112131,-0.054482,-0.097656,1.02124,-0.390869,-2.451074,6.051265,7.09997,0.331269,0.036965,-0.135712,0.13916,-0.731689,-0.676025,-1.274852,-9.190426,4.372856,0.408135,-0.162012,-0.120539,0.008301,0.847656,-0.586426,-3.378727,-8.396111,3.460724,0.443675,0.014049,-0.066267,0.25415,0.812988,-0.470947,0.467231,-9.718506,2.296533,-0.226252,-0.159316,-0.102841,0.057617,0.878174,-0.363281
2.376147,-8.629931,3.287189,0.050178,-0.129855,-0.078764,-0.099609,1.01416,-0.394287,-2.554389,7.00754,7.120961,0.241563,0.083243,-0.101102,0.140625,-0.744141,-0.674316,-1.104054,-7.636758,4.912333,0.411921,-0.02372,-0.094542,0.003906,0.833496,-0.599609,-2.917044,-7.530507,3.682417,0.147332,-0.005039,-0.011967,0.256104,0.803467,-0.47876,0.266408,-9.779665,2.29237,0.246534,-0.159991,-0.070518,0.053223,0.865723,-0.372559
2.440943,-8.539262,3.380522,-0.099064,-0.190342,-0.067182,-0.102539,1.013916,-0.395508,-2.556097,6.965997,7.305078,-0.185481,0.030246,-0.088433,0.14502,-0.739258,-0.679443,-1.447991,-7.622572,4.832958,-0.332539,-0.045838,0.031351,0.006348,0.839111,-0.593018,-3.031108,-7.957739,3.513496,-0.224707,0.156954,0.038962,0.259033,0.805176,-0.470459,0.465779,-8.781896,2.61507,0.316826,-0.215339,-0.149331,0.053711,0.864746,-0.384033
2.492168,-8.812212,3.306895,-0.212607,-0.20904,-0.057094,-0.109131,1.023926,-0.387939,-2.646761,6.182886,7.278152,-0.326492,0.001685,-0.098493,0.146973,-0.727539,-0.686768,-1.33051,-9.520329,4.146457,-0.616947,-0.072647,0.089407,0.005127,0.852783,-0.57959,-3.402369,-8.864415,3.338645,-0.340481,0.15365,0.052861,0.258057,0.814209,-0.464355,0.659945,-8.583832,2.665036,-0.305229,-0.110918,-0.155116,0.044922,0.872314,-0.375488
2.532041,-8.847316,3.131651,-0.110956,-0.28261,-0.074012,-0.106689,1.014404,-0.37207,-2.690288,5.815554,7.35671,-0.041554,-0.095161,-0.149231,0.154541,-0.733398,-0.674805,-1.435243,-10.310809,3.937654,0.004952,-0.028067,0.042977,0.009033,0.848145,-0.570312,-3.274801,-9.198772,3.073175,0.001187,0.059217,0.057269,0.268066,0.811035,-0.455566,0.538681,-9.711454,2.268497,-0.511885,-0.111827,-0.139557,0.04541,0.87207,-0.352539
2.837038,-8.685196,3.207566,-0.158936,-0.32872,-0.07776,-0.117432,1.013428,-0.371582,-2.509452,6.345656,7.585432,0.101962,-0.172206,-0.158277,0.149902,-0.735352,-0.682617,-1.236876,-9.14929,4.34119,0.354461,-0.08055,0.048521,0.005371,0.841309,-0.585205,-2.946522,-8.383295,3.275752,0.163705,0.132482,0.091113,0.266602,0.804688,-0.466553,0.808637,-10.078075,2.040764,-0.002171,-0.14857,-0.168445,0.035889,0.870605,-0.358154
3.056284,-9.061807,3.083515,-0.165749,-0.296768,-0.089475,-0.121826,1.023682,-0.368652,-2.344388,6.414126,7.478779,-0.136265,-0.190216,-0.12522,0.146729,-0.728516,-0.685303,-1.006818,-8.395211,4.088527,0.137761,0.02284,0.11985,0.008057,0.845215,-0.587646,-3.191585,-8.410212,3.356598,-0.091207,0.15455,0.218143,0.27417,0.809814,-0.461182,0.693491,-9.29184,2.316454,0.202754,-0.100994,-0.094512,0.033447,0.875732,-0.364014
2.881376,-9.017162,3.177529,-0.056602,-0.289805,-0.088159,-0.126465,1.025635,-0.366699,-2.414915,5.406666,7.123516,-0.221549,-0.144935,-0.168479,0.150391,-0.72168,-0.693848,-1.823241,-8.266525,3.921722,0.125833,0.106814,0.121642,0.013916,0.845459,-0.593506,-3.677567,-8.751679,3.229401,0.06793,0.051499,0.116937,0.277588,0.811523,-0.466064,0.435015,-9.052049,2.370906,-0.111739,-0.192544,-0.163717,0.031006,0.875977,-0.365967
3.13566,-8.83639,3.062055,-0.090632,-0.297748,-0.083862,-0.132324,1.017578,-0.349609,-2.332839,5.276393,7.15074,0.233399,-0.131425,-0.278641,0.152588,-0.731934,-0.677246,-1.689154,-8.19279,4.231085,0.078334,-0.133596,0.087938,0.014893,0.838623,-0.584229,-3.331965,-8.007301,3.37363,0.225494,-0.090703,0.108244,0.279297,0.802734,-0.461914,0.702302,-9.6022,2.243106,-0.285444,-0.294373,-0.208562,0.022461,0.871582,-0.345703
3.221792,-8.813501,3.032532,-0.131869,-0.23648,-0.065729,-0.130127,1.023682,-0.362793,-2.186512,6.325966,7.308533,0.189201,-0.087768,-0.261922,0.160645,-0.730713,-0.69043,-0.998251,-8.455871,4.501337,0.015257,-0.049398,0.091463,0.017822,0.839355,-0.599854,-2.836461,-8.363032,3.344387,-0.23953,0.089924,0.198231,0.287842,0.805664,-0.471191,0.878365,-9.921725,2.053944,-0.077123,-0.286341,-0.192284,0.021729,0.877441,-0.360352
3.189661,-8.88748,2.942753,-0.112667,-0.200301,-0.037934,-0.142578,1.017334,-0.347168,-2.13361,5.914808,6.986094,-0.203325,-0.033627,-0.26135,0.155029,-0.733154,-0.684082,-1.794494,-8.503203,4.618558,0.130839,-0.061044,-0.024643,0.012207,0.831543,-0.595459,-3.388331,-10.22192,3.069409,-0.251606,0.368236,0.166178,0.289307,0.80127,-0.450928,0.722142,-9.577413,2.218172,0.107944,-0.354007,-0.180402,0.000977,0.868164,-0.349365
2.890596,-8.961499,2.898566,-0.07521,-0.198302,-0.055382,-0.140869,1.032959,-0.344482,-2.453402,4.980686,6.688408,0.093935,0.092931,-0.304977,0.166504,-0.719727,-0.678711,-1.616332,-8.267017,4.466861,0.193525,-0.272067,-0.18202,0.00415,0.842529,-0.597656,-3.731284,-10.142361,2.939956,0.477809,0.417719,-0.095261,0.294434,0.812256,-0.462402,1.081749,-9.337832,2.256309,-0.017183,-0.452282,-0.219681,-0.000977,0.881592,-0.349609
2.975352,-9.020795,2.836158,0.033296,-0.205028,-0.061503,-0.146973,1.022461,-0.348389,-2.681423,5.640421,6.953612,0.547501,0.15196,-0.384234,0.176758,-0.736328,-0.668945,-1.453227,-8.310249,4.566122,0.197442,-0.17126,-0.276424,-0.003662,0.832764,-0.602539,-3.466796,-8.536907,3.106544,0.543796,0.525379,-0.119779,0.296631,0.794922,-0.468018,1.085215,-9.644211,2.323763,-0.082161,-0.293245,-0.128993,-0.01123,0.873779,-0.348145
2.920383,-8.850921,3.014584,0.037293,-0.169673,-0.071291,-0.154297,1.021484,-0.344727,-3.098556,6.466003,7.44551,0.377804,0.191746,-0.349481,0.18335,-0.740967,-0.665771,-1.898329,-8.581365,5.010136,0.107152,-0.273533,-0.32048,-0.019775,0.830811,-0.605225,-3.939763,-8.569684,3.218056,0.207865,0.722077,-0.070706,0.302734,0.793945,-0.469727,0.352448,-9.759508,2.303808,0.132622,-0.293505,-0.114825,-0.016846,0.874512,-0.350586
2.856309,-8.967047,2.982472,-0.013483,-0.08727,-0.079654,-0.159424,1.025391,-0.347168,-3.386912,6.298599,7.474964,0.183821,0.111076,-0.31102,0.185059,-0.736084,-0.661865,-1.098293,-9.30422,5.02078,-0.066538,-0.338432,-0.281937,-0.031738,0.835693,-0.606689,-3.941545,-8.657797,3.274995,0.417329,0.69988,-0.082672,0.303711,0.792969,-0.475586,0.55858,-9.244502,2.437372,0.283523,-0.499012,-0.244754,-0.031738,0.873779,-0.358643
2.743399,-9.162444,2.867556,0.04267,-0.099629,-0.113145,-0.156006,1.028076,-0.34082,-3.572492,6.380093,7.480557,0.398805,0.006532,-0.222646,0.19751,-0.737793,-0.644287,-1.002184,-10.110148,4.767415,0.13393,-0.166503,-0.156603,-0.033447,0.835449,-0.603516,-3.741392,-7.787987,3.66774,0.441675,0.691552,0.012142,0.320557,0.792725,-0.4729,1.187053,-9.134377,2.462792,0.012785,-0.432516,-0.206267,-0.033691,0.876465,-0.351562
2.875678,-8.984971,2.853184,0.12311,-0.087153,-0.115429,-0.171143,1.023682,-0.349609,-3.257557,7.147347,7.252664,0.362116,-0.126903,-0.165895,0.189209,-0.743896,-0.650635,-0.48735,-9.426865,4.652351,0.590982,-0.108098,-0.155793,-0.049561,0.827148,-0.627686,-3.712514,-7.83592,3.766317,0.169916,0.454448,0.157957,0.318848,0.786865,-0.482422,1.145202,-9.815497,2.258745,-0.100508,-0.318615,-0.182699,-0.051758,0.875488,-0.357178
2.925,-8.805179,2.939,0.065986,-0.161911,-0.130637,-0.171143,1.015381,-0.341553,-3.034442,6.759138,7.047794,-0.024777,-0.143224,-0.097493,0.190186,-0.75,-0.644531,-0.671042,-7.831129,4.702989,0.540384,0.203743,-0.04975,-0.041016,0.812256,-0.628174,-3.700413,-8.554752,3.784759,0.108535,0.273292,0.129816,0.328857,0.77832,-0.476318,1.214334,-9.923198,2.181079,0.256003,-0.36133,-0.190667,-0.054199,0.865967,-0.352295
3.391762,-8.775256,2.922211,0.025159,-0.15104,-0.102743,-0.169189,1.011475,-0.34668,-2.629768,5.938233,6.664505,0.031844,-0.176745,-0.142822,0.197021,-0.753662,-0.649658,-1.071656,-7.442333,4.873618,0.087767,0.110669,-0.016671,-0.035645,0.809814,-0.636475,-3.988301,-8.117798,4.03761,0.372179,0.060439,0.000775,0.334473,0.769531,-0.487549,1.475079,-9.245693,2.417477,0.284481,-0.358555,-0.198267,-0.056885,0.860107,-0.364014
3.548451,-8.609882,2.96124,-0.007354,-0.132491,-0.054459,-0.173584,1.01123,-0.3479,-2.2732,6.045396,6.845758,0.145554,-0.094608,-0.144296,0.195068,-0.753906,-0.648926,-0.453138,-8.035471,4.827183,-0.121068,0.095939,0.016226,-0.037598,0.811523,-0.635742,-3.385683,-7.35351,4.028431,0.017787,-0.124096,-0.010896,0.328125,0.772217,-0.491943,1.441742,-9.112576,2.364509,-0.080762,-0.356692,-0.177747,-0.06665,0.861572,-0.363281
3.511825,-8.577969,2.858504,-0.013336,-0.052662,-0.018663,-0.165039,1.014893,-0.344238,-2.544629,6.197898,6.889231,0.032206,-0.07914,-0.137288,0.208008,-0.751709,-0.647217,-1.061555,-8.650284,4.975133,-0.064264,0.158789,-0.006452,-0.024658,0.814209,-0.631348,-3.325344,-8.752777,3.428909,-0.325631,0.150148,0.119379,0.346436,0.774658,-0.47998,1.478583,-9.725601,2.283461,-0.161877,-0.470978,-0.198084,-0.067871,0.862305,-0.355225
3.212,-8.544355,2.797193,-0.008602,-0.06032,0.014237,-0.167969,1.007324,-0.342285,-2.648383,5.837085,6.82296,0.025184,-0.103344,-0.12617,0.206299,-0.76001,-0.643799,-0.978142,-8.824379,4.976902,0.03789,-0.07643,-0.065971,-0.02832,0.806152,-0.63208,-3.800452,-9.351689,3.316476,0.216451,0.286362,-0.020888,0.342529,0.768799,-0.482178,1.744219,-9.783394,2.273838,0.116807,-0.478758,-0.165986,-0.077148,0.856201,-0.354248
3.015744,-8.727465,2.77383,0.033787,-0.049546,0.015311,-0.173828,1.014648,-0.345459,-3.039592,5.972633,6.726336,0.28618,-0.122115,-0.113157,0.200684,-0.759521,-0.640381,-0.905129,-8.892568,4.842642,0.173439,0.064042,-0.04956,-0.034668,0.811035,-0.638428,-3.892701,-8.006016,3.771291,0.439684,0.332451,0.023513,0.344482,0.767334,-0.489014,1.733226,-9.380182,2.459205,0.21105,-0.403403,-0.074965,-0.088867,0.86084,-0.359619
2.821595,-8.681812,2.739391,0.122445,-0.120469,0.015327,-0.17041,1.012695,-0.331543,-3.097119,6.473798,6.677322,0.311827,-0.198382,-0.153233,0.202881,-0.765869,-0.624023,-1.658603,-8.454841,5.021776,0.377516,-0.030859,-0.094075,-0.03418,0.800293,-0.633789,-4.362259,-7.900346,3.945688,0.075142,0.321096,0.122956,0.351807,0.762695,-0.474854,1.667179,-9.22241,2.514543,0.089306,-0.36736,-0.067259,-0.0896,0.855713,-0.3479
2.842672,-8.411165,2.845363,0.002073,-0.188668,0.027757,-0.177979,1.020264,-0.343262,-3.136941,6.825824,6.849335,0.206889,-0.204801,-0.157707,0.196045,-0.755371,-0.634277,-0.675876,-7.868535,5.108291,0.230396,-0.147627,-0.081626,-0.04248,0.807861,-0.653564,-4.202628,-8.393064,3.897137,0.214396,0.056371,0.073868,0.348389,0.773193,-0.496094,1.856461,-9.14722,2.500507,0.055665,-0.303832,-0.053481,-0.099365,0.866699,-0.361572
3.279371,-8.780603,2.715145,-0.126545,-0.246675,-0.005592,-0.18335,1.021729,-0.335693,-2.999142,6.881222,7.064183,0.007782,-0.291009,-0.154956,0.195557,-0.756348,-0.630127,-0.803334,-8.155382,5.180905,-0.076996,0.125482,0.047123,-0.041992,0.806152,-0.646729,-3.67921,-7.563435,4.026735,0.215037,0.080206,-0.013693,0.34668,0.76709,-0.494141,1.894772,-9.048486,2.471235,-0.025618,-0.199603,-0.052624,-0.102783,0.862793,-0.354004
3.294288,-8.828097,2.674738,-0.078229,-0.230583,0.014592,-0.174561,1.018799,-0.33252,-2.75983,6.388278,7.04148,-0.176526,-0.263712,-0.129318,0.204346,-0.755371,-0.638184,-1.232438,-8.619761,5.184777,-0.04403,-0.036134,0.020078,-0.032959,0.805908,-0.646973,-4.273943,-7.991677,3.992968,-0.298422,0.06274,0.117388,0.36084,0.765381,-0.487549,1.744043,-9.072746,2.447971,-0.155781,-0.186661,-0.072494,-0.096924,0.864258,-0.352783
3.633492,-8.835529,2.654734,-0.144745,-0.209478,-0.020219,-0.182861,1.011475,-0.332275,-2.598419,5.960259,6.973568,-0.049675,-0.23682,-0.120476,0.194092,-0.765137,-0.64624,-0.521345,-8.371853,5.201679,0.06666,0.018889,-0.037465,-0.040283,0.791748,-0.653564,-3.866709,-9.316938,3.418983,-0.159564,-0.081521,0.0098,0.352539,0.757812,-0.491943,1.904251,-9.420188,2.214422,-0.233941,-0.244806,-0.120163,-0.109131,0.851318,-0.353271
3.485935,-9.192251,2.538284,-0.077248,-0.162166,-0.006745,-0.179443,1.014893,-0.328369,-2.571616,6.164343,7.090893,0.066792,-0.157208,-0.09688,0.202637,-0.761719,-0.639893,-1.217216,-8.391997,5.273791,0.016727,0.04473,-0.013282,-0.029785,0.796875,-0.650635,-3.634186,-8.61905,3.511228,0.409522,0.215957,-0.035634,0.364014,0.756348,-0.497559,1.967652,-9.813275,2.028381,-0.183028,-0.214643,-0.091612,-0.10498,0.860352,-0.341797
3.584258,-8.88252,2.515324,0.074355,-0.133858,0.007633,-0.180908,1.013428,-0.32373,-2.610891,6.139105,7.119654,0.025701,-0.155,-0.069709,0.200195,-0.763672,-0.638672,-0.709029,-8.620551,4.991617,0.116721,-0.127672,-0.084424,-0.035889,0.796875,-0.650635,-4.12981,-7.437071,3.999677,0.243338,0.210036,0.026628,0.364258,0.752441,-0.495605,1.896036,-9.890253,1.995048,0.077951,-0.287061,-0.071724,-0.109131,0.856445,-0.339355
3.327552,-8.688504,2.617179,-0.020329,-0.133382,-0.015095,-0.177734,1.021484,-0.321777,-2.73495,6.328714,7.065724,0.167822,-0.128253,-0.069761,0.201416,-0.757568,-0.638184,-0.75668,-8.098519,5.129066,0.211681,0.087605,-0.017728,-0.033447,0.797363,-0.656738,-3.893897,-7.833903,3.765433,-0.129275,0.074728,0.078377,0.371826,0.76001,-0.496338,2.201637,-9.287699,2.203223,0.30702,-0.298958,-0.096644,-0.112793,0.861816,-0.3479
3.424831,-8.845962,2.565813,-0.072419,-0.164168,-0.005513,-0.195801,1.017334,-0.322266,-2.749764,6.800234,7.147974,-0.001487,-0.148943,-0.076445,0.187256,-0.764404,-0.640137,-1.271095,-7.936795,5.252,-0.026131,-0.057003,-0.00698,-0.048584,0.793213,-0.654785,-3.913443,-8.444546,3.52616,0.040023,0.19726,0.059646,0.359131,0.754395,-0.49585,2.128057,-8.646868,2.476118,0.060026,-0.201359,-0.071772,-0.129639,0.855225,-0.3479
3.422303,-8.764061,2.568279,-0.038325,-0.174906,-0.02812,-0.204102,1.02002,-0.315918,-2.582275,6.188926,6.953867,-0.192316,-0.147141,-0.074405,0.179443,-0.757324,-0.638672,-0.594217,-8.37656,5.025294,-0.062566,-0.074578,0.021678,-0.053467,0.797607,-0.652588,-4.144288,-7.710611,3.874878,0.191232,0.16578,0.000704,0.358398,0.754639,-0.493408,2.048277,-9.073932,2.284389,-0.320925,-0.217359,-0.11826,-0.137695,0.858643,-0.334229
3.579609,-8.81964,2.585133,-0.111895,-0.162502,-0.025255,-0.192139,1.023682,-0.314941,-2.556496,5.950072,6.918023,0.039275,-0.095271,-0.081885,0.193359,-0.751953,-0.645508,-0.842003,-8.226612,5.008631,0.154837,0.030951,0.001898,-0.040283,0.797607,-0.662109,-3.782162,-7.58044,3.827597,-0.099985,0.044542,0.084347,0.372803,0.757324,-0.499268,2.081091,-9.783343,2.004826,-0.221929,-0.197145,-0.111103,-0.128418,0.865234,-0.33667
3.544824,-9.005958,2.439613,-0.037258,-0.122068,-0.022662,-0.195068,1.021973,-0.314453,-2.503727,6.379913,7.098269,0.04892,-0.069797,-0.072751,0.194824,-0.757324,-0.645508,-0.82644,-7.697154,5.232607,0.024619,-0.023547,-0.005243,-0.044189,0.795898,-0.662598,-3.884693,-8.451483,3.541163,-0.167674,0.156215,0.065063,0.372314,0.759766,-0.493408,1.97185,-9.710082,1.928973,0.133639,-0.256841,-0.099187,-0.13623,0.86084,-0.3396
3.70542,-8.743765,2.537,-0.020851,-0.129862,-0.025408,-0.188721,1.02124,-0.315674,-2.516448,6.236179,7.211058,-0.087342,-0.051063,-0.058691,0.203125,-0.755371,-0.646729,-0.813046,-8.442709,5.179387,-0.274502,-0.028741,0.068327,-0.033691,0.799805,-0.659424,-4.123234,-8.365797,3.66046,0.148091,0.130797,0.023022,0.38501,0.755859,-0.497559,2.267987,-9.103166,2.041026,0.156703,-0.323865,-0.152133,-0.132324,0.858887,-0.342285
3.702397,-9.023365,2.466826,-0.075054,-0.077259,-0.020468,-0.203369,1.020264,-0.303711,-2.480285,6.097534,7.120278,0.040101,-0.048732,-0.051493,0.189453,-0.755615,-0.637695,-0.723761,-9.120425,5.004893,0.04592,-0.064777,0.013549,-0.044922,0.802002,-0.64917,-3.810374,-7.785841,3.762005,0.035037,0.114115,0.058838,0.373535,0.755127,-0.484375,2.333535,-9.098255,1.951245,-0.098051,-0.298588,-0.112478,-0.150635,0.861084,-0.327637
3.66635,-8.964816,2.384045,0.057535,-0.076387,-0.023757,-0.200928,1.018066,-0.307617,-2.466041,6.414918,7.13629,0.085885,0.010366,-0.053668,0.195801,-0.760498,-0.638672,-0.799921,-8.128563,5.108525,0.37153,0.012597,-0.031441,-0.043701,0.789062,-0.662598,-3.968521,-8.303798,3.452368,-0.107082,0.261513,0.13352,0.384277,0.750244,-0.486084,2.277466,-9.569178,1.888148,-0.115785,-0.388445,-0.167356,-0.153076,0.854248,-0.325928
3.393886,-8.721844,2.49843,-0.02816,-0.09211,-0.027741,-0.20166,1.018066,-0.309814,-2.806322,6.318222,7.125096,-0.036867,0.028238,-0.070339,0.193848,-0.76416,-0.643311,-1.18776,-7.606963,5.371744,-0.042313,-0.086275,0.014325,-0.047119,0.787598,-0.661865,-4.381759,-8.581249,3.581496,0.073948,0.258765,0.052663,0.385254,0.748779,-0.486084,2.588495,-9.579829,2.030836,0.107354,-0.369472,-0.164844,-0.164307,0.852783,-0.329834
3.431873,-9.117266,2.426391,-0.010591,-0.097018,-0.045679,-0.196045,1.022217,-0.303467,-2.8292,6.167843,6.87797,0.102162,0.008195,-0.063113,0.205078,-0.75708,-0.636475,-0.599564,-8.662965,5.127588,-0.242979,-0.087031,0.02721,-0.039795,0.797607,-0.656738,-4.200971,-8.056124,3.679265,0.134542,0.147863,0.038052,0.398193,0.75293,-0.486572,2.257524,-9.301254,2.210712,0.127285,-0.246035,-0.086792,-0.161865,0.855957,-0.329346
3.233463,-8.648002,2.571802,0.113811,-0.10026,-0.026743,-0.199219,1.022217,-0.304688,-2.872088,6.520253,6.948852,0.093746,0.014693,-0.059161,0.206787,-0.761475,-0.63623,-1.002071,-8.949869,5.047107,0.190704,0.051238,-0.014151,-0.037842,0.794678,-0.656738,-4.229238,-8.140942,3.669625,-0.050457,0.203314,0.075608,0.400635,0.749512,-0.481934,2.071567,-9.224407,2.352339,0.032367,-0.313911,-0.142931,-0.165039,0.855469,-0.327148
3.26884,-8.57009,2.591009,-0.084076,-0.100591,-0.038629,-0.20874,1.020264,-0.30249,-3.006848,6.316723,6.884308,-0.057038,-0.000959,-0.045282,0.199463,-0.755127,-0.634033,-1.185311,-7.909701,5.259428,0.287597,-0.034245,-0.059043,-0.04834,0.790771,-0.663086,-4.716349,-8.42272,3.584753,0.095274,0.103166,0.049749,0.394531,0.751953,-0.484131,2.373963,-9.308744,2.304131,-0.018862,-0.284649,-0.126269,-0.177734,0.853027,-0.323486
3.262089,-9.070123,2.520211,-0.04245,-0.14076,-0.038298,-0.19458,1.016357,-0.294434,-3.01032,6.231434,6.873347,0.081238,-0.054482,-0.063888,0.214111,-0.763916,-0.62793,-0.79,-7.820633,5.309308,-0.136437,-0.00938,0.030019,-0.032471,0.788818,-0.655029,-4.243614,-7.810096,3.688234,0.134445,-0.051276,-0.022378,0.407715,0.744629,-0.481934,2.335518,-9.453013,2.318621,-0.061616,-0.17888,-0.079411,-0.16626,0.849121,-0.3125
3.502491,-8.788383,2.628075,0.044723,-0.11318,-0.006631,-0.20459,1.018311,-0.30127,-2.773235,6.597132,6.927216,0.054633,-0.085511,-0.063702,0.205811,-0.760498,-0.633789,-0.921433,-8.764678,5.225306,-0.172576,0.040317,0.047543,-0.040771,0.793701,-0.658936,-4.15077,-7.989607,3.620974,-0.174622,0.045938,0.079926,0.398193,0.748047,-0.484863,2.286858,-9.712777,2.215903,-0.115371,-0.173996,-0.076983,-0.178711,0.853516,-0.318604
3.514721,-8.831624,2.66302,-0.097443,-0.112423,0.01395,-0.210205,1.014404,-0.30127,-2.724475,6.283835,7.029115,-0.139314,-0.067176,-0.035034,0.198975,-0.765381,-0.638184,-0.994001,-8.715601,5.217356,0.15344,0.013696,-0.030735,-0.046387,0.784424,-0.662598,-4.525115,-8.763519,3.42852,-0.053242,0.092098,0.029238,0.396484,0.742676,-0.48291,2.264693,-9.858803,1.989719,-0.038825,-0.170758,-0.034288,-0.186279,0.848633,-0.318359
3.543739,-9.353508,2.447971,0.010853,-0.042381,0.032895,-0.203857,1.009277,-0.297119,-2.975374,5.82267,6.924691,0.034865,-0.074125,-0.054184,0.208252,-0.769775,-0.633057,-1.132991,-8.123451,5.287748,0.146451,0.000225,-0.007337,-0.040039,0.779053,-0.663574,-4.469554,-8.07255,3.601023,0.304845,0.043288,0.003941,0.406006,0.733887,-0.48877,2.224875,-9.790299,1.89326,0.083718,-0.204169,-0.023869,-0.183105,0.841553,-0.31665
3.364395,-8.727195,2.513081,0.195458,-0.066506,0.048961,-0.208984,1.01123,-0.303223,-2.793113,6.40804,6.90017,0.265362,-0.118508,-0.065165,0.201416,-0.770508,-0.636719,-0.912081,-8.295236,5.19501,0.033575,-0.047643,0.013308,-0.043945,0.780518,-0.671631,-4.319854,-7.456506,3.730181,0.068995,0.012595,0.078931,0.404541,0.736328,-0.49585,2.360407,-9.470358,1.910798,0.201635,-0.265517,-0.019967,-0.189453,0.843018,-0.325195
3.442406,-8.489676,2.576763,-0.035755,-0.071451,0.049087,-0.210205,1.01123,-0.297363,-2.699755,6.800597,6.940626,0.036468,-0.106635,-0.070492,0.201172,-0.772949,-0.632568,-0.876126,-8.216392,5.359406,0.138366,0.019624,0.010856,-0.043213,0.776123,-0.66748,-4.321199,-8.076851,3.601639,-0.115493,0.048994,0.107649,0.403809,0.736084,-0.485352,2.586948,-9.064769,1.953426,0.131953,-0.248212,-0.013519,-0.192627,0.842041,-0.323242
3.401731,-9.041925,2.443315,-0.055349,-0.122398,0.077937,-0.205811,1.018311,-0.29834,-2.849393,6.436976,6.921658,-0.095195,-0.152296,-0.074958,0.199219,-0.764404,-0.637695,-1.115106,-8.101057,5.438122,-0.026315,-0.0449,0.043696,-0.043457,0.784912,-0.669678,-4.463994,-8.242889,3.59497,0.068205,0.128567,0.045281,0.408691,0.739258,-0.491211,2.520599,-9.164512,1.842866,-0.180554,-0.20352,0.011057,-0.190674,0.848877,-0.31543
3.472525,-8.849204,2.467365,0.059623,-0.126207,0.099731,-0.203369,1.016113,-0.298096,-2.746417,6.146897,6.966012,-6.4e-05,-0.20014,-0.101339,0.203613,-0.76709,-0.635254,-0.932715,-8.637124,5.186404,-0.053406,-0.084846,0.076653,-0.039062,0.781494,-0.667725,-4.559777,-7.657445,3.756962,0.127468,0.066157,0.099039,0.414307,0.734863,-0.491455,2.367375,-9.719086,1.638454,-0.173029,-0.256436,0.018334,-0.191162,0.845947,-0.311279
