# sampling frequency: 40
# units are seconds/meters/radians/a.u.
seg1_acc_x,seg1_acc_y,seg1_acc_z,seg1_gyr_x,seg1_gyr_y,seg1_gyr_z,seg1_mag_x,seg1_mag_y,seg1_mag_z,seg2_acc_x,seg2_acc_y,seg2_acc_z,seg2_gyr_x,seg2_gyr_y,seg2_gyr_z,seg2_mag_x,seg2_mag_y,seg2_mag_z,seg3_acc_x,seg3_acc_y,seg3_acc_z,seg3_gyr_x,seg3_gyr_y,seg3_gyr_z,seg3_mag_x,seg3_mag_y,seg3_mag_z,seg4_acc_x,seg4_acc_y,seg4_acc_z,seg4_gyr_x,seg4_gyr_y,seg4_gyr_z,seg4_mag_x,seg4_mag_y,seg4_mag_z,seg5_acc_x,seg5_acc_y,seg5_acc_z,seg5_gyr_x,seg5_gyr_y,seg5_gyr_z,seg5_mag_x,seg5_mag_y,seg5_mag_z
-2.2989030035632703,-4.35978114026258,8.3150806849702,-0.04585103971116268,0.035954717978560646,-0.030045027050870688,0.21034172215741304,0.25978279759407313,-0.8620747703279864,-2.9667178586828085,8.14977099611861,4.100579336629083,-0.06831321011229796,-0.02481995472874079,0.22131398526170074,0.2611898804784457,-0.8780545909375821,-0.32818586921299736,-1.2159551509628674,-2.2950403428088757,9.520663494051902,-0.18771882057046918,0.10003890521039785,0.007927235075172212,0.02067683965006965,0.16016576990987394,-1.0131629290120434,1.6399772446212388,-2.7204442582736243,9.531865820984871,-0.18455320621611893,0.016763458751143726,0.050161988727017,-0.3486148357278998,0.3035340726185651,-1.1274807139880472,-5.01924861714393,-4.240813509288243,7.04128806695892,-0.026625930185122368,0.13342944309098798,-0.0613219173069939,0.5384247300627734,0.30180856916725673,-0.8155157460938708
-2.250819993487262,-4.368637953452449,8.217193343218826,-0.13118697376507094,0.006904867313379237,-0.012437052253135385,0.2049289963807099,0.25294700585250157,-0.8501304722350855,-2.871985110486808,8.01799612638003,4.240700322743276,-0.14864795577503978,-0.020173271297479388,0.1819443616110709,0.2507581595334257,-0.8875120622728088,-0.32092375367628245,-1.3034790208874554,-2.490230433822858,9.545665476340854,-0.2471786230716782,0.010730476280092046,-0.029139805304627932,0.01340818568754704,0.15910847144251347,-1.000664608823953,1.631890478233097,-2.842400374112901,9.317267147911666,-0.23674143490754795,0.0984765328128424,0.042171618620541654,-0.35255338928889535,0.3027414164255679,-1.1167549172341051,-4.969431434237231,-4.171496201051937,7.0474068703643145,-0.11581939541237096,0.18488202230254744,-0.08035966484271334,0.5349758896212815,0.2932189936899667,-0.8050643133820812
-2.104981474380319,-4.631006677656354,8.20420265173185,-0.14930353916987607,0.0016218164049124964,-0.01671912617028884,0.21034221694658453,0.2648997225325243,-0.8542551682326467,-2.768715105746156,8.126588056640895,4.536201039893142,-0.11945117594055767,-0.03854586882830254,0.16846483979955354,0.24875775337335532,-0.8805184262169177,-0.32543419311302174,-1.1223163935032419,-2.676453733232639,9.292186602141873,-0.18113376225310987,-0.03401907126443558,-0.020522311062332037,0.014155248878562596,0.16979070335072274,-1.005913018111334,1.3946447024764261,-2.7120298332052197,9.34155672878607,-0.15496180590157213,0.15733374342305148,0.0399076060696817,-0.34640960301664836,0.3144767495979413,-1.1215442457438591,-5.0298110472347215,-4.220316626150155,7.133825214484663,-0.13927345185193513,0.21510841914079123,-0.09846698070417507,0.5413653852183131,0.30491735874392806,-0.8054887130519298
-2.080706484844373,-4.761035762739782,8.188065940902309,-0.0971187868702348,0.029642179698241733,-0.05178634542609715,0.21276284680818142,0.25878779799974394,-0.8527945808238477,-2.6517458515310794,8.463721597737184,4.628988777952897,0.002066233218393298,-0.04474218770202344,0.21343158792204145,0.2473230340560593,-0.8874234789321457,-0.32897667705518685,-0.7812904692016174,-2.511565602047175,9.137013894575794,-0.08059040769313068,0.02179260653205737,0.018651519224822218,0.021231014710453376,0.16636589824257964,-1.00420011038951,1.3586749569034478,-2.404595955882798,9.510920505385192,-0.07076203775431122,0.10034931734988735,0.044630387565749746,-0.339836222361571,0.30786279955658785,-1.1203472003754893,-5.139114614079679,-4.297359655501726,7.1292702643968235,-0.07795011737555078,0.2124547820647073,-0.11096354463054786,0.5486654348327875,0.2982882767285724,-0.803571893743831
-2.0169907601890764,-4.628579309428419,8.300151594782834,-0.06409827043290563,0.06430638268956672,-0.08555920774465535,0.2110748990493928,0.2697711568846147,-0.8469235385850514,-2.5535506525889624,8.269292893536214,4.302594368605171,0.02669528823738185,-0.017419419695106096,0.26898946307320076,0.2390271441775399,-0.8846131907066505,-0.31899660750567366,-0.8128221164192317,-2.368117747480155,9.054369628852982,-0.11832581074152376,0.09455065146013705,0.03231714123843236,0.019574969296533185,0.17399968060693705,-0.99890473850449,1.4469338525967184,-2.5359674108336114,9.602818688539761,-0.10727010284904594,-0.010742472176986768,0.07044245762522607,-0.3410559719431428,0.31758287798367757,-1.1129634798817627,-5.132172774416865,-4.270451310136188,7.189693584363412,-0.02681618490612522,0.19150142938035447,-0.12064756355335826,0.547725973886137,0.30823246954475925,-0.7908215394599604
-2.1724673517366493,-4.698467703240351,8.276248136348178,-0.09407981071788166,0.07900238543467773,-0.09650438875988067,0.20717949126531723,0.27003338060166876,-0.8523013680652393,-2.6006044335556244,8.131029723966844,4.1953442355778785,-0.07675160541059926,0.019290232791157276,0.2538195687782142,0.22996531788434602,-0.8841459896543572,-0.3316835679536579,-1.0919516544022803,-2.338619348574494,9.211904839505623,-0.18683496670555041,0.07809989033620257,0.019063033326546294,0.01859772932363079,0.18199158778495553,-1.0050923796296118,1.5114293361778224,-2.65185915831473,9.511270281893811,-0.18038323851390894,-0.05642166469491744,0.0566094726197704,-0.3446798076575318,0.32204954595063207,-1.1227101811692806,-5.109290624418611,-4.367632048770596,7.040500829060321,-0.04953074230710691,0.18607100103770163,-0.14052208573862904,0.5496886014229729,0.3109512103126338,-0.7981318726800504
-2.2848399785286344,-4.673832163188191,8.304809542129542,-0.08601504454934213,0.056243026466625594,-0.10122886481655882,0.21914325042579624,0.26951229388446624,-0.8535010719383719,-2.6898412191580654,8.26263590895042,4.374210880706063,-0.10808060759269096,0.046904761510380144,0.2120133321634494,0.23606927969740865,-0.8851341900788449,-0.33436519024356304,-1.2791294940976414,-2.544470054602701,9.405151194733003,-0.2040993504813223,0.025352922759539393,0.0024914633553785705,0.029591143928111928,0.18439066752316605,-1.0054154086433065,1.4583947124893848,-2.8395682318386526,9.243243467145703,-0.19917532832217394,-0.0228545971515469,0.04238876046541951,-0.334668550954222,0.32688719997484184,-1.1192319120936505,-5.166161111935279,-4.5896792180023285,6.953983251246381,-0.04045555517497659,0.2230408870571881,-0.14291693943415903,0.562389777571485,0.3125941459584748,-0.7944610639260979
-2.315871774905974,-4.691896806110292,8.32678737757101,-0.08013090912246253,0.0286837879375573,-0.08646646999132608,0.21303661287389236,0.2712336321888076,-0.8493600612825435,-2.684431748853522,8.341824179162083,4.432278519283061,-0.09465175732518809,0.033725928038980654,0.18086908032099683,0.22217684021548678,-0.889098763078802,-0.3332934126690872,-1.260643483515131,-2.736038356887823,9.380181277365507,-0.1765882408255518,-0.009761322234781393,0.012118552115070628,0.022035256956762762,0.18420282336097935,-1.0026909762901495,1.4820285255423509,-2.6472708802281186,9.236034519916597,-0.1552450150145203,0.04462970252080848,0.0593172850444583,-0.34223709850551787,0.32908891617082153,-1.1172863592786044,-5.298267651803725,-4.6862743314026005,6.953918242209665,-0.0411043790169783,0.2620792767189315,-0.1297311509010474,0.5614147511430042,0.31281243070442694,-0.7890877808297545
-2.2108991182448317,-4.65120716729445,8.371449590150977,-0.08797022418387855,0.01520815893051395,-0.0754291705375472,0.21330590006203112,0.27977756559408995,-0.8491045766912174,-2.5205771758324023,8.495105619053657,4.336853405047693,-0.1149215214251459,0.027340528515016258,0.17106490558512966,0.2189815616086325,-0.8862331063633789,-0.3360221704842715,-1.0005897329438451,-2.4827709425174107,9.347162211268273,-0.19462567988618723,-0.01748624838546837,0.013184915139700003,0.020374252028321632,0.1940039246091592,-1.0001056061134395,1.542580177177347,-2.720216062244626,9.298118183459051,-0.16869179271202073,0.07426354639129347,0.07712024794431638,-0.3380652015690154,0.3371440838174732,-1.1184431393508467,-5.292476515687048,-4.536264217434894,6.940158829290715,-0.04472252568928007,0.2801496084900915,-0.12179957669803346,0.566077582420128,0.31961549723429944,-0.7861217613977206
-2.2214822659492275,-4.82180400753994,8.467938972027541,-0.09016554210009846,0.0022125120209463794,-0.0778009231908757,0.20355124802461122,0.28200630250197445,-0.8518046295470506,-2.4777759190932254,8.416033940486255,4.162030919139614,-0.1167230708412479,0.05287981766399911,0.16016533433365424,0.21018427385239122,-0.8858427794458591,-0.33894192013644153,-0.9217108052464753,-2.523627124875656,9.343906604193863,-0.18008702119000067,-0.02592117584611417,0.010270852674782243,0.013518237391037706,0.19809905123290966,-1.0074423406887665,1.66191457277818,-3.12744857859811,9.473575655368895,-0.1873158154113782,0.08996725579151989,0.04465569893209294,-0.3458653174301779,0.34277695057969093,-1.1184290470996407,-5.409888959452047,-4.588114660805927,6.89894764445749,-0.04239284682037069,0.27425791149276535,-0.12030967305703667,0.5616978139471115,0.32352938737391596,-0.7846353600058403
-2.1595290276019976,-4.822904325394541,8.549210527450764,-0.10304611955952978,-0.0051584547824484,-0.076084052579897,0.20475429231354608,0.2802846670640974,-0.844724616986475,-2.4367805388336605,8.312744708510548,4.167486395309698,-0.12534246256156614,0.10992329081013291,0.12247548492034373,0.2067835185261852,-0.8895476608885254,-0.3403365457876718,-1.0015643056387609,-2.644969811068838,9.337492625356811,-0.1858992217208167,-0.07478835284535744,-0.0339321872898425,0.01182416318623928,0.19741259953424697,-1.003764418632219,1.6470712636363278,-3.247569108720975,9.531735314005456,-0.193580295737542,0.09739248461694631,-0.0072094712221942485,-0.34221620843299644,0.3400651539920026,-1.115750068974741,-5.475503569169348,-4.634476658776748,6.931307653647849,-0.0575011558237325,0.2448094630606813,-0.12900193450051733,0.5675427132116231,0.31955965561142047,-0.7768439500999539
-2.1459524513181547,-4.900302392444613,8.571180962114683,-0.12477516780381494,-0.019869313269864963,-0.07864888219621302,0.20746766808147696,0.2893114130823358,-0.8459290269101399,-2.4171471501430655,8.313100180917084,4.263622784023297,-0.13375665517706595,0.16275604509091385,0.06160832356271269,0.2113853187127603,-0.8829314527086073,-0.34045792273285863,-0.9820103209498053,-2.7634589689832514,9.20601640094906,-0.16623977463953077,-0.12799027371379018,-0.07476425862313561,0.01358664292902318,0.20551919846923242,-0.9987346295845976,1.5547418200653138,-3.036585559921614,9.39195057497113,-0.15183698830399153,0.10602728084750337,-0.010749450397958948,-0.33339740777122984,0.35249878238977517,-1.1161330608207742,-5.462505904196168,-4.616138513149441,6.788262196183459,-0.0818582605340201,0.2099631776004368,-0.14167950890397638,0.574664392121867,0.33098245133160514,-0.7721437854821643
-1.9945349265538523,-4.845631435501989,8.49683814675752,-0.09501798191323707,-0.04411782040264091,-0.08697844831368327,0.2133413044496277,0.29247155900648747,-0.848355182418924,-2.356237417671345,8.434683846667406,4.625251939104767,-0.10130078733752805,0.1872087392461879,0.012796284173530476,0.22065386217997054,-0.8821936410458631,-0.3431750728845346,-0.9455254427117263,-2.910959708028893,9.241460123848077,-0.13133264736904926,-0.15405878424707234,-0.0803271294915421,0.015790350907299588,0.21061100064071664,-1.0012423458350832,1.3565893619091478,-3.1942041907760474,9.477543290877582,-0.11803343281530208,0.0969310689581548,-0.02726860351145624,-0.32484000613965325,0.35517928226636836,-1.1182881078567979,-5.409851931042747,-4.734344900980519,6.752397175521433,-0.05626340369985783,0.15612025657423764,-0.13730003256482146,0.581499416913421,0.3307295898282273,-0.7750743093532411
-2.0226781838951977,-4.805440824460384,8.392359898249413,-0.07421741243584837,-0.03363032913689535,-0.07664473637811842,0.21404892306907033,0.28806729532697506,-0.8420115319453603,-2.434553941009502,8.590881894759985,4.7225397539342335,-0.08489911382304179,0.1528007675953544,0.017666803427125368,0.22338337459396318,-0.8892081590832903,-0.3401309270791456,-0.8469213144685561,-3.119787818048382,9.228421307372173,-0.10877545232318447,-0.12582011192266107,-0.05509479519569579,0.01506126986241784,0.20819867442893245,-0.9987711533945935,1.2299325107646915,-2.9726279803943583,9.523823171679723,-0.11734603200224782,0.05558074739354456,-0.027149819566664214,-0.32315426412736725,0.35050794909277955,-1.1139184457131828,-5.527737505580408,-4.8400869041445285,6.811844024283903,-0.036230157770724074,0.09286842440014559,-0.11622746067235096,0.5856399002023188,0.32773373675587375,-0.7655695449951295
-2.0967679050210313,-4.795182402197353,8.369990983721221,-0.07062206465898771,-0.008064162081474528,-0.061505212163079866,0.2064685196569259,0.2856434665275408,-0.8390995623266689,-2.5123682249984887,8.767940664703023,4.649797648406974,-0.08345666687568017,0.10918134954893294,0.06568740684998511,0.21288943243426187,-0.8915334376711092,-0.34422241414839977,-0.7022956577253862,-3.099940989803713,9.323353568043842,-0.12406663209596083,-0.04584902105442861,-0.0320532528102229,0.0026309376662625138,0.20683824649136914,-0.993325297693244,1.34430988762755,-3.0669976586047785,9.430187825423978,-0.13094420287829733,-0.017103103994294093,-0.002474748538269092,-0.3316989146601603,0.35004281845945323,-1.1144350604307252,-5.579020705321491,-4.736625452042878,6.798795005534048,-0.03701397530627857,0.03215564486434432,-0.09927280832828478,0.5773318315157857,0.32582054857604087,-0.7675328665908947
-2.093156368953578,-4.843272466374758,8.388083806349172,-0.0728982873318301,-0.0033376425925049744,-0.05446429497396102,0.20308161967066665,0.29468977742547364,-0.8417791528963303,-2.4595643199035644,8.57424285950398,4.554749887445446,-0.08957755208433049,0.09205485089363437,0.09868498148923066,0.210906379577013,-0.8854120326561242,-0.342613188245093,-0.7653394175292446,-2.9723257850000113,9.116681322559106,-0.13140036040369638,0.01934921844542008,-0.02392644265932809,0.005591782819610574,0.21634355767694605,-0.9939320301245856,1.355808122539874,-2.953206780795892,9.23034992180611,-0.11736775497334462,-0.06025013432261317,0.02031803749440403,-0.332660059397666,0.3600389934447885,-1.1119309279549716,-5.480876585156959,-4.729728623646036,6.753989412164531,-0.04283675020947747,-0.0052841340447076,-0.09410952161651015,0.5771206709202035,0.334840619744249,-0.7647987041371745
-2.0339064191055805,-4.882387920218889,8.340649178032114,-0.10453243157807543,-0.011696838622780915,-0.04151010489757404,0.19233694514533187,0.29350216522410755,-0.8427774136857977,-2.4122968088970764,8.346080734583701,4.450004622544761,-0.12598944746871904,0.09658571516077111,0.08333844476236209,0.20163598807073846,-0.8884749716179384,-0.34742666559900187,-0.8567634438937902,-2.9422353037399356,9.120020364013154,-0.15265183123375595,0.035760552518729685,-0.024759218435485078,-0.0036926540534455363,0.214907129832606,-0.9943598209592708,1.4116029621741886,-3.282451312488346,9.243631321084727,-0.1517840973836201,-0.08365609903028909,0.013396029317458237,-0.3433972141610127,0.3603172372758418,-1.113425054107083,-5.397764641798339,-4.788672777258954,6.7935017600321315,-0.08095983850487733,-0.03219955176104728,-0.09773756599001131,0.5666138524727347,0.33244475488869224,-0.7662756136489034
-2.1362293378203363,-4.889163673938758,8.26626637754557,-0.07770876460946914,-0.02153124253308544,-0.04096549578427643,0.21066488207770678,0.30150067710207684,-0.8393154609794669,-2.5084993291110496,8.481814705407945,4.6030691321339,-0.09846052072891823,0.09717076419265895,0.07296985622847926,0.21724106630910947,-0.8837018885880955,-0.3446079677498973,-0.8825381717978275,-3.0775807578448533,9.23996955615552,-0.1340805430918821,0.04507619905360505,-0.032769127011040754,0.016128611500594768,0.223655608926582,-0.9916217042016288,1.3854106664765733,-3.2058524530942183,9.085574798841552,-0.13391437183063912,-0.08376004701912945,0.0040175342635193935,-0.3280169964374894,0.36732363317619066,-1.1074762087346939,-5.361580020885137,-4.8376264637065045,6.710362402718265,-0.05374610501324615,-0.03192109148345367,-0.08217423082944009,0.5829991386600384,0.3401875720795553,-0.7642806686599306
-2.217056779805302,-4.817779805807446,8.246503718190654,-0.055188655899104405,-0.044227128928322715,-0.03045130716090475,0.20065480572193808,0.30055556767907565,-0.8408000621145314,-2.559215114488118,8.544722658736164,4.477616714502187,-0.07288309286167681,0.07799235589266285,0.08732319537916836,0.20868486310481182,-0.8846139096876582,-0.3523887943281421,-0.89045286186421,-3.009299711892821,9.321149503992714,-0.11455725774283892,0.07394448456853134,-0.02336733023550188,0.007091867564900529,0.22610355846858526,-0.9940465347277686,1.5152776027174835,-3.1635848273915776,9.002187502675644,-0.1160705708753187,-0.05160338992219902,0.007302524646662099,-0.3365479331877942,0.3698032589221542,-1.1104137453425087,-5.3760732110609935,-4.813479679106681,6.688756792867669,-0.03642490794063426,-0.005358107610337277,-0.06349756761760536,0.573969667554954,0.34122293380160984,-0.7691579662381959
-2.1635778599595112,-4.790060624574863,8.27526264847192,-0.07101213352045155,-0.07984947414534943,-0.013438139960007056,0.20212583035808548,0.3020175712244024,-0.8417714828026472,-2.5109557373822975,8.281560638324327,4.379310553438301,-0.08775973289558073,0.07039606124712623,0.06365094320579373,0.2126122000436554,-0.8884980192973251,-0.35233057827461806,-1.0161222928044482,-2.96844444945234,9.173021227316461,-0.09567547015724388,0.06319053393793889,-0.02975493498276427,0.014895964692590122,0.22653886939895101,-0.9962858414096439,1.4831952701604278,-3.271091349770137,9.007931055301585,-0.09558575444071402,0.005795863616989565,-0.0015854699406729284,-0.3350888281022816,0.36905840570404014,-1.1089503414225688,-5.338765928098205,-4.733190648009027,6.704962681622516,-0.05378697459098977,0.03285790523549008,-0.054529066862397106,0.5783565262248052,0.3392620018358197,-0.7706337327631905
-2.040788684124683,-4.900637935419916,8.249166836335103,-0.10475046078316057,-0.09540139155812587,-0.006851081337182644,0.19478825429988247,0.29764318499476583,-0.8413025822758278,-2.456592792018356,8.21252745677921,4.518719810014454,-0.11085962838275176,0.07641165488373401,0.031241530272496425,0.20187284879134362,-0.8895572265740626,-0.35375668473080385,-1.0277104154519299,-2.9486994581111268,9.071502296498402,-0.0967862349320506,0.03705538676980123,-0.038688893238477996,0.0066126558346782565,0.2295150495371855,-0.9948148066890415,1.3210881329878157,-3.1433296835399815,9.21244344276453,-0.10156702200604406,0.03150952053499945,-0.009807108415746694,-0.34167349161547744,0.36981824226161625,-1.1109174082297104,-5.3811900563170685,-4.6476425218357145,6.750454849894699,-0.08693149652798395,0.0499421523649733,-0.06381267066624709,0.5715295217406977,0.34169818967667454,-0.765005279727227
-2.0424889335556573,-5.004363890165885,8.209180198355526,-0.12264634788498269,-0.07987742282458762,-0.02007900992025884,0.20412096469963198,0.3164161543904826,-0.8419932997737155,-2.5027132915664354,8.323664902815258,4.680152560718951,-0.1337523662692106,0.08872295690135286,0.02769205584761825,0.21569445556185785,-0.8736771318109458,-0.357716007601663,-0.979927640465322,-3.0759636372438544,9.162320407501946,-0.16072597961426677,0.04406169891520192,-0.04377720858780746,0.01836745550879101,0.2433551628687562,-0.9979524818778968,1.3276386401264688,-3.1936733181024346,9.274125315606305,-0.16380464162670266,0.013395548305446292,-0.0009094427656343809,-0.3321090185908379,0.3876252156753806,-1.1117504145936914,-5.522904632121368,-4.657328511912153,6.765378471400432,-0.10303631755633813,0.032319842697017806,-0.08504170377214626,0.5828180365768578,0.3575340558253637,-0.7663842369834873
-2.1761987067803874,-5.009621623296358,8.146293742742888,-0.11798456735405652,-0.05345114671804124,-0.03218748956974637,0.1958459413268929,0.322305455576637,-0.8468839327306427,-2.6124596244681775,8.458596176606463,4.5550147117175275,-0.13682674724817748,0.09237651511833549,0.05904266194943525,0.20660954384319202,-0.8675295196706008,-0.36659278984727034,-0.9558651235833818,-3.0148018141862636,9.500406029319228,-0.17026940263406626,0.06742150712569174,-0.043874380776696253,0.012042396522998431,0.2516616531451607,-0.999478646061149,1.6053506003983442,-3.1905885472407887,9.004073565264477,-0.17306631156104468,0.03402104044710126,0.0015797482559294427,-0.3369649720606582,0.39473846426693887,-1.1151363352031618,-5.553555283623305,-4.7926931472287535,6.678334517853326,-0.09242144470090963,0.013035430556887799,-0.09046595797643035,0.574541823788078,0.36443062078436517,-0.7719616392140165
-2.1138275352528177,-4.896919473371622,8.175607311011202,-0.10444467347700502,-0.051488538043580896,-0.03280310307602814,0.18701487891743337,0.311337752421621,-0.8412992423879575,-2.5478907277357985,8.423097313505824,4.606239782477122,-0.13084939101267234,0.0887015867949345,0.08149656537961267,0.1988816389895655,-0.8824326881639769,-0.36461532444141964,-1.0554307550272672,-3.146573244295618,9.776946430778247,-0.18696523752529756,0.035006548722139465,-0.04204090784787535,0.006669409353746733,0.24368752473815236,-0.9937498340527482,1.7983333164557822,-3.236185420341671,8.938581431633665,-0.1905048687581828,0.17064630849733586,0.008636898324029913,-0.33528354571268226,0.38787177219792346,-1.111025931030133,-5.424186000395538,-4.792256969230638,6.673957869833642,-0.07945328717904118,0.025164136677799827,-0.08927708989268085,0.5701115714367058,0.35441551651021175,-0.7681100522059126
-1.9442691357307593,-4.841270824839127,8.107302080947722,-0.13271311217603737,-0.05659908721628788,-0.01781554885019149,0.18898189679792,0.3186510333111584,-0.8373802139001083,-2.4208833212948964,8.173407995773886,4.75511113701759,-0.15662652068072278,0.05751318449020506,0.08561127955618202,0.2035037882614909,-0.8776955769852534,-0.36031019787087,-1.1778637739708748,-3.366140688194831,9.50881148722012,-0.21769968482348565,-0.039032008241357316,-0.03442114538189633,0.010379591850407727,0.25128998390633,-0.9894558785991295,1.5122183688434272,-3.3109698325391594,9.0310674931838,-0.22001389191461976,0.3376284434381202,0.024540435288194114,-0.3247745400427906,0.39758702115950173,-1.1070265807773125,-5.255766893005985,-4.767905929190053,6.662397752358122,-0.11409297809812258,0.04351033600051313,-0.09112268883117844,0.5728224085938957,0.3614311082220916,-0.7580617409129936
-1.8989108256085998,-4.956435490740012,8.115649266569205,-0.17748596251051696,-0.06320169803148983,-0.009926239099061863,0.19239812226023378,0.31571685543717976,-0.8410397238118988,-2.40194816825386,8.065229162965712,4.797236355029772,-0.20002265238666744,0.020890685611152135,0.062391897742402495,0.20594433560241782,-0.8822869391316283,-0.3726898683154954,-1.142764439249092,-3.3780374659004377,8.975263904499226,-0.22976059579724403,-0.09376420979061162,-0.017158363536119554,0.01158362112300607,0.2517305382409288,-0.9933737682592645,1.052728424164498,-3.418828908766771,9.236618040707471,-0.22696038065947136,0.41119241311509885,0.04512510039312656,-0.3101093039654955,0.3944357725146978,-1.1155500390411761,-5.224236723778604,-4.815421659658524,6.64683329780487,-0.1579434248948112,0.06199924412698887,-0.09907746180226445,0.5781737670759575,0.35607927910999504,-0.7651710706670128
-1.9211742284055655,-5.2044655498164225,8.103464329743257,-0.16415268565794153,-0.06802549289470902,-0.010566960949910791,0.18460557612483444,0.3230621952152552,-0.8400675832498945,-2.4171830042625615,8.202990169381087,4.694581871108167,-0.17546752211243355,0.012709031364981896,0.04353373099662558,0.19982137290709398,-0.8786587542671783,-0.37273942052079007,-0.8428002196688666,-3.2997215501073685,8.554848588447205,-0.17528159079364347,-0.07524160828157879,-0.003789863988479844,0.007963212577254394,0.25813442918761986,-0.9895195731805567,0.7825371971983389,-3.568612623872227,9.454037620342628,-0.17134301262344873,0.32297411812475635,0.03805676517593963,-0.30643158570838874,0.4022343966495742,-1.1147558557976698,-5.319171709863948,-5.002014790240248,6.590232804426399,-0.14572164230760137,0.07566242255140006,-0.09618620122361042,0.5728330161407649,0.36437168051641833,-0.7599987569330067
-1.9458650786181713,-5.261402465185145,8.13606583731689,-0.07277002815700911,-0.07472291715715637,-0.03158881972396001,0.1828664708726834,0.3145184221631646,-0.8371527587343683,-2.403637081516867,8.45863762656547,4.645925573374695,-0.08487313456323707,0.0344314707993403,0.06496594776500092,0.19838984492578673,-0.8847697617763945,-0.3726328566383599,-0.5947086412142613,-3.2613661797998033,8.691395027677498,-0.09297158363408589,0.03187167140171151,-0.005513771724645283,0.007946820373277638,0.25228655387976306,-0.9884791200680105,0.9444010653248653,-3.491638976557586,9.545416888189335,-0.09465321603396504,0.13662349009044913,0.02003030109440413,-0.3025535873253645,0.3948762372169915,-1.1108863252956638,-5.37157862253011,-4.978734197878917,6.47328363800309,-0.060356246788872525,0.06719521099862656,-0.07982035891557221,0.5752502860237786,0.35748973640484294,-0.753200168288455
-1.8107516420268785,-5.1025637060617814,8.11508520001386,-0.03363733803143501,-0.07778173245541103,-0.04977193932723372,0.17632718794571522,0.33211668779726494,-0.8381181340358473,-2.2796443876408983,8.372978226410234,4.614434154838431,-0.057324846396430366,0.06411236228236147,0.09091672975421464,0.19293746692751296,-0.8719522366250999,-0.378211521815611,-0.7136215797885496,-3.3456354571316123,8.979050540575482,-0.10757521262396803,0.10839401025508393,-0.01888921903438115,0.008475498324103617,0.26714625179320417,-0.9913302445033138,1.169509064413147,-3.685803034701623,9.528018794974578,-0.10609914854979915,-0.011006534198822485,0.005965490921776845,-0.3059209620091283,0.410299583472689,-1.116167111602267,-5.290538332312103,-4.93181022961303,6.542300958623086,-0.008791948751768724,0.0492300648402576,-0.07475889347074571,0.571393747603091,0.3714501982993756,-0.7587391704640335
-1.737398959562679,-5.079382615561203,8.097028670349768,-0.09540858187117049,-0.07373053731939265,-0.03688412840133007,0.17459711116845322,0.33040134310133756,-0.8293344952728441,-2.270669722145602,8.11394443145229,4.775141002788146,-0.12373582133456895,0.0720624684048279,0.08724685899253229,0.1919938246533262,-0.8747379001021608,-0.3693720892404432,-1.00496523286263,-3.4466759630097727,9.178350554668144,-0.1775938365179352,0.09028498562300484,-0.04254761580740697,0.006335818040732466,0.27019143938595896,-0.9815877840948809,1.201436621203713,-3.6929464129022573,9.366333255870835,-0.1771886743643879,-0.038360303655620744,0.0014334205382489278,-0.30790181789781923,0.4133988334451141,-1.103945401674574,-5.2901678227903375,-4.908723808637083,6.562267965965591,-0.06497966913986844,0.02229762158658916,-0.0913139487704617,0.5706610698729375,0.37113573883192896,-0.7453126726858685
-1.8061832950548868,-5.249809437134558,8.082385115170126,-0.13498061594329877,-0.0621886836566477,-0.037843952563402686,0.17533995481257675,0.32870059115471933,-0.8373923389755017,-2.3457571231516656,8.232312209384414,4.807882201110226,-0.15358929025758203,0.08005830604107211,0.0821861080840689,0.19149784204373874,-0.8791551284171886,-0.384923403148403,-0.9817967584035693,-3.459611913768906,9.334281093367903,-0.20117159098386805,0.04653489588362847,-0.050077237055564,0.012403066078875492,0.2705712486038391,-0.9894335691544949,1.2892984402826178,-3.6594870466401903,9.140943396714556,-0.20279264946891276,-0.005074354308535441,-0.003287475129963086,-0.30299354210024476,0.4122299547609704,-1.113705106450678,-5.364071704412946,-4.95936342884366,6.4889652402287865,-0.10706942374383394,-0.008758719249371508,-0.11234474048781286,0.5735935528061966,0.3719129245105911,-0.7555626368939536
-1.8415080014082479,-5.278396424874188,8.063109429604548,-0.11258843453697845,-0.052694409406685586,-0.05723867012600071,0.17411726816436923,0.33260100256029107,-0.8303095496077751,-2.3511283287190596,8.369915925149527,4.754078120443546,-0.13633640240574543,0.09816122603151248,0.107033510958246,0.19100072501578325,-0.8756574412250451,-0.3800980932136495,-0.8629558546041446,-3.3373753249464344,9.558808290230958,-0.20009146031766842,0.017835656908578155,-0.050751896226470306,0.011968859324336455,0.2755389143119493,-0.9819175716221125,1.5532403526038798,-3.488678820816775,8.907700802368558,-0.20288573948763025,0.0894008731084228,-0.002328955561858953,-0.30250922327447416,0.42193500494943553,-1.104606537271165,-5.343720108417597,-4.95179967697417,6.4604136971689305,-0.08584119477842773,-0.042536605045343574,-0.12059112127859363,0.5721339475301933,0.3733592840029265,-0.751160673393742
-1.6796507202749267,-5.141807054327843,8.060600331383597,-0.12922257273830096,-0.052708864297228854,-0.06760726050056193,0.18172580483688844,0.3438156715266608,-0.8346751641896724,-2.1737992461638314,8.38095578043173,4.501682099586503,-0.17425902597519832,0.13889935839756148,0.12881275720176527,0.19680889793306872,-0.8696726975806105,-0.389001406185421,-0.7274123686616765,-3.3133675347790263,9.791675195874165,-0.2626089062685106,-0.05209151696534525,-0.07165924217925954,0.015172676226225059,0.289638072487632,-0.9864822630680105,1.8960315294247971,-3.7562663514870254,8.895355215159842,-0.2726558096632509,0.25864686609230436,-0.01088419112780721,-0.28708245365609963,0.43463327687441855,-1.1103399347160303,-5.179476867603402,-5.012878095517283,6.514558411741296,-0.09063631933808482,-0.06779880758553392,-0.1315967769735432,0.5758454623276726,0.3870522596569912,-0.7574332576016489
-1.5225606139735945,-5.119822878619109,7.948469795107149,-0.24374669320992973,-0.04501012791071648,-0.04373260194277643,0.16949385875118544,0.3396909524649034,-0.8276229136539901,-2.0665793417081444,8.39827190855832,4.687835465447066,-0.31615318029877926,0.1692609816475287,0.14657504524195958,0.18707825483155938,-0.8750463047056485,-0.38596160861045153,-0.6678534524853228,-3.4765844055642137,9.676917464701098,-0.46432356291547433,-0.16076954394156143,-0.12087018656518188,0.005967026370211766,0.29298528956100117,-0.9737790849777753,1.644664237413132,-3.890475713271814,9.033144965707704,-0.481050573361194,0.4469813577645553,-0.017785432235993482,-0.28513713271164226,0.43922549471963535,-1.1039563919155841,-5.039988981627845,-5.033136594066692,6.615132473967068,-0.19594659850102283,-0.08419753407256146,-0.16176992933168638,0.5655801363061802,0.38386902621482605,-0.7489063100513733
-1.5893275925739156,-5.283866612619863,7.933907154767082,-0.3448972258315301,-0.04342915323383563,-0.022168259744656336,0.17196077087186462,0.3479854633841836,-0.828095716148471,-2.194626729154158,7.821917535448273,5.305614983153972,-0.4199891957738733,0.1550147861414093,0.1500556022171392,0.18263150792362073,-0.8719470151833842,-0.4033420102857271,-1.1452731277340282,-4.1030343777516,8.790088240457308,-0.5764150601639711,-0.215636839085506,-0.12410353377473679,-0.0020519387544375403,0.3081103943667459,-0.9775692765223938,0.6846477620923197,-4.041578572041619,8.810907138630053,-0.592530312137493,0.5450090998570044,-0.0038720296103071264,-0.2738774434834031,0.44995186794490183,-1.105319458647539,-4.9312279844181495,-5.2182596300573225,6.509947182159878,-0.2943821842086969,-0.08697731145927372,-0.18599593571052386,0.560722823779129,0.3909838797724102,-0.7520405391222427
-1.8274642568222117,-5.686042276157404,7.8619143871939965,-0.23187661376436072,-0.06712905932862435,-0.04105524785977432,0.16835099203504242,0.3660636141591731,-0.8285680934404492,-2.3986123775997843,7.773342178093539,5.09599812626723,-0.2656775533117921,0.12514521812575102,0.11236462922342631,0.1842406635275443,-0.8559267245772518,-0.40947701135642206,-0.9788764268145249,-4.008733648267741,8.350834215105328,-0.32580398671846367,-0.21992684112637542,-0.07876581094947953,-0.006363783377797439,0.3286535238918517,-0.9758213897243637,0.3087088310927498,-4.165997501284698,8.789509961575448,-0.338860410138914,0.5397828593462459,-0.01443332707582444,-0.2608716667799706,0.475817860579813,-1.1077993345216857,-5.034854476707516,-5.444850915369847,6.3890450573554745,-0.19076964711335784,-0.05623959378684835,-0.14967458364376768,0.5595700393025785,0.40980153632343547,-0.7546240885950187
-1.8747727639973237,-5.651108382930013,7.956556684111598,-0.05411363426156186,-0.09537299726047466,-0.08348925163492252,0.1629471466806014,0.3570405104427356,-0.8249276132924884,-2.437095268678177,8.253727815386581,4.991432120329326,-0.060678671800789695,0.14636862482036045,0.10604125508352219,0.17991773431869496,-0.8673440878730816,-0.4046349952033803,-0.6169389945194654,-3.9842706241965,8.532772675720311,-0.09446791208318268,-0.1461213254611362,-0.06239659203934762,-0.015166411347377971,0.31679150215483404,-0.9695443711534434,0.3849665128928029,-4.357559769882558,9.192505050221849,-0.10244828638539269,0.4292324807005869,-0.04315686523969095,-0.2518692891968189,0.46334059737961303,-1.1071223427320003,-5.173432057468867,-5.360629134362631,6.463073881662656,-0.017204312423930765,-0.013002243810743106,-0.11451424106592932,0.554643840019564,0.397581944331717,-0.7490754734362645
-1.7471558919317234,-5.4871938273897145,8.047017089373895,0.004012112454830193,-0.10131230957231727,-0.1012851977722942,0.15952229015865232,0.35436605437041807,-0.8254253436625754,-2.366702705827448,8.487413723557637,5.128786969779845,-0.021509863500108084,0.16123938291697903,0.14251711711495754,0.1787281135254938,-0.8739914197263452,-0.4074502297586122,-0.5697495668563698,-3.9736230278105333,8.836471538174603,-0.05708934136185897,-0.05423801687550553,-0.074879720981595,-0.017626960061419027,0.31360782798785425,-0.9712067059044297,0.49032123710879616,-4.174532949480384,9.269941234960267,-0.06688022011303733,0.3000140070201198,-0.06115708785875245,-0.2443104022796402,0.4601438981137084,-1.1061443031741751,-5.268084015839554,-5.268600236501276,6.594138400293819,0.04688831896189082,0.0004524764955740713,-0.10406778882031145,0.5553607173042269,0.39344565985744717,-0.7522720557841243
-1.7437265347060058,-5.449291784191058,8.160230422013585,-0.04861973194742327,-0.09452616551604953,-0.0995411141548713,0.15758745674911595,0.3575519773820037,-0.8303078110963215,-2.3898822560747206,8.180309078771739,5.120308344993871,-0.09434812001208143,0.15748842779011665,0.15346764481604286,0.17820265866538793,-0.8694511329152623,-0.4131420976298035,-0.8823363601231347,-3.808443074177193,8.846010395437846,-0.13068418268937745,-0.0159819778286108,-0.07552610045206369,-0.01664947220426251,0.32304946427656955,-0.9781516994019592,0.30985647023013524,-3.8097283216694158,9.10119586020845,-0.13638161642333282,0.25135369234066834,-0.048991362059770956,-0.24158605937783084,0.467269802080065,-1.114147447707146,-5.30041646231032,-5.296473080669792,6.621432513087103,0.0022844122519223822,-0.008336710605046286,-0.12428127477199039,0.556614410332029,0.402509596346478,-0.7585698105518853
-1.7792456695129295,-5.47890341362646,8.172854141661455,-0.11488407862586573,-0.0971614931565579,-0.08626915346677544,0.15367626620131938,0.3619447106093482,-0.8205433187238419,-2.4235896971578432,7.980210342509223,5.082684772332943,-0.15782077706010028,0.14881814848097194,0.10889614958684958,0.17722941858489402,-0.8673877185867337,-0.4063382159395811,-0.9864806094882402,-3.8295799728586237,8.57505887223801,-0.19512561386703275,-0.02249408224613842,-0.057941743147040294,-0.013622489732986045,0.3300407444364168,-0.9631059800490964,0.13810882621957338,-3.6454029071697565,8.916053852113755,-0.1883419976861602,0.23613538528112132,-0.01546272523596077,-0.23085844053515797,0.4752248522215437,-1.1023456886343261,-5.315323368633579,-5.317251842867767,6.553381579189106,-0.06704844952412368,-0.01927427650339465,-0.144291082346352,0.5566384936051378,0.40904461712450374,-0.7482800719533236
-1.7778139028887303,-5.587071066128564,8.054363344750817,-0.09494098658034146,-0.10622641792570665,-0.09622121599639308,0.1505368327513088,0.37172425370397744,-0.8239545135985514,-2.468212867792145,8.12721241901517,5.141470796994268,-0.11294302517181484,0.14188146273124422,0.0735564730141499,0.1723025932166755,-0.8611460630366404,-0.4110741679859039,-0.824422620797373,-3.877047068013964,8.701706107296598,-0.1409044102913035,-0.004629659669382666,-0.021696127414949053,-0.019001549652931472,0.33488395212261524,-0.9685048711098594,0.17399223846081713,-3.857568867259831,8.98489172810497,-0.1430645736829883,0.19722770859774835,-0.001402451848180901,-0.22960877764815876,0.4820895506069649,-1.107180690572904,-5.274085665137367,-5.298511298730955,6.507498326113343,-0.05643383527968188,-0.0193583185656226,-0.14860576464907949,0.548845878059972,0.41470880159207146,-0.751911163563653
-1.569893460972297,-5.4104706447289,8.015311205081701,-0.056960812211606544,-0.10706566216801258,-0.11225459171775155,0.14490714394488535,0.3658821216199987,-0.8251933689800135,-2.2719136773923694,8.336448939463724,5.079434923106864,-0.06704477204758512,0.1351427708590611,0.08510327460575569,0.17258583227338387,-0.8694982931024191,-0.41410739095249555,-0.5579962673669295,-4.080570040886696,8.837145248942587,-0.1002059065135629,0.041175478788346674,-0.00259222922317992,-0.02024445635040138,0.3316904620121396,-0.9706609624473677,0.4157462954564581,-4.057236483924433,8.953999493763206,-0.09992407241111573,0.1636136100283873,0.011645981635607103,-0.22692399354224768,0.47819487637265484,-1.1098842946329044,-5.108296686857669,-5.271886594031475,6.542754323810744,-0.011959704430466896,-0.019704561442619464,-0.14589228310740052,0.5485832406698243,0.40959210352580916,-0.7536480482748538
-1.4657706249813802,-5.3980449992910495,7.940977204095199,-0.11526067553068253,-0.10660651743595208,-0.09705702059299352,0.14004201776029124,0.3700513304648932,-0.8283709483756589,-2.2130591672492157,8.150845213869925,5.109456128987212,-0.06668874168358598,0.10823226704796425,0.10136274753733789,0.1725413470606425,-0.8634915761401492,-0.41982510084379177,-0.652155523117433,-4.039498207285688,8.550162762598625,-0.10308256281821368,0.08588182233694285,0.019382557078848266,-0.015846595888940225,0.335070727008167,-0.972672327635032,0.2671683887847547,-3.899274707630938,8.918650646692067,-0.10157844364359411,0.11264646559930339,0.037478300667588095,-0.22446299003779316,0.4823629060492684,-1.1135122713921917,-5.012538720739626,-5.368110261197714,6.504183317251195,-0.06007768507992996,-0.02586797751050486,-0.15416124015118965,0.5466461427396643,0.41401570358692835,-0.7577749914666406
-1.5215652644003108,-5.557100102432958,7.881221015498297,-0.10073236807717603,-0.10866638481001861,-0.0933409819847921,0.14467410601694622,0.373687624314046,-0.8188357412764307,-2.3293068923394986,8.129819400194231,5.227325882077684,-0.1138342129375621,0.08883659830636353,0.1055923267488674,0.17696223599821614,-0.8655441133141312,-0.41271791672129554,-0.8398134288022354,-4.066666976578435,8.828966886246594,-0.12211058098956276,0.11356513783700665,0.04662821635504741,-0.0074653712428266236,0.34030937318370585,-0.9598301272519633,0.22919781559724076,-3.957872654387117,8.935181748523815,-0.11532374601110038,0.07874192241420107,0.06476353541525627,-0.21447014241914714,0.4874017987940864,-1.1034405840769133,-4.993061959115594,-5.4635604741822315,6.479659885520487,-0.04820903050507605,-0.021675708435911465,-0.14392643909845754,0.5510598784309724,0.4190721293515374,-0.7477373747308678
-1.4595873713542924,-5.546762841149026,7.958936318597005,-0.1069036879910682,-0.11878423489193347,-0.08353530377059938,0.13075051532449752,0.374941086286574,-0.8127566820307429,-2.2507703885800354,8.222789265087806,5.164412091157811,-0.1400493255467396,0.06611298576165839,0.10539458498225662,0.16597141116231648,-0.8648720581229126,-0.41270770660241707,-0.7712093645593097,-4.179601384016967,8.989855800056276,-0.15093839151200586,0.10829798477656465,0.06093516218985076,-0.011599917746727886,0.34326774352674955,-0.9586217762597107,0.3695174225090718,-4.269302229872797,8.932338485975519,-0.1447099470332363,0.10142507185505481,0.08302156646820699,-0.2210713515849972,0.4864251764683425,-1.1010248507759144,-4.9987429722785945,-5.519167212336978,6.505217544455361,-0.06347677584713222,-0.006988918718022825,-0.14283321498939175,0.5386044874304983,0.4181160928278433,-0.7431033235668566
-1.3110240591431945,-5.49315358750285,7.9163079760844495,-0.1257521644788564,-0.1154030917021275,-0.06925953094320667,0.13296360225677037,0.3778690441874649,-0.8168988624663123,-2.1134023409495626,8.166935503242486,4.97338112766519,-0.1880592036904822,0.061503314212627634,0.11453959344770052,0.16474456927002,-0.8664709337478456,-0.42024725404953234,-0.6368789045367464,-4.155999414200422,8.96246325939453,-0.2198836060025142,0.09934805588956185,0.05201797884669872,-0.007447810979128953,0.3461599313730553,-0.9606265979106663,0.5170021505726918,-4.514407157335029,8.980407300260188,-0.21570969369806203,0.12035836809370774,0.08123503993048696,-0.21348413815221476,0.49470695313507607,-1.1007042972425498,-4.968110146409903,-5.587312457779168,6.505507000708145,-0.07852137874583129,-0.02211336117218413,-0.13131217644804405,0.5422788166160449,0.4215406669415349,-0.7467467847202207
-1.305126997878858,-5.533381331502469,7.718459565711393,-0.12862354502215725,-0.10059737349145333,-0.0478367063618947,0.12491738869867575,0.3825294795992728,-0.8154426399043734,-2.111550305522721,7.8857091790256035,4.978050913017589,-0.19192191135563907,0.059252576991502603,0.13498238123349385,0.16057892701736876,-0.8638089642295773,-0.4202842527891991,-0.741732880929182,-4.309806701013928,8.89209532391421,-0.23302625284606113,0.07902639143578663,0.024363350901742114,-0.008384149666419028,0.3523100336530538,-0.9567834621066331,0.39014277938527225,-4.787785832371422,8.961785703140754,-0.22689042980898913,0.1442899976829912,0.056358463976004296,-0.21249572359912788,0.49983317221757523,-1.1009132101178543,-4.900552678357276,-5.606924404426399,6.454503425146972,-0.08792768844260365,-0.03915041033850004,-0.11408055366918365,0.5371697030271291,0.4261918616122271,-0.7457453644933035
-1.382083012630093,-5.594682508528298,7.704249366245671,-0.060131958034376404,-0.08626874111069165,-0.04383749344030127,0.12979553577533004,0.3800759151368189,-0.8166578409277074,-2.2147002346277933,7.80337009941389,5.079751321823624,-0.1150246300039184,0.052466629136906764,0.1422783958599195,0.16105708058152435,-0.8633888411622919,-0.4244439320770073,-0.9325819078158916,-4.341639460451515,8.80330957282213,-0.16133727193727246,0.044324663775500345,0.008412579332609329,-0.0010722452230746398,0.35540341437295897,-0.9617358342789482,0.18531204166732074,-4.663068008197654,8.93162951547917,-0.15846588155140684,0.16274647502483078,0.029958380398940544,-0.2029680652477509,0.5020097657473299,-1.1011156846734569,-4.9027427423824586,-5.558534170352041,6.405242236501201,-0.0308974277546612,-0.03786155202301068,-0.07953288626445255,0.5396062171924569,0.42497764737821253,-0.748437053278448
-1.3543606878173649,-5.559637665709063,7.763930499175205,-0.04343454214427205,-0.08151489876745377,-0.04086070950986069,0.12101280938630472,0.38132325715352194,-0.8181373682403603,-2.1782314442003754,8.075895696589553,5.071584349630112,-0.09513335499479794,0.051775395030180825,0.15353065051937506,0.15617361408075792,-0.8659762243144211,-0.4314714332943654,-0.8368332250483328,-4.118591684883257,8.986647892306435,-0.1457631683922218,0.017461324784144843,-0.00026322622097238024,-0.005196146915724982,0.3600777150980412,-0.9598143503313565,0.29537286556401277,-4.278526723987482,8.82047350953629,-0.14483265176804117,0.20721537569451784,0.02133281300291032,-0.20198622557435397,0.5051782703920926,-1.1006032959812901,-4.930261006987914,-5.434309053887968,6.432319521309538,-0.01907484676730657,-0.02927039952287886,-0.0705141484638,0.5357011139647722,0.42524114225895776,-0.7494125737697486
-1.3326019138832899,-5.557086528866382,7.759971726802901,-0.08768806400984411,-0.06431534099477082,-0.03262483020541005,0.12032897778729038,0.3954903307969703,-0.8220264116607013,-2.1560862666002323,8.038175105355228,5.163548520577233,-0.15353245893140963,0.04703323929344217,0.1783246262467437,0.1519539466792389,-0.854832774208327,-0.4353148525732823,-0.8600382380597665,-4.1158252539128695,8.77269617429084,-0.19991938269652823,0.0003402769672695826,0.006310752397665258,-0.006858298445761042,0.37374966578061897,-0.9604447675141472,0.13484799595254662,-4.147876839414778,8.76379960747934,-0.19949503772251426,0.2582041521189566,0.03093549025994751,-0.19485684757767555,0.5237313585509764,-1.1029045063474168,-4.968320929590187,-5.469609033552743,6.503277923808295,-0.06039101528296793,-0.02365117330961476,-0.07898204914517538,0.5338048150895978,0.44088619000287205,-0.751768385024212
-1.3001203698834285,-5.5703748342255635,7.794975369728547,-0.11089336423578323,-0.048906684045756516,-0.01745158554740685,0.11905461025713955,0.38571133207073127,-0.8083692955189123,-2.112299834003106,8.002492780418645,5.108868116330946,-0.18730071533635054,0.03833160550070968,0.19334394226670082,0.14956673513955548,-0.8628178985295412,-0.43029087838549457,-0.788932939476273,-4.182375320040636,8.499650894824699,-0.25422905413259655,0.01200390261839998,0.014264065366271237,-0.0016963543946170272,0.3680012125251382,-0.9486864262288124,0.016503741678414684,-4.260324764194495,8.764985800564181,-0.2555245376633815,0.2525788858833322,0.04636418382598526,-0.18586874434757097,0.5163233796460495,-1.09316044816465,-4.9484208651096155,-5.618086022572157,6.473080644702425,-0.08790305906202131,-0.024715553553940558,-0.07893842810736157,0.5354784822562754,0.43106633458991406,-0.7430327547731204
-1.1958238928240614,-5.6873746880590765,7.798336412117653,-0.1356233947950242,-0.03608923418615177,0.004386543072864764,0.1175848295438455,0.38035213952103325,-0.814237902412383,-1.9927757178816443,8.08211454272312,5.202902209121344,-0.217453765939961,0.03258470638195002,0.2075058668821939,0.14299759385849334,-0.8705832252968676,-0.43966951325556436,-0.699121369744844,-4.393524474376146,8.538234402503186,-0.29383187925556725,0.04135293137588832,0.018230229668404888,-0.0046438323552792605,0.3679716350405202,-0.9523342533688801,0.058949332629312304,-4.524635987806092,8.74079900317863,-0.2941565065146147,0.21183143472897953,0.0491008131580272,-0.1839033538183807,0.5148871662352626,-1.0982912376854204,-4.835631004831983,-5.724084296743574,6.470790690721749,-0.11685371549602662,-0.035681071554857065,-0.06913455713657851,0.5308270153697151,0.4276971592238404,-0.74891111833417
-1.2384146045932136,-5.840859941426191,7.859330937829637,-0.13019821288384997,-0.03311741058445661,0.011731346386165648,0.11931019442820973,0.38523073409865144,-0.8154494621356476,-2.013858362407148,8.011468722905041,5.350035352933481,-0.2087094833522545,0.031460164320438924,0.22110674351490497,0.13806799179231277,-0.8641100340364612,-0.44514149757346105,-0.8662538048903735,-4.446844585388698,8.598491097085068,-0.2710808441546228,0.062280885238623414,0.023346573866640942,-0.0016589025114796875,0.37873980880544345,-0.9490487069004802,-0.02488480696006775,-4.547531187251087,8.470679496058759,-0.2670703804368813,0.2203093795196884,0.05454687083554248,-0.17730958448717477,0.5231363663941098,-1.0926036186979948,-4.846952801744943,-5.682434216534676,6.472978699692034,-0.11616788240711358,-0.04018636895920922,-0.0638620229003227,0.5305954552933493,0.43110533676594276,-0.7469395263955219
-1.3157859661565745,-5.958416109577668,7.954997895032074,-0.11410295937984642,-0.04728853279188367,0.0012456488879527153,0.132760193756815,0.39714597722980666,-0.8085734205282998,-2.0272829276504614,7.930498486698246,5.414006546353987,-0.18712022674396472,0.049574442715856114,0.19417286398902278,0.15145841064658647,-0.8569455959464727,-0.444556362749826,-1.0210959286582701,-4.496524374181048,8.678930380831225,-0.24651012106056552,0.032906334999646375,0.027229215221823512,0.01354011610825943,0.3902071375696958,-0.9448532529310778,-0.12693580395819432,-4.769705642613538,8.535122478175406,-0.24242126856967214,0.2817076280442427,0.05437401460953075,-0.15262471377468828,0.5372249713265322,-1.0902441571140846,-4.851203952969116,-5.727002660981225,6.463598927899284,-0.09986269285924035,-0.037389220510236014,-0.06593406859536251,0.5450428538378461,0.44299318581995,-0.7427239474120835
-1.186989798540158,-5.949631228641871,7.987760788665997,-0.11418507751568346,-0.06791977454100145,-0.0062060571248490695,0.11298148816608523,0.39232851680473474,-0.8142309512801474,-1.9084836619479484,7.949131448113525,5.455626681041905,-0.18209516209490395,0.07706107898612811,0.1541895638398539,0.13120229761063384,-0.8621029408987383,-0.45419638628289116,-0.9292637335023394,-4.618444145204441,8.508996106714887,-0.23921150208222033,0.0017144274228435056,0.019912717649273708,-0.0006147850224647875,0.3902722178956993,-0.9435651145337813,-0.20838242826011721,-4.822871844258336,8.592274742281791,-0.23936355658893269,0.333086711519835,0.04238275355612321,-0.16334381927268699,0.5409464706860292,-1.0956219962563458,-4.848567669443761,-5.802145480634097,6.522481571477763,-0.09749971226302177,-0.04008980381857655,-0.07255490853426808,0.5286699320496535,0.4386842507171177,-0.7476302365798054
-1.1955072735505188,-5.955794403593418,7.907857019725073,-0.10128007011815195,-0.07268411504039425,-0.009335495201485572,0.1239844481968411,0.40497780730436395,-0.8034524492776621,-1.9553826374819334,7.838778548804759,5.597848900645635,-0.15985326742802816,0.08084487389461362,0.1241442027383773,0.14043191532752944,-0.8522433761618189,-0.4516955374273097,-0.9629028103611861,-4.732758913093547,8.211880714061556,-0.19637893775084014,3.0414391710160602e-05,0.02664067282964972,0.009225598100262666,0.4003345129142221,-0.9356652927662887,-0.4590321776843534,-4.770434535010208,8.554495721987667,-0.1995338612364674,0.31999993368462537,0.04707259022936365,-0.13917569347016903,0.5508451275696498,-1.086943038248957,-4.860259878540145,-5.834638916703053,6.517557732743697,-0.08149751924396308,-0.051413897492134986,-0.06690673227522105,0.5374838468537121,0.4454323597447392,-0.7373394706521337
-1.2559454943677641,-5.902552640452875,7.894280482311869,-0.06733680236998518,-0.0750911969730948,-0.016452278192804665,0.1076288381828234,0.4038082889411654,-0.8066579958562513,-1.9397539662174608,7.942558026235544,5.458749221146724,-0.11178710182928007,0.08102542939283387,0.10051415165197913,0.12284251247863806,-0.851672532028426,-0.45557819970914465,-0.9120101269470824,-4.751257844677032,8.190657961478976,-0.13086552326332399,0.035302733060588135,0.04003318084376094,-0.0042038907174469535,0.4057058088091348,-0.9400553793832369,-0.506780034382876,-4.960898380265586,8.722449226217954,-0.13083043083105392,0.2531118129675494,0.050543518702610084,-0.15186013324277214,0.5545410355874341,-1.087687581450714,-4.881584582346142,-5.76413065501031,6.502437783482734,-0.050353500584824684,-0.06256320781830194,-0.05864179464629321,0.5189385762828863,0.4482375139747695,-0.7468460554332528
-1.249769952853318,-5.817091156953291,7.83703760174971,-0.05444525122171085,-0.07647266275994388,-0.01944138947731583,0.11471155890291779,0.4003779557520262,-0.8129974177867301,-1.9519287988005445,8.027161143114943,5.308746147002009,-0.10095088161031007,0.08950918704217396,0.09674327887326477,0.1309092209616136,-0.8556262144883274,-0.4608987293121972,-0.823249238276423,-4.648833949664963,8.327512699526118,-0.1270571826388792,0.07828042796433529,0.024551278878930233,0.005281697705331794,0.4036501016139496,-0.9461816253137648,-0.41620734085820016,-5.0859099983920215,8.739188424379623,-0.13007674072298636,0.16937267403157785,0.037056218361806004,-0.13623712057903634,0.5494003288369719,-1.09109405872416,-4.8638583631248204,-5.709774888368134,6.4960184138206065,-0.04116411268454636,-0.05865786359859696,-0.05434860357858667,0.5274693100133429,0.44431121195557477,-0.7488205944868346
-1.2075658911589648,-5.7499812509377435,7.839558427226363,-0.084891244913632,-0.0742371102806084,-0.008914396401245408,0.11300478931990013,0.40501403268574804,-0.8068905735726455,-1.9178884398380913,7.89653674837563,5.341512297503643,-0.12885010834928243,0.09859275790310998,0.0912611588652967,0.13014330627983722,-0.8495313123368838,-0.46124473287369283,-0.9678055275253278,-4.657110953038674,8.472331132333334,-0.15977100243531925,0.08666905982474506,-0.002376288683635947,0.009980133314951008,0.4117621137569763,-0.9397018463195668,-0.4183609568620326,-5.045523470014267,8.598619635063855,-0.15797581809788724,0.14627473823433268,0.010740471487821344,-0.13329492553955177,0.5584073672621545,-1.088098098584753,-4.806893809488667,-5.648001436629684,6.4938269058121305,-0.06943345903891578,-0.052559477399442375,-0.06291109389756874,0.5253024680165125,0.45261501837292717,-0.74804233184228
-1.1804526477554043,-5.871258173935041,7.7983861227189974,-0.12297591785629422,-0.08194838418773924,-0.007764247897940137,0.10863063763994503,0.4128374714372278,-0.8059125407600102,-1.9214492421931035,7.705317005715798,5.462897932047833,-0.15792344143507786,0.10501292799479371,0.05538812107538766,0.12425239864152116,-0.8457407307125021,-0.4661812116942418,-1.0906740904265293,-4.751033206641441,8.356946737015896,-0.17845083533107034,0.045944535833480564,-0.011633748522692158,0.008064025451180533,0.4200857889421144,-0.9383190964988425,-0.5090119395762406,-4.937719550362106,8.481838084660641,-0.17505097466617178,0.17758294356281487,0.004511249603976961,-0.13279178220939042,0.5683985845704587,-1.085345778928979,-4.732434850698556,-5.621139879848805,6.463838608424649,-0.10354641630493014,-0.04379189991908505,-0.07898807211777571,0.5219013578979496,0.4572570209642696,-0.7463079766585359
-1.095728694229099,-5.916046786159053,7.692405828895479,-0.10893083251117021,-0.0809735883787655,-0.02204923861473761,0.10594896108288326,0.41479730079985416,-0.8051819425717476,-1.911459068788675,7.770680105988634,5.572600779700355,-0.1353817030025072,0.10802812631030603,0.03488561038631113,0.12790244283827032,-0.8432760133387996,-0.46598519988452797,-0.9704838848053771,-4.8360136891623355,8.26490114758728,-0.15127379512356134,0.0330288657241751,-0.011914855596657465,0.009299624607391525,0.42253559671433144,-0.9371308626816349,-0.5691995621960001,-5.008849619243576,8.55637344024642,-0.15116003925084706,0.18028832289147373,0.0008284435177369643,-0.1261911693959608,0.5715604877349933,-1.0857942907630413,-4.734993931040358,-5.714079592507856,6.4447422616363985,-0.08812991086602852,-0.04033055217392832,-0.08362352547633897,0.5211869869372479,0.4623825860559253,-0.7455480433577086
-1.09664862612847,-5.919096744824494,7.628611056324056,-0.10536581984482887,-0.059930328590539504,-0.02861064213639793,0.1044460456208429,0.4025920916820709,-0.8032473962411729,-1.951327835772419,7.871249929172344,5.664638484550015,-0.13886270525886404,0.10291136437471772,0.052459878638097694,0.1291940426321926,-0.8579896462722155,-0.4701335856998836,-0.955237497921264,-4.870905005089683,8.281412993057671,-0.15908461776792626,0.058705861058347665,-0.001455041247102488,0.010011111999723288,0.41328607182774285,-0.9343473661282097,-0.6124425717114946,-4.864301037484188,8.542305203633658,-0.16103858102958193,0.14038534890771,0.008006392011343033,-0.12306053983993334,0.5593116284265244,-1.080493595504468,-4.73924326752095,-5.745333561427696,6.391803347827818,-0.07994135622998919,-0.06053745621365766,-0.08771074654960731,0.5204035740306608,0.4482295327739656,-0.7463571138217596
-1.1530589242018738,-5.905140742005663,7.615733386791467,-0.09652233135065422,-0.05242746575268823,-0.0328117627594925,0.10592096773035875,0.40698157268590024,-0.8022630394522582,-1.9593094953139776,7.920833416093844,5.575527503943426,-0.1441344569516079,0.09058870125500831,0.07151120294188838,0.12867174659577876,-0.8516411705427618,-0.46999630218709854,-0.9579506726017953,-4.887736945876105,8.357092497717224,-0.1654993494647558,0.091012493090824,0.006663025824304582,0.012955398063354039,0.41693983223880193,-0.9341566217073557,-0.5979868195727025,-5.0910091154178,8.562585885346797,-0.1655499631618331,0.10459162312077366,0.01635246489302901,-0.12133330420150731,0.5688205527789436,-1.0792069188903493,-4.647434336436938,-5.8220400247616135,6.299893890963937,-0.06854863530917518,-0.06643871236676556,-0.08573302492211445,0.5189536794631979,0.4523741272073399,-0.7443814932291142
-1.1383079841360377,-5.883643077637362,7.574497021616031,-0.0964822190811621,-0.06727971793013442,-0.02579577485589821,0.09861078000295065,0.4140780450284292,-0.798604326470652,-1.9186423284210492,7.774402580161597,5.511484795669289,-0.1446873374507968,0.08268185946309617,0.07737336295602038,0.12280053473381419,-0.8489677755809975,-0.4688089616081826,-1.0011443211996844,-4.92097288778256,8.354640538012667,-0.16980737276496768,0.09802373111303629,-0.001029995795365814,0.012528508377473567,0.4245869520079288,-0.9271581581307756,-0.5862065637063654,-5.135703380029802,8.521659863997098,-0.16831197437405773,0.09396256146657024,0.011288450732830774,-0.12230407697382419,0.5749092377133544,-1.0764841524673878,-4.553598709855351,-5.815246473224862,6.338446036358951,-0.07006964048178138,-0.040868258350233846,-0.08066168302343092,0.5128772832832433,0.4599345478837904,-0.7387251471771711
-1.0022022887459276,-5.9937486830055935,7.617115442385335,-0.07948721918520604,-0.07128716708829692,-0.027165724410150555,0.09200916738445997,0.4092173091218604,-0.8010647073927811,-1.8780796795807821,7.691256405855856,5.6266582201533275,-0.12601587015807414,0.07668437720530594,0.07372791364156292,0.11767670618132658,-0.8520361261828844,-0.475339753256108,-1.0498505520378956,-4.972106559923213,8.360783378800713,-0.15163498471823497,0.08196464387189725,0.0016327784459943314,0.01030787303525999,0.42284581544917055,-0.9307906443538283,-0.5732080282036899,-5.0827810111717,8.471168245452704,-0.1534367929972834,0.10404042438519634,0.012733651065465984,-0.12279246599379283,0.573209321828431,-1.077717614323044,-4.599701652708069,-5.827207438668112,6.389513358082184,-0.055518730134621525,-0.025005157282395708,-0.0741584244878606,0.5060183485966472,0.453384785991944,-0.7419347576091588
-0.9752116374973642,-5.9761279513345835,7.643612736936979,-0.06428843742688323,-0.06319233693961719,-0.04093843728477693,0.09838298444272095,0.42091220560493514,-0.7966429495570347,-1.8652681015776424,7.812973659738274,5.732101299145703,-0.1088112493004779,0.07950291463863066,0.07454235079893748,0.12740072123308221,-0.8451770481132556,-0.47718457880557524,-1.043923145079575,-5.029371356103326,8.512277547804674,-0.14117397088254607,0.05910411421488244,0.0050483068575685784,0.01866855053550695,0.43360881546482744,-0.9263106895103242,-0.5554982906873045,-5.191765211799453,8.45625095683746,-0.1398386977366309,0.13991604814781783,0.016453557640240108,-0.11203312047717112,0.5817246175322152,-1.0768984066991396,-4.574473230551978,-5.726333585722206,6.391114307601001,-0.03824022115925065,-0.03669731023873077,-0.07871742315354298,0.5133866130903266,0.46556626511436533,-0.7421125376451362
-0.9730735910486632,-6.012493987993495,7.613930813463157,-0.0721245113523354,-0.06672021027412636,-0.05523140045448068,0.09864455198774277,0.42311633877894295,-0.8027436495472514,-1.8539873828670503,7.860472565962966,5.77540215302678,-0.12594440342004593,0.07251900855621156,0.08527616539334325,0.12712026770051024,-0.8406364270230056,-0.4828769342873459,-1.0413625605937125,-5.070394654551267,8.467026104131108,-0.15057394984741912,0.03863447634875955,0.0111268150700934,0.02332650324044236,0.44210948061620226,-0.928867639956224,-0.5887584888429396,-5.122408431346037,8.459311182610934,-0.14839839510612687,0.17663618682839924,0.02142722029682565,-0.10640146033803974,0.5914647831335347,-1.0748659775770806,-4.509291772190315,-5.760224852857921,6.364285368528007,-0.038005483075113033,-0.04184829526817752,-0.09487371589842326,0.5131612019563704,0.47070334744462905,-0.7437935852211377
-0.9878167209709084,-5.957877897520825,7.5758858934004625,-0.0705731024634619,-0.0737223859465298,-0.0632455780986514,0.09742659473444457,0.421659277097984,-0.8061657688302423,-1.869782137421351,7.873415099058139,5.771512953796895,-0.1296905756662779,0.05809053048158335,0.09708617754200483,0.12906006223348931,-0.8412504801770959,-0.49092850170579144,-1.0289408679057235,-5.128187756663256,8.325319908910016,-0.14572378500255587,0.04158618114540374,0.028465388303526438,0.024024002470985125,0.44057479279723544,-0.9349585424445017,-0.6805382353725568,-5.094934977184911,8.439893814678701,-0.14725498877092777,0.19095152210680427,0.03735175981354253,-0.0973657957261368,0.5880498052785862,-1.078524221455148,-4.518771115414864,-5.8645860332938495,6.35223103540457,-0.03439333020879732,-0.03295931868759837,-0.09889542536335014,0.5141264734167765,0.46780044347741034,-0.7494244910598843
-0.9612998064658099,-5.974218043659091,7.595475619210421,-0.07846918298206632,-0.06829660326828231,-0.054649077486649725,0.09105459671212834,0.4197118034284962,-0.7961699496787046,-1.8737874498568234,7.76952612318449,5.728803084279197,-0.137098877727287,0.03240777423162834,0.10969654771810375,0.12296820916211333,-0.8411884001737241,-0.4853017525350938,-1.0657703250828368,-5.1025661769537844,8.200141494743553,-0.1510971801181089,0.05360453375647426,0.04065384113594635,0.02311815496509753,0.44267618545018306,-0.9217923649349048,-0.7995178623735238,-5.193850262721751,8.534900313692589,-0.1480865457941343,0.16583082740037008,0.051213784174482156,-0.09688937920116043,0.5926343178879279,-1.0704369121109025,-4.570498897562693,-5.886537493093194,6.416649237077269,-0.045456935681104,-0.02566494345883179,-0.09927254202315432,0.5099819264945507,0.4692419236737982,-0.7423364736605768
-0.863583435040689,-6.05505515374586,7.621667149297982,-0.06942247468927643,-0.04994231536045296,-0.06036687133232797,0.08301161278376416,0.42023293667267136,-0.8030200661499691,-1.7971037279318878,7.754583295576949,5.704065302470182,-0.1435680127555371,0.02666890754202792,0.12752829065325347,0.10881603206681763,-0.8450346636785028,-0.4915565421810527,-1.0049821766791334,-5.058653628759734,8.291958259828993,-0.1704364233517156,0.06690051281001316,0.043519431853277196,0.017500346161247377,0.44511066361079427,-0.9242334153909362,-0.7119170670941655,-5.232360588684685,8.387843882328122,-0.17052441412609973,0.1405385363529125,0.055213281053850795,-0.10030035364046326,0.5938726588892111,-1.0719027313149532,-4.5961199149346985,-5.877185860123908,6.4510970599058775,-0.03213351369661278,-0.043233044693508374,-0.09608536339130277,0.49825764081558677,0.4678354535525878,-0.7452739986589698
-0.8465801992926849,-6.052335857013555,7.664634978430712,-0.07610115320973611,-0.02693965610230566,-0.06130355125306998,0.08375315896153332,0.423647854305586,-0.8022823102102133,-1.753748718032362,7.677756655803996,5.6438193484665415,-0.14932610641306648,0.03545345418091253,0.13570469400560722,0.11220084029234995,-0.8417229175492039,-0.49894449418762693,-1.067938743227718,-5.086911401466017,8.230372918431112,-0.17262880269603764,0.057319292505049455,0.036485770766876945,0.021419736282641023,0.449485744054423,-0.9247893238259316,-0.7181693935317794,-5.418844871799229,8.329030881398293,-0.16949104292081607,0.15632279231171267,0.04578039301363888,-0.0934439846122643,0.5997316098997197,-1.0742870630464063,-4.567083859465476,-5.93516095944364,6.489192482316654,-0.03744632308901011,-0.07287618830543907,-0.1007137730709343,0.5016861556145563,0.4707888791942133,-0.7518500652076474
-0.9526501284184913,-6.1156936210454305,7.731612875091682,-0.09118469212020906,-0.01956335189048509,-0.058672755344808335,0.08547421435013702,0.42657440021465043,-0.8042283904735881,-1.8183966198684374,7.772037848774164,5.659644408223622,-0.15417043542370967,0.054490694652394915,0.12425439747374423,0.10776372636402967,-0.8359758106196152,-0.5041610847338535,-1.1223143439589967,-5.089025546727893,8.204902635827176,-0.1808115412923848,0.04370945861312929,0.017749241032206455,0.026807630573747663,0.45773707258953455,-0.9275910446388455,-0.8649346268562259,-5.487484449120446,8.421650742132291,-0.17705040421564758,0.15356577737960905,0.027948312218668205,-0.08805686247170555,0.6080137026413023,-1.0732408193546559,-4.556215314683304,-5.980121248216235,6.423057506359882,-0.05295689221913518,-0.08313283881509852,-0.1073724895074793,0.5007268450225482,0.4756912712422687,-0.7547523977859755
-1.0301797360874354,-6.212415264481944,7.702652026439761,-0.10104287291468256,-0.040042131196635765,-0.06315220983765113,0.08207049137318603,0.43073685131610867,-0.8054492900288933,-1.8742919735874273,7.830978481915428,5.741969860809903,-0.1638840064960636,0.0742915749987984,0.10503458062941032,0.1080205840163779,-0.8396980785198094,-0.507761931137911,-1.1576254062431817,-5.1235147960153915,8.16495902575063,-0.1907260169270586,0.045948947887003856,0.00037782961339363953,0.028033576518428083,0.4584699354037129,-0.9271169374396634,-0.9468775596264452,-5.384251912096203,8.310625741828064,-0.18776101349836888,0.14176187769562784,0.010250490148046305,-0.0819450602622561,0.6085050521583928,-1.0759061145361741,-4.463130033954802,-5.9886765114034475,6.386538968211517,-0.06069320357481774,-0.06851131213126406,-0.11712889566148159,0.4975565270888556,0.47643344573413643,-0.7545043046120906
-0.9952211642230678,-6.166021218441347,7.639925737515684,-0.09486009788018623,-0.07657711214604258,-0.07329587406214558,0.08329180739243498,0.4353628158525764,-0.798850080660456,-1.8615011228630112,7.822086145297657,5.834814205867757,-0.15656904977024105,0.08687141355273405,0.08674598366145628,0.11409086544670817,-0.8327967575158697,-0.5059367517612007,-1.1859504831790404,-5.168865026141759,8.128907673750142,-0.18153182211490262,0.058074797721210984,0.0020206051776089085,0.02884361738585208,0.46663647162838906,-0.9169558789867189,-0.9844880156397607,-5.205610584812861,8.22250197156194,-0.1798479508188474,0.13254964075019307,0.009470487910145226,-0.07634205670062852,0.6179378815783542,-1.0641095154405744,-4.369462784386051,-6.008779314361509,6.375395915467567,-0.05041761247569558,-0.028912940050747415,-0.12370851617763616,0.4992913263250167,0.4834685358854282,-0.7473859158074937
-0.9246633649897805,-6.169984844349578,7.600709108045335,-0.10804401399570704,-0.10205373137164422,-0.06891584179141788,0.07768138638711171,0.4422043725145636,-0.7905505625669855,-1.829348960074797,7.824637305478692,5.913722185969714,-0.1645693898301335,0.07818495049157403,0.08018821159975865,0.10893249408283646,-0.8241484271753767,-0.49826028869582384,-1.146785553102611,-5.306067076748243,8.066703306608561,-0.17795749905259733,0.07706454362677184,0.017395799910961313,0.032105857661068354,0.4789330791909619,-0.9078290457550425,-0.9926666197076623,-5.3067924012145875,8.143351185374133,-0.175985672019799,0.12456322743970509,0.026012217351545304,-0.07463742505450746,0.6264249019124664,-1.0557483538107884,-4.410817909137304,-6.1232894026238025,6.39977833932103,-0.06327660475924972,0.009715104595198748,-0.12766303148071503,0.4976143561556802,0.49222366902262543,-0.7400141051207555
-0.9136819713334097,-6.249774825656215,7.61680668579636,-0.06927301014974252,-0.12083476767844004,-0.07611282032542938,0.06866693449948917,0.44784708424994557,-0.7917798613252708,-1.8540914153517376,7.9101259206673955,5.90910102659286,-0.125082615120169,0.07291148015476394,0.08814622740844412,0.09988208851018907,-0.8238381578149699,-0.5058168586117702,-1.147103594041037,-5.261540250179278,8.194891456203829,-0.13378205077275412,0.11691891486400269,0.029883008868926347,0.02795800712352737,0.4850051765841609,-0.9120262565152648,-0.9846411510184708,-5.334183577265442,8.164481150089433,-0.1305135299416718,0.10591271818633909,0.03481530598092541,-0.07973951227654456,0.6342643672965576,-1.0581542477133457,-4.439649983550662,-6.095138849672951,6.36887561116341,-0.028323128256153934,0.03722474590082227,-0.11681859629102154,0.48859190536463265,0.49544236071243397,-0.7421934734992274
-0.7698741244217479,-6.209938184676101,7.7501773382955275,-0.05340056845917192,-0.1378179550238678,-0.08296253479900705,0.06815034107983677,0.4373518074910843,-0.7927713117747031,-1.6980886771312504,7.885431365516616,5.801609691078712,-0.10962770683422109,0.07896888170619708,0.09573611629548553,0.1023619803391745,-0.8329476015614113,-0.51103886800921,-1.0816888467018109,-5.219730931113669,8.336881807044355,-0.11993603177709818,0.13039926100442853,0.03780307369860046,0.03329876295454396,0.4740217961059421,-0.9099779092731832,-0.7801115637525518,-5.368824063543606,8.01250312504224,-0.11460881594426912,0.14303473601176825,0.04352005877634375,-0.07389469904968173,0.6242595188093238,-1.060887390792401,-4.4259196257867,-6.136689215323354,6.457873460732888,-0.012019025608590903,0.04628160994667675,-0.11348747463118435,0.49149081612901185,0.48690419099314486,-0.7454140596609035
-0.5382277901189862,-6.129734096173382,7.675636690239979,-0.07013904565352715,-0.14220713093242363,-0.06623087555499294,0.05937530186892932,0.4454276363397375,-0.7876500253880324,-1.5073067723018605,7.630160093586515,5.735875031249528,-0.13301960685210962,0.09729078239694788,0.08761092708960412,0.10036421488220804,-0.8241416232192242,-0.5094751897763622,-1.067737329166316,-5.292975279100315,8.351930453543883,-0.1475432882609493,0.08805260582053002,0.022995787513385463,0.034569915341402156,0.4821248129978355,-0.9054337637144367,-0.7029210682436058,-5.67643981024701,8.152365554537049,-0.1449220491149516,0.2337644734446743,0.03515410030789765,-0.07193962355929241,0.6337314558339123,-1.0539841571422113,-4.293983944244604,-6.14930675517356,6.475556017028604,-0.027619623825683212,0.029018871453562682,-0.10852816903592061,0.4858980944777194,0.4929991965390418,-0.7400097045720282
-0.5400424231873164,-6.113294557032876,7.574824249615445,-0.07829374655748723,-0.13736913374988857,-0.05877160873923044,0.06108269433153739,0.4388429655469442,-0.7971773833916536,-1.574368488056962,7.430360310322852,5.713264176737245,-0.13131823548588123,0.11381163555355478,0.06396669110169347,0.10233649681514181,-0.8308669900650613,-0.5179111392052018,-1.129259323807913,-5.31656562844932,8.071803208949731,-0.14804133024116958,0.025690623300701994,0.0016033293006741099,0.035774821849716136,0.4828093509588985,-0.9093543404687021,-0.9269191343985465,-5.747603810005972,8.259133181784978,-0.14810913622210678,0.28707479511475237,0.011007091503405892,-0.059729401963626305,0.6293385255779832,-1.0586166345950727,-4.366143282467484,-6.012574805784794,6.468751581079615,-0.03762342140426397,0.0012144342917050103,-0.10262233885557423,0.49052278749790373,0.48910867319115137,-0.746134051194206
-0.596187088884297,-6.102824169444035,7.566459595915872,-0.053496232909525855,-0.11541452097305711,-0.06518884986751589,0.05787788452075941,0.4363945298477835,-0.7842463852204444,-1.6810234724816726,7.555542528028095,5.825665419954401,-0.09659008543461398,0.12881664032711926,0.06021313402047399,0.1048083244336643,-0.8326323284519098,-0.5076305334543606,-1.1419290496450376,-5.436492925099971,7.896114877253289,-0.1119636286670692,0.011220623254716485,-0.01486145966849686,0.03849581798225349,0.47900656237236533,-0.8990708134952922,-1.1178896937785812,-5.700683634506095,8.26904328855219,-0.11411759033213113,0.26611596052190645,-0.012610640003227135,-0.052926211254315216,0.6311928084197743,-1.0456457069368295,-4.4311009473616805,-5.99096602068457,6.449193944847551,-0.01561986364529981,-0.033147576921577646,-0.09814272354550965,0.4900286384029497,0.48758798428373734,-0.7354001654616847
-0.6034334246628195,-6.028011361558147,7.487906318205685,-0.04858751797888496,-0.09145716861029977,-0.05933700652576542,0.04568993792862827,0.43912273407583846,-0.7903692725750657,-1.71584079967087,7.6780923399620775,6.021148189546368,-0.09907863922289926,0.1031483931513887,0.07609805995572501,0.09477167434479218,-0.8316483850974555,-0.5183720641399179,-1.1712078133128374,-5.549172830054559,7.918397603287374,-0.11839846035323344,0.03851287644879386,-0.0083882794793541,0.03189752608014969,0.48240543047945444,-0.9029828799013292,-1.203861979785781,-5.518349574679622,8.292720135721781,-0.11725253880159237,0.20011269146141752,-0.004621553921420335,-0.05656449106235983,0.6339257652791909,-1.051741602674368,-4.390931090749116,-6.088532359470963,6.414378523931741,-0.014499720148874885,-0.04863752653304861,-0.08757393418335906,0.4785589952885259,0.48890279261951625,-0.7451589767554806
-0.6093714141630173,-6.072643374591914,7.433690870893604,-0.07595922685917905,-0.07907687668762259,-0.034554283776202094,0.05228594856688766,0.4408119979332748,-0.7898659860960815,-1.7435247694555267,7.800706300027244,6.069791399556604,-0.1353219391076381,0.04913050222679681,0.10676876126045202,0.09841889968509941,-0.8289438707564456,-0.518425153651996,-1.166375610721083,-5.539063025565493,8.012607084048627,-0.1533040195659449,0.07174775646480488,0.014327020108572175,0.037515352746897476,0.4838434847018386,-0.9035136233382747,-1.2025702563745106,-5.454402959182585,8.141307796422428,-0.15270677330250798,0.15267918313470233,0.020084405962249974,-0.046562431316152196,0.6341276943441643,-1.0487814402656461,-4.314815253485267,-6.126919279722996,6.376872779995813,-0.04755796864432905,-0.04652802898923955,-0.07865581428477808,0.484183750234245,0.49155372450118995,-0.7424585862356974
-0.6198685688998898,-6.153864560631576,7.447756161034258,-0.0831149253835218,-0.07607465380288853,-0.01635351669404048,0.05450841833666801,0.4466715700739309,-0.7944933797956559,-1.732854001964796,7.633192233059609,5.932090815091173,-0.1588493103385117,0.017297919618234146,0.13526454546502684,0.10108608820829691,-0.8290825827881723,-0.5274623644138393,-1.2037952475738534,-5.512154927937432,7.8979901088274795,-0.18073506607953602,0.10663105353134175,0.026797676504165,0.0494974518976028,0.49013936177876866,-0.9043732708095401,-1.2451754451260917,-5.740763205162728,8.044246444975862,-0.18236674574436104,0.12951815954762136,0.031059122138406663,-0.03652537629817178,0.6412113909197634,-1.0528577193766588,-4.280328541519984,-6.179216138250091,6.329224769397042,-0.062308930056800715,-0.0363670395861742,-0.07153415382119477,0.4893239407967549,0.4952222952785686,-0.7470777553636303
-0.6140466752229363,-6.238162155611731,7.43406539156808,-0.08747064353845643,-0.07822894468294,-0.007922264938879806,0.0535456749754544,0.45716104326967405,-0.7856926337309051,-1.7382930835640362,7.502564524983519,5.889697694987261,-0.16320053549095484,0.014824414476182057,0.1407898973076689,0.09928923429225779,-0.8119548687137429,-0.5248191830751863,-1.3110958945481328,-5.46354853372753,7.798138143049068,-0.18923965944334278,0.12530468334807593,0.014884208067816606,0.054732254419584944,0.5056214345759413,-0.8935807862272537,-1.3076201119648982,-5.756937662411671,7.916372651530557,-0.19094384249443735,0.10348121420242504,0.017802235383550174,-0.03407400706198054,0.6596858989732406,-1.0412555491033926,-4.2882162147487435,-6.11989818500718,6.3303179203967925,-0.06696129116492341,-0.025797725107803288,-0.06293940085342854,0.48741891682041766,0.5083772061779201,-0.7404139927718434
-0.5955880766833425,-6.27344394425793,7.3621947265309515,-0.06378695788994114,-0.07531173889877167,-0.017796046560686413,0.03937294676343913,0.45694959056294765,-0.7791269149750365,-1.7502873134504529,7.435717643890129,5.973197186288213,-0.1398087455398887,0.020844215138907184,0.14135978928537493,0.08270439533977168,-0.81420876680522,-0.5227950093392301,-1.399256802739513,-5.45831055162586,7.917062138867295,-0.16690819748559485,0.12416654129543761,0.008820382748954579,0.04449831313304746,0.5066733547488458,-0.8901251128205874,-1.33733673207459,-5.610517643044959,7.785970542959002,-0.16451431653466853,0.11866197581843928,0.013828641003187068,-0.04238897970160932,0.6584587177420103,-1.0373813350891774,-4.281566353299839,-6.113193996568178,6.286760681514092,-0.04382454346173491,-0.015764070800631982,-0.058061040579403755,0.4754427639686286,0.5047337861399696,-0.7360395868353021
-0.595389712272115,-6.243262793733394,7.381881960124723,-0.0635172105931639,-0.06977875926457111,-0.021460443750321183,0.03962093301561396,0.4518350983820367,-0.7893870637824435,-1.7508342753230877,7.5202541292253615,6.124876424059491,-0.14307926755804753,0.014298032942125245,0.14276154617416606,0.08246085077823616,-0.8190638527262051,-0.535408958314329,-1.4706974268981325,-5.499306245119841,7.998623764260457,-0.17552065172103518,0.10590241154442762,0.02363349860891859,0.04762783768686573,0.5055908867160658,-0.8986738068158745,-1.386666863609591,-5.432022027108878,7.762919745568486,-0.17584413199442067,0.17289613534042134,0.02769315259184984,-0.03968859756079232,0.6543564679965823,-1.0457013819832577,-4.30740616861543,-6.07300901288167,6.328940525036457,-0.04243967763523927,-0.005557056026282872,-0.06372156326187961,0.47494313332294175,0.5016038371465594,-0.7436247358461351
-0.47855353797745426,-6.292699904274504,7.397859962331939,-0.06721035902236072,-0.0582102348878344,-0.0243833531612968,0.04401664530103168,0.45547743829126197,-0.7840032934038433,-1.6330821850454098,7.513696326273526,6.093987637749852,-0.14798063966050234,-0.0024095846554303356,0.15719790166047662,0.0860951022418851,-0.8128911626602459,-0.5325914745701747,-1.374022624139034,-5.714954110692103,7.818665166484144,-0.1737095757276282,0.10791445000773685,0.04274007951624653,0.05722320850588572,0.5127484289638682,-0.8885437127977311,-1.4269138232925864,-5.906442534396762,8.09087112551067,-0.17661510439024064,0.18617567210582045,0.04256243928830222,-0.02627515650954284,0.6615812713830003,-1.035117662212201,-4.279514100812551,-6.156391262107524,6.345689293848437,-0.04443720941689206,-0.0039978546230022135,-0.06884811841766351,0.481300824762286,0.5044738363727966,-0.7370171055596038
-0.5458429047090292,-6.312264877228737,7.428574309194012,-0.034143405112972244,-0.046718592730830226,-0.03391387448437996,0.038169058053914934,0.45745211645997563,-0.7876735008254154,-1.6481273009707773,7.51164434354859,5.9895758143787,-0.12276719666646603,-0.0016950268604983844,0.173661586744448,0.07387706377367653,-0.8135667380319092,-0.539637005345537,-1.4280629586430518,-5.790456554363262,7.783917546646559,-0.14160646544771213,0.12974676264922452,0.01933665944396034,0.05453185015705769,0.5171019203491147,-0.8932180334966967,-1.517425283920768,-6.357019563737185,8.275265917345235,-0.13997188576751562,0.11019128996432125,0.021591509944522705,-0.029917979125807893,0.6672188246465628,-1.0372886330979854,-4.309801886793381,-6.206575276304475,6.305452879141612,-0.012999773843437503,-0.013401083007876432,-0.058399644581414056,0.47446921014707866,0.5057528660743048,-0.7431141276008912
-0.6068406922873762,-6.290899316862277,7.508422978956095,-0.005649059315925279,-0.051776699626244725,-0.036551062045565616,0.0408413197604838,0.4554856926043425,-0.7832771118990802,-1.6130338840426581,7.5148503237061695,5.9853417542069005,-0.06244633797050097,0.00868517739332279,0.17189448917205136,0.07654634040030749,-0.8108748276718039,-0.5401760284467857,-1.4918864642215188,-5.680571427724322,7.933226582274747,-0.07611761968874509,0.12915447720230377,-0.010610485263132971,0.06260728154856836,0.5173594662881668,-0.8893532455425804,-1.4642539359898363,-6.055512175988215,8.090322814875853,-0.06749526558665594,0.0710333220330883,-0.008224686336289677,-0.023082644728936626,0.6706019908605563,-1.034316948381963,-4.255518374238042,-6.16014722259981,6.294226714531598,0.011376203158228213,-0.004704885663739292,-0.05133055369459655,0.48009836463322175,0.5096344068723007,-0.7423600647357212
-0.5168649100118089,-6.155782398912393,7.52490903659957,-0.021583942561293246,-0.07983488141748704,-0.034096406769138846,0.040091636956401625,0.4476783061596028,-0.7859735374210922,-1.5001901589711815,7.535747670624242,6.1079969972003365,-0.08404785654971886,0.004012655166207074,0.14392820609566073,0.07634645587517695,-0.8202097018299261,-0.5434356541352097,-1.4441072819152077,-5.615680059964022,7.907237480648532,-0.10512701012798753,0.09613763881001981,-0.022498434536300026,0.06696067340963854,0.5090161519206589,-0.8917235180309042,-1.376649721468734,-5.724971695263517,8.007482661529629,-0.09935004718153688,0.08314749525429975,-0.01609396570030498,-0.019681115698577178,0.6627854665957665,-1.0348458724536185,-4.179748093733638,-6.11388684904462,6.3183828361743215,-0.0026181032247431717,0.018143242176347503,-0.05589099019372438,0.48151902373635636,0.49742767019122985,-0.7434035733900607
-0.4472319569762425,-6.121180928977926,7.505649362487042,-0.07027784743352772,-0.1036233301194793,-0.022256392341509855,0.02986224412407394,0.45649634259723365,-0.7854929787186028,-1.4135265532135872,7.5955666799502355,6.0928839291018715,-0.14425448139484415,-0.014687620306018891,0.12769368158703384,0.0655713661088221,-0.8149312013842596,-0.5454573582609644,-1.3985827003267155,-5.5445527164255495,7.837158434412494,-0.1744669068740877,0.07518530410991435,-0.006536968004213243,0.0589742853294076,0.5196180015492654,-0.8849653719179261,-1.3476743356516068,-5.567776251312086,7.867024059021055,-0.17071707241922782,0.10127141104081067,-0.003063425600744734,-0.02479473086582546,0.6710854145680998,-1.0328537021351343,-4.146120373629349,-6.056130959470418,6.342121188288154,-0.04580562793688407,0.03996989156287541,-0.06955268217516652,0.4729900874543948,0.5018349840932246,-0.7399613932571327
-0.4268022279500564,-6.206518061497766,7.4549829877774965,-0.12653120019469885,-0.12324461973574483,-0.009064896220073462,0.03475228111337248,0.4628229442170046,-0.7798608474001761,-1.4203125489215853,7.492100059913086,6.122358899336612,-0.19898936325344382,-0.025802107494704164,0.11338090909328927,0.07017787279564808,-0.8098170484779433,-0.5477505645741958,-1.436362132220938,-5.636470163694226,7.775129499500153,-0.22611635996185783,0.06286757753413309,0.001763320047325895,0.06805595679057048,0.5276871422890445,-0.880947281675891,-1.374406869923888,-5.700069799600599,7.7229364646119025,-0.22312875680504787,0.11668505529743134,0.008410035366702174,-0.012831808255001624,0.6793149083082013,-1.02617473774018,-4.153966355423858,-6.103595890398492,6.295733149402322,-0.09969200612095463,0.06271197705700599,-0.08625827233478016,0.4815634399759572,0.5095985120836533,-0.7367451991269772
-0.31128062629256126,-6.341636502759101,7.468410363827716,-0.16160866402905566,-0.13632045175324742,-0.0034041142070081955,0.023733173724490183,0.45649644202110357,-0.7718321992376558,-1.3452650008562261,7.36876270251935,6.164921132249223,-0.22054867984306492,-0.028745790264804963,0.09445351622111854,0.05946328314053488,-0.8134665211571068,-0.5435169242155232,-1.4117646160985309,-5.690698219816755,7.64618873583412,-0.23427218043076886,0.04145878320061402,0.011962495046509576,0.059794954337086544,0.5256269468355053,-0.8711183756758955,-1.3669417760276021,-5.755764773542034,7.56315268526374,-0.23207750077810885,0.1542679586265985,0.014792209969067825,-0.02092367271872998,0.6753689685036106,-1.0171893869090105,-4.138364844253699,-6.222096302824208,6.3128548741443735,-0.1317995913020726,0.06490690762610428,-0.09604997901104924,0.47349786736949884,0.5068989407745363,-0.7287026582798979
-0.2443590572122984,-6.478826617074577,7.451140752513557,-0.16391612253265853,-0.14468543788826282,-0.006018117308603636,0.03183591314706522,0.46966237058628035,-0.775950395914177,-1.327290635402857,7.36150901106672,6.180246147807413,-0.2085437214553451,-0.010823140986954104,0.08054264137543508,0.06989161638965877,-0.8053178851682353,-0.5558845614258429,-1.3965440727144354,-5.664775443329444,7.541015278330423,-0.2102144101070028,0.034686013901344584,0.015974085263343256,0.07395095919994508,0.53646223668892,-0.8803389438858928,-1.4135585121025287,-5.850077561953129,7.4678254489624365,-0.20892094840625966,0.18878673724000836,0.021125883728285586,-0.0055048814742854465,0.6861053673482422,-1.0217145015384128,-4.145757677181917,-6.323485160723336,6.2923835703948425,-0.13307626450404544,0.05488591301213613,-0.10423765032114625,0.485492614929607,0.5156735712770596,-0.734026136608347
-0.18002000640678967,-6.553437910876867,7.468689977014787,-0.15611436078888838,-0.14978590109092732,-0.01774638055648949,0.012777858077406692,0.46385982876457765,-0.776969858698811,-1.307825256849378,7.358561292051479,6.250165109644507,-0.20301242123716118,0.02463968904126519,0.060787905379073456,0.054273607006497804,-0.8089240231030389,-0.5618965087062727,-1.3955400720502236,-5.73737625591781,7.466616398122619,-0.20534830309626223,0.038467384957047726,0.009491746680770456,0.058098298484989486,0.5338933584869481,-0.8748634155059155,-1.505585102053962,-5.984203137086385,7.606861233518371,-0.20764017069196924,0.18168716956303765,0.011649282689585592,-0.016984278789247367,0.6858767226758654,-1.020039971186631,-4.144238146546793,-6.3557152080425245,6.2787648370303994,-0.11882150434463494,0.03113276443823418,-0.10719625753127447,0.46644263913197354,0.5137937360106742,-0.7347690958810075
-0.22852549714975642,-6.5097537877761225,7.339784768843422,-0.15335418950165314,-0.14752876055245084,-0.027904434309777487,0.01916031047448992,0.4787280273290699,-0.772789004019945,-1.4097216583980945,7.333590610023379,6.38920469103583,-0.2048392883667976,0.04808240859993015,0.05147420422515826,0.061043044730836,-0.7979554222179216,-0.5652705046338502,-1.5084897209565182,-5.826270723569364,7.560909315072364,-0.21982928485891348,0.045086439779927885,0.010994397818416103,0.07060377044787663,0.5458369781492732,-0.8726134440956163,-1.597191368608088,-5.861534114084407,7.499695591194189,-0.2223024287429181,0.17604517709175288,0.011705503694125048,-0.0011030682785008682,0.6970408088624367,-1.0152827476968045,-4.215574452454861,-6.321456753690115,6.244287959811392,-0.11187962519389993,0.008842685390250264,-0.11428484814515669,0.4762475028513357,0.5247280957876111,-0.7317796570184051
-0.17034526870971314,-6.494902627323784,7.292933591025962,-0.15404774439049315,-0.1264178738069609,-0.036245575444853864,0.012086333615694292,0.48143326963142014,-0.7718215121663365,-1.3903898673237467,7.360501903714795,6.545071616150532,-0.22153206307162415,0.03745045898913002,0.06439639684589063,0.05442756195874351,-0.794879978683211,-0.5689722387892096,-1.5394712709550016,-5.970146955278625,7.667880299128017,-0.24099816723849293,0.04912873910177144,0.03432396688842155,0.06697751679296023,0.5531953185590482,-0.8707238568803556,-1.6183056946740801,-5.898979753942084,7.498617942165931,-0.2443945713198337,0.2013701315380869,0.033134735893444324,0.00011851644023270309,0.7026275310001558,-1.0113368982913054,-4.222213009938432,-6.291049556622315,6.304440534303406,-0.10607034320511931,-0.01386914640974747,-0.12305274316411313,0.4718730529335484,0.5301069545522433,-0.7302852781150106
-0.10996376984945455,-6.522239831634197,7.271463255376996,-0.15248978911654174,-0.10574462519507033,-0.04991515836443598,0.01477211125417777,0.47996332085536303,-0.774015476403144,-1.3378442274698497,7.223044704660225,6.444192841592071,-0.2275930807541085,0.033645276299375707,0.07816892059247411,0.06100816471187359,-0.7954449079589668,-0.5755685550580744,-1.5031090102731248,-6.00967059323727,7.570514805499026,-0.24188686899629705,0.04403314953439267,0.047995232453338955,0.07506377781465055,0.556141378131906,-0.8666436666051031,-1.6309964766735152,-6.14895526287842,7.4947039962974085,-0.2456471738011695,0.23097985988820155,0.047741547320178414,0.011606414833448401,0.7079735499777071,-1.0115131753426037,-4.103910844455279,-6.283289202909283,6.281912668420341,-0.10242828042126943,-0.03219769185682786,-0.1351857861242614,0.4738278117047158,0.5305878541703308,-0.7302826889321999
-0.1265960554021038,-6.60785152422489,7.237713512043871,-0.11362235001338689,-0.09784162350791736,-0.0680936656435116,0.0098781226203981,0.47972624712019735,-0.7684097542109078,-1.3302392242842729,7.186670440215956,6.426616761776431,-0.18215979076467456,0.04644496595767539,0.0821598742864201,0.05661640136432542,-0.7972397249485237,-0.5791919799121497,-1.525709891579831,-6.078396778609866,7.5393844332511435,-0.19143693151074812,0.03220784986895614,0.04571358205793902,0.07459565314976088,0.556188789180317,-0.8624916483620543,-1.6817485663548621,-6.322783662470919,7.53078543396399,-0.19522574017830968,0.2496740874886997,0.04388977437303875,0.014518979799349713,0.7076848042706272,-1.0056475203718398,-4.053817512980546,-6.510347540048066,6.232809737911732,-0.05928487291531868,-0.03664095586966105,-0.1279245273017339,0.4696662129672305,0.5276713287784612,-0.7298105008481265
-0.1761776828341821,-6.5102392489466,7.2661660871326355,-0.08870136226502223,-0.09771200910453413,-0.06016271590515777,-0.0033169035992960273,0.47731963072653805,-0.7662400746042942,-1.3291561501194769,7.24219176018012,6.423407702601148,-0.1544172698490712,0.04526888427657098,0.0819882493270441,0.04537945179498163,-0.7970983732193472,-0.5816146323974812,-1.5371040832142866,-6.11614447955794,7.546273525798935,-0.16025918899177097,0.01802569842028719,0.03916579795128268,0.06679110188412364,0.5569599783271203,-0.8614856941673252,-1.7339083283915413,-6.29320556098428,7.460057420689736,-0.16447812829337896,0.26717955361308976,0.04106871107323527,0.01328608631735323,0.705231425413514,-1.003469925403642,-4.038015883493694,-6.5759810375238255,6.28417885372717,-0.04072867345373149,-0.024353331768983227,-0.1144686965394869,0.4608781530147427,0.5279485587561104,-0.7300528617586984
-0.2201057035378956,-6.508215589983713,7.172105787396477,-0.09687235442475042,-0.10741218658987055,-0.03787714115648608,0.00015375465285481522,0.4948888950118621,-0.767187105632938,-1.4307499667789785,7.178009939825466,6.490613799248093,-0.14958576556275152,0.021160934028907615,0.07428984909144563,0.0486938011820503,-0.778544276805905,-0.5829122916058755,-1.6451396234632156,-6.157120435902554,7.488738116260405,-0.14960284273898214,0.0014536722569754696,0.04455938881296153,0.07005178913097296,0.5755504729409326,-0.85731141354762,-1.9165344234607629,-6.255867947654461,7.476785555809963,-0.15095627266700007,0.2916358959960353,0.04651137656612643,0.02504368968238251,0.727636389026336,-0.9988956631004096,-4.04961028885176,-6.6245693692527405,6.257254042693592,-0.05821528132918865,0.02491236607988731,-0.09558287589346273,0.46484723015477425,0.5450027391700062,-0.7260539941606441
-0.14066561981933776,-6.58786798971949,7.252653416654703,-0.08936529732763679,-0.10157455209006906,-0.02265280894822803,0.006940152648326472,0.4819216756858319,-0.7605993058334841,-1.4089317117126516,7.23879955877913,6.503193835827095,-0.14790284030646916,0.0024006904015240367,0.07756246740450638,0.0580557495717166,-0.7931062750946214,-0.5807301996764082,-1.5901992995357845,-6.047363682471673,7.453134728372991,-0.1496697429185256,0.0008949488062060028,0.053646505928501384,0.0822352591842923,0.5626188179560511,-0.852588208829226,-1.9499643919394012,-6.166193288939753,7.526513248999151,-0.15770666077612347,0.2792133631944696,0.05200452030812247,0.04060996711282622,0.7126533219564919,-0.9904028412996764,-4.182170641831446,-6.614957966618679,6.3325565046407775,-0.05998102322231117,0.05705846898283624,-0.07923955552335767,0.47260696387560086,0.5305404402167601,-0.7207617874782853
-0.11549394381249162,-6.593026588675396,7.233841957678363,-0.09931354819528065,-0.08224171423204699,-0.009445177554603702,0.0006211016640191103,0.48756320122014785,-0.7669516693545197,-1.362335527456438,7.17895555493299,6.4519775496338925,-0.15922982602960556,-0.0015408009706590617,0.08423562536688597,0.049705772046348594,-0.7879512480012876,-0.5908127545606051,-1.5622846562308148,-6.095362153038089,7.3093105180277185,-0.16689632458954148,0.010101117485234323,0.05451980896015603,0.0783394663045654,0.569921678552024,-0.8558240898458978,-1.998892712419905,-6.375443049277834,7.513207949024607,-0.17341176818673026,0.2531165186780369,0.04986601603961034,0.04258376141689368,0.7202245626859929,-0.9915690847824771,-4.142540427454652,-6.592665092278943,6.333241310541745,-0.0741332627572884,0.07709095775334397,-0.07550819922783865,0.4682315505269124,0.5357032232403215,-0.7243956612350005
-0.050652084189846104,-6.597954190320753,7.210511631904774,-0.0983537607588144,-0.06981468212377345,0.0015895966640534298,-0.003772151906548499,0.49342522815583095,-0.7586511760396605,-1.2862161672274708,7.055909593543139,6.472874564683419,-0.1547509585831143,0.0032435604482682254,0.08076109572823836,0.0477206297058304,-0.7810813749792611,-0.5882390887802219,-1.5943239078428526,-6.190895226623047,7.330753861972905,-0.165871011069497,0.013070997170998964,0.03966117709723889,0.0769408694962462,0.5800061495992033,-0.8495798285071675,-2.0065621612177815,-6.561646200842085,7.4812123692099295,-0.1691364694256467,0.21639538544485198,0.03453975913930508,0.04356322964541669,0.7309165564705039,-0.9841727325125205,-4.096775555908784,-6.624275581508109,6.285249771567848,-0.0761788147202578,0.09419308517604391,-0.06473487904395259,0.4694799845148574,0.5434837079430969,-0.7192262349256677
-0.029913624921040265,-6.636321154842836,7.139849188234058,-0.089647362023382,-0.05336840614296423,0.01212176459960778,-0.0037578592827515233,0.49465275932473407,-0.7645095856318858,-1.2919123490477735,6.953225815131763,6.5295690774323,-0.14348574628151378,0.002370921952413335,0.06972414071993006,0.04769223290202787,-0.7803044571496102,-0.5999729342414297,-1.6442974612956396,-6.268279211825279,7.375751196755337,-0.15436946340002333,-0.01382807332193263,0.023959755065361597,0.08032840760924985,0.5779861223047905,-0.854457184785191,-2.0385907933857967,-6.557347177171254,7.3674312346667925,-0.15574296348161137,0.21773475284152827,0.021148645275857737,0.052868088957881844,0.7341134444894842,-0.9909613963110402,-4.103731025007811,-6.605640329057572,6.1971750490833735,-0.07322443393830207,0.10243444469573008,-0.052046857391130255,0.4711924352319562,0.544482730630736,-0.7245919002349365
-0.06587312162697817,-6.676189528667306,7.074246710115864,-0.059956028480602344,-0.03965745938691408,0.0091559155636376,0.0008725112652955005,0.49244075959260736,-0.763282924809633,-1.3518112793432104,6.986967358753405,6.654270339933894,-0.10231614038279759,-0.0012651182756206413,0.06783461389966294,0.05065009662906345,-0.7869406217593242,-0.6035286236886488,-1.685560349584768,-6.2723838527932285,7.2819761163897985,-0.11508399903525894,-0.036253470620170765,0.018179851375765832,0.08423270945537871,0.5782087947035551,-0.8552113777957281,-2.1742508179173967,-6.394156518992232,7.249021378691103,-0.11648396231735378,0.22726207279643104,0.01563325734192874,0.06018325798125687,0.7299482521700398,-0.9912113705127001,-4.0882186219074645,-6.595515362437535,6.155476331417294,-0.04970107447756307,0.11531266166568203,-0.03907089286606688,0.4755705868953709,0.5398222259482883,-0.7233963275198649
-0.00036680568636405717,-6.688699110575152,7.155457115079633,-0.03670690387000245,-0.02478435095304166,0.00812073618059729,-0.012336049521955553,0.48783212894275096,-0.7572090925381014,-1.2488518768763852,7.140916515455933,6.6537705197113635,-0.07485654897267442,-0.009344545206025894,0.07469575484453006,0.037241090150719386,-0.786860404094152,-0.5944692899167912,-1.53883361222203,-6.244545008585492,7.170240581795545,-0.07993330913207186,-0.023258019044630648,0.027165336208415262,0.07037363730092742,0.5769369349336452,-0.8421901116229092,-2.1570273949974252,-6.34773818285734,7.358593760514207,-0.08162606597713552,0.20123225096937028,0.024496945929986677,0.05403945425335022,0.7276846076604352,-0.9787924169220349,-4.144800451664757,-6.640473437740371,6.148411264370105,-0.032622599563967944,0.11613006058449665,-0.027755532481473617,0.46482084803244733,0.5376021165895181,-0.7121780880495178
0.018462239505369613,-6.7085139238029825,7.1951043046384635,-0.07040896583868075,-0.01920129219693439,0.020147059475155042,-0.006699598888455645,0.493191285875659,-0.7598778557768662,-1.1983454116826207,7.166455967232871,6.662355912163922,-0.11683551839634501,-0.00576130273883715,0.08016029174603095,0.04330769895598443,-0.7830502564824542,-0.6021150143285754,-1.5089063253321806,-6.216551154374148,7.158578673297932,-0.12946960092919696,0.0026547478141293154,0.02570644631756505,0.07843682190288258,0.5824926386716311,-0.8449759987438318,-2.1338193020753233,-6.4676537480801315,7.389966556711187,-0.13309196769602713,0.1378189948899738,0.021164486677381317,0.06528322161823548,0.7315757277203112,-0.9804438699561752,-4.091977260250021,-6.640813170923535,6.093310797773838,-0.0632437603116152,0.10243892149950973,-0.035098732807100755,0.47630891208892995,0.5414833344081593,-0.7150871699456519
0.02933408532702019,-6.753804490991812,7.202744034093386,-0.08699809212462876,-0.021775027739187172,0.02537029912382265,-0.007428560169931768,0.49319623539464397,-0.7620761935471759,-1.211322144485719,7.096049501858131,6.762913249599798,-0.1405718099518372,0.001050111273393012,0.07151809200599568,0.04208445616475335,-0.785121492491624,-0.6086704069535842,-1.5846368520319025,-6.355710998151122,7.238507073230314,-0.15495844649288434,0.012543505742911328,0.022660514693833754,0.08037166644899979,0.5809910903516095,-0.8476539435201482,-2.176988092246077,-6.57015975625243,7.197935665608286,-0.1567886968363946,0.10029932729105998,0.014222779732034535,0.06699683547528504,0.7320676918075176,-0.9816557791465962,-4.080817535797057,-6.608845525372232,6.024541688741946,-0.07856033525106179,0.09382044143495645,-0.040442512041052536,0.47629649964330967,0.5380667363091677,-0.7153497787062851
-0.029424775632500726,-6.717400836764311,7.149805823955298,-0.05921424040479181,-0.029467600004178432,0.012287392086088225,-0.007169476266514739,0.4968606510398018,-0.7645130106331534,-1.2308935159296388,7.027895768920596,6.774487324745715,-0.10798123722259996,-0.0010501493404129908,0.06500369352767138,0.03715167314830155,-0.7771513767464943,-0.6122145134307994,-1.6234091426376482,-6.511076444812688,7.234110672789561,-0.12332031491246012,0.015039557083452382,0.01917636317514996,0.07869634440564245,0.5910012757760172,-0.8482450321937101,-2.197369064923876,-6.656689997684095,7.067442507628702,-0.1245075402182668,0.10151604099047225,0.01138047992913449,0.06994799755523859,0.7425523626248753,-0.9806032582539322,-4.094663811873732,-6.580924507951918,5.980256285378953,-0.0502935047105616,0.08073372612354746,-0.036069138680272735,0.47584303476549605,0.5476012677231517,-0.7174948834404047
0.037398825817903825,-6.636996183029775,7.113650861847357,-0.031234746141605405,-0.035128900163182285,-0.0006625426738239605,-0.010335256761803604,0.5041847035777779,-0.7574293858353105,-1.1519846355468497,7.005143008404918,6.713620462754555,-0.07024276624860012,-0.008391814708487431,0.05862016087186162,0.034444651988580224,-0.7712116210609671,-0.6066942091061205,-1.585367111917178,-6.417701906679001,7.28650863671931,-0.07621554547340999,0.00819295388530607,0.017470025066491014,0.07581855088175349,0.595244905675966,-0.8407083743332175,-2.152231341513711,-6.541794917427387,6.9788013534442515,-0.07657647253319903,0.12284907516169079,0.016761889281625243,0.07116954063315561,0.7505683533355528,-0.9746876032238341,-4.108901768325676,-6.440962549368153,5.952660253354968,-0.02202885129327677,0.07283231907001121,-0.031730529251539144,0.47513242467760025,0.5534239168084012,-0.7101390564350283
0.05706335629526048,-6.637991893633407,7.089477630898663,-0.02342599816805433,-0.02520727660445349,-0.0131894732653312,-0.005947147126481834,0.5031921479969679,-0.7552245989414365,-1.1513991281376184,7.019571037264342,6.75055379188023,-0.05956540426550688,-0.01509691370500485,0.06088730919715842,0.03712285698001497,-0.7702418760101698,-0.6079371192236707,-1.5785931577999182,-6.366328215242606,7.303452552258976,-0.060744338395615466,-0.00576782661744576,0.020809707133692224,0.0819328360683883,0.5954907843856595,-0.8385431920506793,-2.1891324828631356,-6.514848179563521,7.041677539004493,-0.06051993062385174,0.16042149787114454,0.021347896548900173,0.07994531994862142,0.7478463364125674,-0.9722389465967786,-4.150899813737362,-6.4164721833861655,5.990605813789177,-0.008315092486214735,0.046624730311379196,-0.03719553106674045,0.4824475035558442,0.5509580383591001,-0.7106406025229814
-0.013230242400872918,-6.697016215137337,7.099942656381079,-0.041967922945353016,-0.013694386860148598,-0.021826735811327838,-0.021595034654696105,0.49761773537756004,-0.7515984944403302,-1.212656170758927,7.161768745223863,6.763332366931844,-0.09097093589592765,-0.019831805848582428,0.07361730952706134,0.023245817312503386,-0.7763740900406009,-0.6051193218300857,-1.5964474941076567,-6.312184273753283,7.267323090043067,-0.09571864529442416,-0.0020993483886944265,0.026484205299444043,0.0670381553913241,0.5902120485202312,-0.8349955922717681,-2.3056809063873223,-6.49198543434827,7.13611386716929,-0.09614458414510751,0.16255555178224,0.019716196700576914,0.06624780001927012,0.7429601115141489,-0.9669389159339334,-4.131918854665543,-6.4905679082426815,5.985505963232399,-0.019091074313529226,0.033017630158301614,-0.051899683306210226,0.465349714079319,0.548796536509059,-0.7057690419138241
-0.004822602165230238,-6.6394986347100255,7.080872028377372,-0.07241346970381232,-0.017830542572737678,-0.021616963316267206,-0.009864569620330875,0.49832237346495123,-0.7567030599696708,-1.1552881375485011,7.183276951119252,6.691557959733116,-0.12965592177435764,-0.023375454541141448,0.08982191327196656,0.030538277086245336,-0.7735382971676157,-0.6129959515173238,-1.5389094243214134,-6.251027032257667,7.125759018573925,-0.13775748316496833,0.024662669129437324,0.030759498605558575,0.07975078253991104,0.5967438733523339,-0.8363493667521519,-2.2659761789184114,-6.39252712055117,7.175129172207917,-0.13756427812637276,0.13618442375414613,0.01819994242631323,0.08164379223928266,0.7466050067687248,-0.9695560433944297,-4.06124936956469,-6.509035532055679,5.929985504991477,-0.044543256565772016,0.03318519778111392,-0.0697426500912043,0.47682016506425917,0.547548531820726,-0.7084620514756311
-7.40801332235648e-05,-6.735301516925401,7.057376464780417,-0.10633710916683828,-0.03806206832719306,-0.015710265742373858,-0.007184271556239992,0.4968502878975832,-0.7564560308823606,-1.1235107685948191,7.090634061391539,6.717949903831273,-0.1706951735534536,-0.018439775913898525,0.09434750758658954,0.033212667978203755,-0.7736148476713609,-0.618371696989106,-1.5519198513601602,-6.273535770531468,7.122580565555395,-0.18262813954255477,0.05020652131144417,0.027383192199388316,0.0838989417877851,0.5933351327311954,-0.8341335846707914,-2.305528870856246,-6.541996297038983,7.18668420879487,-0.18450701782681217,0.0870863198190751,0.013766317228154452,0.08701331988983675,0.7495009812730403,-0.9663487301137713,-3.9520885006389506,-6.596740264523937,5.859569213161753,-0.07187585991322727,0.04119213405519236,-0.08379784303735503,0.47999136143164145,0.5470530095029649,-0.7091968087362974
-0.04181518035054879,-6.758873757051831,7.099153600166524,-0.11088130973669551,-0.06754672336665062,-0.022940552554464998,-0.013271138996964657,0.5061373871172259,-0.7505962483058857,-1.141048133310555,7.062285971274612,6.797856265352431,-0.17849686964045025,-0.007766953295391453,0.08296302105798294,0.02584505249836916,-0.7645724292777739,-0.6155802916554751,-1.66118364580256,-6.410341240215857,7.234894935168025,-0.19798384670036903,0.047093861842811086,0.024417713702453776,0.08325087422052224,0.6063628306946968,-0.8264611755185075,-2.3581356087184067,-6.595990542429753,6.999420928330751,-0.19990408379069705,0.07769418101849353,0.006542917443123328,0.08433612233125982,0.7619135363274091,-0.9594397516614519,-4.018164785622104,-6.5844230852743095,5.843403046790047,-0.0697526135832814,0.06391996597406267,-0.09170422819682905,0.47587163201354304,0.5553303432970367,-0.7020715665801901
0.040552316571546496,-6.699317897160185,7.055791347315051,-0.13207356052521257,-0.0912298533289227,-0.022661929679007122,-0.011562613902607162,0.5044265840079767,-0.7530363175105056,-1.0711662293173387,7.115394246055489,6.913863261896095,-0.19676967014300487,-0.01748025659981974,0.08180567162500123,0.02584189996067759,-0.7676677390631926,-0.6252951618755963,-1.5849811222748293,-6.467540508269478,7.162390859723016,-0.21156008653085437,0.050367743860066164,0.03412040495809195,0.08760387275401824,0.6033472004656466,-0.8327973114142267,-2.3280395425935874,-6.445157535835536,7.049600082713418,-0.21453446560735068,0.07790948688527327,0.013802401741795103,0.08848530681202202,0.758501888674194,-0.9618910030632696,-4.0317495811396045,-6.574753070219391,5.877470415525911,-0.08869093168570605,0.08298558381025989,-0.10335729264252112,0.4790358080668886,0.5526514910115214,-0.70550425304065
0.1304070588114528,-6.661542093230246,7.033544882439775,-0.1386185708839424,-0.10075292767828889,-0.021908195415116374,-0.020833133385053673,0.5110372664814086,-0.7466968224390474,-0.968346903087064,7.021857605641266,6.88290427874786,-0.2080779065325307,-0.03900241675528548,0.09237078842516422,0.019197840851608645,-0.7581841480463541,-0.6254430976066971,-1.5234454334235,-6.550520114935653,7.112103059451787,-0.21661855327349797,0.06797854795302187,0.05168524547581664,0.08596975711137793,0.6141779378311998,-0.8253390408248149,-2.239668501883499,-6.603258856833543,6.957129578294435,-0.2202796792384598,0.06243763265726658,0.03145596591677769,0.08554874845900917,0.7665068579713389,-0.952814303740767,-4.018833838174346,-6.569784872526624,5.866639113695524,-0.0946916177165828,0.0767954996498105,-0.10836398408951425,0.4746755093042314,0.5621520167738867,-0.6986163498808342
0.12920135797424948,-6.708380708208025,7.0078933587529715,-0.16183014912397056,-0.11126911043602494,-0.01701133337775549,-0.025472398615653768,0.5098312804890041,-0.7479278959162492,-0.9825284508337198,6.894361871478354,6.792313151059937,-0.2239010428104647,-0.05042014985492449,0.09672035739177876,0.01406204642524267,-0.7600782697171609,-0.6346791929779181,-1.62953093627098,-6.577224947453594,7.231289106012556,-0.22369326480840077,0.059836032356227885,0.04665428160654862,0.08451192282970037,0.6149242775045787,-0.8246082157437546,-2.2764390794067113,-6.924915302326242,6.927534782694329,-0.22323513959493546,0.0835210758166536,0.027268103499482093,0.08530276761058006,0.7674748950182574,-0.9513436958059323,-4.011587218348927,-6.595467827692246,5.832499641510581,-0.11577497257375585,0.06580802861507393,-0.11777063658800392,0.4710098904304842,0.5612228997496511,-0.7049694480878276
0.12923945316141797,-6.903333720988549,6.958280549917411,-0.1457535993742759,-0.12118781207681167,-0.023118584633979245,-0.017898171501713578,0.5161488434833272,-0.7413138447039277,-1.034886168467724,6.74143291833338,6.909047102942583,-0.20675907894204956,-0.04632684852445864,0.08650566855892852,0.021121517809973584,-0.7561333317795917,-0.634760053579537,-1.742540172067189,-6.583920380934151,7.082617023911497,-0.20958236883510578,0.022370188893181316,0.03597591555956662,0.09409414935722488,0.6232614726714806,-0.8181532938600917,-2.3990005310310263,-6.770116508952816,6.762723016813153,-0.2088823175955202,0.12965449305394994,0.015235316762294775,0.09921578052596616,0.7722930483902017,-0.9463892898172467,-4.018674269964485,-6.73139028405537,5.787557917905305,-0.10030602640603005,0.06463000144539441,-0.114310234379084,0.4800642308429051,0.5670024502579568,-0.6963929854943136
0.25541438240150766,-6.995354037501869,6.998227989648219,-0.11693013963837445,-0.1364726007957377,-0.03761935149889574,-0.027663681013734415,0.5144719151416846,-0.7442639417036255,-0.925843624049371,6.844722425813306,6.932425739907246,-0.1693702697185262,-0.02418697574463879,0.07132509741880444,0.013297709392147935,-0.7560148030718812,-0.6396303889670243,-1.576474948186413,-6.520345113776842,6.840445596925768,-0.17526650933936094,0.01260508985924213,0.032155737693857135,0.08724860198471088,0.6176959419945827,-0.8158621632537807,-2.3270044394424443,-6.774825989091978,6.793657399024331,-0.17662465621065243,0.14005730233124278,0.01611662381405292,0.09457780566960623,0.7718205015998376,-0.9471387181078056,-3.950544342036217,-6.800756549757719,5.796086279647166,-0.0680373533055764,0.057011098664817475,-0.11089616089478761,0.4744359252268624,0.5633781966783625,-0.6995866834893065
0.34167130053355504,-7.005164981542163,6.961211673443072,-0.10859677907919085,-0.14874936612059833,-0.049558869451851104,-0.017897706638517183,0.5178546952134496,-0.7388706435949846,-0.8974418462022765,6.803317997338399,6.936229264823756,-0.16320939106952095,0.005587491177789864,0.06254028349035763,0.02355860337117733,-0.7574320169293467,-0.6401145837969491,-1.5617421911304463,-6.555811888387049,6.7540518286245845,-0.1648203699440334,0.03399660221292409,0.01950061205419402,0.10291601582712062,0.6250000377120823,-0.8125992421330255,-2.34423137509664,-6.851308268921776,6.873877791057796,-0.16313940339093985,0.08724245164509628,0.004993588509403163,0.10847902483678339,0.7763703265378568,-0.9382799881367833,-3.995879298405732,-6.796388628390604,5.838646382418481,-0.05756644921400662,0.03169079196512723,-0.11792030505181975,0.48494635350210863,0.5667261022522666,-0.6937085244459387
0.32231069594027056,-6.952380613295921,6.932519941678894,-0.098476620365814,-0.14154502875825029,-0.0655070591856591,-0.02789330242811983,0.5178937445784866,-0.7467009682343573,-0.9149793064765361,6.758832835304418,6.942831845753905,-0.16363030630560546,0.03908503994272241,0.06569595966274891,0.020837186300108557,-0.755196657564998,-0.6513788207723289,-1.6497134752589615,-6.555825898097272,6.916111766448552,-0.1737078201949346,0.049351778674655095,0.005534316558721413,0.09777216724649503,0.6254647585044039,-0.8164860071586966,-2.382301937757487,-6.889905599740685,6.760119048706529,-0.1708235808990631,0.054024138948060414,-0.009471337642693091,0.10654425872447729,0.7788442674244812,-0.9426636193461986,-4.038678224440083,-6.734542655952898,5.8340057431801,-0.03651992178105602,0.004291039768991171,-0.12200488931516837,0.480546967810699,0.5653116530418875,-0.7000642544566832
0.3463832078183695,-6.967998114436849,6.963286136341086,-0.1235237575317483,-0.13518736770481282,-0.06637487870634183,-0.043021840253436555,0.525738882222656,-0.738418637728274,-0.9285501193920517,6.714232841491175,7.039240687514766,-0.18339509169445892,0.05949042964435312,0.057764298256892804,0.010039181008833798,-0.7450027813925837,-0.6515306440613412,-1.6835530570270016,-6.653471787542683,6.913206209156327,-0.1918087475703917,0.032625847573481526,-0.002173677664630222,0.0902575223977514,0.6348143726606497,-0.8124025428296524,-2.393620973382775,-6.855064212456349,6.641414473198184,-0.18572088864975683,0.07060737134137554,-0.023301990417252394,0.09531292417537322,0.7866417836646314,-0.9362971997299077,-4.053604319103432,-6.8059919886229965,5.873670480518173,-0.05920318072475159,-0.02060332461738234,-0.14309042062200797,0.4688599934002755,0.5741283814386763,-0.6973300255878127
0.35262820573966563,-6.9568450611484565,6.891994770403062,-0.12009755248539436,-0.12780158042638862,-0.06844109245574091,-0.0366969807108865,0.5247309955332286,-0.7279102931779518,-0.9384850005442924,6.700579549312588,6.999881241390907,-0.17507382363015167,0.0664003915101329,0.05618840713901415,0.01395903965562909,-0.74486133048651,-0.6444597222098203,-1.6648250406579763,-6.727755902438982,6.731343262597785,-0.18186230473382678,0.03153101962546297,-0.008438705011991399,0.09813074144708726,0.6344428732256271,-0.7992512024427962,-2.422453567141167,-6.996214976469785,6.690749257930529,-0.1799077215312413,0.07179939548237138,-0.02657961570082171,0.10650661993604502,0.7865319874900288,-0.9233263785524508,-3.990352132687463,-6.916696677615612,5.892527961226047,-0.05508892149060263,-0.03599376446796776,-0.14012024736784714,0.473248808432375,0.5725912945891661,-0.6868403066863796
0.3408568959879761,-6.9453051354821325,6.850345892730963,-0.11018104057879437,-0.1217109638301786,-0.06015102773438729,-0.04354266223839738,0.5193839092374125,-0.7311027496880695,-0.9929075512032272,6.677468059946113,7.014700754474642,-0.1655303550208623,0.07108645685165838,0.05707422174628928,0.01056751033685102,-0.7518101867040982,-0.649951898658839,-1.7167537193225604,-6.798588650515784,6.718204742664451,-0.17159330733186326,0.04506398527032132,-0.02287870301107542,0.09518308707328484,0.6324738485515902,-0.8016566143671114,-2.4706843183426295,-7.126981155777805,6.675084947612943,-0.16533666164319485,0.04210198497011334,-0.040686663039134215,0.1023544062677896,0.7850813330911529,-0.924079753272079,-3.989182311214218,-6.9374762950742745,5.92832431904346,-0.052389897014451195,-0.024253663278107598,-0.12903719327933078,0.47030912778840583,0.5696945946540138,-0.6910070979215104
0.31748226897707804,-6.9401937109023395,6.822679474190312,-0.09572798031704219,-0.1130385044309942,-0.05570332124231099,-0.050811042230023536,0.5384483480560558,-0.7313365761783034,-1.0312694864615735,6.6348763048401835,7.098598438883873,-0.15128736170102552,0.06805079225918409,0.05912403778025015,0.008983343595564592,-0.732914933444184,-0.6583267479696927,-1.7744348084468884,-6.767500149348898,6.820272378267651,-0.15538177934911915,0.05011588835309972,-0.03260855715730597,0.0952532971191197,0.6510346521363025,-0.8011289962863035,-2.5172789151190194,-6.900837757767029,6.604609869121426,-0.14493189326138733,0.028270445884023842,-0.046449809904759595,0.09922537870738103,0.8034029636096095,-0.9247029383740885,-3.9436278292066036,-6.9438517361440315,5.851731776422235,-0.041671986747920234,-0.00295078749691608,-0.11459013669434731,0.46353785559317856,0.5875476730433628,-0.6921297932862069
0.3260059064388574,-6.924604876099407,6.830088195801157,-0.08618170605159281,-0.10916746108471155,-0.05079379977275612,-0.05376297305233505,0.5338118934560451,-0.7267089487989301,-1.0547361742165111,6.663496992401001,7.131888624755363,-0.140456352637879,0.0521061393875281,0.05815325022551428,0.008498635492093875,-0.7341581285369376,-0.6595258668194249,-1.7971854261237459,-6.738938024620301,6.887596077269634,-0.15168727613190608,0.03545790831765706,-0.019779150068178014,0.09186428340453352,0.6513555257056457,-0.7952568785086322,-2.4955928735462134,-6.723900361821031,6.524862867505367,-0.14518947637651183,0.054083144738213934,-0.034204822448592215,0.09652540921356813,0.7997345713288507,-0.9227814515000897,-4.0027707168347515,-6.873684539458832,5.931251945589214,-0.0332491082686381,0.023330537252229597,-0.10271597341632269,0.46205781011385216,0.5833990941773647,-0.6914203514128158
0.46194956782158375,-6.863153346141748,6.831821877929326,-0.12983744912456788,-0.09565143226422369,-0.031888533795517676,-0.05376214359473327,0.5333254663927297,-0.727930576002325,-0.9420996270469374,6.689088891090581,7.227541643637041,-0.1924703108805505,0.024856906779857996,0.06181463401073961,0.009966355423768064,-0.735660512413207,-0.6621896398747907,-1.6935770921224456,-6.83036071222696,6.809226685602668,-0.20843714320196502,0.025957268494518133,-0.0004406269476905798,0.0933236993397305,0.6491587060286718,-0.7947506735748815,-2.4371418394880884,-6.864968242695237,6.64237704084287,-0.20676326377489654,0.07256845882527217,-0.021292763955798377,0.09846533748762037,0.7992151602697883,-0.9186281342182949,-3.959463571256636,-6.858299995157642,5.98883492020429,-0.07991074967931536,0.04291634261194328,-0.11520079785532782,0.4615627490030124,0.5814386012342051,-0.6897219945844799
0.5418062162170647,-6.90814813822352,6.770957494333018,-0.16006977071442227,-0.07840692968484073,-0.017097832693903876,-0.06302854449374652,0.5382318062478908,-0.7259872765903909,-0.8989592699737435,6.590781283719674,7.213607508084199,-0.22774641997773815,-0.0033147337673688614,0.07302285763632634,0.0006589875558729722,-0.7318843788690614,-0.6668741172019269,-1.6565079339556168,-6.973044053572438,6.727276200312513,-0.23913758731940232,0.023023628218876407,0.01047238142421327,0.08946443464280537,0.6572723649818829,-0.7909151360128124,-2.396912387389103,-7.027858577410912,6.547890910066809,-0.2386847997202461,0.06884400553398669,-0.013697574914649452,0.09847864666275645,0.8099315716235123,-0.9146524895455866,-3.8964225385025775,-6.834334343992202,5.949167882521622,-0.11310354600741705,0.05578740716247558,-0.12388433487990427,0.45670197823796754,0.5875445760281891,-0.6870036306675407
0.4935979978115805,-7.051582849186806,6.746604417257462,-0.1399074525923684,-0.06684714936182777,-0.016392937787708606,-0.06351064172167956,0.5387253586127794,-0.7284295331956501,-0.8968256412256952,6.541792191216349,7.179534914066922,-0.2020566709341373,-0.01750285450750988,0.08518794748145243,0.0006441736598773425,-0.7330352826824399,-0.6771100463713202,-1.690482282551701,-6.962633418279568,6.678676875869979,-0.20667878202076428,0.026572369529877102,0.017482481116279428,0.09118070798476298,0.6570409386208793,-0.7892116849113369,-2.3910800546180195,-7.015729370196102,6.405227769333865,-0.20432513756782572,0.07775729089446774,-0.0056256999246506656,0.09920912245085564,0.8094387293286113,-0.9141655721035518,-3.870902400984799,-7.038348567181925,5.851692093289793,-0.09800366993891745,0.06854416855323743,-0.11053489869199278,0.4574348074947616,0.5878045261288167,-0.6904202768630913
0.6134788750365927,-7.139052320352481,6.80466819800552,-0.10953606646302734,-0.06428326082555659,-0.01081585421687628,-0.06057137079459266,0.5433526511371691,-0.7267091796532323,-0.8478709941710968,6.518086652912927,7.255637138446401,-0.15884538180737368,-0.016543326226309482,0.0797408770320441,0.002055325523090525,-0.7240320343007605,-0.6794629932463552,-1.6450904086076856,-6.858054383064576,6.593067532867289,-0.16337595607095085,0.022301688459575343,0.025408712752809533,0.09560838740677349,0.663879239466418,-0.787598954778361,-2.383138737322364,-6.879271437772395,6.441600595677947,-0.16285589525802277,0.08289042108158338,0.009349286744223799,0.10483419035914061,0.8184348277742972,-0.9104289450439282,-3.929519705361681,-7.15474969262253,5.7843761212196485,-0.07565379378562721,0.06412858470517901,-0.08880095978959052,0.45891937439928243,0.5931421737125389,-0.6852641567735289
0.6506916419027073,-7.165276341444623,6.773823725227938,-0.12275918017767615,-0.047135315491845645,0.0026719538897631303,-0.06303492447508897,0.5406643736419995,-0.7186601410539785,-0.8337605939702837,6.62200856562,7.3901639810596,-0.185272918636456,-0.015236741851064248,0.08995016610709056,0.0013314279578236152,-0.7252361225490681,-0.6782209490421144,-1.6470999486754205,-6.935255211627635,6.579186009791876,-0.20103966877385995,0.0391141321463709,0.03438979986468264,0.09588013166916474,0.6622473116571213,-0.7805018015687211,-2.433171994662889,-7.107481413816248,6.485328576925213,-0.20688180918723525,0.06505565187036655,0.014425066278463263,0.10725031930563389,0.8176449640393065,-0.9023699134523494,-3.9171644298619785,-7.120430115583543,5.801694077917586,-0.09269418214516714,0.02244094293068377,-0.08703568535273545,0.46038975352302125,0.5945765623483091,-0.6806172991822048
0.5237302425626993,-7.267633484472093,6.784791955435276,-0.1563119855097796,-0.040334303639220546,0.006662097637352001,-0.06664686129547319,0.5570337854700471,-0.7201107225957487,-0.931857176761743,6.5938421958964355,7.396331933656191,-0.2419994508102959,-0.005820490018996989,0.0980610808499169,-0.004390392010949447,-0.7090614887568254,-0.6872745777583691,-1.8071288564654349,-7.114247864978492,6.579369200827379,-0.2684043489257944,0.05228275507066507,0.028174041881513744,0.09497072394516544,0.6791108533556801,-0.779217777436354,-2.5440877909442996,-7.47903534138919,6.370056658530569,-0.2719040524508188,0.043280617024285664,-0.0014226485228364984,0.10533318319520005,0.8330316816373615,-0.902519635500744,-3.9072916003708675,-7.077956517439108,5.7321801873955875,-0.11560445496190698,-0.0025508369864753956,-0.09834459874151122,0.4562822517667568,0.6063369673523374,-0.6854362672733538
