# sampling frequency: 40
# units are seconds/meters/radians/a.u.
seg1_acc_x,seg1_acc_y,seg1_acc_z,seg1_gyr_x,seg1_gyr_y,seg1_gyr_z,seg1_mag_x,seg1_mag_y,seg1_mag_z,seg2_acc_x,seg2_acc_y,seg2_acc_z,seg2_gyr_x,seg2_gyr_y,seg2_gyr_z,seg2_mag_x,seg2_mag_y,seg2_mag_z,seg3_acc_x,seg3_acc_y,seg3_acc_z,seg3_gyr_x,seg3_gyr_y,seg3_gyr_z,seg3_mag_x,seg3_mag_y,seg3_mag_z,seg4_acc_x,seg4_acc_y,seg4_acc_z,seg4_gyr_x,seg4_gyr_y,seg4_gyr_z,seg4_mag_x,seg4_mag_y,seg4_mag_z,seg5_acc_x,seg5_acc_y,seg5_acc_z,seg5_gyr_x,seg5_gyr_y,seg5_gyr_z,seg5_mag_x,seg5_mag_y,seg5_mag_z
0.5379768363335575,-0.024912735948368223,9.76733723996879,-0.028043785701014845,0.002945342390933696,0.011751707695297915,-0.5056939798730837,0.12932069787059888,-0.49345169482370055,0.18940330000207806,2.364807987375625,9.544978697678836,-0.010634884759827145,-0.0036518712504560874,-0.011284304875147986,-0.9290252903846709,0.3923729497057766,0.6395260258886001,0.054022909223199383,1.89198800127999,9.547856964275732,-0.014215501862482924,0.0042202749642260284,0.0035921741361007965,0.8643422989032039,0.24005898543448836,0.6477582988892452,0.35132297418375885,1.9093874740356187,9.708756459022316,-0.015337635722386897,0.00016261697361049518,0.007508632443211953,0.2768036702072659,-0.059375564032743244,-0.6410654410928581,-1.0352415418963923,1.5189310975769323,9.584068351449487,-0.013697171560377572,-0.0079787222328008,-0.007598720140746996,0.309384602199422,0.041556204337975106,-0.7231261704799004
0.5136067220156668,-0.0627451457273348,9.694283594368796,-0.003156709545366464,0.0009036550762574296,0.010937870283987941,-0.5093659985114243,0.12895646261384067,-0.5087774783533415,0.16555610640554408,2.3490410467654876,9.543920167865442,-0.008576666256391263,-0.003376791638346164,-0.010979902511301043,-0.9345577165878536,0.39568429162918395,0.6431920891685532,0.0253707512846629,1.8828980415492986,9.553452296844899,-0.0035218573854638455,0.0029709892612023742,0.004377290071068393,0.8595566019860325,0.24013910352945925,0.6529756261846938,0.35116955076331363,1.8845427358170135,9.690609159440752,-0.002311190545111351,0.004286615394339274,0.005799185436352371,0.27331499087967975,-0.05661732934163169,-0.6341682226000146,-1.0138805312680805,1.5030559583093364,9.517276673343817,-0.00654092871449161,0.006079684395031742,-0.006187547430828038,0.3039005459888055,0.04103064859449223,-0.717146631397388
0.5486164004977896,0.001172348140312189,9.779477971268083,0.022574996181334787,0.0008572901080305554,0.010317939090893714,-0.5176642860492535,0.11995979595979736,-0.5043045219422492,0.20481036244322454,2.3639446812743183,9.530521237372474,-0.009546176605180583,-0.003850911785467612,-0.00896890654668949,-0.9328892953577366,0.39751424455137824,0.6377652877255807,0.05807516457682173,1.911038367613049,9.549737528851946,0.0037342115603438385,0.00254032483662872,0.0020476092759610432,0.8577908927511451,0.24499989573882275,0.647602826077187,0.3357943203515503,1.9358318614602774,9.690289566676986,0.0075035447442385736,0.009166457343227474,0.003443610611843444,0.2730853881695817,-0.05377606346470993,-0.644200145237882,-1.0555048314842455,1.5477961155622815,9.627750181147707,-0.0008529030792273736,0.01638015629854711,-0.007642832261185115,0.3063676162578993,0.04545286459821398,-0.7262286620020371
0.5104849790445124,0.05319149228725834,9.752778334394675,0.015337062179348592,0.003441380193111783,0.009731240006969972,-0.51741100673091,0.1216683843785538,-0.5045418575741945,0.17595693248737299,2.3732540537454736,9.511864558515397,-0.008266782349993024,-0.001521503331893973,-0.009429289643916944,-0.9311508984071567,0.40137157656952027,0.6362062749789904,0.040683336870261516,1.9111632618312502,9.549887176637045,0.00022068001711565878,0.0021352578829918665,0.0011342063759153026,0.8612078469735875,0.2510510117256951,0.6445669088920271,0.32427122490475263,1.9515480166476589,9.71362647674345,0.0042262704541984955,0.0056367361939881275,0.0037392925971837325,0.27647783061545306,-0.05062716304945002,-0.6457746246522367,-1.0833407327932272,1.5346076219153193,9.741397889873578,-0.002787806268545466,0.010299958304254337,-0.004995338541048117,0.3067334450448477,0.04863562020977518,-0.731115992358757
0.5179780777959615,0.06160005389478519,9.744175146334808,-0.005925059149073462,-0.00028743846202425034,0.010708421695587545,-0.5001234319920111,0.12106278494635878,-0.5072689787623169,0.17023744436296015,2.379970342079213,9.521293885088,-0.010953632248247074,-0.0033406860128422718,-0.012529711550301616,-0.9285255164276848,0.39382236060412307,0.6390045404720512,0.02270641580325211,1.9291983210475865,9.535990195057803,-0.0068113010361266655,0.002859508501687072,0.003964735214871123,0.8646423928916096,0.24275449908889657,0.6494432210646058,0.3316369387639901,1.963081497482084,9.730218701253314,-0.005508507151684993,0.002610380475053892,0.005945500209006195,0.27824229621636715,-0.05841554582372896,-0.6423287388583506,-1.0920434295995922,1.5365153164305931,9.746991764732108,-0.008208796744560525,-0.0007735723790445268,-0.007645969119795862,0.3108159127066425,0.04083428432827444,-0.7248676961706423
0.5249601980947989,0.05030194443011903,9.777852844113264,-0.025127262378727817,0.003690203932657443,0.013117085662828057,-0.5105460851879586,0.12650174645419374,-0.5051112364066835,0.18783482507515847,2.372905037115003,9.537637371032945,-0.010138868770009987,-0.003571301587247838,-0.009315234620632874,-0.9234079277069176,0.39398491949241193,0.6379633611921407,0.0563710598596725,1.9082475098379905,9.550306079634538,-0.013839565330085471,0.004810317988632497,0.0030839035851554925,0.8682920451704338,0.24296008967538926,0.648641114616297,0.3190334001484284,1.938180394936849,9.706655749477322,-0.0146171217314839,0.00015947707519451554,0.007982591017299364,0.2827656367900319,-0.05774207362369513,-0.647327451117565,-1.0576068542643964,1.5285809562743522,9.6571349849206,-0.01487738032138703,-0.005654074926699147,-0.007367600728600725,0.3105990765236163,0.04278345068643323,-0.7231506759092728
0.5183593936371269,-0.02338638685318599,9.73584694891755,-0.01676162607617683,0.0015699547068745389,0.011193954238819786,-0.5010240264468904,0.13279389109406706,-0.5081570706376551,0.18411122953211298,2.346610786197636,9.559812489858476,-0.010790623930097373,-0.0029530987771302776,-0.011823804033039518,-0.9217785988301095,0.4066781978156497,0.6386810956973874,0.02200731555680674,1.8829523205417686,9.54184273100911,-0.008305009657807344,0.0035603998587582773,0.002908680358767665,0.8712935222754088,0.25415251606416206,0.6470414606786551,0.34839168128336023,1.890791193524339,9.689940032074624,-0.006785858325560012,0.0008419598130290712,0.006331813994320421,0.28581610354703074,-0.04746639764589157,-0.6438281946588819,-1.0225456041646361,1.511108111619597,9.539577861737385,-0.008777946242024015,0.00024385930975521155,-0.0072210072295478414,0.315315282464828,0.05453462933108123,-0.7281185503019734
0.5221574975418535,-0.0182576108312971,9.75627765896997,0.005822022544075921,0.00015422833774079292,0.01118376381707471,-0.5048908397523655,0.1281567149401855,-0.5034837028821203,0.1910889977650817,2.364867006486262,9.522482925324985,-0.009265137660841919,-0.0038182904861504313,-0.00986108756116798,-0.926327805448478,0.40026105424128106,0.6322629510675641,0.04372686172457324,1.8896000661302352,9.544911295145196,-0.0011283045994661442,0.003747718890968086,0.0034137517257563543,0.8648354025481093,0.24930202329782652,0.6435337902962514,0.3532316801894356,1.910456751705821,9.696165276407173,0.0020554681049679327,0.005259270436302602,0.005463085149189328,0.27834352909030785,-0.050422440107756886,-0.6494842400929624,-1.040256961327476,1.5333645644117062,9.572343902504665,-0.003626180226853368,0.00825292734496916,-0.007655847582145166,0.31086558959490124,0.049878623236223364,-0.7316928692032425
0.5218895684209086,0.018307423636482606,9.763820957476344,0.013123091755590694,0.003299198227887973,0.010922618725719964,-0.5071777614222147,0.12478051276460121,-0.5073744119621665,0.1709228254488264,2.3681298785382046,9.547416198938445,-0.00909415033992142,-0.004512926476279439,-0.009304843750144499,-0.9299148068142167,0.3941997003991744,0.6451184473163661,0.042653287860003636,1.9172722593896097,9.541654978150007,0.003209343397717551,0.0016487840997683667,0.0035629783816180788,0.866749133035042,0.2466867196233139,0.6557255324733754,0.33936294952398627,1.9341995347644636,9.70915184051626,0.005348193918919332,0.006352936368807546,0.0059628566391886914,0.2781879206721984,-0.05395505607741417,-0.6350405558527439,-1.0768892076465313,1.538454047875906,9.679422108114807,-0.0012489652111644948,0.013212516551226447,-0.004792304903161741,0.31066356959460784,0.045707934652408994,-0.7194838376013372
0.5170438776672189,0.027541496747086808,9.743714419586702,0.0047532606130925616,-0.0005919093970010683,0.009480199196734464,-0.5037782402992035,0.1193742545175127,-0.5059998979025847,0.18059107730524157,2.378616743126373,9.541258370575267,-0.00796359525164778,-0.0036481953188465164,-0.010609966050062519,-0.9287430946338086,0.39554314951792213,0.6394626957277957,0.025290306040452265,1.916832610476837,9.541910039255292,-0.00404202863163372,0.0033079842340829053,0.0021792661260415583,0.8628938622497345,0.24494477604552503,0.6462861506745627,0.3285298859597062,1.9488380928111788,9.732681857815983,-0.0023382183791026533,0.0036681064300049283,0.0058473222956993785,0.27846166284311435,-0.05525551385809198,-0.643827442718098,-1.0921132996819953,1.540497719470783,9.763996248176104,-0.006845125966033377,0.0035708014490697295,-0.006002657204976572,0.3100470719931225,0.04498156384055961,-0.7255769948413119
0.531675007047607,0.03997288238328866,9.769048542212486,-0.014918046705305804,0.0015557415652816225,0.010850753000615663,-0.5045011641996962,0.12206938192146065,-0.5067031349256327,0.18061708210314936,2.3651951756182377,9.520643763997043,-0.011911965676448762,-0.003813676580399875,-0.010504866380074336,-0.9362621153431637,0.40481005588740904,0.6340044613144116,0.047342115807246204,1.9007624082167522,9.535663795317607,-0.011670892081038537,0.004064854509116373,0.005327836413823931,0.8589991650919204,0.250337335611159,0.6443683043877076,0.33145989190335257,1.9402532195969837,9.69005196142781,-0.011965028073524554,0.0031157334554283637,0.00785498441974863,0.2713724305829786,-0.04450645878058275,-0.6457067441581346,-1.0656609035279512,1.5366821411124212,9.67948800987651,-0.011470126377670812,-0.0036529164739962077,-0.0065983085798003846,0.30433067515270484,0.05350164567180612,-0.7281269143992051
0.5260375678945232,-0.01198043678410652,9.73421680993736,-0.017737987645811307,0.0006477579911750213,0.014855588068532133,-0.5056269728760803,0.1235111859079116,-0.501547851122695,0.17781612206619574,2.3658994095362544,9.537609980412615,-0.009754824601529105,-0.0028104319399244997,-0.011660776659573529,-0.925104535206477,0.39737685013169666,0.63547775954853,0.046494238222451106,1.897823019165921,9.536253311737271,-0.01294050385088989,0.0050603319947037685,0.00477262246448232,0.8679588262882689,0.24268599979238475,0.6440093511386783,0.33800642587450735,1.907393461489233,9.691428799858649,-0.009709342015370596,-0.00014291980284475723,0.00762283500795564,0.2805913955496585,-0.05455719249521273,-0.6468155046104996,-1.0426817236929327,1.5110623414042226,9.585143172889945,-0.011576191791808582,-0.004576487040011001,-0.007833680806100984,0.3131919377171438,0.04329142501628609,-0.727357132008094
0.5242985112704488,-0.0017876961366039001,9.77708133249566,-0.0023994175735283013,0.0012191321258201314,0.009271267721710816,-0.5021334463920076,0.12761770978513953,-0.49889237482815957,0.17210332244133786,2.3614991722270897,9.525859192776494,-0.009412873738424015,-0.004199741746963204,-0.010550288538390884,-0.9314331824087895,0.40394808641410895,0.6303004267111155,0.03479963141701248,1.8975705944935672,9.55262088927492,-0.0027697543110754164,0.0013891550087001563,0.00241680024372773,0.8637647617692286,0.24903289727292346,0.6386717893187405,0.3470784749213805,1.9045018338505608,9.688226497454067,-0.002866948876070137,0.002510086962103479,0.006663477289274595,0.2766173029365029,-0.04871617250054232,-0.6504353894600389,-1.0380836420270612,1.519486838055547,9.550917976891007,-0.006551049938900059,0.006082640524105622,-0.006192324680808139,0.30769427034532737,0.051570585301676866,-0.7311324438412641
0.5278673101688999,-0.00026413328864979824,9.748066362623701,0.009487395989049269,0.001178693527572259,0.010872447926526535,-0.5096618789272166,0.11869401153055534,-0.5071284527189966,0.17867777490153694,2.375144138675047,9.536075503778157,-0.008397314193514116,-0.0029810055509940786,-0.010253339223899153,-0.9258040776036411,0.4000711480468274,0.6354351077127899,0.045457109730948075,1.8959608690263352,9.536628831842929,0.0029106081606082948,0.0031997311392319215,0.0021855033223562017,0.8667768413247015,0.24855061554817656,0.6432585252049101,0.32719938875188287,1.920402753516762,9.715282722797502,0.005507740825477642,0.007398196257893001,0.0033589439008511065,0.28079929905718226,-0.05310824298619717,-0.648542861971292,-1.046408895062498,1.517984510727142,9.629952920071187,-0.002026558681751398,0.01389381506793307,-0.006817904499734067,0.3124002921935768,0.04963739881199727,-0.7285517649848544
0.526219404166576,0.04285502164130626,9.749000694435185,0.005886827122638772,0.00045599909234994573,0.011946736803660677,-0.5122861129762709,0.1250576809534699,-0.5063132035965521,0.17562681128828317,2.365205659215424,9.531735665064417,-0.009421852753556219,-0.0031184870850601417,-0.01039959436663845,-0.9258807169325722,0.3925281646944829,0.6368000229334224,0.038769470418735574,1.916216965995683,9.530302964234599,-0.0007508757096449449,0.0024971362154961093,0.0022761523213359366,0.8652881915978774,0.24028218798911224,0.6460296402677203,0.3254542609312679,1.9585642238791257,9.700393788964881,0.0006392871907164714,0.005886995258378113,0.004459054688565667,0.28015689225723406,-0.0557538052340568,-0.6443517250257745,-1.0675687884944842,1.5599192186776663,9.717817160169483,-0.004250109964770621,0.009565065739154329,-0.007842401908408767,0.3124877703547126,0.0418212255231398,-0.7263668266127543
0.5180122846807668,0.034800891059821704,9.757626774386244,-0.010158088876546255,0.00225936594887849,0.011876761380327368,-0.5088597026876991,0.11694697704006343,-0.5020248248162411,0.1819324574265765,2.367583030563751,9.520806003072813,-0.010004530222788148,-0.003919106244634458,-0.010894647826551609,-0.9366706072135879,0.3921018166110693,0.6332734914880204,0.03246268681418135,1.9295657340860672,9.536942676354446,-0.009122291588366407,0.0023810651937792387,0.0024071397383186033,0.8603209407572343,0.24151177687678954,0.6409863091013748,0.33554636313587305,1.9608310080944233,9.727587316713468,-0.007275059976510363,0.003355983472267456,0.006253227828253555,0.273459540326041,-0.05820932103047247,-0.6483221844807115,-1.088038595620742,1.543659896359795,9.71891797258646,-0.008965702919925055,0.00016661325975035949,-0.00579571481124828,0.3021425716338377,0.042507815132814646,-0.7302934108960081
0.526437359851699,0.01150031507737028,9.748430304560808,-0.013817291732129786,0.0012337850125374392,0.012198971257120654,-0.51063437867795,0.11772092170630363,-0.5063866512436938,0.18817084227388683,2.367358419706423,9.533693297026922,-0.010431305842348951,-0.004335165006731994,-0.01068965349240952,-0.9297315587218977,0.3955366763958447,0.63849832969498,0.06045510166669031,1.8982536333288773,9.524436861790948,-0.012562103763159766,0.0038107262263278167,0.0036329976151361046,0.8658065004095101,0.24418179493396558,0.6457486818162804,0.32995998902923995,1.9383179544219105,9.721941308505956,-0.010576881291352182,0.0018675032667858588,0.008907193480394841,0.2777139620671722,-0.054771457414808385,-0.6445470884013138,-1.0450987864691217,1.526244779395751,9.64647676069605,-0.012100229828596628,-0.005363802305508403,-0.006816254244272522,0.3098541896611381,0.043268417827225125,-0.7236219109190711
0.5225807877469532,-0.006074101492280083,9.777171182502117,-0.009406005818606927,0.002568945074863303,0.010200204838270076,-0.5062854864153721,0.12422346440447626,-0.4973819619904807,0.17328767962481983,2.3501461002652144,9.528644531730809,-0.011310980883824002,-0.003007882343784948,-0.00998912329745282,-0.9285195244398604,0.3950291867733278,0.6382484553621566,0.03774917438489586,1.8933951548605608,9.569611019649694,-0.009345843685347239,0.003927100518094379,0.0025375898663570545,0.8656466094679004,0.24591841766927855,0.6494023152628629,0.349803245306548,1.8926008167884052,9.70865535212667,-0.007549909916924974,0.0026666227331347023,0.005107527919203883,0.2787719838578973,-0.05279387211480831,-0.6414148675803029,-1.0222239183630997,1.501904487012255,9.568938067736871,-0.009591119763797312,-3.325948178539985e-05,-0.005993499185231274,0.3127578810572408,0.044993513262226226,-0.7244144814309738
0.524305507314067,0.000909998069482644,9.741569884425694,0.0037646649087698385,0.0014254348139295867,0.0100351900687488,-0.5073463593453831,0.1201002846936092,-0.5005642876649308,0.18007813914330256,2.377295348256434,9.536313226993963,-0.006934739089794325,-0.0024212991192299,-0.010296324991553788,-0.9304515459862558,0.3974796822196726,0.6374928901355171,0.047712551342308285,1.9019066462928906,9.528445421072702,0.0023856934937239375,0.0023071765321268896,0.003698879966098686,0.8616545961008468,0.2454353438202969,0.6450857558767666,0.3399001652808693,1.9310552549079452,9.697469036383072,0.0053916977314072325,0.00452840463094856,0.006712211265413338,0.27623510969869963,-0.05379584357861656,-0.6452526033302093,-1.0436352677482579,1.4953171179818001,9.597688281662395,-0.002329631178520998,0.011385928270975659,-0.006627035761202752,0.30728825322004394,0.04692513544098723,-0.7284449476671653
0.527766634864528,0.022956266653444003,9.762317372553257,0.011118872252159753,-0.0005669182676868726,0.0121329754602041,-0.5036966338946279,0.12472950910771742,-0.5035249042321234,0.18579306865922132,2.366492991571716,9.52787648374291,-0.00941266319036987,-0.003114371557677505,-0.010387778514455602,-0.9274724229054891,0.3987198413655355,0.6403647313502391,0.058860147776295196,1.9112969798525392,9.54730350274565,-0.0021702281367030245,0.00043317664464152285,0.0017800791637451502,0.8656545381541964,0.2488414247507543,0.6484055992864802,0.33142341623784327,1.95245052449358,9.697958429905285,0.0018936983929866552,0.007034928426965487,0.004124798834352125,0.278813441047968,-0.050826992272988335,-0.6399677995137513,-1.0686183113955208,1.5684215105383383,9.678249276592066,-0.003971067627064274,0.009060822362525063,-0.008055256297353168,0.3078954129415123,0.04740823903252139,-0.7228400668484081
0.5113639245245529,0.05118378667964491,9.737932005554311,-0.005347642184231484,0.0026709011702265055,0.008666446850255912,-0.512395567456259,0.11971325290959671,-0.5104959359093677,0.1917795501362919,2.366278432776342,9.54076458275122,-0.01091893346706427,-0.0033262555981393264,-0.01248538596270338,-0.9236131563258555,0.4002742874879229,0.6346730267971269,0.0363735912870409,1.89718669849909,9.557276950613966,-0.005162534761120206,0.0033683578862082446,0.004327310826673336,0.8714263930337621,0.24826955684705465,0.643905329589012,0.3244057696987359,1.9304826519983451,9.745309029416646,-0.00041921473095398636,0.0035729420346907294,0.006089371332583623,0.2835167268893293,-0.05188590642053333,-0.6473972676725482,-1.083817476112364,1.5163327744850927,9.74336438070997,-0.007897496612886403,0.003508136328956228,-0.003946446344105707,0.3160810080457865,0.048923100028820235,-0.7278994881543259
0.5203514120357495,0.015208241358208904,9.728407972581804,-0.009596347714921218,-0.00021633866352338836,0.011427840964810077,-0.507838629027057,0.1210856295844172,-0.501283125620706,0.18374224369486958,2.381044931214543,9.519036434048644,-0.009237664552998648,-0.003809037708507872,-0.009830581587141085,-0.9350606577326953,0.39878037883146217,0.6387444013152169,0.051557914834899715,1.9424691641550371,9.539977909671999,-0.00882475499685223,0.0035850828459420346,0.004733631188977839,0.8584784618514146,0.24668001248489305,0.6444035703118677,0.3399086477256594,1.9595063589480988,9.693309628258776,-0.010597867990037766,0.0016487923135958828,0.005798621126816271,0.2713702253927452,-0.0540162275419093,-0.6444020854888904,-1.0825341087723126,1.5468210324718645,9.674043741350523,-0.008317277442595462,-0.0016921263762368567,-0.008899285716827852,0.3029510923309541,0.04738757294516317,-0.72566355593336
0.5191282888216513,0.01158119639401093,9.770964436114749,-0.010583947296628607,0.0018110290670030997,0.011977878373929916,-0.5088027081177919,0.12427161394375316,-0.5019793182441046,0.18576182982315562,2.34347821984632,9.555935145053867,-0.0097193484009977,-0.0038814028964205224,-0.011779972504878007,-0.9210009855880651,0.4021930111735967,0.647303832410969,0.040554257965742524,1.8840350389146858,9.539014447217731,-0.011585331350332498,0.004365106457492783,0.0028056323917715477,0.8725842630069399,0.2512483321151251,0.652165493753697,0.3292217984466434,1.901548595560107,9.714987182999776,-0.010170563931669818,0.002989591609296685,0.007494088758577643,0.28474257763396305,-0.050577618129055736,-0.6371808320074906,-1.0280829585569304,1.54644460804805,9.589279479170788,-0.012851505799265254,-0.0029185923832044077,-0.004949869007575125,0.317760523114109,0.05037927044542082,-0.7176773145179072
0.5291807128517758,-0.023239126765259688,9.718872848855359,-0.003059887839288502,0.0001383251550837151,0.011346502966220274,-0.5114634355593632,0.1221713955739556,-0.5144031502326993,0.18969465036962452,2.365076952202382,9.535029663711395,-0.010430095593114834,-0.003250787918430086,-0.010526136320030986,-0.9197371554877731,0.39754666389412113,0.6349225944907889,0.050634536387725665,1.9027321266530637,9.532873704099941,-0.00209817793269269,0.003184268642186311,0.004240050421533969,0.8726041592702191,0.24459330517921146,0.6434207386615878,0.3438503994044074,1.906258128530769,9.697806227432151,0.00035844392316401936,0.00479785421242756,0.006472063342569965,0.286150033749339,-0.05703506250936,-0.6488801151205094,-1.0270217648256572,1.4747747085577376,9.565162664270945,-0.0035482625883434377,0.006166354660986406,-0.006447369913312989,0.3151201535444217,0.041838654281766266,-0.7288664695834423
0.529348384039401,0.01725222922484205,9.775910506612806,0.007056501792855265,0.0022915787409411754,0.0105640895169199,-0.5050082671298224,0.12281538653399156,-0.5081553603683033,0.1870859465732922,2.3684715106754783,9.528169764931112,-0.009402485815371502,-0.0031112680446690045,-0.010375955264261657,-0.9390182761229066,0.39922382157235015,0.6338988585991722,0.04437889293443431,1.908641746379338,9.528276038531837,-0.0011248950160782012,0.0019020614003692502,0.002782421541037194,0.8525426152788957,0.24719063020414875,0.6401165834898331,0.31996173993975446,1.9358633951970137,9.682495218203416,0.0012685556851836696,0.006458481498280509,0.00429490037252979,0.2666482486899435,-0.05159364879375953,-0.6482178959175166,-1.0684359323278778,1.5685052608572172,9.627904554477826,-0.004934309855661022,0.009664877617006847,-0.008650608007337203,0.2991383552891878,0.04908761382225744,-0.7321718803157606
0.5087073987768327,0.039116191833967154,9.731117782957984,0.00014968902564247504,0.0017875258072584709,0.011492648636584482,-0.512016082422454,0.11916923915769105,-0.5019592652968365,0.16335705777976597,2.363647713713159,9.548300144671463,-0.009300432579346735,-0.0023809701096568136,-0.011827343242416983,-0.9316816059296781,0.3941283321331946,0.6402575901433755,0.027315144896632476,1.9107613066408897,9.552311417834026,-0.0013477107475802482,0.0025287768412147887,0.002597200305750876,0.8594876487333616,0.2405998547989178,0.6490669264371259,0.3062779860813908,1.9442052009735864,9.728988580135304,0.0013359645484564032,0.005258415861102414,0.004990138110010006,0.2731515825618881,-0.05667784272984859,-0.6410020013388621,-1.0703997343101235,1.518443564018859,9.692672620694434,-0.004255133478061256,0.006808791547962601,-0.0039744984262514655,0.3047661337395321,0.04104332273987409,-0.722293597028887
0.5121582881359085,0.029963641191168434,9.793773089926848,-0.006327978266780226,-0.0018087939396938904,0.010453308592923285,-0.5106029952423792,0.12432033453051615,-0.5075665115979693,0.17867758047380677,2.381164466298718,9.506993383321321,-0.010167069731767042,-0.0021348966157528136,-0.011272555101193057,-0.9270745095021947,0.3983313946677725,0.6330415196172303,0.04936220603706787,1.9036687994096038,9.55700290014179,-0.007922120290225378,0.004147372471915776,0.0023993004577156723,0.8654493363846445,0.2463325361376992,0.6386589789921908,0.33357214938614554,1.9491612913242662,9.717211439228901,-0.006733942205106387,0.0020799315975961723,0.006229581039492781,0.27959698016181495,-0.05285348323648896,-0.6477831299502664,-1.0650191109440015,1.5227921576670278,9.715029731587283,-0.00859892860769373,0.0003261135652424891,-0.008679110423444976,0.3120931248720573,0.046467665105022794,-0.7322127064571345
0.520051583081396,0.01555105944116679,9.735415106401,-0.010554153654721229,0.0042885115322863635,0.013492328430259227,-0.5028061883109998,0.11618517052049751,-0.504814780105819,0.17511643817135095,2.354772982930845,9.529050380196345,-0.010561794055739392,-0.004712504321393814,-0.011362133133571031,-0.9294654771696493,0.40059472161868376,0.6349806234634608,0.03706600945537336,1.9003423708047524,9.549664437403507,-0.010538308584847896,0.0049136483680576526,0.003490292234986275,0.8662120739291344,0.246093796297459,0.6403556642095802,0.3388455292935311,1.922223158235681,9.686479858874907,-0.009154699619029151,0.0016345678303480147,0.0067535597201282575,0.27881285419718216,-0.05457713569167383,-0.6497037521633329,-1.043280990931218,1.5589293576805703,9.634113270261471,-0.010899043593139679,-0.0031602930125245524,-0.007038059166405852,0.3077312926669983,0.04741955060013717,-0.730407278857063
0.5200026129855164,4.252647174818325e-05,9.735116554787096,-0.0022285868909137736,-0.0003300979632661063,0.010047781088593385,-0.5086583473039553,0.11916620698947067,-0.5056765995137124,0.20210094665467476,2.3604200534729416,9.538688151474295,-0.009394343822018375,-0.0031081967347856847,-0.010367107948293621,-0.9293638064366301,0.40123596361253727,0.6430252942937289,0.06416531014972944,1.9051426292367082,9.545003333471678,-0.00725010850951825,0.004103841494061263,0.0035892270187091934,0.8637645551877506,0.24717920935821422,0.6526035028555665,0.3593079293911384,1.9090054930897564,9.690324978292514,-0.006648896950425785,0.003931435791342317,0.006084111024724263,0.2773351853514381,-0.053509896039605286,-0.640152773768039,-1.0429022310811278,1.4924848564912958,9.570252673375096,-0.009827091775207781,0.0016892350705242061,-0.005166613021908519,0.307451441452213,0.04813444179479607,-0.720631833195745
0.5374662127608194,0.013320765181901485,9.773995936079038,0.0019931609505852935,0.0017553008804611526,0.011151335267317286,-0.5142144489180858,0.11845159816955529,-0.5016839288426007,0.1874367679712975,2.3570452471434096,9.530996408708177,-0.009835157498586046,-0.002444995724238981,-0.010014322287926416,-0.9263024822206818,0.39527387893300925,0.6396828261459395,0.03568416838627253,1.8890931394753887,9.539173658416312,-0.0003022521470493766,0.001238692323336143,0.0026485739498288796,0.8677553406544202,0.2422162749512043,0.6464589352197816,0.34502669839605593,1.9215008659825545,9.705073539291302,0.0006053281491213075,0.004865736186814492,0.007668949810254682,0.28190340370784306,-0.05306412095139836,-0.6431969080651649,-1.0417692247429273,1.5289639103862145,9.602172162837949,-0.0034663262848795696,0.0068370510238799555,-0.009106772446021425,0.31295011363385417,0.04475441794647044,-0.7268615850386031
0.514548926322859,0.021037710844057395,9.71536453468893,9.212861490756567e-05,0.0014835999837260472,0.010745546305637666,-0.5091067541614496,0.12527575113773973,-0.5061196295245506,0.17621620504705898,2.3725553742780985,9.549417062223426,-0.009104289572080784,-0.00415285002735707,-0.0114110591111422,-0.9340047770971227,0.4029645050987649,0.6410942980071355,0.05169933625157888,1.916810711234332,9.535844212211023,7.206001724342064e-05,0.0027500990310751674,0.00246097819437603,0.8588470923555601,0.2498873104916017,0.6495023242819645,0.3476714630878021,1.9228503888414294,9.714048288634803,0.0025623927214454144,0.005786861322118047,0.004706051272527502,0.27245460870402016,-0.04788450516613155,-0.6408181211279328,-1.065664348673876,1.5407165302614383,9.669303708018983,-0.0040177504623139055,0.009615321090464061,-0.004771639712913519,0.3071187384819357,0.04789539705164921,-0.7247769555515196
0.5285715073395333,0.01936267288677887,9.782945627233165,-0.003116344291107149,-0.00016063394955180798,0.01060341473269509,-0.5165134099948427,0.12071178343155882,-0.5089572317064294,0.16134551775789552,2.3582979753564626,9.520456293370767,-0.009133317674211968,-0.0019922808950625604,-0.011113503412385133,-0.9250666843045995,0.3981558314264632,0.6379041819049286,0.045312028522759534,1.9223989799866537,9.531315271238878,-0.006053746443241433,0.0031142296034196893,0.002632472027985509,0.8685508870235518,0.24563929486413516,0.6481294844259532,0.32845555216583594,1.9628128571585075,9.706363375984319,-0.0035055263753051907,0.004367697178769383,0.006039095146345156,0.2846162007260749,-0.05355071042161912,-0.6420360704256377,-1.0662852540692827,1.5334512738539627,9.709163729567189,-0.007195262131492915,0.004376688778496536,-0.006413957919669143,0.31420008955897666,0.04524648537496642,-0.7254226132416497
0.5237229033161358,0.024780431258532312,9.762862949915398,-0.010733007704825237,0.003383868526963984,0.011237165185240658,-0.4988392316786872,0.1271499205651378,-0.5062751802345206,0.1851518551652836,2.369710485765191,9.522678956506796,-0.010582668275149495,-0.0025488449658256393,-0.01105473036841377,-0.9257877232977187,0.3933938854612045,0.6438643066011372,0.034125358954924745,1.8949031560267877,9.550756759807095,-0.007847282909571164,0.003218136356923099,0.003589609076961174,0.8688034769513314,0.2415043575178997,0.650595048959907,0.3462099724784463,1.921466056097487,9.714374584593733,-0.006135782817756874,0.002036887311604691,0.006109624644210422,0.28101987751596197,-0.056927615695432185,-0.6387451413561961,-1.053694213116089,1.5303826330167367,9.658561175707458,-0.008973074894370672,0.0001676027410148618,-0.0058125574630466265,0.3135937530249344,0.04450234924254242,-0.719794248432586
0.5217844091346396,-0.01849363075569216,9.748376036817799,-0.0053908012847256525,-0.0005846817614330055,0.011041877772663845,-0.5107666148265555,0.12233115996342202,-0.5017155573874752,0.1855225518604788,2.3783671168449785,9.544503269561474,-0.009369128533242446,-0.0041843652629443475,-0.010503087682860074,-0.9377789553456478,0.407290663168225,0.6478950455326951,0.03881578304779221,1.9056967148420692,9.541631670551087,-0.009937121351345864,0.0030383131573807633,0.002533881884838579,0.8557890930343516,0.2536085505330131,0.6539296889276294,0.33611408254924746,1.9262895034444243,9.686274088793324,-0.00786394414706609,0.000966922585521302,0.00716074780769675,0.26985187493735663,-0.047600848301753255,-0.6373402860652594,-1.0615180850258457,1.5278027560842928,9.596870393962101,-0.008741383772395596,-0.0015548929034748186,-0.006652353854270125,0.30038536871567045,0.05297849737264836,-0.718761937038048
0.5231188882313219,0.02210375672706843,9.762901837316056,0.001979722647351577,0.0028360788289438516,0.011534463755007414,-0.5027662960024791,0.12131191637786505,-0.5047829286115741,0.1793556571996396,2.360277768104619,9.535318428714092,-0.011021446570071921,-0.001885611752153755,-0.010698968773820658,-0.9309948467637277,0.3959620102317373,0.6343532704129655,0.038121701938735014,1.9038324880775668,9.542006765185228,-0.005677725861591803,0.0037053004339208766,0.0021281935379559315,0.8601584470182858,0.24397695124156943,0.6441468160442615,0.33127451916944617,1.8991217599439891,9.712416762114685,-0.0053654617911389375,0.005696870955385916,0.005701679496912161,0.27571001941773043,-0.05624682990380973,-0.6464397407403466,-1.03992577737482,1.5163705773605327,9.597530274202352,-0.008596992417685228,0.0033491337098398148,-0.008658629785588325,0.30727611169532454,0.04619423983533358,-0.7291779498479354
0.5207042414427356,-0.005079845542415147,9.748743730997026,0.0006898579442184786,0.0003836863711446694,0.01142293223237346,-0.5103955695667227,0.11551651085631759,-0.5056714086185247,0.1739456560905602,2.369511114742731,9.521036552021574,-0.007860882477333284,-0.003973524418769932,-0.008406484245568634,-0.9374755669654993,0.3964576669775369,0.6434562193338752,0.060433169500157535,1.897353801027943,9.546578982958764,0.0017150819158935364,0.0005060611687493392,0.0018766537014747848,0.8571031671543319,0.24137372387421338,0.6517928433935956,0.347231618793073,1.9239510918281908,9.692242973779674,0.002781273308667635,0.005236246691438636,0.005952098148459154,0.26928516029114324,-0.057380982449239434,-0.6391937661884175,-1.0435142855859194,1.532622474586847,9.636180502589314,-0.00350244520557913,0.00889660416890784,-0.005810132601213798,0.30238609585144466,0.042491030852738976,-0.7190650639453932
0.5497539321016478,0.035783863283994605,9.799815929457361,-0.0012277029940569342,0.0011958306803144408,0.011393340526044255,-0.5090455033063351,0.12647657149278457,-0.5029385297449684,0.194912133759228,2.3707439261903245,9.542081209279509,-0.009688792030494536,-0.003869112033231735,-0.011745559674367459,-0.9363590476827509,0.39747307292556644,0.6334122332002747,0.05398100329752195,1.9171298199376985,9.54040206994541,-0.003811004114473537,0.0035925143464376856,0.00268104724130426,0.8574837161439336,0.24814188144299243,0.6427027169593433,0.3373287489110939,1.948031593391598,9.714382722277689,-0.0011117794805498757,0.004192560924509115,0.005564270866960696,0.27105446822910684,-0.052823515026667836,-0.6475791280239531,-1.0746691947704363,1.5464742866372772,9.691998927984733,-0.0061018027778878565,0.00566259175391317,-0.007854086101404456,0.3026392623764775,0.04617044670997496,-0.7290774198449868
0.4932122923813463,0.014061771978757978,9.719486829922594,-0.00837207606263204,0.003037783884802096,0.011188470202433411,-0.511240770726045,0.11743302987391172,-0.4985643922364218,0.17171889022920628,2.371055722465911,9.514655220516302,-0.008663181655111159,-0.003727605957503071,-0.011597392915484632,-0.9260282555349226,0.3967539791992808,0.6406288081365717,0.03664826653283049,1.9017385729821268,9.54243010036888,-0.007622203338661584,0.003508720624337174,0.004091459622732108,0.8661441003717543,0.24494485273594896,0.65037695525854,0.3143303199503597,1.939239262814644,9.713968175098682,-0.005291759522731667,0.0020627196096102587,0.007185569981964411,0.28122778102348567,-0.05547866618641663,-0.6404724987169882,-1.0737082038253836,1.52840932680548,9.68738900426746,-0.00868758116224358,0.0011694007193390765,-0.006017299104003368,0.31136486560278026,0.04546988270875227,-0.7209647495437034
0.5303802284123356,0.012597816637287144,9.754043833828527,-0.0042621235357762615,-0.0030832645332206057,0.011633727983065703,-0.5106696636753503,0.11626528056114865,-0.5078605283842623,0.1834766922839064,2.3730711774643134,9.539820589061028,-0.010588469068268897,-0.0014653817437144622,-0.010891112529741908,-0.9386755033794844,0.40009677829981694,0.6414481567386243,0.041348024357508284,1.9046079412538497,9.52215381525275,-0.007845320033318016,0.0032161113373116476,0.0035885861339578417,0.8530220771303656,0.24849268907355834,0.6520639055761241,0.3483470180363656,1.9505478692648406,9.688464644451336,-0.00733217001007767,0.0021239492817664825,0.006346529476162642,0.2670988530049635,-0.05078589601989485,-0.6396880459066665,-1.0553797323434284,1.5379380962899292,9.636169725092062,-0.009128084012947795,-0.0004592199067057462,-0.007666571093380144,0.30007788480985664,0.04883314224676104,-0.7226683876684727
0.5431208909910081,-0.0020315298248208824,9.765229083899401,-0.001835765508416771,0.0033774611244058524,0.01110503932236327,-0.511781622635586,0.11794642616549568,-0.5019708408944429,0.21269162725775193,2.3619369358264075,9.535647786810419,-0.01066849759367064,-0.0032770181778663727,-0.009586571282569028,-0.9323310477003744,0.40169052552465984,0.6393890681249131,0.05807230573609645,1.900153189177982,9.558776241883331,-0.00829124350021253,0.0035512174255263,0.0029004842728106344,0.8612495068865424,0.2500937846352037,0.6472583363476502,0.3445955292140252,1.910332530369581,9.694523281769685,-0.006459098853951863,0.0027672924273915594,0.007375298815382265,0.2753378843322575,-0.04912985051870049,-0.6425855935052127,-1.0357989734667405,1.540741307803571,9.607901662883577,-0.00902698038579374,0.0004613235574756238,-0.006430095542821519,0.304405715336597,0.05227691967188213,-0.7249556226756464
0.52416768861613,0.01168183284538174,9.727046188802088,-0.0012872956873749984,0.0008919328909294318,0.010644271207149131,-0.5130237658134775,0.11918911275826057,-0.5038960059153644,0.17776953882523244,2.3661672689721516,9.528701244793893,-0.008929056452328799,-0.003761127329660186,-0.010690371466006626,-0.9358247156715622,0.39730163846861144,0.6375601579258199,0.05143203046538272,1.8970555899026051,9.543239365136113,-0.0017920495690857353,0.004698530524069456,0.0025454125905886526,0.855849046196886,0.24672483904462636,0.6473832160786096,0.3422506766830596,1.9127313526092036,9.716238154494864,-0.0008358712975759257,0.00487794489435227,0.0067129816610468525,0.27044282593638197,-0.053507529602327304,-0.642429779058692,-1.0529235339146805,1.4996949166503113,9.593282182771121,-0.00548083738625146,0.007375440353274656,-0.007641940731303541,0.3019571973945006,0.04762765285207235,-0.7263748143207204
0.5157191104971334,0.02362833069012049,9.785449601056962,0.0006784597043965735,0.0014654362359104917,0.011808033920513212,-0.5056794290886963,0.11471642863728337,-0.5006256022970033,0.1785887441368656,2.39111967890988,9.524237456273259,-0.009967609601823295,-0.0028212729292230528,-0.010684798167699435,-0.9315349149520152,0.40417734082238915,0.6422632858136015,0.04472618159898681,1.9168569374351512,9.537070039413118,-0.0001503292711981923,0.0015371699261853987,0.0016424404793636195,0.862492372513569,0.24960493309351023,0.6487037007319283,0.3403052410469761,1.9408232702797497,9.702943664253523,0.003134627030900798,0.005120349052160509,0.004639250905176935,0.2737418568664753,-0.04859482266510252,-0.6379126596811208,-1.0621201000619225,1.5568580656649218,9.652333971497905,-0.004132865905393814,0.008697705762896791,-0.006007806993413262,0.30808711945284906,0.05058600461410768,-0.724548878283879
0.5233092005181162,0.0245328788672158,9.727411701223588,-0.0054647543097886475,0.00020220558031641044,0.010676015419478156,-0.5140084862232219,0.12434193283117512,-0.5067777291863954,0.18423366965942206,2.3774259851053965,9.539601170141783,-0.00925071950753156,-0.0034448687304408556,-0.011933838947421985,-0.9291407421325705,0.3976078388913044,0.6450447663344944,0.0445622143915311,1.9025443660108234,9.538737180672397,-0.004782916267910562,0.003033054146431545,0.0035033556084090186,0.8644993832463919,0.24790379706397425,0.6523406067146764,0.3386317484747111,1.9311324343414407,9.70440892853936,-0.0032866903016207996,0.003818064798432086,0.0072831337387285104,0.2771377452543101,-0.05324775958489467,-0.6381967390323663,-1.0679664614968156,1.5375757744623093,9.709780493150223,-0.007540215878833435,0.005180589830994224,-0.006817372111274794,0.3115960865926312,0.044007620569499875,-0.7219491809988902
0.5361120917814062,0.009030033195895563,9.738592399117353,-0.007801894296089185,-0.0005226727635276186,0.01035847790821207,-0.5085204924685798,0.12303023481911919,-0.4990623420364088,0.17819684193451468,2.359592354704606,9.530322923068773,-0.009041100916396568,-0.0034131197450193297,-0.009086220987060151,-0.9273996602272401,0.4000328851349126,0.6452232446673304,0.043545669700606804,1.9062370144495295,9.526449069898177,-0.010529449190901395,0.004908532033422173,0.003485160543374492,0.8657332873040585,0.24692427742959716,0.6535455100561703,0.33637566487707604,1.9328880571131368,9.726249413847246,-0.009344597468142502,0.0028046666614944464,0.005457319953629837,0.2774193011795251,-0.052747672528020616,-0.6367424236619864,-1.0740022120579573,1.5209614707988073,9.67695578419583,-0.008407832883194617,-0.002355823528958807,-0.006266692166420445,0.30965723425967856,0.04838897971291485,-0.7201911773904133
0.5086904519258066,-0.0007463102647034814,9.751183452177766,-0.006087337229485472,0.0034666595844621063,0.010764872399614274,-0.5102980421953686,0.12086657879904912,-0.5022205580827881,0.1876086400410688,2.369996891235785,9.52430173498229,-0.00990876217109562,-0.0031700143067556886,-0.008530364267229664,-0.935423445381692,0.39979164574842857,0.6274957808511606,0.0317382057874013,1.9138467278410005,9.553971219742223,-0.007693046658363728,0.0016769094235897788,0.0019441229120903028,0.8605565640948312,0.2502656647215865,0.6362819462068379,0.3469442336253978,1.9262262301816964,9.701655762114584,-0.006517170672069125,0.0015322795843158248,0.007470650487515193,0.27506599663827447,-0.04849946227492072,-0.6540634041302389,-1.0553091096694032,1.5297981222630233,9.608896586287017,-0.008693299397286762,-0.0003396160347682657,-0.006038435272325264,0.30466634062162196,0.050341874293058024,-0.7359527635241896
0.5262529454898447,-0.0075305685003519696,9.740281432823302,0.0021784753629029933,-0.0008877712395973669,0.011553621653809182,-0.5058853187463672,0.12474328513568995,-0.5030010513512297,0.17294820143103345,2.3664768550317565,9.516654705697416,-0.010286165771220969,-0.0025029192501376724,-0.011921340484788294,-0.9323432214966957,0.39808025758399435,0.6421441828585106,0.04263123970575103,1.888898245301646,9.528715505694958,-0.004406895686260932,0.0036241249769327316,0.0029990771183794405,0.861535430076547,0.24305115570668506,0.6529181761602783,0.34211103676309507,1.9144639355142856,9.69430302784445,-0.0024595798630885207,0.003626198625987341,0.005253401319333692,0.2730026546433306,-0.056154423716024894,-0.6370948051560422,-1.0571632512677402,1.5353130381565328,9.603111665317735,-0.007257207707086162,0.0046743699919957115,-0.007032315939584855,0.3071915955756114,0.04398580334032479,-0.7223418028137485
0.5306595451473131,0.03347378989725798,9.768351796213524,2.6267301706887214e-05,0.0022613629575562425,0.010389495685693965,-0.5179326682868108,0.12144052304105475,-0.5064880943100434,0.17273399732869937,2.3615031349270477,9.541001398510252,-0.009532572472866974,-0.0023980303934952943,-0.010875022909466056,-0.9271757861646251,0.40143448818638877,0.6420192742726198,0.05332076973163613,1.8974081650582262,9.547789364338723,-0.002014759447147907,0.002568262624247863,0.0014072087489138707,0.8625288268318465,0.25010480926195255,0.6504088751801599,0.34941455479995065,1.9256048005930153,9.711029258130523,-0.001052670029327168,0.00542458810080065,0.005470921471380149,0.27764651562431897,-0.05251002800343252,-0.6374831993878376,-1.0426770055871117,1.5221112134648345,9.648874637685035,-0.004189829746644318,0.005975407182631961,-0.006649791853575928,0.3076470931315794,0.04618673552404125,-0.7233256226647314
0.4999049875922633,0.019318363759909557,9.71797279734035,-0.005506153550102533,0.003452603756101402,0.011816468312742509,-0.511848492322619,0.12115586712487875,-0.5075662630566385,0.17319901506513719,2.372880432832938,9.539060202006695,-0.009340655413037769,-0.00417414392136385,-0.01047361217434699,-0.9291791887268228,0.39299872575024813,0.6465977849796924,0.024289656807366528,1.9173334545382161,9.549874931052331,-0.0031393291339766585,0.0026256589031335483,0.0035533500971563297,0.8639051704040953,0.24227219520172386,0.6494604246782163,0.341326071937653,1.9457931258718923,9.711786141490467,-0.0018613759622011753,0.003582172089653747,0.005135453207599633,0.28007978925372584,-0.05642324295659188,-0.637261652158554,-1.0895503121684889,1.5473663281338164,9.659065151812634,-0.006061152962318798,0.0053728206288908295,-0.0072472572230561265,0.3101756614658233,0.04155595053775368,-0.7204566929706064
0.5230109557142504,0.011018904411934899,9.734111927821173,-0.006412098108144408,7.278423425310986e-05,0.010480611113230712,-0.5039444025959631,0.13501737299413788,-0.5085834265781375,0.17914789799572667,2.3618164045533363,9.530634629082183,-0.010107179596134927,-0.003197653388450086,-0.011365189942047053,-0.92758646914487,0.3932716969153702,0.6363171200169444,0.04056523261765435,1.9164529836480946,9.549931544259467,-0.0066453835676071275,0.004062121824882558,0.003267100934955938,0.8645096830216813,0.24221789843448513,0.6426120817139477,0.32170198259631744,1.9379571740392612,9.72037739409995,-0.00517566698929506,0.004531727636766476,0.0069928762209900686,0.276924638775406,-0.056008279605580656,-0.6467149762234782,-1.07469845792563,1.53304132751397,9.688023548397911,-0.007445912313441415,0.0015721104504444069,-0.005628528808858049,0.3104561624359796,0.04279330067218506,-0.729740118946536
0.5462427120758506,0.00270651621951825,9.750242924191326,-0.005488569159233501,0.002371738045687071,0.011442273035850499,-0.502788819539187,0.123034757847665,-0.5069689752625474,0.17639988568775794,2.3653330217447266,9.523793082628021,-0.00893076223664966,-0.002674619377135362,-0.01052185867895423,-0.9311661371107551,0.39679840153395474,0.6397118252747347,0.045637387623172515,1.900187958225971,9.543834438255987,-0.007993070803061433,0.003828901717606977,0.004909354720750296,0.8609362875764273,0.24593336709264818,0.6455838700041939,0.34740429085849356,1.9226611445152637,9.71168458231106,-0.007808987681221574,0.002202901643763451,0.007060460448330124,0.276516671878555,-0.054758526676417334,-0.6435412559101674,-1.0312809518651282,1.5109179267977444,9.655232308497055,-0.009232331846035917,0.0016422371156257802,-0.008886458290046273,0.3075474367271717,0.0449730504024805,-0.7282094292770742
0.5111194718134593,0.01503488574303359,9.729563572669528,-0.002683216726104134,0.0013861045661714083,0.01092020563599394,-0.5153209135658069,0.13212920241780657,-0.5010910991777208,0.17374840189721896,2.382396040523809,9.514491566200405,-0.010447820389767538,-0.0018009982745593026,-0.01245682785937865,-0.9268253122117835,0.3947458224109768,0.6372574243008955,0.04493599456483385,1.906546658511649,9.55532360177883,-0.007314716587017615,0.0031882867334595186,0.0017574521207860561,0.865807552065071,0.24174946291309843,0.6469868586349478,0.34972191307241124,1.9274327406078438,9.689074595933292,-0.004283171009229388,0.003139793989189787,0.005657429611682729,0.28087979958409254,-0.05697948937228284,-0.6446032372323877,-1.0498727609128833,1.5355727135386015,9.59780671893896,-0.007548696898032853,-0.000856432250879874,-0.006884226096031566,0.31098076481179354,0.04181663018939871,-0.7282886107256347
0.5131506733865638,0.028283446474745545,9.743453559412055,0.0015599818365314253,0.0023756140683682406,0.011648406091301203,-0.5069161707875184,0.12550596301481842,-0.5066419665551232,0.17663094943204638,2.3851391867416836,9.54378172221803,-0.010220248006890725,-0.002851633026988724,-0.009760989691472547,-0.9303958593992568,0.4009199067887174,0.6386484501376672,0.015964506957266394,1.8955806915363014,9.53685517607169,-0.004555553231127274,0.004238952189165993,0.004323849337838992,0.8631599061619691,0.24689713674643385,0.6465125978655586,0.32081194552737513,1.9209994688208716,9.70113853060072,-0.0024348259894670567,0.006677788167994975,0.004417524825555831,0.27784516560807293,-0.05033343153262386,-0.6397049374433288,-1.058281066204152,1.5360057902627575,9.586642047887835,-0.008021216454902782,0.00711449685609765,-0.005154659549201429,0.3068934964612376,0.048380678268068175,-0.7237941141741331
0.5400286368104495,0.02192099373412877,9.730577027607735,-0.004020586040965729,0.00218520067575736,0.011942232408300432,-0.5133298916314308,0.12043878450677435,-0.5082787640086829,0.18539890387469588,2.3683364362677057,9.542739013533476,-0.009329466136310036,-0.004170052931027064,-0.0104618196392347,-0.9260781021462261,0.3935623074851752,0.639712537442552,0.06035788721456729,1.894035202679365,9.520650321258278,7.377014253849597e-05,0.0018257773521088093,0.0021463236071469736,0.8668341286888909,0.24321909281354992,0.6489107326929686,0.3449860101202264,1.9426083194089012,9.730972080646346,0.0008363445826248382,0.004707943102786781,0.005763205139506702,0.2775720780769311,-0.05741441478119232,-0.6398797843301407,-1.071519289344659,1.5209850538135732,9.666410490618068,-0.002087715201819754,0.007880490862130048,-0.006863575890742049,0.31153317531935576,0.04181476001118978,-0.7253699020842029
0.5286140558012803,0.0328453515128376,9.775486255095053,-0.006936815177436798,0.0014823497295709234,0.010575115671864943,-0.5167130325468402,0.11922806374764226,-0.5055448596961859,0.17994298059925523,2.377494955552118,9.528543119523954,-0.010541863349030957,-0.002534317941747152,-0.011001476978137812,-0.9287400297265314,0.3965060566128221,0.6387122601656487,0.04278161063572736,1.9172281650274683,9.554413434520292,-0.009107016729339897,0.004208495384351459,0.0030302445266703697,0.8641470420326663,0.24713564783232528,0.6469804987468247,0.33973351102155697,1.9461845053658866,9.690194729822394,-0.006553556160669794,0.0033498402027407077,0.006727189328764954,0.2791876108538708,-0.053797470831912754,-0.6443458711311784,-1.0645639021297848,1.5607992256012984,9.670051036119592,-0.01095482431419508,0.001663455922331705,-0.007638782667387512,0.31018668732327226,0.04572273790626116,-0.7302190110588533
0.506650190939578,-0.002742724804470513,9.715801648760001,-0.008724827367079016,0.0029070858116527236,0.012063527075377107,-0.5198479847811721,0.12266562544209828,-0.5047398329355959,0.1532826488695972,2.366999008806124,9.520073494209345,-0.00994212431815346,-0.0028119767011442983,-0.010653269126169826,-0.9245757772664519,0.39863310549542186,0.6376452538396349,0.0364226580479918,1.907849945486994,9.551670604733813,-0.007464392688020076,0.003803116069216337,0.0030812432495830166,0.86899314737008,0.24513157475345326,0.645926278108992,0.31051430492072174,1.9145565181171853,9.737117411144254,-0.005386196219995702,0.0026442762824540086,0.006538469103831203,0.280380480406371,-0.05308059117356441,-0.645602139727524,-1.0600580640434638,1.516948201159677,9.632901025667909,-0.00768627246329338,0.001784570976062344,-0.004807805637857442,0.31148712660552696,0.04669914889705165,-0.7263378327261519
0.5181898546384571,0.024020726885169784,9.728049020697403,0.003005715460293855,-0.001366169487594539,0.010255902910174032,-0.506528748480419,0.1201546869606297,-0.5103447701615582,0.17721536923158743,2.378473990961192,9.522347485989378,-0.010364936645507496,-0.0032310837748871653,-0.010448264256529729,-0.935351302485735,0.3972725581798136,0.6363337732829414,0.029814653727962825,1.9179198316791986,9.534720088694986,-0.007616680949811647,0.0025822999994620575,0.0037677462788190254,0.8611588834797334,0.24762642830207224,0.6436144993420345,0.34240242072647253,1.944315574867742,9.699815602224632,-0.005298076831950141,0.0044967964660445345,0.006395917559328179,0.2725697490808999,-0.05159042000972251,-0.645672645498627,-1.0691554421912954,1.5266242742827325,9.649533675659796,-0.00822583433505482,0.0022584195581335596,-0.007668073721064048,0.304377361007802,0.04642101595114678,-0.7276493956143918
0.5364615831460291,0.009426470581475069,9.766256446890326,-0.0037067952089957627,0.0020346687681310617,0.010345917759317348,-0.5077706988673554,0.1257110201467169,-0.4993016108870763,0.19131147792688907,2.336544662768835,9.538515953046831,-0.009766197315809976,-0.0035077494333005206,-0.010101063553004995,-0.9328238041711323,0.4079126075450831,0.6324395116360678,0.05260925139231548,1.8691332463556432,9.544084996104445,-0.0054467111576647085,0.003990823512745278,0.0026289677166314207,0.8596950375567283,0.25639925377989503,0.6394300120079199,0.3471682071282655,1.8884057052445726,9.735565220092417,-0.003532516285018747,0.0037462060547555575,0.006089258156080275,0.27500136160686767,-0.04184855190503326,-0.6475266099951573,-1.0216199473040597,1.5267157082782516,9.64382074028032,-0.008074895667648307,0.0028822277063606278,-0.005817977260636359,0.30476880818839946,0.05619266994956948,-0.7298417980044453
0.5287632638569941,0.01634835827757397,9.732671700920664,-0.0007112744404489457,0.0019584858259155233,0.012095862182583433,-0.5148024278810447,0.11996360412354619,-0.5085018012185119,0.19539330798272175,2.3828387686631882,9.536653379333458,-0.01008883629345681,-0.0031904599063167114,-0.011343538681999292,-0.9309287338197295,0.39199677337346645,0.6441959368574025,0.04505522355705566,1.9374358452072526,9.54470700139398,-0.0038050591682229355,0.003586460191378391,0.0026809778107960277,0.8651725731797943,0.2403320390379973,0.6528688346102085,0.3511165442555907,1.9508490001509147,9.695320003355906,-0.0010463452891749706,0.0029855203231862423,0.006261618236180106,0.2792783675733891,-0.05986013779623977,-0.639654848588329,-1.0778889768971374,1.5168988244589698,9.627607332935407,-0.0034905842346134026,0.006858938050080507,-0.009113215268291766,0.309165266341885,0.03984488156582059,-0.7223907983624632
0.5116940767314414,0.028752720539735238,9.750549368882172,-0.002817964230364262,0.001864165432003077,0.009795260784609686,-0.503994775336819,0.1152021150385377,-0.5023592563732024,0.16543507930191176,2.3510700191990055,9.52565867457206,-0.008914442426248833,-0.002667439184736824,-0.010502183602700221,-0.9326183997613298,0.40258155069061846,0.634736471113921,0.033802444820985295,1.8940301751185018,9.541675083706515,-0.00597375509136832,0.0030942525113337414,0.004137411328893456,0.8633670740232423,0.252477225854719,0.6418298882844664,0.3298416824175297,1.9240889804455605,9.706637120839634,-0.003532516285018747,0.0037462060547555575,0.006089258156080275,0.2754697090595781,-0.051611504317919346,-0.6469631990907001,-1.0456993247634074,1.576672524353601,9.635833630365969,-0.008026152208603213,0.0025864932239308322,-0.00520833212524832,0.3065212714947787,0.04863217909614772,-0.7296460496580409
0.5378599832286347,0.0016181557370573488,9.730368660367619,-0.001069130685610044,0.0007252948957751551,0.012564951766371788,-0.5032661673480435,0.12401291752975771,-0.5067109525780636,0.20483354867498638,2.3910857074913148,9.531224808468371,-0.01016293748121426,-0.005005225929330837,-0.01004200946769543,-0.9335675674017843,0.39425849124525053,0.6458939579393305,0.07232632145775755,1.9120803034533462,9.519409658200354,-0.002316704183475765,0.0019602899573111614,0.003419516780121264,0.8615814719235501,0.24258090363430826,0.6556071276542159,0.3500184702522836,1.9498547179908956,9.695560131383276,0.0007783106887853228,0.003469948100031566,0.00586058296202774,0.27425085432489604,-0.05663588412999607,-0.6358999920222348,-1.0622974145806163,1.4866778572374015,9.685537778322294,-0.0047736136098284875,0.005484769954849274,-0.006241770393601718,0.3038407790489766,0.04445151848131025,-0.719093683048055
0.511149634674753,0.03343157598230614,9.800064480510791,-0.0004767744977182386,0.0025849815671027646,0.010117707268747425,-0.5122068606372459,0.12600577386692594,-0.5019128127168445,0.16618700213699922,2.3571579679493535,9.548142202099191,-0.01139730026889987,-0.0022900195388812156,-0.010427783709498257,-0.9250200925768365,0.39918699961095205,0.640814851481882,0.02161805807146841,1.8926942791525754,9.558212439223839,-0.013652565574970299,0.004176956224750751,0.001732535401558043,0.8671089070295227,0.24614838245009676,0.649129207150832,0.32962924951652883,1.9316314818947624,9.70568112076047,-0.014376137938128423,0.0030959754490257666,0.005201932621914125,0.28092346636961685,-0.05257388011204833,-0.6434218963594903,-1.0708955785376937,1.589156768373614,9.629930228889654,-0.01417706631258989,-0.001772380937408265,-0.009902583581123699,0.31003525457036485,0.049375771803431084,-0.7250820547160883
0.5067690234591109,-0.014236623523740728,9.679971371827447,-0.017728689260522162,0.002357539530399038,0.010707639584261894,-0.5057481972979214,0.1176818816916152,-0.5062225403095199,0.20164949192290954,2.3512346911289015,9.532366667690098,-0.008442437321063406,-0.004402015999056106,-0.01099811248460252,-0.9324477171516358,0.3979140277962602,0.6333573763102948,0.02693882498214764,1.879304371430657,9.57581638459642,0.0011188603254383327,0.0023713724820120085,0.002836041276800505,0.8580029661300805,0.2444995014306326,0.6461370377506278,0.33726936546819336,1.889411007586522,9.770562315543183,0.003891750761440895,0.003280755622574085,0.005868836473763156,0.2730270143966082,-0.05379768044745213,-0.6466413517446499,-1.0411290503222086,1.4620228079082072,9.624852598696636,-0.0026046706600944625,0.00884393676429225,-0.0019217594182527218,0.30409356128015863,0.045934689868168795,-0.7295974288932668
0.5599403754826944,0.024195114748952272,9.796743916658514,0.009691302838144103,-0.0026114515489379687,0.010932107761403085,-0.5070268671374268,0.1257007533100357,-0.4985806934510158,0.22644873191916526,2.406595024024598,9.503503565512997,-0.009352161573151514,-0.002005104505097011,-0.010140416107503077,-0.9309777827174363,0.39383382968621855,0.6380562427844529,0.08624213809669276,1.9690154918918186,9.501353083116822,-0.004401950523649396,0.0036180799133220124,0.0029990263967092047,0.8611701477694168,0.24276516460774744,0.6465787551356558,0.3413702363445619,1.9975053187428107,9.630181804834955,-0.0022727767567940244,0.0024560749075019255,0.006545714007082516,0.2738527944809991,-0.05742317989429143,-0.6422325651754008,-1.0926057885322338,1.5727920303718597,9.664726739478029,-0.005480154927145993,0.0035889984959168696,-0.014873322452323286,0.3071423808451184,0.04325646327551854,-0.7247844026541176
0.4958880225608101,0.03238370992772859,9.732549340087212,-0.0005988722799441822,0.0076930805225731095,0.011261251842735812,-0.5083426521403834,0.12427869979579471,-0.5036960370004393,0.13668553938089062,2.3314991007389025,9.559598111042892,-0.011966860550842546,-0.0030896282228892596,-0.010914010033027026,-0.9305933845800809,0.4009967760109953,0.6425563200082755,-0.007553113081090301,1.8434981806323762,9.592228669908309,-0.011117838433026892,0.0040156897890841915,0.0034774257856861742,0.8626314321962544,0.25135975353567747,0.6552821817587614,0.31089263828760927,1.8513813591073545,9.77438771471085,-0.009101107273476074,0.005312579290360459,0.005860430076394913,0.2762241999769076,-0.05029502126870962,-0.6360033269729785,-1.0304462943915362,1.5637197844986708,9.597393457685227,-0.012227747978480459,0.0005260979103695166,-0.0008772840836763741,0.3096494513977247,0.048878337380449804,-0.7204343347474571
0.5215519708779044,0.01867442173502678,9.712737971431139,-0.006225187074756692,-0.0036329809251096235,0.010501076920110234,-0.5050439146314292,0.1223387903079934,-0.5101110994339747,0.208659626761622,2.3899275091818812,9.515334258504605,-0.00860915082589392,-0.003701109080275694,-0.011537521511698727,-0.9325926965810071,0.39998956825178034,0.6396684195507233,0.06848464393788212,1.9466554126723523,9.516246225045206,0.003133269273483136,0.0016407893743352706,0.0020671622792889136,0.8629312703361541,0.24860824294032582,0.6465049655409889,0.35431149057864536,1.962025931882424,9.681322142660003,0.00599230503848501,0.004447567505256515,0.006616538793956663,0.27532458416112154,-0.04962315705953307,-0.6430700661692709,-1.0753555895070688,1.428486145238821,9.705677713954374,0.0003429556731160977,0.010501581708708421,-0.0066553143443114846,0.30533169058163845,0.04667148460438397,-0.7286469498827134
0.557656008092223,0.021359041283943225,9.839352704999964,-0.006139874221975266,0.004265258311557481,0.010418738122921292,-0.5104370862513289,0.12768300072636946,-0.49900159103430064,0.19058541748222266,2.3621905204255094,9.52894414651492,-0.011387123049492215,-0.002287896858333581,-0.01041494165232578,-0.9277370866843059,0.39629629986405845,0.641145910378888,0.052022098283302565,1.8927060913100608,9.546472243259968,-0.014692391713576284,0.004546640627897177,0.0013604049895489753,0.8663868613029178,0.24469864133875574,0.6503741130423671,0.33546581574168444,1.9262770513618481,9.70311116621465,-0.013472043407330554,0.004356813575897632,0.006182478539863725,0.2807670741710341,-0.05254060775654696,-0.6397552610584846,-1.0535452945280044,1.6607400934691583,9.649316576870868,-0.013806402612846574,-0.0015998573084173163,-0.012788044552811307,0.31272300752846605,0.04768093500573861,-0.7253869387356857
0.48633352680077035,-0.00475347983436205,9.641875843952205,-0.011203950352868699,0.003762986444062092,0.011006211451369555,-0.5008661754664837,0.11813391078598111,-0.506543323001091,0.17023897129909846,2.364461094369293,9.554128393827142,-0.00972384116715397,-0.00457997623582133,-0.010229319705399456,-0.9357513832201141,0.40220649070967834,0.6386878000875298,0.023175353840705876,1.8812783253337673,9.528052703394525,-0.0016477267367725776,0.0019107936153595565,0.004610542089649106,0.8553822299291882,0.24868385680941632,0.647622377048356,0.33650692931890847,1.9062695964680652,9.715299348982915,-0.0003880355228672585,0.004172517501370782,0.006050305788449676,0.27133801732122426,-0.04963971500261036,-0.6463937043363329,-1.054847292357362,1.4542499768720347,9.597322934929199,-0.00589769472826378,0.006478183877772831,0.0023991291207381468,0.302395579304933,0.050073675497284004,-0.7280900695552898
0.563247830046399,0.01865626132799368,9.823922039792574,0.004548986796800057,-0.002342741180913555,0.011143686278866187,-0.5109127205481199,0.12459250167062166,-0.511710370582398,0.2005537979839329,2.397376330981403,9.518760604316949,-0.009645573478799546,-0.0027610711695906275,-0.011520974275708381,-0.9291788468940215,0.3951536146667698,0.6443594660478593,0.05566031682815281,1.9357283310205895,9.521954253229998,-0.0066398057152351544,0.0031377150046467597,0.0029453729158707828,0.8649391484962331,0.24252771286906405,0.6523698172310796,0.3550060339270161,1.950203569434163,9.692455811447925,-0.0031168412707270198,0.002432224814507154,0.005467751452360323,0.2761034819010665,-0.05863022152324185,-0.639833901455091,-1.072161774072559,1.5208481801038483,9.639373830451508,-0.006730199301253853,0.0031922715501987815,-0.015277905933575897,0.31111467419049,0.042540132893509074,-0.7219409335823449
0.508748100951368,0.026802916824879293,9.757733141510586,0.0012475291279340586,0.007651833006861909,0.010919833501938331,-0.5134874536819539,0.12089714280698566,-0.5031455041410293,0.16442725721027318,2.3336373559415904,9.523959943756076,-0.008103573959140803,-0.004714238305685861,-0.009741922668854396,-0.9289282441526803,0.4004279020289727,0.6393724872944518,0.016494183481612607,1.8960883665485566,9.558767088604865,-0.004249321575987808,0.003002209432974787,0.0016731866794837042,0.8656401617677243,0.25029612062874823,0.6469304371862149,0.3146780522726175,1.9161857880025859,9.712145343696202,-0.0046978801026674784,0.004450763006164136,0.006277939566762473,0.27676281372259776,-0.052319653036885475,-0.6438128172531598,-1.044529924911751,1.6117942618541963,9.640644898590278,-0.005728619531992398,0.00632561606576027,-0.002941026461334673,0.30924421698718113,0.04937602410919252,-0.7277505324616078
0.497328530372114,0.013664162702953779,9.703319722523089,-0.004553449834557053,-0.00399290899435659,0.012899905672793062,-0.5052331021506458,0.12173694644473627,-0.4915539901481288,0.19481166887851895,2.374708804180842,9.53366731462079,-0.01023917054104673,-0.002482278228186041,-0.011858273880680711,-0.932821954738522,0.40121325145570125,0.6396479961902068,0.054714480808114876,1.922064010708126,9.547749392803599,-0.006039640069559887,0.004020400032180295,0.0029459559418652734,0.8609956720728694,0.2464427510319339,0.6485097925055565,0.3320449433994884,1.9346961459707595,9.724205266062349,-0.005571985597268687,0.0038114054819919406,0.005247159017570563,0.27489791913747347,-0.052280387039419875,-0.6401053815668915,-1.0595466430102547,1.4082309271672833,9.672972928807011,-0.007745317006400132,0.002080275080532257,-0.005431230713170396,0.30467989159093295,0.04446601736233207,-0.7254613602481321
0.5674012865404925,0.030700853611360622,9.851396871364017,-0.0032144423767334488,0.004966957798740573,0.01179869948054405,-0.5117709572536827,0.12137044967370514,-0.5029264570647004,0.18621044893249206,2.386917384000013,9.535917233561324,-0.009194581804870643,-0.0034172453372853678,-0.01186601191379577,-0.9404160415863826,0.40102423632083767,0.6377883959036008,0.05419662454728788,1.8989999739488614,9.538338935946442,-0.0038020956543616,0.0035824331794541034,0.002680950232628536,0.8546650835413764,0.25185920299724657,0.6468815655703939,0.34330950546777533,1.9387144159592962,9.69803392263659,-0.0017979857020195033,0.0023761207528824255,0.005830840040942204,0.2667971759981075,-0.04885589687682535,-0.6423837952071922,-1.053031135848621,1.6031739097663273,9.635601157965699,-0.004522064444585486,0.0029979233834941843,-0.014281840551753635,0.30073558996372335,0.04884200550023947,-0.7261014465630032
0.4743433590261047,-0.008866447359820381,9.643977588196845,-0.011197734564179926,0.0037718828793126074,0.011015167868667219,-0.5076662303620395,0.11547886733506685,-0.503030743650929,0.18596800292273075,2.357499982437928,9.541277836723973,-0.009887471720506018,-0.003877992896416421,-0.010762784262054941,-0.9338721092908027,0.396559708681984,0.6382831555147035,0.036805950731401416,1.8973736787684563,9.53875981860899,-0.007614139993350976,0.0016579065177219493,0.0034440747872466837,0.8597307526541983,0.24254370069545286,0.6480716186384035,0.3345338405190203,1.9261051153808892,9.681618982654044,-0.006584868098250102,0.005168409796800537,0.005986598892608751,0.27188787015372284,-0.057664648165781006,-0.6426726009261552,-1.0536601502019518,1.5486466349228145,9.632667615212759,-0.010885739333984575,0.0018413326396800973,0.0007569684686892772,0.3039037940807358,0.04568579364481013,-0.7271521084480038
0.5512444554839993,0.013676181349680572,9.826051507219969,-0.0012351269583919897,-0.0023498150797206857,0.00954670411648809,-0.5041617642048085,0.12766211095178012,-0.50349872754877,0.18051371857370668,2.36664087496014,9.527155274911847,-0.010482104307627756,-0.003599244426659941,-0.011103071459788456,-0.9239917003694527,0.39470903666112134,0.6499225910086656,0.041851995597858294,1.9031687484984983,9.542248411596093,-0.005664884397647847,0.003696154963837553,0.0021240153588392473,0.8711683225074692,0.2444669246382197,0.6580995165994677,0.3327509342294702,1.9228955102837078,9.735312460277337,-0.002305050478924289,0.004271665848986992,0.005807173595150152,0.2824594706192404,-0.055630988121772314,-0.6297551102866048,-1.053931959875773,1.4446841198675633,9.69411665693749,-0.005945470990324372,0.004255732792344549,-0.009326926294518178,0.3129870372934766,0.04156096865401642,-0.7146572751744655
0.50903576474014,0.015013662633259352,9.721907240361418,-0.0034370340209342798,0.007302830241228265,0.010667962158104156,-0.5071053859443737,0.12279356426910816,-0.5020163668460385,0.1719781348334669,2.365194216991065,9.531820283050516,-0.009286732677267113,-0.004154683091875627,-0.010415606875600766,-0.932906853248958,0.39652926286610973,0.6372960087039514,0.05248159453573509,1.9111761832299246,9.561463924975698,-0.004177208606919183,0.0029873326161507234,0.0031822391636648515,0.8596707609708873,0.24349512005759497,0.6444033799336195,0.32841846372992156,1.9362385750812268,9.69313220315176,-0.003025681537290566,0.004282752271772728,0.005327145503318313,0.27570841163826965,-0.05673480778212721,-0.6464353812314325,-1.0668361873002776,1.6233118242395286,9.623775797756084,-0.007193441915582461,0.0038530132034391984,-0.009729563230755252,0.3063099956897343,0.043259639391667895,-0.7294054407263889
0.5074040794274446,0.008226065237621254,9.714978759241067,0.004262408670511674,-0.0043589107131346335,0.01199670937050936,-0.5109153086602573,0.12841815843676777,-0.4987440944936625,0.16953835682663465,2.379537471747066,9.546367641445835,-0.009431016450967288,-0.0027383055858832403,-0.008669244097376946,-0.932273295785326,0.39986731381363955,0.6462605795142006,0.03474275000700333,1.9070220387073094,9.538093187330714,-0.006859658786844989,0.0037623963344322713,0.0027591100287431367,0.8635570622980959,0.2476813038401091,0.6543132422602693,0.3203743396080816,1.9182817876210805,9.708638485530964,-0.00517365355144585,0.004528729610714272,0.006993854948642522,0.27692863370958065,-0.05152717283119234,-0.6369855777776836,-1.0432846858458573,1.4928180166379812,9.646807548338545,-0.00841597402896254,0.005430891061110615,-0.0023079435491746396,0.3079919325301408,0.04715767585856629,-0.7184474965228619
0.5483079255395491,0.047316542206800365,9.82028174004199,-0.005035041702948864,0.003930201963829953,0.0117778085216679,-0.5171591666939358,0.11652119253351165,-0.501648147549657,0.19292474912130614,2.366873498058582,9.52967694523935,-0.009954832458336433,-0.0024345084127660515,-0.012740778214639117,-0.9354492103722212,0.40325412458940035,0.6425713623471125,0.06208441520189292,1.9043201013561846,9.522288574082642,-0.004995879219183641,0.0036476655242056073,0.003316033330781053,0.8591111496165885,0.2511084194549443,0.6499779540355992,0.3480210033250216,1.9453827558902919,9.71578303668507,-0.0019375282517471236,0.001934403909997382,0.008387916713145677,0.27169122954110514,-0.05008748342899966,-0.6417576774205292,-1.0727494839698586,1.4969994805590934,9.691926347214274,-0.006903116934159668,0.0018388402976574612,-0.009963923873305589,0.3056647050397748,0.04788715075216822,-0.7242563167634691
0.5078136741820971,0.021841309577315685,9.672844937022957,-0.0029606401653329106,0.0004683656821969846,0.012184104989664104,-0.511703381817359,0.12697588510559216,-0.5014267980436724,0.19284653910785798,2.3752510502826123,9.55163690769213,-0.010521976583634603,-0.0014402561314605052,-0.010790353147568226,-0.9301061001774508,0.39692033425921536,0.6467786796039635,0.04434584178806031,1.9408675997993234,9.554679405513632,-0.006488543645091262,0.0016035009505716076,0.0012978933189063556,0.8630277252970064,0.24815769968102072,0.6518783715569179,0.341533520949301,1.95213058427077,9.696546130370063,-0.005509674189100251,0.002610322017015615,0.005938526357392549,0.2747322734151208,-0.0515194677221254,-0.6369331269605847,-1.0626645218814512,1.6129877714443126,9.602076787882012,-0.009770908489885679,0.0008548873910684541,-0.00789372236849461,0.30816804921311997,0.04716367613434567,-0.7216260571893691
0.5424422396405231,0.017216014923775773,9.792543333522907,-0.011915279616513449,0.0013164841368236786,0.011958447314672202,-0.5125132451847969,0.12260474928502489,-0.5041277143630416,0.1833207816771661,2.3249999930846963,9.518366277507788,-0.009875258808271687,-0.0038738763478218734,-0.010749003884613622,-0.9304314929609562,0.39583576252815145,0.6409426047503809,0.04519856286089163,1.84887177617232,9.552697020343874,-0.005815897936468742,0.003389661826457583,0.0031291874176589164,0.858038387565294,0.24743171658786706,0.6466050351796928,0.3342732737620884,1.8683269106504934,9.739889607578597,-0.005985664488535055,0.0051243797533622225,0.005868626907038961,0.2758156829772553,-0.05425617315140599,-0.6423075454513631,-1.0182399041006216,1.4368313808564603,9.62717018825118,-0.008027378901737157,0.004330237362558686,-0.0012997762699195313,0.30641028016629535,0.0464255673367789,-0.7240306141924322
0.4969455462145554,-0.02046347300033218,9.765762196036228,-0.01222357899595334,0.005515114519063232,0.010827914959552754,-0.5029458372962706,0.11932993469783253,-0.49990881868833276,0.17232699745382163,2.3648424460297326,9.555933806436013,-0.006272471374878059,-0.0033583802584874743,-0.01212593216584758,-0.9335052310805343,0.40297699644194335,0.642065364814135,0.010558841973145383,1.8914539273687376,9.57245454653782,0.0002942307340551118,0.00027574866078577823,0.002012958755467245,0.8611165015069815,0.2533004187477033,0.6516343669962588,0.32081452281566636,1.9281848296678195,9.738643049566528,0.0012248886851020666,0.005202597550962064,0.004410098914064452,0.27369657789627,-0.046417370460742506,-0.6401285725206939,-1.0570796231877555,1.5047157388695884,9.674928090428496,-0.004102223005775863,0.007652417725651059,-0.012592589065121784,0.30712281485772724,0.05228850957535272,-0.7235491885796393
0.5285894219686678,-0.01123920525246383,9.681733870789474,0.008720000811617952,-0.0006023769253414444,0.011508767565869008,-0.50806205240415,0.12475241487650733,-0.5017443106337754,0.19677293221921632,2.396591484755153,9.508150752646435,-0.007161019852320458,-0.005305224931826708,-0.008140551830029496,-0.9322160257585034,0.3938211014358568,0.6366058434729215,0.054142194994811765,1.9510371029201643,9.537670232837579,0.0006762862387808348,0.003620811191403896,0.0024705702255633155,0.8585211832331635,0.24328946040706487,0.6483341815227455,0.34474639282609837,1.9707661831017478,9.70318852259833,0.003353966034639735,0.002112759319764984,0.006684295990994803,0.2730966536202878,-0.05742925775006217,-0.6431917481915307,-1.0861496402469881,1.5966607948856169,9.670631815252795,-0.00076420844039647,0.0077086194158538165,-0.005235145954139995,0.3041611059855062,0.04202546229954035,-0.7274072182802309
0.5404561167909713,0.05856202179969969,9.793749981956603,0.022021592690671422,-0.0004640480335594492,0.008962379025053374,-0.508603807619579,0.11694046357512695,-0.5012969269601606,0.1967767219045682,2.3807404079693337,9.511089238543684,-0.012103566519868617,-0.0005893417570927196,-0.008972188963260996,-0.9320519808956903,0.40341919091439343,0.640574351082211,0.05898338047229097,1.9323937364744366,9.507718251922405,-0.013944452138338306,0.0044801551847170615,0.004053367499061126,0.8602930179202402,0.250839719478453,0.6480032437693937,0.3391439133884807,1.9643332491821783,9.663886619523064,-0.01319599422225566,0.0026120707333032772,0.008112951865407298,0.2763270689396133,-0.04888496816516878,-0.6421232565658502,-1.0654635205111915,1.5400903856779944,9.645108702191132,-0.014212557530882419,-0.004261762983023111,-0.0066847741702986034,0.30831703672060695,0.05229659808979019,-0.7247963656793948
0.49345496004596406,0.04089928773199415,9.711265731054478,-0.008024325568830402,0.004024299911352928,0.010033876887270416,-0.5090720981786823,0.12305874092120621,-0.5029597640744651,0.16373254613209057,2.345258349326173,9.564086425327146,-0.013244805690974885,-0.0021887237219663964,-0.009954615797569535,-0.931654991143355,0.3972830470825678,0.6392203484929632,0.02037714988543668,1.8470484718161284,9.585544270748233,-0.009090929560877271,0.005114640662289894,0.0033426912233735537,0.8629250094515518,0.24179310047094976,0.6494821674023733,0.3220132792119112,1.8784613031480897,9.76435290922278,-0.009037810176673744,0.004114483330122178,0.006550747067057254,0.276343585780261,-0.05448774516528191,-0.6406085625106105,-1.0325312961861135,1.4984156317568749,9.590911541595611,-0.013692275571679242,0.0012982519738872975,-0.0037470523723980185,0.3066414283501547,0.04374368213178647,-0.7252609248297679
0.5509804301161867,0.03046173016981126,9.748520347242758,-0.019094508942179643,-0.002212583233837683,0.013367346808187557,-0.5093970194427885,0.12137800487047132,-0.5071157560739631,0.18783761854621478,2.37623563687289,9.516531077434843,-0.007109061494955323,-0.0041956672500476425,-0.011714046909066963,-0.9350430877965151,0.3997663602625819,0.6392136612802999,0.04581823367773272,1.943865317267786,9.522973520159294,0.0003001922750812381,0.0030257266874741118,0.002972877664938215,0.8570371078167511,0.24572830373735188,0.6461466090396686,0.35625075391297456,1.9808315194111088,9.676410720318042,0.00533315139676426,0.0032426543196099594,0.0068370329926588985,0.2716906277251124,-0.05203823496909671,-0.6414963097357891,-1.0770775152021366,1.5092187544317686,9.646977836085684,0.00017833402249094405,0.008387706528060604,-0.008520344486906133,0.30170174447798487,0.04884774834021745,-0.7266115078086993
0.510125713594577,-0.010883141834673912,9.791289933432848,-0.020292694386834682,0.0072884237203118775,0.010435658301981876,-0.508990870582807,0.1293930467692951,-0.5009676321760869,0.17599356235623495,2.3373121894838578,9.544594073752448,-0.008696186051825452,-0.005138766169328111,-0.012342496644075112,-0.9249296081058694,0.4024433172932537,0.6451482691530098,0.03528811867868162,1.8700747104103908,9.559107608991365,-0.009318697236533292,0.0029903760185289036,0.002198539306365482,0.8647929100943107,0.24986635880711144,0.6540307603745326,0.3260192026082497,1.8753172430660536,9.752070992192316,-0.007516324381158988,0.005733100361760553,0.004262305484028095,0.2793648939600772,-0.05129390816959818,-0.6372899781546573,-1.037192361551651,1.5575994223838867,9.639063431004814,-0.010361771506445636,0.004887195295270281,-0.00743377578314677,0.31037200471554865,0.04985844841512916,-0.7206925983000572
0.4997819894695934,-0.03900320700053726,9.693930439271808,-0.0038232286374389607,-0.0015198124622770365,0.011989536766087924,-0.510548532292661,0.1169523660865908,-0.5007770642127671,0.19190171802172826,2.40448639411193,9.541484667875379,-0.009290378883880308,-0.0030690368678140973,-0.010241053212338501,-0.9396308928013107,0.40109836784409536,0.6421737533465648,0.04498510598776859,1.936677780314757,9.535929839999472,0.00499510729929575,0.001522111849052295,0.0026291505448522577,0.8539753525208602,0.24750177242714586,0.6513197656499409,0.33833997822903866,1.9646456327860697,9.695310282259026,0.0050572465084203514,0.002558270304435486,0.005688313265152837,0.2680989290742743,-0.05224344405235032,-0.6384776560567927,-1.0735036120476469,1.5051913035847941,9.69220700778844,-0.00144881361052302,0.009316426248609249,-0.006028086020967837,0.2981175698976214,0.0493114824549794,-0.7228702145499073
0.5597791893903824,0.016060309210907883,9.795722824154453,0.019363353025904268,4.228669880855369e-05,0.010632185308266021,-0.5091890777936094,0.12187958633627918,-0.5095583408327166,0.19153639963629449,2.377800789783154,9.523054126860927,-0.010903100335120167,-0.0011437096253394162,-0.008277803475270991,-0.9282892287389829,0.4002711700648231,0.6315539028706273,0.038921692861629414,1.919898462495651,9.521842757981284,-0.01565362281752611,0.00398098326463859,0.0021685531889472933,0.8676596212800113,0.24631766971421698,0.6393507287090439,0.3379488027603111,1.9634341818227994,9.695569441121997,-0.01460626759396385,0.0032557206744697003,0.007102637176665581,0.27927456590251165,-0.051905928485742395,-0.6512029220550202,-1.0825223241918374,1.6098292492266433,9.670768875474415,-0.01402735513157845,-0.004173492977548652,-0.0081330001462518,0.31091697989794326,0.04914334886281779,-0.7294965635249347
0.49380638852272796,0.05653426905418535,9.676184738992102,0.011198986821622766,0.004754126677663121,0.01061916624325335,-0.5107655187902709,0.11939301891679369,-0.5002689779776872,0.17407151165366141,2.3906136854000337,9.529523052479998,-0.009831546273353777,-0.0031552669808404842,-0.008442539319098327,-0.9395184939157293,0.3949015713095187,0.6374054294062709,0.027640567704870778,1.8837331878209074,9.529973159933089,-0.0019400206183973162,0.0016280272309141474,0.0025975958761122386,0.8545576954980912,0.24038325564504984,0.6467195125612634,0.32656372864673167,1.9060102924219924,9.71674879846617,-0.001586170652539321,0.0018195132395973756,0.00707510828411501,0.2682235217540315,-0.058384768413341386,-0.6425786028690849,-1.0585045463994764,1.4837550970377427,9.620160725056062,-0.003568220233443431,0.0018970340414893162,-0.0026114113446708506,0.30320560568745736,0.04323861322883042,-0.7261633931304646
0.5313194013833947,0.053587623190693205,9.80940281531161,-0.008499876146200286,-0.0040172005257890515,0.010967800528586194,-0.5084087845978733,0.11475407849726146,-0.5032672671115792,0.18563392096434359,2.354364799245391,9.538055301449642,-0.011047192581566407,-0.0033101734035038224,-0.011407896304951235,-0.9246935982110678,0.4072158651649442,0.6394377729274636,0.049487357662660825,1.897939117704447,9.544506969298983,-0.010953076655139114,0.004311000624442904,0.002464071915082722,0.8688434628837235,0.25514483653095515,0.646103351906498,0.34793583301667824,1.917786476153972,9.685860636518417,-0.009757479450490065,0.004128548405482676,0.006068668951001575,0.2829734841791441,-0.04596193150000494,-0.6403544334775114,-1.0444851356271019,1.5277110658694046,9.612752679587425,-0.011946836784711585,-0.0009842795479773371,-0.012222312326679256,0.31442695519237857,0.05379079038525316,-0.7241934729422654
0.5504376160969369,0.021380374117454193,9.804718232693999,-0.030999921964246693,0.007436557679576331,0.010948251645306191,-0.5037758663768428,0.12589097112628403,-0.49399379174757097,0.20379530494967568,2.3612001860875886,9.551772517109345,-0.008238111221381737,-0.005789008828185728,-0.012686730480755552,-0.9313404426335097,0.40313856425106254,0.6391058324485939,0.049412300218340865,1.8800564375498512,9.58259261963961,0.0019375531260763276,0.0017030749384251034,0.0027073032038802346,0.860502924011265,0.25009534814589574,0.6465401966914712,0.3497688968180052,1.915803946143489,9.748501722818526,0.003955024765279199,0.004497849119886062,0.005784522659716046,0.2784541941578688,-0.048674621173502304,-0.645106935075502,-1.0291773295139997,1.556581374804031,9.617186950104985,-0.001876420327393769,0.009436611049154596,-0.003762099236053835,0.30676147527168096,0.04936642036198541,-0.7296501617260053
0.48531799892546823,-0.035507211355041174,9.633362159339272,-0.0137240486527757,-0.0007801240730186951,0.011568588894370058,-0.5043459291142143,0.1220090308982624,-0.49718359182618543,0.16911657756294257,2.3817816526973776,9.518898355613928,-0.009703073594257169,-0.0034870966604219154,-0.010027186230708172,-0.9242841065818749,0.40038021808560825,0.6398062815601814,0.0305387390645164,1.932267534067692,9.493001157469502,-0.006033732668303391,0.0040143319412709625,0.002943886912355866,0.8669113017456089,0.25030372884871405,0.6495920553540993,0.30321644033381706,1.9358399654077691,9.64851066385659,-0.002901213743248443,0.0043137031661003526,0.005927091176180955,0.28049275654802286,-0.05084379440632366,-0.6412292031523978,-1.0793785093922927,1.5024054825301163,9.670305057367504,-0.008079098698953117,0.006887496329835062,-0.009077670434592929,0.3119846549013024,0.04792154098150729,-0.7256146230838192
