# sampling frequency: 40
# units are seconds/meters/radians/a.u.
seg1_acc_x,seg1_acc_y,seg1_acc_z,seg1_gyr_x,seg1_gyr_y,seg1_gyr_z,seg1_mag_x,seg1_mag_y,seg1_mag_z,seg2_acc_x,seg2_acc_y,seg2_acc_z,seg2_gyr_x,seg2_gyr_y,seg2_gyr_z,seg2_mag_x,seg2_mag_y,seg2_mag_z,seg3_acc_x,seg3_acc_y,seg3_acc_z,seg3_gyr_x,seg3_gyr_y,seg3_gyr_z,seg3_mag_x,seg3_mag_y,seg3_mag_z,seg4_acc_x,seg4_acc_y,seg4_acc_z,seg4_gyr_x,seg4_gyr_y,seg4_gyr_z,seg4_mag_x,seg4_mag_y,seg4_mag_z,seg5_acc_x,seg5_acc_y,seg5_acc_z,seg5_gyr_x,seg5_gyr_y,seg5_gyr_z,seg5_mag_x,seg5_mag_y,seg5_mag_z
-0.019568,-1.258202,9.774363,-0.03444,0.008427,-0.001379,-0.171387,0.447754,-0.553223,-0.325575,3.170548,9.261092,-0.024371,0.008155,0.006298,-0.883789,0.210449,0.05542,-0.678368,4.090794,8.890483,-0.004513,0.000446,0.003275,0.366455,0.457764,0.743652,-0.356761,3.575874,9.158632,-0.003272,-0.004467,0.00918,0.436768,-0.278564,-0.346436,-1.18006,2.712264,9.254608,-0.022508,-0.016124,-0.001929,0.376221,-0.091064,-0.637451
-0.093575,-1.174676,9.7219,0.003608,0.000678,-0.000825,-0.177246,0.45166,-0.546631,-0.352483,3.181007,9.265967,-0.000625,0.005966,0.007175,-0.88623,0.211182,0.043701,-0.680311,4.139886,8.896464,0.040444,0.010524,-0.004834,0.366455,0.46167,0.733643,-0.25016,3.609656,9.125549,0.031512,-0.010868,0.007831,0.437256,-0.275146,-0.353271,-1.177824,2.674791,9.219567,-0.005571,0.001979,-0.000784,0.372559,-0.089355,-0.634277
0.009379,-1.227774,9.773735,0.024367,-0.005639,-0.000321,-0.176514,0.452637,-0.55249,-0.303036,3.216152,9.279283,-0.001962,0.00254,0.008003,-0.893066,0.20459,0.049316,-0.6864,4.255192,8.908641,0.034456,0.012095,-0.001175,0.366699,0.469727,0.732422,-0.283067,3.71044,9.168646,0.028589,0.028776,0.010823,0.438965,-0.268555,-0.355713,-1.203416,2.716355,9.289227,0.028641,0.01724,-0.007637,0.372559,-0.084961,-0.639648
-0.071665,-1.048049,9.779842,0.057256,0.011589,0.002121,-0.175781,0.457764,-0.556885,-0.354185,3.222614,9.264967,-0.014289,0.015736,0.009939,-0.892822,0.205322,0.048096,-0.730947,4.258738,8.883762,-0.015095,0.004305,9.3e-05,0.372803,0.456543,0.734619,-0.376234,3.758453,9.147953,-0.024045,0.00227,0.010562,0.443848,-0.28125,-0.352051,-1.288546,2.826778,9.418857,0.030292,0.018586,-0.00993,0.375244,-0.082031,-0.641113
-0.063521,-1.009492,9.78596,-0.027853,-0.005062,-0.002738,-0.171143,0.448975,-0.554199,-0.359308,3.2241,9.249783,-0.006228,-0.001672,0.006958,-0.876953,0.205322,0.044678,-0.695469,4.199403,8.889563,-0.044028,-0.008676,0.003716,0.373047,0.459229,0.735107,-0.273176,3.654573,9.140603,-0.040923,-0.027946,0.009944,0.446289,-0.276611,-0.350586,-1.302975,2.824272,9.418535,-0.024854,-0.012348,0.003605,0.379639,-0.090576,-0.637939
-0.006834,-1.16889,9.812834,-0.027048,0.004603,0.000394,-0.168945,0.451416,-0.553223,-0.3004,3.226547,9.260015,-0.012759,0.009278,0.005947,-0.886475,0.208008,0.04541,-0.680523,4.118106,8.911598,-0.033619,0.006621,0.002531,0.378662,0.468018,0.734131,-0.256953,3.585203,9.141549,-0.020176,0.017141,0.011885,0.447021,-0.266357,-0.354004,-1.239751,2.712588,9.316744,-0.021097,-0.017278,-0.000392,0.379883,-0.087402,-0.638916
-0.077322,-1.143541,9.733694,-0.016746,0.004427,-0.001157,-0.165527,0.463379,-0.556641,-0.364759,3.189203,9.299798,-0.021684,0.00581,0.006981,-0.879395,0.212646,0.042725,-0.712935,4.119364,8.880674,0.01768,0.002876,-5.7e-05,0.374512,0.4646,0.731934,-0.347421,3.597047,9.14089,0.014966,0.011748,0.008968,0.444824,-0.270752,-0.357666,-1.187027,2.713673,9.249722,0.000605,-0.016465,-0.001872,0.383789,-0.077148,-0.639893
-0.013036,-1.237085,9.775605,0.000948,-0.003917,-0.001698,-0.169922,0.456055,-0.559326,-0.315958,3.167043,9.253342,-0.003263,0.003535,0.006982,-0.881836,0.207764,0.044434,-0.685864,4.196879,8.88341,0.038725,0.006731,-0.002582,0.37085,0.461914,0.743896,-0.302621,3.661818,9.148567,0.026603,-0.011446,0.008102,0.442139,-0.275879,-0.34375,-1.165815,2.714807,9.254874,0.007362,0.013996,-0.005001,0.377441,-0.083496,-0.643555
-0.054608,-1.126805,9.78545,0.046605,0.008035,0.001419,-0.172363,0.453857,-0.546875,-0.34957,3.219225,9.250472,0.000565,0.011535,0.009376,-0.88501,0.206055,0.043457,-0.721647,4.255058,8.891671,0.012307,0.012642,4.9e-05,0.368652,0.463135,0.735596,-0.275881,3.737218,9.145519,0.006281,0.01591,0.011875,0.440918,-0.2771,-0.351562,-1.280334,2.766847,9.365596,0.018701,0.017715,-0.006705,0.376953,-0.085449,-0.631104
-0.065747,-1.042418,9.789831,0.001393,-0.004896,-0.001885,-0.175293,0.452637,-0.551758,-0.340265,3.235907,9.25832,-0.010161,0.002826,0.007023,-0.881592,0.202637,0.046387,-0.707934,4.237214,8.898005,-0.03349,-0.004933,0.002495,0.368164,0.467529,0.734375,-0.36863,3.70543,9.160685,-0.035589,0.001588,0.011647,0.438965,-0.268799,-0.355469,-1.297015,2.801229,9.400447,0.01018,0.000247,-0.003996,0.374756,-0.084473,-0.638916
-0.017723,-1.104731,9.803781,-0.012813,0.003708,-0.00031,-0.176514,0.462402,-0.557129,-0.341863,3.205699,9.247395,-0.021108,0.008759,0.007345,-0.884277,0.203613,0.042725,-0.674592,4.148007,8.883503,-0.042451,-0.001089,0.006923,0.373779,0.460449,0.730713,-0.27637,3.600634,9.125844,-0.038331,-0.017071,0.008409,0.44458,-0.273926,-0.355225,-1.268801,2.808018,9.383951,-0.012897,-0.014851,-0.00229,0.371338,-0.07666,-0.643311
-0.073176,-1.144889,9.769889,-0.028719,0.002019,-0.001775,-0.170166,0.452881,-0.558105,-0.329902,3.184843,9.246914,-0.007691,0.003268,0.005009,-0.886475,0.207275,0.048096,-0.705721,4.105265,8.894726,-0.000976,0.006202,0.0,0.369629,0.46582,0.729004,-0.265589,3.586778,9.127492,0.005077,0.012284,0.010367,0.441406,-0.269043,-0.360596,-1.195569,2.716518,9.277249,-0.022561,-0.016441,0.003822,0.379639,-0.086914,-0.641357
-0.024657,-1.235173,9.774678,0.002254,0.002816,-7.1e-05,-0.174805,0.457275,-0.562256,-0.339271,3.218953,9.264157,-0.005523,0.008011,0.009042,-0.881592,0.207275,0.050537,-0.69124,4.149802,8.899507,0.029316,0.005026,-0.001018,0.374756,0.464844,0.730225,-0.329848,3.664423,9.175772,0.020319,0.012389,0.010979,0.44458,-0.270996,-0.35498,-1.189225,2.693255,9.242728,0.003676,0.002449,-0.006511,0.376221,-0.07959,-0.64502
-0.053961,-1.126556,9.763768,0.029748,0.001582,0.000117,-0.168457,0.455322,-0.559082,-0.346397,3.195149,9.273302,-0.014659,0.005854,0.007041,-0.887207,0.19873,0.046143,-0.679388,4.226208,8.869127,0.023458,0.006259,-0.001671,0.372559,0.456299,0.733887,-0.29569,3.689543,9.125073,0.013345,-0.008261,0.007309,0.442383,-0.277832,-0.354248,-1.216267,2.743352,9.301715,0.019516,0.012692,-0.001521,0.379883,-0.081787,-0.645264
-0.031084,-1.087529,9.815722,0.005418,0.000125,-0.001474,-0.170898,0.449951,-0.554443,-0.316821,3.191791,9.23577,-0.002444,0.006639,0.007893,-0.891602,0.205811,0.044922,-0.713693,4.251002,8.899655,-0.013113,0.011692,0.000463,0.367188,0.458252,0.730957,-0.298011,3.715599,9.15726,-0.011765,0.008572,0.010889,0.436035,-0.279541,-0.357178,-1.275016,2.802493,9.389164,0.016431,0.015269,-0.009004,0.377686,-0.09082,-0.640137
-0.067624,-1.078474,9.785107,-0.00253,0.007083,-0.000911,-0.176758,0.449219,-0.559814,-0.358644,3.240035,9.264396,-0.006495,0.010319,0.007532,-0.889648,0.201172,0.049072,-0.700641,4.20205,8.899958,-0.033301,-0.00859,0.004886,0.370117,0.458252,0.737061,-0.340288,3.671003,9.142424,-0.034641,8.1e-05,0.010374,0.441406,-0.276123,-0.353516,-1.291025,2.807043,9.411633,-0.003869,-0.008974,-0.000558,0.372314,-0.087402,-0.644531
-0.056447,-1.121166,9.77259,-0.026515,-0.003664,-0.002546,-0.172852,0.451904,-0.554932,-0.331094,3.210275,9.251561,-0.019417,0.001325,0.004906,-0.888428,0.199951,0.044922,-0.67763,4.141411,8.89986,-0.026113,0.005378,0.00187,0.372559,0.46167,0.737061,-0.291026,3.5855,9.159339,-0.02717,-0.010789,0.009693,0.444824,-0.276611,-0.349609,-1.225219,2.746919,9.31245,-0.025249,-0.018238,0.001139,0.377197,-0.085938,-0.640625
-0.029727,-1.190344,9.796861,-0.00345,0.005675,-0.000638,-0.170654,0.452148,-0.550781,-0.330877,3.172091,9.280281,-0.016907,0.013287,0.009745,-0.88623,0.20752,0.055908,-0.727358,4.105282,8.897623,0.006236,0.006972,0.003509,0.367676,0.461182,0.732666,-0.271144,3.582946,9.136076,0.013211,0.015934,0.0105,0.44043,-0.274658,-0.352539,-1.185705,2.706276,9.260033,-0.005013,-0.005753,-0.003635,0.378662,-0.086182,-0.640869
-0.06319,-1.149886,9.740546,0.011201,0.000444,-0.001637,-0.174072,0.452637,-0.554688,-0.348723,3.169965,9.267238,0.001231,-0.00099,0.006639,-0.883301,0.201904,0.050781,-0.669308,4.20368,8.863883,0.042038,-0.001509,-0.002991,0.369385,0.465088,0.737549,-0.322514,3.693377,9.151838,0.039655,0.002494,0.009963,0.444336,-0.27417,-0.349121,-1.208807,2.712526,9.277534,0.008178,0.008972,0.000186,0.374756,-0.084473,-0.641357
-0.018806,-1.15088,9.781475,0.016362,-0.001067,0.000805,-0.172119,0.45459,-0.552246,-0.310072,3.248194,9.258019,-0.001175,0.01039,0.008426,-0.883545,0.209961,0.048828,-0.688576,4.273013,8.899194,-0.002918,0.024208,-0.002149,0.376465,0.462646,0.730469,-0.302183,3.742493,9.168722,-0.01723,-0.001549,0.010293,0.447754,-0.273682,-0.355225,-1.263882,2.756858,9.352734,0.028072,0.015886,-0.012809,0.376465,-0.082764,-0.636475
-0.05832,-1.042778,9.769234,0.011984,0.009316,0.001678,-0.167725,0.457031,-0.557861,-0.382307,3.202487,9.279005,-0.025715,0.007686,0.010544,-0.891602,0.200439,0.039307,-0.737052,4.203165,8.868752,-0.023188,-0.011733,0.005263,0.363281,0.462402,0.734375,-0.295341,3.657642,9.119762,-0.031139,0.005897,0.010052,0.433594,-0.274902,-0.354736,-1.262475,2.842768,9.407909,0.000296,-0.010373,0.003864,0.383057,-0.083252,-0.639648
-0.049456,-1.127748,9.77827,-0.028236,-0.006054,-0.003875,-0.176758,0.449463,-0.553711,-0.316842,3.197591,9.232637,-0.000601,1.6e-05,0.003082,-0.883301,0.202393,0.050537,-0.647015,4.173017,8.883798,-0.031474,0.001782,0.000632,0.37915,0.466309,0.739502,-0.31503,3.634427,9.169783,-0.013436,-0.003793,0.011122,0.449951,-0.268799,-0.343994,-1.264609,2.729575,9.322888,-0.031373,0.000503,-0.003528,0.37085,-0.084229,-0.640625
-0.031992,-1.165779,9.797349,0.003134,0.006976,0.000794,-0.164307,0.458496,-0.548096,-0.348941,3.236789,9.256736,-0.009191,0.014137,0.009978,-0.885742,0.206543,0.052246,-0.729676,4.112969,8.892316,-0.013034,0.010515,0.003892,0.378906,0.45752,0.732178,-0.284698,3.610898,9.119492,-0.009215,-0.001499,0.007936,0.44873,-0.276855,-0.355469,-1.258822,2.742481,9.290972,0.011138,-0.021518,-0.004893,0.383789,-0.077393,-0.631104
-0.05054,-1.14039,9.782089,-0.009678,-0.002348,-0.001824,-0.166016,0.451416,-0.55957,-0.339585,3.184863,9.267877,-0.026967,-0.003477,0.005576,-0.88916,0.202393,0.039307,-0.668405,4.162801,8.879518,0.035359,-0.004799,-0.002494,0.359619,0.464844,0.729492,-0.294127,3.632233,9.146419,0.020565,0.0105,0.011649,0.43042,-0.271484,-0.357178,-1.135273,2.742436,9.278267,-0.008038,-0.005166,0.003828,0.384033,-0.089111,-0.644775
-0.012138,-1.191422,9.790881,0.019209,0.004554,-0.00121,-0.186035,0.456787,-0.558838,-0.322111,3.181787,9.245745,0.007118,0.015661,0.009369,-0.884521,0.204102,0.047119,-0.704925,4.237323,8.9022,0.014437,0.023976,-0.001532,0.367432,0.456787,0.738281,-0.352785,3.704918,9.155059,0.00635,0.011051,0.009848,0.438232,-0.279053,-0.348389,-1.267234,2.715113,9.306133,0.007214,0.032466,-0.01444,0.367676,-0.081787,-0.64502
-0.088151,-1.038947,9.752658,0.015502,0.004249,0.001297,-0.176025,0.449219,-0.553467,-0.379706,3.240476,9.286234,-0.00565,0.004214,0.007965,-0.889404,0.201416,0.048828,-0.713662,4.231219,8.902398,-0.010576,-0.010172,0.00216,0.372314,0.463135,0.729248,-0.315615,3.68983,9.125873,-0.016296,-0.012453,0.008337,0.443115,-0.272217,-0.354736,-1.28607,2.79156,9.383228,0.025763,-0.016822,0.004329,0.375488,-0.09082,-0.637207
-0.025883,-1.15369,9.816335,-0.025151,-0.007577,-0.003779,-0.170654,0.452637,-0.558838,-0.287551,3.205035,9.24968,-0.021513,0.001855,0.007869,-0.887939,0.203857,0.042725,-0.65343,4.188401,8.884682,-0.034285,0.003868,0.004948,0.369141,0.462402,0.731201,-0.269138,3.679674,9.136546,-0.022626,0.003696,0.011407,0.439453,-0.273926,-0.356445,-1.227521,2.789662,9.370974,-0.02013,0.004907,-0.006959,0.379395,-0.083984,-0.644287
-0.042191,-1.137935,9.78354,0.010163,0.011641,0.002806,-0.172852,0.453369,-0.55957,-0.360991,3.192948,9.243447,-0.009961,0.013973,0.006906,-0.87915,0.197754,0.046631,-0.733555,4.122971,8.872318,-0.017019,0.011071,0.002223,0.370117,0.463379,0.73877,-0.322295,3.626886,9.145251,-0.017185,0.0096,0.009746,0.443359,-0.271484,-0.345947,-1.288575,2.744236,9.313313,-0.002221,-0.007631,-0.002856,0.378174,-0.082275,-0.642822
-0.06832,-1.121262,9.74968,-0.017222,-0.006643,-0.002624,-0.171631,0.456299,-0.549561,-0.337806,3.218198,9.262172,-0.002392,-0.002583,0.0046,-0.883057,0.204346,0.044678,-0.670058,4.157364,8.908957,0.015239,-0.009413,-0.001081,0.376465,0.459473,0.733887,-0.300061,3.617004,9.128053,0.003671,-0.006797,0.009213,0.445801,-0.276855,-0.35083,-1.180214,2.749345,9.273496,-0.007386,-0.022051,0.004262,0.375488,-0.081299,-0.633789
-0.00447,-1.199681,9.796384,0.017885,0.005713,-0.001115,-0.169434,0.451904,-0.555908,-0.312583,3.224731,9.25821,-0.014454,0.013722,0.010544,-0.892578,0.203613,0.049072,-0.68545,4.204956,8.895695,0.015714,0.018735,0.001121,0.367676,0.468994,0.738281,-0.277794,3.658691,9.151101,0.019047,0.009345,0.009256,0.439941,-0.269287,-0.346924,-1.204367,2.696847,9.282131,-0.004113,0.023406,-0.010418,0.381104,-0.084473,-0.640625
-0.082275,-1.052222,9.771061,0.012398,0.004977,0.001382,-0.176758,0.458984,-0.552002,-0.359184,3.204967,9.260657,-0.00911,0.00016,0.007165,-0.885742,0.206787,0.043701,-0.741813,4.207382,8.878426,0.006785,0.003621,-0.002572,0.376221,0.464844,0.734619,-0.34217,3.725413,9.155041,0.005565,0.008567,0.011685,0.446045,-0.272949,-0.352051,-1.293711,2.765895,9.348449,0.032773,0.00249,-0.001653,0.372803,-0.07959,-0.635742
-0.015335,-1.144188,9.79162,-0.017232,-0.004867,-0.002149,-0.169189,0.452393,-0.555176,-0.304258,3.234093,9.254103,0.001216,0.008192,0.007132,-0.893066,0.200684,0.044678,-0.687978,4.234178,8.8889,-0.023825,-0.002441,0.004597,0.376953,0.458984,0.739014,-0.31631,3.679583,9.174896,-0.036023,-0.007777,0.008648,0.446289,-0.274658,-0.348145,-1.242833,2.824456,9.372852,-0.001277,-0.002369,-0.006316,0.380371,-0.08374,-0.636963
-0.055396,-1.110887,9.791322,0.006199,0.009001,0.001844,-0.169922,0.450195,-0.549316,-0.364032,3.232329,9.258022,-0.021607,0.008422,0.009052,-0.881836,0.209229,0.042725,-0.686388,4.166936,8.869284,-0.027881,0.004219,0.004059,0.363281,0.469727,0.742676,-0.277337,3.603138,9.095163,-0.020521,-0.001221,0.009529,0.434326,-0.266113,-0.344482,-1.267155,2.74356,9.352072,-0.023644,-0.002055,0.002249,0.37915,-0.08667,-0.636475
-0.043766,-1.165019,9.774551,-0.021996,-0.004153,-0.003941,-0.181641,0.462158,-0.547607,-0.309823,3.170963,9.255217,-0.013731,0.000894,0.006423,-0.888184,0.204346,0.04834,-0.694042,4.144931,8.905479,0.000573,0.005222,-0.001426,0.368408,0.462646,0.73291,-0.311485,3.646429,9.145592,0.010739,0.011459,0.014355,0.441162,-0.272705,-0.351807,-1.243723,2.709139,9.288612,-0.00028,-0.014882,-0.002064,0.368164,-0.077393,-0.632324
-0.035983,-1.191089,9.788564,0.023459,0.008549,0.002568,-0.173584,0.452637,-0.557373,-0.362034,3.201151,9.276425,0.00101,0.016893,0.00855,-0.880127,0.203369,0.044189,-0.711031,4.178985,8.899927,0.014845,0.000681,0.001964,0.365723,0.461914,0.739014,-0.311594,3.647826,9.145031,0.00073,-0.001656,0.007852,0.43335,-0.276123,-0.344238,-1.212959,2.736834,9.295508,0.01,-0.00015,-0.006681,0.373779,-0.085938,-0.643555
-0.067154,-1.065886,9.790597,0.002264,-0.003301,-0.001314,-0.183105,0.45166,-0.550781,-0.343469,3.225578,9.26632,-0.012951,-0.006344,0.005059,-0.889648,0.199463,0.045898,-0.671268,4.21013,8.888318,0.015861,0.003715,-6.4e-05,0.364014,0.463867,0.730957,-0.275355,3.68088,9.140123,0.006652,-0.000813,0.010039,0.436279,-0.274414,-0.355713,-1.223355,2.746521,9.312812,-0.003295,0.009336,0.001497,0.368164,-0.085693,-0.634521
0.010909,-1.183752,9.803512,-0.005724,0.002065,-0.000388,-0.177002,0.455322,-0.556885,-0.300038,3.186911,9.241091,-0.0099,0.015109,0.008695,-0.884033,0.207275,0.050293,-0.732549,4.215735,8.865707,-0.012574,0.016734,7.8e-05,0.372559,0.461914,0.738281,-0.33227,3.714156,9.15264,-0.007075,0.018621,0.011882,0.446289,-0.275146,-0.346924,-1.269229,2.751269,9.358085,0.016343,0.010634,-0.008421,0.370605,-0.084961,-0.64209
-0.092266,-1.065385,9.74372,0.012002,0.010109,0.001501,-0.170166,0.452148,-0.550537,-0.382871,3.212024,9.2511,-0.008427,0.008679,0.007493,-0.887695,0.200684,0.052734,-0.7204,4.185066,8.879378,-0.017541,-0.012953,0.003383,0.361084,0.465088,0.739502,-0.351923,3.664413,9.135941,-0.023503,-0.011004,0.007734,0.432861,-0.269775,-0.346924,-1.275926,2.813009,9.361462,0.002257,-0.012136,-0.00053,0.378174,-0.084229,-0.634766
-0.026244,-1.154445,9.772839,-0.028254,-0.011192,-0.004472,-0.18335,0.455566,-0.551758,-0.311038,3.218388,9.259352,-0.009159,-0.000993,0.005374,-0.890625,0.198975,0.045898,-0.632338,4.173765,8.894083,-0.017835,0.002244,0.001026,0.367188,0.466309,0.734131,-0.238727,3.61072,9.134172,-0.014764,-0.012318,0.00962,0.436768,-0.268066,-0.351562,-1.235705,2.736923,9.30631,-0.024438,-0.005923,0.000922,0.366455,-0.082764,-0.635986
-0.006962,-1.185499,9.779252,0.023549,0.009949,0.001363,-0.177002,0.457764,-0.553711,-0.337789,3.207085,9.264868,-0.016552,0.013086,0.00893,-0.89209,0.200195,0.051758,-0.72431,4.138679,8.881635,-0.003765,0.016687,0.00113,0.364014,0.463379,0.738037,-0.292107,3.626749,9.142528,0.002736,0.026273,0.012207,0.436035,-0.274902,-0.350586,-1.21579,2.716237,9.288492,0.011374,-0.007566,-0.006656,0.372803,-0.080322,-0.637451
-0.084952,-1.069908,9.757859,-0.003489,-0.000255,-0.001044,-0.181885,0.452881,-0.555176,-0.343199,3.186493,9.250446,-0.007522,0.002258,0.006561,-0.892822,0.203125,0.04834,-0.704202,4.177053,8.893305,0.024479,-0.008829,-0.0017,0.367676,0.466797,0.739502,-0.373629,3.668197,9.138331,0.014658,-0.001111,0.011316,0.439941,-0.269043,-0.346191,-1.201193,2.748867,9.301214,0.003407,0.001584,-0.000572,0.369141,-0.081787,-0.640137
-0.019847,-1.17499,9.795707,-0.000385,-0.000983,-0.001127,-0.176758,0.455811,-0.549805,-0.323261,3.220988,9.266091,0.000906,0.009822,0.00828,-0.883545,0.197998,0.054443,-0.668487,4.24192,8.882777,0.00762,0.013918,0.002023,0.370605,0.464111,0.741211,-0.27476,3.720827,9.150504,0.001266,-0.01361,0.007464,0.441895,-0.275146,-0.344971,-1.257037,2.734498,9.334553,-0.000837,0.01705,-0.00829,0.372559,-0.081299,-0.63501
-0.057846,-1.07269,9.774553,0.016541,0.006074,-0.000833,-0.169922,0.453613,-0.549072,-0.344482,3.227919,9.249932,-0.014653,0.002876,0.006364,-0.891357,0.203125,0.047607,-0.727866,4.216437,8.881262,-0.024229,0.001883,0.001896,0.372314,0.463623,0.73999,-0.289963,3.68466,9.132427,-0.028026,0.017962,0.011898,0.442139,-0.274658,-0.347656,-1.280188,2.769249,9.381425,0.019249,-0.007501,-0.001272,0.37915,-0.083008,-0.632812
-0.03781,-1.130251,9.772087,-0.02432,-0.003231,-0.002084,-0.172119,0.455078,-0.550293,-0.316192,3.179914,9.250986,-0.020712,0.006754,0.00763,-0.886963,0.206787,0.051758,-0.68221,4.160405,8.864628,-0.0221,-0.007075,0.005551,0.368164,0.466064,0.724365,-0.37203,3.624151,9.126622,-0.01987,0.002214,0.010865,0.438965,-0.267822,-0.361572,-1.223238,2.776067,9.358425,-0.011975,-0.007978,-0.003639,0.379395,-0.082031,-0.630615
-0.040315,-1.167691,9.788896,0.005003,0.008805,-0.000402,-0.178467,0.458008,-0.567383,-0.345544,3.204503,9.265625,0.000451,0.007691,0.008334,-0.887207,0.202637,0.050293,-0.684494,4.146185,8.872563,0.000234,0.01119,-0.001754,0.366699,0.460205,0.738281,-0.294118,3.635598,9.132852,0.006122,-0.014844,0.008423,0.439453,-0.276123,-0.3479,-1.241237,2.731558,9.295051,-0.018526,-0.001179,-0.000419,0.373779,-0.077148,-0.650635
-0.06615,-1.118469,9.751126,0.003975,-0.003476,-0.000279,-0.17627,0.45166,-0.552002,-0.324617,3.243723,9.294272,-0.00671,0.002403,0.006827,-0.884033,0.208496,0.046387,-0.697911,4.191285,8.887677,0.014131,0.002732,0.001109,0.370361,0.461182,0.739258,-0.271233,3.66623,9.128853,0.006287,0.012674,0.010735,0.440186,-0.272949,-0.345459,-1.214003,2.708858,9.282341,0.011261,-0.008809,-0.004737,0.372314,-0.086426,-0.635742
0.015455,-1.14764,9.809423,0.005813,0.003676,-5e-05,-0.174316,0.455322,-0.548584,-0.325002,3.190731,9.247224,-0.02516,0.007977,0.008775,-0.894531,0.205078,0.04541,-0.681291,4.21815,8.892426,0.006472,0.007607,-0.000653,0.373047,0.458984,0.740234,-0.335057,3.69425,9.136365,-0.003561,0.011218,0.009932,0.443848,-0.277344,-0.343506,-1.208758,2.77958,9.325403,0.013676,0.00963,-0.004407,0.374512,-0.084961,-0.634277
-0.068584,-1.089991,9.760237,0.003629,0.005809,-0.000236,-0.171875,0.450928,-0.550049,-0.35483,3.17112,9.263214,0.00016,0.006383,0.006011,-0.891113,0.205322,0.043701,-0.716954,4.2259,8.881689,-0.006641,0.006584,0.000675,0.371826,0.461914,0.733398,-0.318626,3.688808,9.141765,-0.005561,-0.011461,0.008926,0.446533,-0.276367,-0.353271,-1.279788,2.771679,9.347724,-0.001913,0.007403,-0.003667,0.377686,-0.087158,-0.632324
-0.042782,-1.152516,9.793567,-0.014591,-0.005411,-0.001867,-0.172852,0.450439,-0.559814,-0.330819,3.263342,9.279838,0.001815,0.004872,0.007678,-0.882812,0.218262,0.041748,-0.697201,4.202165,8.894686,-0.019694,-0.006151,0.003001,0.368652,0.461426,0.733398,-0.273986,3.659959,9.158865,-0.015042,-0.000444,0.009432,0.439941,-0.273682,-0.35376,-1.26858,2.753442,9.341014,-0.004064,-0.009538,-0.000361,0.377441,-0.089111,-0.64209
-0.032021,-1.135934,9.786092,0.006248,0.004472,0.000237,-0.175781,0.452148,-0.55542,-0.329272,3.202785,9.272187,-0.032625,0.005811,0.008726,-0.881104,0.204834,0.046875,-0.676256,4.173152,8.873187,-0.015516,0.00992,0.001831,0.372314,0.458008,0.732422,-0.305226,3.655926,9.122592,-0.014372,0.009554,0.011614,0.443604,-0.279297,-0.353271,-1.230575,2.748731,9.340696,-0.002098,-0.006387,-0.004771,0.375244,-0.085205,-0.643555
-0.04225,-1.135598,9.784947,-0.002954,0.000167,-0.002441,-0.171387,0.449951,-0.554443,-0.315015,3.167335,9.26199,-0.005903,0.008782,0.006951,-0.895264,0.214844,0.049561,-0.732306,4.176728,8.905892,0.011945,0.008719,-0.000429,0.366455,0.463623,0.734863,-0.314694,3.646808,9.163832,0.003521,0.00102,0.009596,0.440186,-0.272217,-0.349854,-1.221074,2.741738,9.289444,0.001271,-0.003177,-0.003242,0.37793,-0.090576,-0.641602
-0.052509,-1.156068,9.783767,0.014661,0.006017,0.000843,-0.173584,0.45752,-0.55542,-0.342156,3.242264,9.250971,0.010994,0.008478,0.007242,-0.884766,0.206787,0.046143,-0.703957,4.217654,8.868508,0.008458,-0.005945,0.002759,0.371826,0.458984,0.734863,-0.31197,3.657918,9.128876,-0.001375,0.0005,0.009848,0.443115,-0.274902,-0.349854,-1.232384,2.75945,9.296301,0.001635,0.003123,-0.003071,0.374512,-0.080078,-0.63623
-0.041976,-1.084393,9.772621,-0.001294,-0.004162,-0.001333,-0.171875,0.450928,-0.551514,-0.347439,3.227971,9.285789,-0.029704,-0.000798,0.006154,-0.890625,0.202148,0.044678,-0.662521,4.216532,8.8786,-0.00759,0.00651,0.000591,0.369629,0.460693,0.734863,-0.287582,3.680179,9.131306,0.005422,0.003185,0.010428,0.44043,-0.274414,-0.350342,-1.225711,2.725082,9.339147,-0.004662,0.0053,-0.000601,0.377441,-0.085938,-0.637939
-0.024547,-1.151608,9.796034,-0.012368,0.002723,-0.000511,-0.171875,0.452393,-0.55542,-0.301776,3.17336,9.251373,-0.014957,0.01222,0.007682,-0.894043,0.201904,0.046143,-0.75033,4.192076,8.886928,-0.019069,0.014556,-0.000355,0.372803,0.462891,0.73291,-0.33969,3.697107,9.15667,-0.021404,0.009767,0.011465,0.445557,-0.272949,-0.353271,-1.2801,2.772961,9.330784,0.024512,0.003264,-0.010297,0.375732,-0.084473,-0.640137
-0.070128,-1.127021,9.755398,-0.000406,0.006904,0.000592,-0.170166,0.453857,-0.554932,-0.378034,3.199283,9.253405,0.004102,0.007776,0.007257,-0.899658,0.206299,0.04541,-0.713463,4.177839,8.877267,0.002312,-0.013254,0.003826,0.364014,0.464844,0.732666,-0.337701,3.638649,9.122182,-0.012213,-0.003624,0.008034,0.438232,-0.271973,-0.352295,-1.231746,2.816086,9.355252,-0.013223,-0.01683,0.002711,0.379883,-0.086182,-0.640625
-0.049683,-1.175107,9.748738,-0.001639,-0.003558,-0.002827,-0.177979,0.454834,-0.557373,-0.319759,3.241629,9.249541,-0.009378,0.003265,0.005804,-0.886475,0.199463,0.038086,-0.646357,4.193904,8.927844,-0.013702,0.010411,-0.002599,0.366455,0.472656,0.72998,-0.274702,3.636571,9.181496,-0.008135,-0.004554,0.0107,0.438232,-0.266113,-0.356201,-1.230464,2.684363,9.292052,-0.031432,0.013538,0.00066,0.371582,-0.084717,-0.64209
-0.019753,-1.116934,9.823459,0.015461,0.002664,0.001673,-0.177002,0.464844,-0.556396,-0.338599,3.198683,9.287988,-0.03204,0.00727,0.008768,-0.884277,0.208984,0.05127,-0.732577,4.162792,8.838315,-0.002451,0.003188,0.005922,0.37085,0.456543,0.738281,-0.293133,3.628075,9.098317,0.008572,0.008234,0.008087,0.441162,-0.280762,-0.344971,-1.273268,2.716278,9.334485,0.029145,-0.016772,-0.009654,0.375,-0.073975,-0.644043
-0.052976,-1.142864,9.766503,-0.014412,0.006067,-0.002748,-0.175537,0.447021,-0.550537,-0.315998,3.146635,9.246578,0.008288,0.003439,0.004916,-0.893066,0.200684,0.043701,-0.687402,4.219085,8.890139,0.017469,0.008519,-0.004645,0.369141,0.469238,0.729004,-0.315251,3.723543,9.171717,0.008891,0.008229,0.012445,0.438721,-0.268555,-0.355713,-1.173793,2.785762,9.313495,0.010396,0.005167,0.00096,0.374023,-0.089111,-0.634277
-0.036389,-1.155517,9.786186,0.018111,0.000347,0.001489,-0.176758,0.457275,-0.560303,-0.34964,3.272182,9.291295,0.006302,0.015767,0.00772,-0.880859,0.198486,0.050293,-0.710545,4.212569,8.856908,-0.012445,0.001037,0.005562,0.366211,0.461182,0.740967,-0.308691,3.641628,9.121248,-0.033514,-0.007322,0.007412,0.437012,-0.273193,-0.346191,-1.3239,2.779375,9.326283,-0.011076,0.014637,-0.012518,0.376953,-0.081543,-0.645508
-0.045732,-1.103144,9.781022,-0.018101,-0.00212,-0.001964,-0.176758,0.452637,-0.547363,-0.334895,3.205121,9.219019,-0.04113,-0.007657,0.008441,-0.880615,0.206299,0.044189,-0.639661,4.223892,8.899986,0.002821,-0.000603,-0.000923,0.371338,0.46582,0.736084,-0.250739,3.672069,9.110506,0.019437,-0.00178,0.012069,0.442627,-0.272461,-0.351562,-1.193417,2.707565,9.337692,-0.010289,-0.023938,0.014226,0.372314,-0.084473,-0.634033
-0.010482,-1.207583,9.815454,0.02088,0.007129,0.000975,-0.171387,0.456299,-0.555664,-0.275787,3.171176,9.257235,0.010558,0.021755,0.007694,-0.89209,0.20752,0.049072,-0.777118,4.150659,8.926573,-0.053644,0.02286,0.000815,0.366455,0.463135,0.729492,-0.364669,3.643412,9.245211,-0.050233,0.031046,0.011452,0.437256,-0.27417,-0.354248,-1.268521,2.757963,9.273614,0.027188,0.021948,-0.025483,0.379395,-0.080811,-0.638916
-0.120304,-1.01537,9.728777,-0.018466,0.00203,-0.002508,-0.176514,0.454102,-0.559814,-0.471445,3.19443,9.28872,-0.026651,0.000773,0.008452,-0.880615,0.202881,0.046143,-0.651294,4.135151,8.78418,0.046262,-0.04772,0.010711,0.369873,0.459473,0.733643,-0.317051,3.597472,8.985338,0.040021,-0.039938,0.005328,0.437744,-0.27832,-0.354004,-1.203475,2.789596,9.376854,-0.030913,-0.037578,0.019405,0.371094,-0.083984,-0.643555
0.043004,-1.315788,9.785491,-0.016713,-0.009581,-0.004144,-0.175049,0.452393,-0.553223,-0.163402,3.231658,9.221961,0.018256,-0.007879,0.000111,-0.88623,0.204102,0.054443,-0.628483,4.284964,8.956123,0.003018,0.071595,-0.021912,0.368652,0.465576,0.738281,-0.21128,3.800781,9.286038,0.008749,0.017802,0.018638,0.440918,-0.269775,-0.344971,-1.229914,2.652938,9.205477,0.003098,0.044212,-0.012772,0.375977,-0.08667,-0.638916
-0.0797,-1.039191,9.791177,0.072226,0.026665,0.00674,-0.172363,0.456543,-0.549072,-0.455324,3.240267,9.315228,-0.0334,0.043482,0.020735,-0.885742,0.208008,0.050537,-0.911984,4.145443,8.860228,-0.029134,-0.023084,0.022148,0.369629,0.4646,0.732422,-0.422667,3.614485,9.059099,-0.069219,0.033992,0.002728,0.438965,-0.271484,-0.352783,-1.350015,2.893719,9.400959,0.059574,-0.033716,-0.0189,0.375488,-0.081055,-0.633789
-0.084222,-1.038319,9.746701,-0.067181,-0.024956,-0.009042,-0.177246,0.455322,-0.556396,-0.335188,3.121241,9.204391,-0.016285,-0.040019,-0.006064,-0.884033,0.202637,0.042725,-0.467089,4.22806,8.86002,0.010101,-0.041648,-0.009212,0.376465,0.462402,0.737793,-0.294565,3.613656,9.131575,0.041437,-0.050599,0.015465,0.444824,-0.274902,-0.3479,-1.064532,2.749615,9.355195,-0.087066,-0.002269,0.037758,0.374268,-0.080078,-0.63916
0.084654,-1.300069,9.839598,0.02831,0.013572,0.003939,-0.169434,0.453369,-0.55249,-0.228648,3.26241,9.272977,0.027122,0.042881,0.016165,-0.889404,0.212891,0.049316,-0.787137,4.152442,8.907974,-0.042409,0.095038,0.003914,0.362793,0.466797,0.73291,-0.226623,3.722929,9.158531,-0.007728,0.033811,0.009124,0.434082,-0.268555,-0.35083,-1.437435,2.61437,9.28543,0.035492,0.048031,-0.052341,0.378174,-0.082764,-0.635254
-0.188789,-0.948642,9.699281,-0.002086,0.010436,-0.000335,-0.181396,0.459229,-0.554443,-0.524082,3.225032,9.302,-0.051236,-0.010396,0.004184,-0.879639,0.199219,0.044189,-0.797508,4.159156,8.860083,0.044782,-0.077996,0.002767,0.37207,0.460693,0.740479,-0.393709,3.67541,9.127518,-0.015719,0.011039,0.010599,0.442871,-0.279541,-0.345703,-1.163171,2.896773,9.387268,0.050953,-0.087644,0.037559,0.365967,-0.082764,-0.639648
0.066249,-1.310671,9.819568,-0.039378,-0.024049,-0.006196,-0.171875,0.451172,-0.549316,-0.158247,3.147602,9.236597,0.004518,-0.00225,0.006034,-0.887695,0.205322,0.037598,-0.468659,4.301709,8.888962,-0.008874,0.038115,-0.006128,0.369873,0.469482,0.732666,-0.263494,3.647894,9.15067,-0.010616,-0.02969,0.008817,0.440674,-0.268799,-0.354004,-1.144102,2.726747,9.2985,-0.08493,0.074074,-0.026445,0.37915,-0.087891,-0.634521
-0.060341,-1.087818,9.784488,0.08203,0.036341,0.007775,-0.171143,0.456055,-0.554932,-0.470596,3.245875,9.284151,0.004572,0.037385,0.014441,-0.893066,0.203125,0.046631,-0.915846,4.14349,8.911265,-0.032014,0.033555,0.008193,0.367188,0.4646,0.733887,-0.272028,3.647677,9.12327,0.002866,0.029363,0.008501,0.44043,-0.27124,-0.350098,-1.433315,2.657464,9.29872,0.053551,-0.023711,0.003439,0.376953,-0.078613,-0.637939
-0.118675,-0.993974,9.765146,-0.061941,-0.027626,-0.008102,-0.175781,0.453613,-0.553467,-0.290316,3.213623,9.256555,-0.029666,-0.028643,0.000344,-0.88501,0.20459,0.061035,-0.602703,4.190042,8.866067,0.012449,-0.071371,-0.001116,0.361572,0.463867,0.731445,-0.392931,3.691,9.167111,0.00585,0.000168,0.016439,0.433838,-0.270264,-0.354248,-1.074956,2.862582,9.389887,0.007749,-0.035411,0.004547,0.374268,-0.083252,-0.638184
0.083887,-1.325503,9.830857,0.020057,0.01403,0.001102,-0.18457,0.458496,-0.55542,-0.310347,3.184058,9.268073,-0.004038,0.038522,0.014138,-0.890137,0.202148,0.050781,-0.644731,4.208384,8.869932,-0.007062,0.072974,0.004606,0.365479,0.462158,0.732666,-0.266048,3.689722,9.12584,-0.016681,-0.016156,0.002936,0.438721,-0.274658,-0.349854,-1.287885,2.689938,9.286881,-0.042275,0.062472,-0.021734,0.367676,-0.080322,-0.637695
-0.179559,-0.920375,9.687798,0.016379,0.008405,0.002178,-0.178955,0.452637,-0.55542,-0.412155,3.206898,9.287203,-0.004091,-0.015028,0.002835,-0.887939,0.200195,0.050781,-0.862223,4.165361,8.887235,-0.001703,-0.017092,-0.008058,0.375977,0.459717,0.741943,-0.286642,3.629471,9.160958,-0.022532,0.0191,0.015212,0.446289,-0.278076,-0.3396,-1.348655,2.763745,9.337305,0.050073,-0.052516,0.015785,0.373535,-0.084961,-0.640137
0.05177,-1.287301,9.840444,-0.059238,-0.02147,-0.007594,-0.170166,0.449707,-0.543701,-0.223221,3.222839,9.264146,-0.018772,0.013073,0.010007,-0.881592,0.209473,0.050781,-0.540154,4.220006,8.854501,-0.000296,-0.025062,0.014918,0.368408,0.462646,0.730469,-0.357454,3.640411,9.119503,0.016016,0.002834,0.007153,0.4375,-0.2771,-0.352783,-1.070072,2.779952,9.379734,-0.041374,0.005429,-0.011575,0.383545,-0.089355,-0.627441
-0.075254,-1.124064,9.733992,0.074899,0.032058,0.007448,-0.177246,0.449219,-0.554932,-0.413381,3.174125,9.239986,-0.007784,0.014515,0.008558,-0.885742,0.206543,0.050537,-0.760744,4.169394,8.886632,-0.015197,0.056534,-0.013862,0.367676,0.467285,0.73999,-0.304138,3.717341,9.161371,0.005181,-0.01189,0.012061,0.439453,-0.272461,-0.345703,-1.370232,2.670249,9.270417,0.008665,0.039325,-0.000879,0.373291,-0.085938,-0.641602
-0.088765,-1.024507,9.751164,-0.044648,-0.024723,-0.007258,-0.174072,0.457764,-0.548828,-0.280829,3.233065,9.270677,0.000458,-0.00775,0.005139,-0.889404,0.209717,0.053467,-0.742193,4.188304,8.871832,0.005931,-0.039811,0.011362,0.365723,0.466797,0.736816,-0.276487,3.673234,9.118196,-0.028066,0.009654,0.007337,0.4375,-0.268799,-0.3479,-1.242265,2.833927,9.362167,0.03933,-0.054998,-0.006809,0.374268,-0.083252,-0.633057
0.063717,-1.253734,9.816204,0.020866,0.013241,0.002224,-0.177734,0.457764,-0.553955,-0.338992,3.209044,9.238184,-0.021902,0.020981,0.012371,-0.893555,0.200684,0.05249,-0.545944,4.239189,8.890769,0.001988,0.014972,-0.003962,0.369629,0.463379,0.740479,-0.299947,3.640055,9.105864,0.00042,0.001524,0.011676,0.44043,-0.272949,-0.344238,-1.152799,2.764148,9.345645,-0.045946,0.03152,0.003443,0.375,-0.080322,-0.63623
-0.128861,-0.979804,9.746761,0.013731,0.006382,0.001596,-0.173828,0.453857,-0.549316,-0.321066,3.2203,9.291813,-0.000867,-0.006397,0.002661,-0.890625,0.210693,0.051025,-0.843569,4.166892,8.922411,-0.033338,0.039127,0.000968,0.367188,0.459229,0.736084,-0.3173,3.660625,9.219507,-0.01863,0.008287,0.010931,0.440918,-0.278076,-0.350098,-1.389703,2.69427,9.237755,0.02224,0.002611,-0.013366,0.375977,-0.082764,-0.633057
0.000772,-1.210589,9.830982,-0.047775,-0.01178,-0.004693,-0.174072,0.453613,-0.552734,-0.344719,3.212342,9.237058,-0.024469,0.023005,0.010331,-0.890869,0.205322,0.048584,-0.699495,4.148148,8.869621,0.004663,-0.049888,0.00958,0.367188,0.470947,0.73584,-0.329573,3.619419,9.144362,-0.00062,0.002567,0.00671,0.439453,-0.265869,-0.352783,-1.12538,2.832588,9.394958,0.002845,-0.046141,0.012233,0.374268,-0.08667,-0.639404
-0.070504,-1.170526,9.756221,0.018728,0.023862,0.002738,-0.17627,0.461426,-0.551514,-0.348102,3.166491,9.275335,-0.001169,-0.008046,0.004592,-0.883789,0.20166,0.052734,-0.621275,4.181376,8.863281,0.00878,0.03392,-0.007368,0.365723,0.461914,0.735596,-0.346244,3.661564,9.119373,0.018748,0.000634,0.013867,0.436523,-0.276367,-0.350586,-1.205337,2.645533,9.329208,-0.048932,0.060322,-0.008323,0.374512,-0.077148,-0.63916
-0.059843,-1.160712,9.665308,-0.015898,-0.019041,-0.004568,-0.178711,0.452148,-0.552734,-0.330247,3.199228,9.226144,-0.007996,0.012538,0.009144,-0.88501,0.208984,0.049072,-0.759426,4.262489,8.866778,0.044292,0.007695,0.001364,0.367188,0.468994,0.73584,-0.264158,3.792764,9.104219,0.024567,-0.020099,0.007749,0.439453,-0.27124,-0.350342,-1.406182,2.694538,9.294433,0.066205,-0.017471,-0.009573,0.371826,-0.08667,-0.640381
-0.011489,-1.212783,9.843042,0.061185,0.010879,0.003081,-0.176514,0.460449,-0.552979,-0.289472,3.269622,9.257689,0.012716,0.000716,0.00347,-0.885986,0.202148,0.050537,-0.687365,4.288648,8.965735,-0.05695,0.0044,-0.001534,0.367676,0.460449,0.731934,-0.289258,3.690417,9.267849,-0.090721,0.033102,0.013141,0.442871,-0.276855,-0.351318,-1.172013,2.973429,9.344791,0.039082,-0.032642,-0.002473,0.374756,-0.081055,-0.638672
-0.089974,-0.893849,9.801586,0.01373,0.010715,0.002363,-0.174805,0.451416,-0.553955,-0.375937,3.179787,9.293778,-0.052444,0.023286,0.020184,-0.887451,0.20459,0.050781,-0.731706,4.068422,8.789405,-0.048145,-0.01831,0.020479,0.366211,0.464355,0.734863,-0.402787,3.438507,9.028716,-0.01731,0.001915,0.004949,0.435791,-0.273438,-0.352295,-1.203507,2.77165,9.352904,-0.117593,0.018096,0.004721,0.375244,-0.084961,-0.638672
-0.047377,-1.175912,9.799679,-0.072903,-0.018554,-0.008695,-0.179199,0.454346,-0.556885,-0.34098,3.143014,9.2242,0.014554,-0.016436,-0.00787,-0.887695,0.203613,0.042969,-0.608489,4.15761,8.885762,0.041286,0.011711,-0.01583,0.37085,0.468018,0.739502,-0.250707,3.730631,9.229765,0.102951,-0.028902,0.015955,0.445557,-0.270752,-0.345215,-1.276312,2.449345,9.195947,-0.00197,0.009072,0.013179,0.371582,-0.082275,-0.639648
0.00115,-1.21716,9.800312,0.01818,0.02521,0.004612,-0.170166,0.45752,-0.54834,-0.282215,3.307956,9.316876,0.007949,0.025903,0.020534,-0.88916,0.213379,0.04834,-0.766756,4.203073,8.889647,0.018341,0.03078,0.005845,0.359863,0.465576,0.738281,-0.300926,3.792972,9.170071,-0.045325,0.029868,0.007483,0.433594,-0.272217,-0.349854,-1.290753,2.861331,9.393069,0.134583,-0.015528,-0.046026,0.378418,-0.081055,-0.631592
-0.124794,-1.104889,9.684418,-0.027003,-0.011183,-0.003097,-0.181641,0.456543,-0.553955,-0.428039,3.159293,9.28142,-0.06318,-0.007309,-0.001372,-0.888428,0.19873,0.050049,-0.677718,4.297779,8.875339,0.022082,-0.029787,-0.003863,0.373047,0.470459,0.729736,-0.355438,3.643415,9.129676,-0.041241,-0.003451,0.010076,0.44458,-0.270752,-0.359375,-1.113268,2.968032,9.383131,-0.065067,-0.004565,0.034166,0.366943,-0.081543,-0.637207
0.046684,-1.313824,9.831571,0.029799,0.001407,-0.000675,-0.169434,0.456543,-0.561523,-0.212935,3.154807,9.205819,0.029941,0.008665,0.012086,-0.88623,0.20166,0.044922,-0.682466,4.224158,8.869465,-0.069379,0.030426,0.004406,0.361572,0.459473,0.736328,-0.29684,3.605424,9.136011,-0.0053,-0.005263,0.012767,0.433838,-0.276855,-0.352783,-1.389635,2.601928,9.283733,-0.060223,0.038365,-0.022628,0.381348,-0.07959,-0.645264
-0.12279,-0.940759,9.73116,0.06247,0.016795,0.004907,-0.179932,0.448975,-0.552979,-0.457248,3.290881,9.280371,0.002372,0.020523,0.009216,-0.88916,0.20166,0.050781,-0.765523,4.103077,8.877779,-0.014245,-0.02451,0.009556,0.375977,0.473389,0.736816,-0.304059,3.684625,9.13607,0.034459,0.00302,0.008357,0.445801,-0.264404,-0.345947,-1.219832,2.70743,9.327993,0.062073,-0.066557,0.01066,0.366699,-0.088135,-0.637695
-0.009179,-1.087945,9.863117,-0.053072,-0.024481,-0.007407,-0.168457,0.464844,-0.551514,-0.253991,3.252021,9.246882,-0.037865,-0.017655,0.002894,-0.888428,0.195557,0.047852,-0.580796,4.166233,8.933932,0.004469,0.003558,-0.007735,0.369873,0.46582,0.73291,-0.288995,3.678491,9.220878,-0.045478,0.000503,0.012768,0.442139,-0.270996,-0.354736,-1.17091,2.825088,9.31554,0.006814,0.034376,-0.016775,0.381348,-0.077637,-0.635742
0.025101,-1.178292,9.830649,-0.010639,0.023251,0.003696,-0.176025,0.455811,-0.555908,-0.35615,3.125045,9.296603,-0.025244,0.031983,0.013427,-0.883789,0.206787,0.059082,-0.760048,4.183715,8.828679,0.042912,0.034306,0.007955,0.373047,0.468506,0.737549,-0.311263,3.607068,9.035792,0.005345,0.011619,0.003622,0.445557,-0.272217,-0.350586,-1.254997,2.744769,9.323849,-0.03489,-0.014594,0.004975,0.376465,-0.081299,-0.642578
-0.145698,-1.140507,9.677321,-0.03474,-0.002425,-0.005621,-0.168457,0.455078,-0.552246,-0.352969,3.194855,9.235171,0.033278,-0.011921,-0.002623,-0.883301,0.205322,0.056152,-0.717108,4.289277,8.886793,0.012564,-0.013328,-0.015694,0.370117,0.468018,0.729004,-0.357818,3.718998,9.183071,0.029117,0.001153,0.020788,0.44165,-0.272217,-0.356445,-1.23683,2.664511,9.313839,0.006373,0.01607,0.007227,0.379395,-0.081543,-0.636475
