# sampling frequency: 40
# units are seconds/meters/radians/a.u.
seg1_acc_x,seg1_acc_y,seg1_acc_z,seg1_gyr_x,seg1_gyr_y,seg1_gyr_z,seg1_mag_x,seg1_mag_y,seg1_mag_z,seg2_acc_x,seg2_acc_y,seg2_acc_z,seg2_gyr_x,seg2_gyr_y,seg2_gyr_z,seg2_mag_x,seg2_mag_y,seg2_mag_z,seg3_acc_x,seg3_acc_y,seg3_acc_z,seg3_gyr_x,seg3_gyr_y,seg3_gyr_z,seg3_mag_x,seg3_mag_y,seg3_mag_z,seg4_acc_x,seg4_acc_y,seg4_acc_z,seg4_gyr_x,seg4_gyr_y,seg4_gyr_z,seg4_mag_x,seg4_mag_y,seg4_mag_z,seg5_acc_x,seg5_acc_y,seg5_acc_z,seg5_gyr_x,seg5_gyr_y,seg5_gyr_z,seg5_mag_x,seg5_mag_y,seg5_mag_z
0.021349,-0.932296,9.823123,-0.00072,0.002519,-0.000653,-0.101562,0.41748,-0.5896,-0.326731,3.112624,9.266204,-0.006176,0.007685,0.007505,-0.743896,0.136475,-0.326904,-0.504321,3.723162,9.077106,0.001443,0.001249,0.001807,-0.056396,0.605225,0.772949,-0.240446,3.736872,9.102429,0.000309,0.005818,0.010058,0.564453,-0.125244,-0.227539,-0.514119,3.197625,9.240049,-0.001419,0.009754,-0.0047,0.358887,-0.197998,-0.583008
-0.002662,-0.895977,9.78158,0.007277,0.004546,0.001754,-0.107422,0.422363,-0.583008,-0.343008,3.137756,9.277753,-0.004491,0.006239,0.006778,-0.749512,0.141357,-0.319824,-0.493104,3.758472,9.113837,-0.003187,0.010184,-0.001655,-0.053467,0.606445,0.770508,-0.263846,3.769563,9.117379,0.000848,0.006151,0.010908,0.569824,-0.122314,-0.226074,-0.53144,3.221908,9.26602,0.007131,-0.007095,-0.00385,0.361816,-0.194824,-0.583252
-0.01216,-0.907245,9.813655,-0.006863,-0.00142,-0.00209,-0.099854,0.418701,-0.588135,-0.325596,3.111637,9.280716,-0.022135,0.003134,0.00804,-0.742676,0.134766,-0.325928,-0.523357,3.735025,9.072977,-0.008014,0.000146,0.004073,-0.05542,0.607178,0.765381,-0.263074,3.756151,9.099819,-0.011271,-0.006462,0.007754,0.565918,-0.123047,-0.234619,-0.486027,3.237107,9.222811,0.001345,-0.005064,-0.002116,0.362061,-0.194092,-0.590088
0.014939,-0.920648,9.807814,0.005326,0.003328,-0.001038,-0.108154,0.42334,-0.58374,-0.350932,3.105524,9.265649,0.00103,0.010098,0.0065,-0.749512,0.141357,-0.320068,-0.500577,3.73438,9.093645,-0.001058,0.005581,-0.000974,-0.057617,0.610352,0.773193,-0.219481,3.733611,9.114248,-0.008857,0.002785,0.010651,0.562744,-0.123291,-0.226807,-0.509438,3.232238,9.226542,-0.007307,0.004427,-0.002509,0.358398,-0.193848,-0.585205
-0.007734,-0.88439,9.790203,0.006886,0.003229,-0.000982,-0.107422,0.418457,-0.584229,-0.353605,3.14813,9.306366,-0.008838,0.003682,0.007698,-0.750244,0.135986,-0.322021,-0.530583,3.745722,9.10753,-0.004447,0.007265,0.000344,-0.05127,0.621826,0.764404,-0.266774,3.749208,9.10903,0.000124,0.011227,0.009469,0.570068,-0.109863,-0.235107,-0.51835,3.20346,9.246629,-0.000313,-0.001961,-0.002094,0.36377,-0.181396,-0.593994
0.001828,-0.906557,9.820939,-0.008619,-0.000113,-0.002756,-0.111572,0.421143,-0.589111,-0.324614,3.100192,9.29053,-0.020728,0.006707,0.008853,-0.753906,0.141357,-0.325195,-0.500029,3.753,9.081628,-0.004148,-0.002471,0.002619,-0.060547,0.609863,0.756348,-0.255625,3.764835,9.098328,-0.000471,-0.0052,0.010303,0.558838,-0.122314,-0.246094,-0.514729,3.228176,9.241824,0.013106,-0.002467,-0.004814,0.356445,-0.191895,-0.600098
-0.000442,-0.920492,9.824555,0.002181,0.00172,0.001922,-0.113281,0.423828,-0.586914,-0.358034,3.111983,9.265474,0.000864,0.007247,0.005224,-0.753174,0.142334,-0.323242,-0.505883,3.738923,9.083183,-0.006651,0.012772,0.001345,-0.063477,0.603271,0.770264,-0.215758,3.751138,9.101764,-0.010676,-0.001698,0.009112,0.559814,-0.127686,-0.227783,-0.491602,3.240979,9.215771,-0.009135,-0.004734,-0.001725,0.354004,-0.199707,-0.586182
-0.01223,-0.893408,9.810026,0.000972,0.003526,-0.001771,-0.10791,0.419434,-0.593018,-0.321677,3.140758,9.279937,-0.011812,0.004988,0.009984,-0.749268,0.139893,-0.330566,-0.526464,3.731136,9.091432,-0.001392,0.001095,0.001311,-0.057861,0.603516,0.768066,-0.256525,3.741975,9.113078,-0.007304,0.011027,0.010501,0.562988,-0.128174,-0.231934,-0.513538,3.197585,9.240095,-0.006164,0.003991,-0.004457,0.360352,-0.19873,-0.586426
-0.002915,-0.919685,9.800683,-0.003645,0.00151,-0.000156,-0.111816,0.42334,-0.580322,-0.341658,3.113364,9.261737,-0.012773,0.009271,0.009138,-0.752197,0.138428,-0.317627,-0.500328,3.742737,9.094134,-0.006069,0.00267,0.0017,-0.061768,0.603027,0.767822,-0.273712,3.749273,9.108028,-0.000732,-0.000386,0.009542,0.5625,-0.129883,-0.231689,-0.535365,3.236364,9.250074,0.015034,-0.00529,-0.005311,0.356934,-0.196533,-0.587646
0.005954,-0.904341,9.808685,0.003908,0.000703,-0.002192,-0.10791,0.415039,-0.586182,-0.34144,3.130303,9.286605,-0.00793,0.002376,0.006228,-0.747314,0.133545,-0.321777,-0.513472,3.723045,9.085373,-0.005308,0.006825,0.000401,-0.0625,0.606689,0.765625,-0.235955,3.752157,9.105666,-0.00406,-0.004852,0.009002,0.559814,-0.125244,-0.234619,-0.482747,3.250536,9.227224,-0.003766,-0.005566,-0.001439,0.355713,-0.195312,-0.593994
0.011129,-0.90085,9.796549,0.000796,0.00454,0.000806,-0.108887,0.425049,-0.584961,-0.33764,3.11526,9.289522,-0.011089,0.007824,0.00841,-0.749756,0.143555,-0.320801,-0.504292,3.748132,9.083403,-0.000696,-0.000708,0.002397,-0.055176,0.611572,0.768555,-0.241971,3.750747,9.090519,-0.007383,0.009371,0.009403,0.565674,-0.117432,-0.231934,-0.530682,3.211948,9.274848,-0.004854,0.00699,-0.002763,0.362793,-0.1875,-0.586426
-0.004804,-0.900659,9.789341,-0.002554,0.000503,4.6e-05,-0.105957,0.424561,-0.584961,-0.352234,3.123071,9.290572,-0.010282,0.006758,0.006114,-0.749268,0.140869,-0.322266,-0.500355,3.732226,9.10675,-0.010254,0.009871,0.000688,-0.0625,0.611328,0.775391,-0.277119,3.718084,9.117789,-0.008716,0.002918,0.010062,0.557861,-0.12085,-0.227051,-0.516741,3.214728,9.237482,0.001055,-0.006181,-0.002927,0.353027,-0.192383,-0.585938
-0.001577,-0.907238,9.820876,-0.00025,0.003427,-0.000799,-0.115479,0.42334,-0.587158,-0.342258,3.107312,9.277881,-0.010479,0.004836,0.007868,-0.756836,0.145264,-0.323975,-0.525719,3.739271,9.092036,0.003581,0.003203,0.001221,-0.058838,0.606445,0.764648,-0.24981,3.740777,9.107303,0.002637,-0.006354,0.009992,0.5625,-0.125244,-0.235352,-0.497791,3.234635,9.217568,0.013205,-0.001552,-0.005025,0.359375,-0.194336,-0.591797
0.003286,-0.904176,9.808701,0.001452,0.004337,-0.000324,-0.102783,0.426758,-0.589111,-0.356586,3.115275,9.278891,-0.009722,0.008017,0.008229,-0.745117,0.142822,-0.324707,-0.491249,3.740573,9.094178,-0.007175,0.003399,0.001092,-0.052734,0.604004,0.766357,-0.238071,3.756577,9.133345,-0.00668,0.007063,0.010255,0.56958,-0.126465,-0.231689,-0.502258,3.221962,9.255442,-0.011658,0.000687,-0.001662,0.365234,-0.198242,-0.592041
0.009172,-0.919832,9.807898,-0.000939,-0.001815,0.000292,-0.10498,0.41333,-0.584229,-0.330264,3.121158,9.272104,-0.009022,0.004156,0.006032,-0.749756,0.130859,-0.321045,-0.504245,3.720671,9.085498,-0.006235,0.005881,0.003598,-0.052979,0.606201,0.766846,-0.27466,3.750701,9.100194,-0.010933,0.004189,0.009283,0.568115,-0.126465,-0.234863,-0.503898,3.197417,9.217683,0.000606,-0.000989,-0.001002,0.364014,-0.19751,-0.591064
0.000483,-0.917139,9.812407,0.001912,0.005341,-0.002064,-0.110352,0.424561,-0.588379,-0.341179,3.124304,9.280787,-0.010687,0.009269,0.008313,-0.750732,0.144043,-0.325928,-0.508025,3.752235,9.107297,-0.002304,0.003767,-0.000997,-0.064941,0.605469,0.767334,-0.261111,3.737274,9.114097,-0.002524,-0.004452,0.011382,0.555908,-0.128418,-0.232666,-0.490236,3.233162,9.23811,0.008766,-0.004585,-0.005406,0.349854,-0.197754,-0.591064
-0.013608,-0.903279,9.801553,0.000611,0.001917,0.000273,-0.106689,0.427246,-0.586914,-0.338518,3.117236,9.289181,-0.008827,0.003679,0.00769,-0.750732,0.146973,-0.323975,-0.520504,3.724845,9.092971,-0.005345,0.006022,0.002983,-0.057129,0.605957,0.768066,-0.230407,3.739479,9.096252,-0.00647,0.00566,0.007975,0.563232,-0.124756,-0.233398,-0.479989,3.223704,9.238505,-0.007622,8.3e-05,-0.000447,0.35791,-0.200195,-0.590332
-0.000927,-0.916843,9.812435,-0.00072,0.002519,-0.000654,-0.111328,0.423584,-0.592773,-0.325582,3.133694,9.282584,-0.006994,0.008401,0.007868,-0.752686,0.141113,-0.329346,-0.503003,3.739234,9.090608,-0.000256,0.002577,-0.002124,-0.05957,0.604004,0.759766,-0.279236,3.772182,9.121903,0.001777,0.005616,0.012279,0.561279,-0.125977,-0.239746,-0.530373,3.231788,9.243098,0.008136,0.002009,-0.005936,0.356689,-0.197021,-0.59375
0.001397,-0.889531,9.781203,0.002978,0.002526,0.001211,-0.105713,0.421387,-0.581787,-0.364014,3.128789,9.298717,-0.013312,0.008013,0.007016,-0.745605,0.141357,-0.320557,-0.518964,3.751989,9.10332,-0.011746,0.006716,0.003482,-0.048096,0.605469,0.765381,-0.261726,3.762379,9.127974,-0.016472,-0.002831,0.007618,0.572754,-0.124756,-0.233154,-0.501502,3.221852,9.255521,-0.007507,-0.010291,-0.001593,0.369385,-0.195801,-0.5896
0.002658,-0.90942,9.816414,-0.007146,0.000294,-0.001414,-0.115234,0.423584,-0.591309,-0.325146,3.104141,9.267876,-0.014524,0.003968,0.007848,-0.755615,0.141113,-0.32666,-0.516717,3.718071,9.082392,-0.000915,0.000161,0.001174,-0.056885,0.598389,0.767578,-0.235678,3.723336,9.10085,-0.003783,0.000296,0.009094,0.564697,-0.129639,-0.230469,-0.502825,3.19807,9.217514,0.003203,0.00655,-0.003053,0.36084,-0.202148,-0.586426
0.008124,-0.924805,9.81564,0.009865,0.005756,0.000232,-0.11499,0.423828,-0.576904,-0.360556,3.132034,9.289919,0.004201,0.012252,0.007998,-0.757324,0.143799,-0.315186,-0.4879,3.759851,9.094315,0.002993,0.009258,-0.001343,-0.05542,0.607422,0.772461,-0.251799,3.768086,9.113015,0.006634,0.007285,0.012414,0.563965,-0.122559,-0.231445,-0.521194,3.252217,9.245467,0.008361,-0.001775,-0.004821,0.361328,-0.195068,-0.584473
-0.017439,-0.864514,9.778921,0.001702,0.00091,0.000476,-0.111572,0.421143,-0.590576,-0.352488,3.132878,9.288019,-0.020365,0.001125,0.006169,-0.753418,0.141113,-0.327148,-0.528564,3.735672,9.088519,-0.016267,0.003976,0.003992,-0.050537,0.610352,0.768311,-0.251783,3.767246,9.113363,-0.01458,0.00119,0.008401,0.571777,-0.122314,-0.231689,-0.500561,3.232742,9.246464,-0.011296,-0.006186,-0.000657,0.365479,-0.190918,-0.58667
0.006002,-0.91956,9.831875,-0.009176,-0.000514,-0.001325,-0.107422,0.418213,-0.590332,-0.332651,3.081457,9.274812,-0.01618,0.009079,0.010128,-0.750244,0.137207,-0.325684,-0.498379,3.705563,9.064891,-0.000841,-0.003254,0.002976,-0.057617,0.605957,0.766602,-0.235908,3.735895,9.096792,-0.011336,-0.005552,0.011889,0.565674,-0.123535,-0.231934,-0.519676,3.201094,9.218929,0.006587,0.005253,-0.003404,0.361328,-0.197021,-0.587891
0.000811,-0.926981,9.827896,0.011098,0.005759,0.000854,-0.104492,0.420654,-0.581787,-0.370317,3.135132,9.276696,0.009583,0.005977,0.004725,-0.746094,0.135742,-0.31958,-0.504081,3.754258,9.097064,0.000412,0.015905,-0.003899,-0.060303,0.612549,0.764893,-0.248008,3.735014,9.102491,0.000153,0.008451,0.010075,0.560547,-0.117432,-0.236572,-0.502118,3.23051,9.232927,-0.000938,-0.00826,-0.002125,0.354004,-0.189941,-0.590088
-0.007002,-0.873307,9.805997,-0.005453,0.001301,-0.002532,-0.105469,0.419189,-0.5896,-0.316744,3.148284,9.298892,-0.022938,0.003878,0.008355,-0.746338,0.137451,-0.325439,-0.523889,3.738319,9.099908,-0.008597,-0.003172,0.005683,-0.054688,0.605957,0.765625,-0.277773,3.767145,9.102053,-0.003647,0.004256,0.008849,0.564453,-0.124756,-0.234863,-0.491096,3.21251,9.255885,-0.000777,0.004,-0.002888,0.363037,-0.194336,-0.592773
-0.000725,-0.945181,9.815368,-0.002739,-0.002121,-0.000488,-0.11377,0.428223,-0.588867,-0.34693,3.098348,9.259096,-0.008852,0.010324,0.006936,-0.75415,0.14624,-0.326172,-0.477557,3.731215,9.062054,-0.003026,0.00336,0.001961,-0.052002,0.601807,0.761475,-0.24919,3.761651,9.115745,-0.007097,-0.004805,0.010999,0.570068,-0.129395,-0.242188,-0.547286,3.224522,9.253409,0.004146,-0.002149,-0.004336,0.362549,-0.199951,-0.595947
0.009685,-0.897244,9.80838,0.009635,0.005255,0.001102,-0.104004,0.41748,-0.582275,-0.334113,3.142585,9.282044,-0.001734,0.002656,0.004313,-0.747314,0.136963,-0.319336,-0.527772,3.744119,9.089024,0.000436,0.013091,-0.000975,-0.056152,0.609131,0.766113,-0.248326,3.747944,9.098293,-0.00645,0.003959,0.0095,0.563721,-0.122559,-0.234863,-0.486515,3.22596,9.217745,-0.001275,-0.006995,-0.001596,0.361084,-0.192139,-0.591797
-0.031039,-0.892738,9.774625,-0.00649,8.9e-05,-0.002545,-0.118896,0.420898,-0.589355,-0.330472,3.127334,9.284983,-0.018862,0.008407,0.009927,-0.760254,0.139404,-0.32666,-0.484281,3.751082,9.11865,-0.009294,-0.006823,0.003836,-0.057373,0.605469,0.766846,-0.248272,3.746219,9.099005,-0.009254,0.003663,0.010149,0.5625,-0.125732,-0.237061,-0.513462,3.218676,9.250518,-0.005218,0.00741,-0.003516,0.358154,-0.196777,-0.591309
0.018975,-0.919823,9.839091,-0.001791,-0.000403,0.000813,-0.106689,0.422363,-0.583252,-0.339728,3.114028,9.282783,-0.004435,0.005935,0.006228,-0.748535,0.142334,-0.319824,-0.488178,3.703013,9.082195,-0.008066,0.010125,0.001008,-0.054932,0.606445,0.768066,-0.241573,3.732736,9.097159,-0.003186,-0.000903,0.008254,0.562988,-0.125244,-0.235352,-0.507279,3.204467,9.223887,0.004665,-0.004815,-0.002411,0.360352,-0.196289,-0.588379
0.014398,-0.91302,9.807575,0.006451,0.00777,-0.000795,-0.108643,0.421143,-0.587402,-0.351235,3.125655,9.296821,-0.011206,0.004689,0.006563,-0.747803,0.138672,-0.324219,-0.493355,3.734064,9.104163,-0.004404,0.009484,-0.003688,-0.060791,0.609375,0.766357,-0.242317,3.748032,9.128739,-0.007392,-0.000163,0.013458,0.561279,-0.123047,-0.232666,-0.522426,3.240498,9.240567,0.011859,-0.002927,-0.002663,0.354736,-0.192139,-0.589111
-0.017137,-0.866276,9.850592,-0.000981,-0.007166,-0.001338,-0.106689,0.419189,-0.579102,-0.352047,3.09559,9.268045,-0.014214,0.005027,0.00443,-0.749512,0.13916,-0.31665,-0.542324,3.695219,9.065849,-0.011435,0.003539,0.004483,-0.053223,0.603516,0.764648,-0.262508,3.724351,9.023103,-0.017048,-0.000127,0.012775,0.565674,-0.125732,-0.236816,-0.488607,3.222766,9.247131,-0.028161,-0.009304,0.002729,0.361328,-0.196289,-0.591309
0.219317,-0.851957,10.306112,-0.021417,0.042054,0.00158,-0.106934,0.424316,-0.584717,-0.290298,3.090953,9.300124,0.00218,0.00164,0.007463,-0.748779,0.141846,-0.318604,-0.443933,3.75714,9.092612,0.018426,0.000616,-0.000889,-0.059814,0.609863,0.767578,-0.197688,3.725497,9.17977,0.019307,-0.002603,0.008547,0.561523,-0.123047,-0.234375,-0.474703,3.151396,9.144933,0.017849,0.004925,-0.006504,0.355225,-0.193359,-0.589355
-0.019077,-0.396781,9.991773,-0.091275,0.105981,-0.027576,-0.103271,0.426514,-0.585205,-0.341587,3.137355,9.24158,-0.007402,0.012447,0.01559,-0.746094,0.144531,-0.319336,-0.520222,3.84136,9.117794,0.002696,0.021816,-0.006513,-0.054688,0.608643,0.758057,-0.240175,3.824244,9.103912,0.007861,0.011887,0.013882,0.566162,-0.123047,-0.241943,-0.508964,3.297534,9.285535,0.021208,0.002791,-0.008138,0.362305,-0.194092,-0.597412
0.058602,-1.256866,10.461197,-0.726064,0.126088,-0.006375,-0.108643,0.438721,-0.583252,-0.436654,3.085066,9.301998,-0.001844,-0.000664,0.015264,-0.753174,0.141602,-0.322998,-0.599532,3.6658,9.118378,-0.049902,-0.011543,0.018937,-0.054443,0.610107,0.771729,-0.353065,3.74001,9.150508,-0.03961,0.017143,0.008027,0.568359,-0.119141,-0.231201,-0.547206,3.208074,9.284011,-0.023694,0.002625,0.002705,0.361084,-0.191162,-0.587158
-0.343963,-2.743086,8.248463,0.339535,0.150189,0.078437,-0.092529,0.436523,-0.577637,-0.222705,3.235487,9.338701,-0.019224,0.032299,-0.008509,-0.738525,0.144775,-0.312744,-0.451208,3.662289,9.053232,0.038361,0.015296,-0.003029,-0.057129,0.604736,0.765381,-0.26493,3.594511,9.197787,-0.035385,-0.006991,0.009787,0.566162,-0.127197,-0.236572,-0.476202,2.636851,9.369493,-0.304337,-0.012596,-0.024151,0.361084,-0.194336,-0.594971
-0.092592,-1.144118,11.291042,0.364923,0.0289,-0.053471,-0.109375,0.425049,-0.594727,-0.56054,2.763425,9.271646,-0.057408,0.007465,0.074541,-0.756836,0.145996,-0.328613,-0.592145,3.687932,8.971273,0.047629,0.009981,-0.013521,-0.053955,0.607666,0.762207,-0.263378,3.55318,8.791823,0.141923,-0.004525,-0.007681,0.567871,-0.123535,-0.233398,-0.645125,2.097988,9.490186,0.304379,0.079007,-0.220115,0.36499,-0.193604,-0.591309
1.11043,-4.729994,11.082452,1.611399,0.430508,0.060696,-0.092041,0.385742,-0.598145,-0.120332,3.499815,9.015897,0.223517,-0.012243,-0.059971,-0.750244,0.131348,-0.321045,-0.471586,4.023634,9.342664,0.039879,-0.007706,-0.011634,-0.056152,0.603027,0.755859,-0.401861,4.07949,9.381378,0.027013,-0.048196,0.040127,0.565186,-0.125977,-0.242188,-0.781352,4.085705,9.190017,0.450326,-0.249676,-0.233806,0.356445,-0.201416,-0.595947
0.021406,-2.132426,11.174917,2.898687,0.842834,0.119302,-0.075195,0.330078,-0.621094,-0.468192,3.18256,9.790218,-0.341391,0.046825,0.109834,-0.748291,0.140381,-0.326416,-0.403413,3.83723,8.894402,-0.132306,0.031997,0.007431,-0.053711,0.609863,0.769043,-0.025305,4.023061,8.833845,-0.056542,-0.057729,-0.038445,0.56665,-0.122314,-0.23584,-0.051503,5.005426,9.209478,0.073511,0.037824,0.007902,0.36499,-0.200195,-0.589355
0.022279,-0.437736,10.042047,3.64626,0.939554,-0.063604,-0.055664,0.27124,-0.629395,-0.384678,1.92382,8.853289,-0.136283,-0.009423,0.032785,-0.744873,0.151611,-0.323486,-0.766402,3.621672,9.188565,-0.157384,0.033577,0.00588,-0.061035,0.600586,0.770508,-0.366745,4.054104,9.301624,-0.185508,0.069181,0.084999,0.562256,-0.129395,-0.229736,-1.175379,4.234467,9.358476,-0.619012,-0.030394,0.143204,0.357666,-0.195557,-0.587158
-0.72475,3.862787,10.638417,3.191067,1.258659,0.04471,-0.036865,0.199951,-0.642334,-0.312492,2.529895,9.538899,0.270948,0.010352,0.180146,-0.749756,0.141846,-0.32373,-0.419204,3.590962,9.100748,-0.010404,-0.053239,0.030561,-0.058594,0.605957,0.771973,-0.289745,3.3642,9.142897,-0.304587,-0.083623,-0.028017,0.562012,-0.118408,-0.230957,0.239126,1.588075,8.285663,-0.65033,-0.206009,0.230928,0.349854,-0.179199,-0.590332
-0.243809,5.313341,9.913949,1.576491,1.079271,-0.225873,-0.016113,0.161865,-0.638672,-0.072589,4.097693,8.904428,0.283528,-0.022771,0.058189,-0.74707,0.133789,-0.318604,-0.134443,3.422472,9.014008,-0.032975,-0.001598,0.014319,-0.052979,0.607422,0.765381,0.303249,2.752198,8.754345,0.038908,-0.012724,0.002637,0.56665,-0.117676,-0.237549,-0.173255,1.723073,8.906793,0.677256,0.314065,-0.066087,0.361816,-0.188232,-0.592529
-2.478945,5.366232,8.910206,-0.05804,1.245281,-0.276418,0.003174,0.15918,-0.637207,-0.426861,3.609098,9.718286,-0.464958,0.028366,0.195177,-0.748047,0.14209,-0.316162,-0.763375,3.825151,9.145414,0.212194,0.168622,-0.05928,-0.059326,0.611816,0.765137,-0.536034,3.954102,9.324191,0.536099,0.177233,0.069227,0.567139,-0.123291,-0.238525,-1.316842,4.996041,10.314236,0.628464,-0.064031,0.025333,0.357178,-0.19873,-0.592773
-1.166559,2.926738,8.626751,-1.201983,0.748655,-0.148356,0.016113,0.183838,-0.650635,-0.677164,2.82634,8.87768,0.252201,-0.030111,-0.038512,-0.752686,0.142822,-0.322998,-0.9475,4.268167,8.982752,-0.086839,-0.048177,0.012207,-0.063232,0.60376,0.767822,-0.93138,5.225641,9.373614,0.006729,-0.115694,0.000189,0.5625,-0.125732,-0.236084,-0.526222,4.59288,10.012442,-0.653426,-0.115172,0.177524,0.353027,-0.195557,-0.594482
-2.160208,-0.457874,8.587763,-0.901316,0.911733,-0.01396,0.031006,0.194336,-0.644775,0.361016,4.518452,9.468192,0.104588,-0.009923,0.007701,-0.750488,0.138184,-0.31665,-0.063809,4.320468,9.223653,-0.300445,-0.095448,0.039944,-0.059326,0.607666,0.770752,0.407974,4.28069,9.121945,-0.791183,-0.289759,0.018032,0.55835,-0.113281,-0.239258,-0.474903,2.928546,8.780899,-0.267165,-0.140977,0.146538,0.349854,-0.185303,-0.593262
-1.4812,-1.3434,8.495435,0.609459,0.72787,-0.037853,0.049805,0.1875,-0.64917,-0.615592,2.355735,9.421146,-0.768224,0.080581,0.072619,-0.743164,0.151611,-0.314697,-0.509784,3.331572,9.198334,-0.511862,0.158573,0.005105,-0.056152,0.58667,0.771729,0.319949,2.723112,8.9582,-0.555372,0.270159,-0.02817,0.565918,-0.115234,-0.241211,-0.245691,3.952572,10.098633,-0.222615,-0.229239,0.438848,0.35083,-0.192627,-0.598877
-2.396031,0.749437,8.486287,2.170028,0.708522,-0.059409,0.061523,0.141846,-0.655273,-0.189212,1.594143,8.841846,0.410244,-0.108333,0.044347,-0.743164,0.146973,-0.32251,-0.780953,3.234652,8.963582,-0.015242,-0.143056,0.0717,-0.052002,0.596924,0.770264,-1.118075,3.447399,9.087486,0.202167,0.004149,0.016313,0.566162,-0.108398,-0.23877,-0.366194,1.335687,9.205713,-1.095563,-0.148208,0.071602,0.3479,-0.165283,-0.597412
-2.614447,3.139825,9.160595,2.315125,0.727143,-0.159711,0.069092,0.089355,-0.649658,-0.304522,4.496672,9.280535,0.533755,0.116788,0.0421,-0.753906,0.136719,-0.322998,-0.346481,4.637855,9.101865,-0.073187,0.103474,-0.051349,-0.061035,0.593506,0.77124,-0.263421,4.687344,9.864427,-0.274328,-0.281727,-0.081459,0.553711,-0.107666,-0.240967,-1.056432,2.796924,10.548443,1.013394,-0.186214,-0.060618,0.335938,-0.184814,-0.594727
-2.57889,5.743359,9.613651,1.684096,0.660048,-0.165839,0.082031,0.058594,-0.640625,-0.335021,4.283679,9.726559,-0.531408,-0.058634,0.111827,-0.750732,0.145996,-0.315918,-0.832141,4.442035,9.585775,-1.048313,-0.048862,-0.017734,-0.053223,0.570801,0.774658,-0.13385,3.874752,10.670172,-1.184999,-0.093088,0.059601,0.557373,-0.10498,-0.248535,0.264568,8.407983,11.909798,0.542188,-0.815352,0.575547,0.327393,-0.200928,-0.602295
-3.263507,5.332933,8.964604,-0.194378,0.511117,-0.461925,0.088623,0.060547,-0.645264,-0.234089,2.355608,8.624262,-0.268321,0.135346,0.069519,-0.753418,0.152344,-0.324219,-0.84034,1.477596,9.432098,-0.692338,-0.133918,0.148692,-0.057129,0.567139,0.781006,-1.279337,1.464366,8.950912,-0.585413,-0.340018,-0.091418,0.541992,-0.093262,-0.241943,1.264203,10.442484,12.470154,-0.418315,0.257052,2.175527,0.311768,-0.201416,-0.591797
-1.115959,4.213592,8.961479,0.06315,0.639729,-0.055324,0.101318,0.057129,-0.644287,-0.169578,2.29331,9.570467,0.119173,-0.148068,0.016503,-0.753174,0.146973,-0.317139,0.334675,3.356524,9.712212,-0.068141,-0.290971,-0.20913,-0.049805,0.55542,0.773682,1.43572,4.367048,9.189237,0.524852,-0.976853,0.197237,0.532471,-0.102295,-0.258301,-2.23888,-2.986311,2.94568,-5.494404,-0.357105,1.339547,0.30127,-0.123535,-0.606445
-3.557785,3.239683,9.674593,-0.524419,0.897479,-0.475989,0.12207,0.07251,-0.641113,-0.344245,3.180167,9.415386,0.043847,0.205343,-0.011468,-0.746338,0.152344,-0.316162,-0.860795,2.814356,9.075444,-0.400843,0.277278,0.332065,-0.05542,0.553223,0.768311,1.753152,4.193753,9.157244,-0.831991,0.664245,0.054121,0.5271,-0.09668,-0.254883,1.173449,-7.898109,5.31477,1.881812,0.048204,-0.104658,0.297119,-0.151611,-0.604248
-3.344316,0.591806,9.008588,0.69571,0.8737,-0.252907,0.133301,0.058838,-0.64209,-0.805152,3.124681,9.165797,0.091071,-0.177647,0.110586,-0.754395,0.153809,-0.314209,-1.223962,3.215804,9.785845,-0.121621,-0.51665,-0.129902,-0.05127,0.54541,0.766846,-1.807517,2.232802,9.764432,-0.864984,0.439319,0.112616,0.523682,-0.089111,-0.246582,-0.895775,6.434262,10.557032,3.359251,-0.208427,-0.272736,0.298096,-0.201904,-0.589111
-4.390689,4.731152,9.583347,1.110382,0.828072,-0.620752,0.154053,0.037842,-0.636963,0.010661,3.918441,9.221559,-0.090885,0.189518,-0.044573,-0.748291,0.157715,-0.320312,0.098213,1.973683,9.309528,-0.243149,-0.075586,0.420987,-0.046143,0.543701,0.756348,-0.64609,0.078054,9.973511,-0.110072,-0.343379,-0.02993,0.519287,-0.082275,-0.252686,2.436859,7.92192,12.250036,-1.538258,0.061728,0.058513,0.298096,-0.17334,-0.596924
-1.524593,5.019881,8.41655,0.560537,0.728361,-0.487056,0.168701,0.021973,-0.637451,-0.874739,2.830659,8.951972,-0.149929,-0.148531,0.144557,-0.747803,0.157471,-0.319092,-1.030424,2.390812,9.566729,0.76139,-0.253727,-0.275162,-0.038818,0.55127,0.742432,0.5968,2.735268,10.371788,1.658862,-0.059238,0.044085,0.523438,-0.093262,-0.253174,-1.188479,0.036351,10.818775,-1.196802,0.635951,1.416621,0.309082,-0.161865,-0.598633
-4.904606,6.493089,10.428013,0.210195,1.681706,-0.660118,0.190186,0.020752,-0.636963,0.911287,3.901414,10.02288,0.152786,0.040068,-0.215893,-0.758789,0.154541,-0.323486,0.541475,4.156252,9.615299,0.38609,-0.415641,0.273842,-0.040527,0.555176,0.73877,-0.398093,5.516774,10.59737,0.295104,-0.203867,0.223928,0.505371,-0.099609,-0.246094,0.046604,0.815046,9.349695,1.426846,-0.673709,-0.106631,0.2854,-0.18042,-0.586426
-3.45764,4.209601,7.768408,-0.879259,0.846354,-0.3501,0.216553,0.03833,-0.633789,-1.050305,4.544937,8.245406,0.310589,0.24933,-0.187969,-0.745605,0.151367,-0.324707,-0.551479,3.11892,9.918563,-0.300449,-0.220409,-0.014708,-0.033447,0.548828,0.726318,0.813711,2.786669,10.05545,-1.121959,-0.208646,-0.228611,0.498047,-0.084473,-0.253662,2.270937,5.062584,10.226868,0.90177,0.099481,1.290406,0.284424,-0.193604,-0.584961
-4.884047,3.652782,7.234389,-0.513771,1.490952,-0.314097,0.235352,0.046143,-0.642334,-0.410636,6.336321,8.913034,0.131417,-0.203274,-0.78696,-0.753662,0.139893,-0.334961,-0.479494,3.468541,9.405817,-0.073523,-0.595181,0.001499,-0.028564,0.53125,0.717041,0.086059,1.280127,9.864447,-0.261051,0.305186,0.154356,0.488281,-0.091553,-0.248291,-0.59628,4.747765,11.61239,-1.212002,0.43401,0.411912,0.282227,-0.182373,-0.587402
-3.670163,2.984478,7.597984,-0.597047,1.361038,0.138462,0.260254,0.059814,-0.636963,-0.813444,3.711393,8.890811,-0.898439,0.003602,-0.565732,-0.74707,0.142334,-0.331787,-0.167382,4.682084,9.39565,-0.271951,-0.511717,-0.089483,-0.028076,0.523438,0.710693,-1.894769,3.671898,9.206502,0.498469,-0.172171,-0.242035,0.478516,-0.088623,-0.24292,-0.578043,1.431802,9.684872,-0.951241,-0.358491,1.906122,0.268066,-0.170166,-0.582764
-5.945161,2.766843,7.687702,0.049164,1.617355,0.423888,0.287842,0.061279,-0.637695,-1.040412,2.857029,11.32933,-0.244419,-0.179947,-1.140336,-0.744141,0.132324,-0.340576,-0.22513,3.552837,10.657846,-2.013627,-0.448086,0.074649,-0.018799,0.482666,0.714355,0.337514,7.041892,10.032993,-0.574583,-0.721998,0.04584,0.467041,-0.084229,-0.249512,-0.660955,3.661701,10.476427,-0.007455,-0.131654,0.319249,0.268066,-0.16748,-0.580566
-6.224387,3.850744,8.926413,-0.903555,1.224294,0.176164,0.312256,0.072754,-0.627441,-1.653968,-0.547352,8.239176,-1.006031,0.024862,-0.466052,-0.732178,0.128906,-0.337646,-0.899323,0.168045,8.96012,-1.700149,-0.558061,0.422792,-0.019043,0.44165,0.70459,-0.294272,4.308742,9.455686,-3.299901,0.339867,0.193056,0.455811,-0.059082,-0.25,-0.719563,5.0241,9.841589,-1.899073,-0.376051,0.764223,0.25293,-0.138428,-0.5896
-4.197586,-0.808388,5.568925,-1.500746,1.057694,-1.076232,0.328369,0.109131,-0.631836,0.062873,3.253185,11.820593,-0.929273,-0.414966,-0.363488,-0.736084,0.134033,-0.340576,0.857446,4.556595,8.071106,0.258954,-0.469488,-0.595143,-0.029541,0.437744,0.687012,-1.637242,-1.055822,8.412832,-2.329562,-0.302175,-0.128909,0.438232,-0.042969,-0.250488,0.432565,1.516392,9.928424,-2.423092,-0.631451,1.152484,0.233887,-0.105225,-0.596924
-8.096488,0.642545,7.833726,-0.484861,1.591875,-0.798138,0.36084,0.112549,-0.623535,-0.598953,2.178416,8.325045,-2.035476,0.460743,0.673491,-0.716309,0.1604,-0.346924,-0.089238,7.048829,11.22783,-2.758243,0.196686,0.051879,-0.040527,0.404053,0.696045,0.053845,1.454639,9.580599,-0.391136,-0.97344,-0.041929,0.42627,-0.023682,-0.246826,0.62476,-0.722606,9.313207,-2.11638,-0.151295,0.892684,0.229736,-0.061279,-0.585693
-6.504862,0.55933,7.430114,0.159979,0.657399,-0.836746,0.371094,0.108398,-0.613281,-1.318149,-0.015904,11.634534,-1.26645,-0.219146,-0.103081,-0.707764,0.162598,-0.343018,-0.211996,-1.251269,10.173961,-3.82416,-1.086712,0.265879,-0.032715,0.335205,0.696777,1.487615,4.118235,10.794916,-1.658953,-0.387862,-0.226044,0.41626,-0.016357,-0.242432,0.102064,-0.402043,9.847263,-1.220985,-0.765675,0.854745,0.218506,-0.047607,-0.584473
-7.834736,2.68946,7.108889,0.573856,1.021146,0.185317,0.383057,0.107422,-0.619141,-0.594917,-1.829341,8.674327,1.793636,0.07855,0.28641,-0.706299,0.154785,-0.370605,2.605856,-3.447675,10.002033,-0.808053,0.011931,-0.211462,-0.056885,0.319336,0.683838,-0.016099,0.421869,11.316541,-3.123869,0.037415,-0.018103,0.392578,0.011963,-0.223145,2.097679,1.208868,11.127624,-1.081508,-0.270008,0.312289,0.200439,-0.031494,-0.569824
-5.50327,2.768384,6.972678,0.110923,0.880408,0.122157,0.399902,0.102295,-0.611084,-1.211764,5.705741,11.52514,2.976678,-0.216108,-0.614488,-0.697021,0.111084,-0.376221,-0.122289,0.022434,11.367165,0.081232,0.320479,-0.354647,-0.072021,0.316406,0.643799,0.152295,-3.642211,9.363969,-0.988507,-0.71905,-0.022377,0.37915,0.024414,-0.231445,0.52833,-0.578587,10.864715,-1.567537,-0.352843,0.714798,0.193604,0.001709,-0.57251
-8.454018,2.618736,7.160534,-0.094016,1.078506,-0.116005,0.420654,0.103271,-0.596191,0.021152,3.468522,10.465561,-0.161752,-0.371646,0.248853,-0.68335,0.109619,-0.375,0.875367,0.341479,10.2167,0.203729,-0.375463,0.329845,-0.072266,0.318115,0.604004,1.436375,-1.501988,10.088162,1.680259,-0.595029,0.200301,0.367676,0.020752,-0.23584,1.576883,-4.695038,9.666757,-0.280441,-0.506272,0.011801,0.187744,0.019287,-0.571533
-7.581592,2.455365,7.400756,-0.729888,0.552342,0.092245,0.441895,0.120361,-0.588623,0.834093,-3.109113,8.212897,1.814894,-0.223939,0.088385,-0.662109,0.091797,-0.375244,1.932771,-2.217243,8.767277,1.342548,0.130808,0.055067,-0.079346,0.324951,0.558838,1.041886,1.051841,9.788312,2.114706,-0.401384,-0.011967,0.360107,0.00415,-0.24292,1.757055,-4.635685,10.40566,2.736666,-0.518399,0.138907,0.178223,-0.018555,-0.576904
-7.746858,0.097545,5.943768,-0.313211,0.21112,-0.355082,0.442383,0.119385,-0.58667,-0.123756,-1.599451,9.234208,5.23858,0.553855,0.2886,-0.657715,0.027832,-0.388672,0.397448,-4.106568,9.181086,4.186183,0.269099,0.404529,-0.091553,0.361084,0.513428,1.41363,-2.207686,7.556445,2.878901,-0.60891,0.311394,0.338379,-0.020264,-0.242676,1.551366,-1.571716,7.495832,4.833174,-0.374611,-0.895756,0.162109,-0.084473,-0.56958
-7.13331,2.023354,5.839745,-0.156029,0.544237,-0.231939,0.446533,0.121094,-0.585205,-3.031831,8.922588,9.200137,5.722457,-0.277187,0.164151,-0.662354,-0.038818,-0.379639,0.393341,5.083468,10.188335,5.393237,0.397567,-0.488051,-0.11084,0.400635,0.446533,-0.070681,1.559001,10.518724,4.833348,-0.210785,0.253707,0.326416,-0.065918,-0.254639,0.204958,5.852176,8.65756,4.261833,-0.482117,-0.104016,0.147949,-0.152344,-0.57251
-8.573655,0.421218,6.425504,-0.554405,0.312804,-0.61488,0.455566,0.138184,-0.575928,1.982946,12.084783,9.736939,0.946389,-0.140182,0.264577,-0.645508,-0.051758,-0.377686,-0.545048,9.471143,10.239814,0.90425,0.632602,0.171254,-0.121338,0.389648,0.410889,0.801936,7.422046,10.556766,2.094285,-0.969827,0.229891,0.313721,-0.079834,-0.261963,2.802605,5.925525,10.621187,0.010187,-0.776763,0.197841,0.134277,-0.143066,-0.572266
-9.42881,1.117651,6.487049,0.098128,0.083397,-0.596416,0.455811,0.138428,-0.568604,-1.878744,4.80489,8.373289,-0.19181,0.608995,0.343178,-0.629883,-0.057617,-0.385742,-0.607188,1.868019,10.04542,-1.155907,-0.642114,0.693729,-0.120605,0.35376,0.379639,2.783438,4.946716,9.19566,-0.348059,-0.395636,-0.159202,0.296631,-0.075928,-0.262939,2.11435,0.181653,7.689618,0.182429,0.289282,0.510119,0.131104,-0.146729,-0.575928
-7.542702,3.256981,6.809071,-0.304962,-0.314635,0.055406,0.463867,0.154297,-0.571777,0.446104,7.490248,8.329338,1.832724,-0.083411,-0.116856,-0.600586,-0.073242,-0.387207,2.797817,2.391633,9.436215,1.98789,0.261159,-0.304475,-0.128906,0.352539,0.341553,1.476817,3.548235,9.02854,0.736018,0.182569,0.348537,0.292236,-0.081299,-0.252197,0.510598,4.556605,9.161651,2.201907,-0.67701,-0.505342,0.124268,-0.171631,-0.556152
-7.574905,0.50687,5.333176,-1.005363,-0.130779,-0.676597,0.459473,0.166992,-0.560791,-1.660179,10.499209,9.832427,-0.684519,0.496909,0.206534,-0.582031,-0.084229,-0.391846,-1.470837,7.99973,11.583994,0.342556,0.941718,-0.042704,-0.148193,0.329346,0.298828,0.730375,7.119755,10.028852,0.979081,-0.418889,0.156188,0.266113,-0.089111,-0.256348,3.348661,8.674119,9.180961,0.142064,-0.392727,-0.06996,0.104492,-0.172607,-0.557861
-7.347371,-1.586667,5.262609,0.528666,-0.226299,0.053589,0.466797,0.152344,-0.563965,-0.732921,5.366458,8.431226,-2.285257,-0.404613,-0.214162,-0.549072,-0.079346,-0.403809,0.021562,4.732291,10.756745,-2.777257,-0.870924,0.818815,-0.14209,0.289307,0.26416,2.882599,7.657709,9.964535,-1.969398,-0.257228,0.63682,0.248535,-0.067139,-0.266602,1.257961,5.52613,9.687524,-2.62338,0.169417,-0.792466,0.110107,-0.121338,-0.570068
-8.434036,3.218818,7.583,0.892916,-0.274907,-0.459186,0.461426,0.150879,-0.558838,0.249031,4.262724,8.303808,-0.732219,0.261091,0.186025,-0.530762,-0.068604,-0.412109,2.127474,0.42102,8.621777,-1.428452,0.602429,0.317068,-0.166016,0.249512,0.232178,1.409395,1.311916,9.663571,-3.2143,0.598888,0.387868,0.216064,-0.05127,-0.256836,1.761075,0.088586,8.909627,-1.950887,-0.540476,-0.190322,0.081787,-0.095459,-0.563721
-8.175176,1.38391,7.00774,-0.42356,-0.666056,-0.516067,0.452637,0.151367,-0.554443,-0.931938,5.300839,9.19331,-0.886629,0.063275,-0.028808,-0.509033,-0.08252,-0.416504,-2.040135,2.701698,9.931625,-0.235263,0.488245,-0.217739,-0.171631,0.229248,0.190674,0.418485,-1.565656,9.267013,-1.002063,-0.100986,0.354253,0.199951,-0.038086,-0.262207,2.738294,0.767066,9.362582,-0.367171,-0.25038,-0.47214,0.076172,-0.080322,-0.5625
-7.848182,0.11377,6.46209,0.410254,-0.50869,-0.212528,0.449951,0.155273,-0.552002,-0.21772,3.406231,8.982735,0.053023,0.325999,0.308491,-0.484131,-0.079834,-0.426025,1.234798,4.205784,11.004505,-1.105308,-0.630951,0.496891,-0.169434,0.205078,0.149414,1.933368,0.79307,9.820517,0.095628,-0.445522,0.351928,0.189209,-0.039062,-0.268555,2.436544,1.571813,9.686606,-1.162964,-0.0184,-0.012247,0.079102,-0.058594,-0.565186
-9.605996,1.357464,8.013511,0.637079,-0.574561,-0.222747,0.443848,0.145752,-0.553223,-1.754996,-0.111451,7.29768,2.670158,-0.040641,0.213637,-0.467529,-0.119141,-0.419678,1.415415,3.20188,11.628491,-1.455775,0.901627,-0.393552,-0.177002,0.180664,0.105469,2.471951,3.247223,10.964401,-0.90532,0.220835,-0.070193,0.17334,-0.032471,-0.271729,2.360173,0.885189,9.660739,-0.848981,-0.357917,0.484695,0.06543,-0.042236,-0.564453
-8.50692,1.713446,7.815526,0.981048,-0.971296,0.538886,0.428467,0.130371,-0.548096,1.301569,2.577029,2.952958,8.218216,-0.237574,-0.051078,-0.462158,-0.209961,-0.371826,-1.271433,0.696276,9.90139,-2.070559,0.039885,-0.018497,-0.182861,0.161621,0.078857,1.851093,1.253663,11.854274,-2.364432,-0.056089,0.161564,0.149902,-0.009521,-0.256104,4.203739,2.259934,10.764174,-1.071479,-0.168712,0.404182,0.057861,-0.019043,-0.549805
-6.200328,2.256533,7.512227,0.861922,-1.207453,0.252879,0.426758,0.104492,-0.559814,-0.230628,14.759544,5.562007,8.55837,0.506556,-0.440974,-0.434082,-0.312012,-0.324219,2.016764,-1.224408,10.320731,-0.352901,-0.530578,0.100886,-0.187744,0.13916,0.018311,3.076633,-2.258902,9.435716,-0.991412,-0.071032,-0.239418,0.126709,-0.009521,-0.284912,3.384823,-0.502216,9.150379,-1.437866,0.375984,1.064454,0.051514,-0.003662,-0.565674
-4.850027,3.394356,7.678394,0.532475,-0.859043,0.257683,0.411865,0.103027,-0.554199,-1.184897,23.178129,6.492436,4.284886,-0.173869,0.031134,-0.420654,-0.348389,-0.283936,1.790218,1.639106,12.258496,0.345642,1.089026,-0.560461,-0.176025,0.12085,-0.024414,2.057203,0.339581,9.555434,1.213083,0.37403,0.168285,0.125,-0.022217,-0.284668,1.531849,-1.134813,9.166293,0.370888,0.196734,0.396626,0.063232,-0.002686,-0.562256
-7.344998,3.12859,8.799998,-0.220331,-0.878439,0.009229,0.40918,0.100098,-0.552979,1.01486,23.129289,7.273395,-5.847393,-0.092195,-0.193605,-0.380615,-0.321777,-0.341797,-0.550935,3.302168,11.889476,-0.474428,0.188075,0.126293,-0.175293,0.105713,-0.075684,2.250395,5.396022,11.7046,0.424042,-0.32688,0.10617,0.100586,-0.029541,-0.298584,3.78248,3.862572,10.65782,0.666839,-0.456212,0.415529,0.044922,-0.010742,-0.567383
-7.447423,0.935321,8.860171,-0.156302,-1.00111,0.629998,0.392578,0.105713,-0.560547,-0.324745,5.780784,0.71798,-8.17056,-0.077192,0.02493,-0.350098,-0.250244,-0.415039,1.32544,0.785995,9.437302,-0.854623,0.24227,0.001874,-0.175049,0.099609,-0.116699,3.676981,1.668619,10.786563,-2.241715,0.353808,-0.05173,0.080811,-0.008789,-0.30249,4.426751,0.97717,10.250879,-1.8748,0.762493,0.530384,0.045654,0.025635,-0.562988
-5.880498,0.304017,7.57282,1.255754,-1.531876,0.904395,0.366943,0.085449,-0.560303,0.339216,-1.012545,6.985614,-2.102199,0.196334,-0.858965,-0.322266,-0.238281,-0.431152,-0.721389,1.538683,11.194279,0.308785,0.550024,-0.26174,-0.166504,0.078125,-0.160645,1.370267,-1.664338,9.768903,-0.238598,0.699267,-0.005457,0.073975,-0.015625,-0.316162,0.528363,-1.868892,9.410761,0.098434,0.372688,0.589016,0.048096,0.018555,-0.568848
-4.372945,3.774562,8.708652,1.38827,-1.010742,0.680299,0.356201,0.063721,-0.560791,-1.605799,3.372042,7.321251,1.063704,0.257658,-0.185888,-0.293457,-0.25293,-0.436035,0.286146,1.580864,10.485742,-0.876438,0.03867,0.018172,-0.161133,0.084961,-0.200439,0.511155,1.413388,10.302248,0.833192,-0.043565,0.126537,0.058838,-0.008789,-0.331543,2.927046,3.0432,10.184802,0.868541,-0.202583,0.143872,0.040527,0.022705,-0.571777
-4.421193,4.76619,9.330858,0.376514,-1.17449,0.276518,0.333496,0.048096,-0.558594,-0.475241,9.919007,7.666609,1.038683,0.038321,-0.151325,-0.286621,-0.282959,-0.430908,-0.873155,1.490857,10.317964,0.450938,0.647032,-0.088215,-0.161377,0.067871,-0.23999,2.287682,3.649929,10.691847,0.10061,-0.022933,-0.123811,0.036377,-0.021729,-0.346924,2.610082,2.264952,9.773216,-1.339228,0.70801,1.012611,0.039551,0.037842,-0.570068
-5.248899,5.163231,9.680685,-0.452036,-0.803729,0.163107,0.331055,0.063965,-0.559082,-0.885593,12.829528,7.738671,-1.657309,0.313794,0.128264,-0.255371,-0.260742,-0.448242,-0.201284,3.242632,11.17556,-0.533646,0.113877,-0.336794,-0.145752,0.072021,-0.273193,2.163989,2.646638,10.291465,-1.075296,0.615239,-0.020045,0.037109,-0.00293,-0.356689,1.027998,-1.41112,9.138564,-0.600431,0.310449,0.09025,0.04834,0.05957,-0.570801
-3.641057,3.386684,8.712507,-1.088131,-0.955449,0.370322,0.310303,0.087402,-0.562988,-0.761889,9.433413,6.870904,-4.212252,-0.082165,-0.068294,-0.245117,-0.2146,-0.485107,0.413309,0.642321,9.706785,-0.753486,0.234747,0.577467,-0.146729,0.063232,-0.298584,1.024707,0.690794,9.193406,-0.318511,0.361187,0.099694,0.017822,-0.01001,-0.358887,2.935486,1.610445,9.757372,1.037007,0.048446,0.284179,0.032227,0.034912,-0.567627
-4.32124,3.442414,8.692024,-0.834734,-0.623781,0.445914,0.303955,0.106201,-0.568604,0.405605,2.094445,7.212763,-3.566653,-0.117387,-0.013694,-0.225098,-0.168457,-0.513916,0.84122,1.071741,10.405119,-0.379638,0.529083,-0.491077,-0.139893,0.072998,-0.337158,2.428572,2.837925,9.573363,0.263628,-0.035336,0.144533,0.004639,0.002441,-0.385742,2.599049,3.593274,10.242653,-0.856773,0.460088,-0.421367,0.030029,0.062744,-0.578613
-4.588732,1.059733,8.957924,-1.484557,-1.058891,0.502904,0.291504,0.129395,-0.580811,-0.155497,1.34218,8.626926,-0.366878,0.190583,-0.223589,-0.208496,-0.171143,-0.52832,-0.44635,0.589329,10.119535,-0.624515,0.583121,0.739427,-0.118652,0.06665,-0.368652,2.575677,2.513716,10.988949,-1.111995,0.641484,0.399257,0.010498,0.003662,-0.398926,2.150544,-0.372128,9.936592,-1.480452,0.286582,-0.145077,0.036377,0.077148,-0.578857
-3.778493,1.113123,9.119682,-0.303339,-1.154309,0.397091,0.276855,0.130615,-0.581543,0.288863,4.899567,9.652669,0.185251,0.199144,-0.145246,-0.189209,-0.179443,-0.531738,-0.880068,1.008761,9.621447,-0.375529,0.238385,-0.330127,-0.120117,0.077148,-0.388184,0.897482,-0.229577,10.267215,-1.21869,0.637404,0.177407,-0.001953,0.026855,-0.405273,2.340682,-1.857645,9.90831,-0.369806,0.223037,-0.484882,0.022461,0.093262,-0.57666
-3.317568,2.536381,9.160038,-1.058466,-1.469916,-0.038695,0.248535,0.15332,-0.574951,-0.26729,5.212933,8.798804,-0.695397,0.751124,0.219092,-0.175049,-0.168945,-0.538818,-0.237103,1.000344,10.307225,-0.290648,0.164639,0.727736,-0.11792,0.090332,-0.408203,1.181395,-0.931214,9.89107,0.144226,0.172614,0.244244,-0.014648,0.036133,-0.41333,1.943649,0.248387,10.328754,0.628171,0.452476,-0.586677,0.015869,0.093018,-0.580811
-2.299026,1.060272,7.998212,-0.921656,-1.35341,0.082397,0.231689,0.164551,-0.575439,-1.550252,6.725127,8.127107,-0.444175,0.38654,0.133065,-0.157227,-0.172852,-0.547363,-0.483558,0.57426,10.534503,-0.484464,0.177393,-0.177997,-0.098633,0.084961,-0.423828,1.439477,1.302117,10.192309,0.295596,0.382808,0.215779,-0.006348,0.025391,-0.428711,1.556351,2.317865,11.089103,-0.364794,0.10335,-0.169385,0.023682,0.090088,-0.58252
-1.951059,2.031796,8.614837,-0.952857,-1.33398,0.183398,0.208984,0.193359,-0.584717,-0.849106,7.790923,7.831239,-2.032843,0.289676,0.240875,-0.144531,-0.134277,-0.571533,0.113734,-0.744314,9.74062,-0.348188,0.382556,0.676755,-0.086182,0.090088,-0.446533,0.655111,1.527978,9.663147,-0.269555,0.471204,0.219616,-0.006348,0.031494,-0.438965,1.8078,-0.336488,9.206443,-0.824262,0.3496,-0.300068,0.020264,0.108398,-0.585693
-1.862766,0.984164,8.725246,-1.090945,-1.083003,0.453613,0.204834,0.204346,-0.581055,-1.345692,4.285048,7.899404,-2.83157,-0.022887,0.040604,-0.127441,-0.103027,-0.581787,-0.911487,0.451561,9.910176,0.372821,0.457168,0.036349,-0.078125,0.090332,-0.468994,0.87083,0.955551,9.614081,-0.268029,0.077526,0.407611,-0.015625,0.043457,-0.453369,0.619284,-0.20504,9.596031,0.464449,0.168709,-0.611722,0.01416,0.10791,-0.591797
-1.609967,-1.171714,8.548145,-0.504397,-1.18307,0.160449,0.17749,0.223877,-0.577637,-0.255561,2.133269,7.63309,-2.111557,0.025477,0.264751,-0.128906,-0.059082,-0.587891,-0.546618,2.139451,10.427251,-0.099963,0.509922,0.406926,-0.07666,0.094971,-0.478027,1.757828,0.588465,10.835106,-0.206056,0.267295,0.429925,-0.024414,0.051514,-0.455811,2.379665,2.359738,10.344027,0.252959,-0.188616,-0.747217,-0.006836,0.107178,-0.588623
-1.430604,2.32281,9.975642,1.768424,-0.786277,0.151583,0.172852,0.195068,-0.570557,-1.594642,0.738788,8.119139,-1.298464,0.034831,0.347046,-0.116455,-0.039307,-0.589844,-2.31736,2.317782,10.63139,-0.855487,0.20425,0.174031,-0.061035,0.101074,-0.497314,0.931236,1.435708,11.32714,-0.431916,0.625557,0.38589,-0.013916,0.055176,-0.469971,2.556943,2.304067,10.436184,-1.213147,0.414984,-0.12495,0.001709,0.12207,-0.593994
-2.169049,7.190647,11.125435,-1.162685,-0.830605,-0.068883,0.163086,0.210938,-0.574707,-0.647724,3.282503,8.280841,0.381359,-0.170111,0.508231,-0.111816,-0.049316,-0.599854,-0.715259,0.242239,10.05999,-1.590423,-0.209313,0.425932,-0.064697,0.123779,-0.503906,0.526222,0.606881,10.341509,-1.459524,0.453395,0.174569,-0.019775,0.071777,-0.477783,0.993899,-1.089729,8.929567,-1.707082,0.409381,-0.0653,-0.003174,0.149414,-0.590576
-1.778536,-0.202687,7.873269,-2.112872,-0.746268,0.15249,0.148193,0.250488,-0.583008,-1.286039,7.655271,9.357081,-0.682514,0.009207,0.237772,-0.109131,-0.035645,-0.610352,-1.375227,-2.429819,8.879715,-1.032134,0.020408,0.223345,-0.063965,0.139648,-0.511719,0.634648,-2.737015,9.594334,-1.589943,0.649534,0.432208,-0.019531,0.100586,-0.478516,1.523368,-2.633018,8.788632,-0.619539,0.207418,-0.141175,-0.009766,0.162354,-0.585938
-1.534575,0.492471,8.48309,-0.600584,-0.735173,0.547602,0.137695,0.259277,-0.573242,-0.698343,4.348129,7.468185,-2.189022,-0.374265,0.025605,-0.113525,-0.005615,-0.614502,-0.860861,-1.251944,9.14584,0.079678,-0.085908,-0.13233,-0.069092,0.150879,-0.528076,-0.002355,-4.090724,9.809671,-0.450247,0.517948,0.099258,-0.020508,0.118652,-0.49292,2.947279,-1.703016,9.673513,-0.437887,0.274896,0.433325,-0.012939,0.179443,-0.593018
-0.965393,1.272143,9.224057,-0.044892,-0.788181,0.593453,0.124512,0.276123,-0.57373,-0.124243,1.15087,8.157738,-1.211578,-0.095741,-0.06934,-0.113281,0.027588,-0.619873,-0.810591,-0.138109,9.555807,-0.107853,-0.383447,0.185806,-0.05957,0.153076,-0.530762,0.537403,-2.921189,9.562532,0.336953,0.407685,-0.186193,-0.009521,0.111816,-0.494385,2.37853,-3.03575,8.879871,-0.677149,0.873505,1.081682,0.010742,0.192139,-0.585205
-1.101878,3.871384,10.209862,-0.318356,-0.473337,0.458776,0.122803,0.279541,-0.567383,-1.302768,3.160967,8.318713,0.045748,-0.219301,0.012017,-0.110107,0.020752,-0.618408,-0.222775,-1.289448,9.054355,0.486068,0.029925,-0.26309,-0.060059,0.141846,-0.544189,-0.248431,-2.189975,8.416769,0.713943,0.667032,-0.205305,-0.009521,0.100098,-0.509766,-0.367562,-3.27354,7.813531,0.9146,0.847353,1.259669,0.022949,0.17749,-0.601318
-0.518256,2.915995,8.919637,-1.362769,-0.680029,0.437118,0.112549,0.291504,-0.564941,0.141752,5.699799,8.125097,-0.895146,-0.446016,-0.065017,-0.114258,0.025391,-0.618896,-1.305038,0.132167,8.463164,0.796488,-0.068348,-0.337096,-0.060547,0.134277,-0.560059,-0.14501,-0.955289,8.930163,0.749171,0.171715,-0.414141,-0.009033,0.095703,-0.527588,1.533872,-0.632993,8.700584,0.768576,0.245088,1.389218,0.034424,0.171631,-0.61084
-0.907122,1.869636,8.563287,-1.917288,-0.261701,0.524218,0.110352,0.330811,-0.556396,-0.256437,2.726672,7.582122,-2.633317,-0.038041,-0.165052,-0.11084,0.074463,-0.621582,-0.149467,-1.101953,7.559654,0.459557,-0.313421,-0.133141,-0.056152,0.130127,-0.572021,0.698714,-1.477289,8.236022,0.727513,0.598193,-0.493087,0.002197,0.085449,-0.540283,0.601084,-2.047166,7.222891,0.464803,1.325222,1.598917,0.067383,0.160889,-0.620117
-0.442375,-2.112353,7.469169,-1.842665,-0.734591,0.634903,0.106934,0.368408,-0.548828,-0.370243,-2.145839,6.476584,-1.186547,-0.336565,-0.383588,-0.108643,0.098389,-0.623291,-1.610646,-0.499717,8.869389,1.630532,-0.213112,-0.381017,-0.06958,0.11377,-0.572266,0.015798,0.357068,9.831514,1.955003,0.660868,-0.366141,-0.004639,0.060303,-0.54126,-0.693088,-0.89751,9.048446,1.6402,0.49058,1.271838,0.067871,0.143311,-0.619385
0.473655,-2.479785,7.664295,0.147493,-0.247241,0.862339,0.105469,0.366699,-0.540283,-0.503959,0.18078,7.823822,1.026297,-0.093118,-0.514831,-0.112549,0.079102,-0.615479,-0.308434,2.809552,9.435954,1.060179,-0.846504,-0.295042,-0.08374,0.097656,-0.586182,-0.62753,3.153146,8.896761,0.833778,0.81383,-0.43201,0.002441,0.044189,-0.555664,0.895706,2.47676,8.660635,1.208047,0.992016,1.032369,0.084717,0.121094,-0.632812
-0.420673,1.17681,8.997159,-0.387172,-0.244847,0.678979,0.102539,0.366943,-0.544434,-0.938979,3.765059,9.09057,-0.32399,-0.650156,-0.132918,-0.123779,0.078125,-0.624023,0.20576,2.665106,8.905318,-0.272625,-0.333551,-0.146942,-0.079346,0.102051,-0.584961,-0.909583,1.866953,8.363761,-0.604836,0.610572,-0.379465,0.018066,0.05835,-0.557129,-1.606451,1.384325,9.303772,-0.844745,1.050719,1.213657,0.114502,0.135498,-0.625
0.036396,-2.484177,7.89245,-0.954497,0.028351,0.403046,0.105713,0.4021,-0.536133,0.390741,-0.602005,7.380351,-2.164399,-0.491445,0.080311,-0.12915,0.125977,-0.615234,-0.692137,-0.802609,7.967909,-1.155022,-0.330293,-0.233105,-0.087158,0.120605,-0.597412,-0.65571,-0.687167,7.692441,-0.737848,0.608353,-0.521283,0.020996,0.075684,-0.571045,-0.556188,-2.815959,7.812647,-0.733391,0.46866,0.908384,0.123047,0.152832,-0.635498
-0.885375,-1.278082,8.918995,-0.117856,-0.016558,0.418753,0.115723,0.402832,-0.541016,-0.826568,-3.416407,8.060218,-0.48234,-0.488804,-0.107354,-0.131592,0.132568,-0.621094,-0.250587,-3.772781,7.215645,0.237129,-0.505956,0.099166,-0.093262,0.125977,-0.592285,-1.054019,-1.983676,7.70782,0.262616,0.741431,-0.184194,0.027344,0.078369,-0.563965,-0.974013,-2.706968,8.784061,1.035171,0.905245,0.503353,0.137207,0.141846,-0.634033
-1.312694,-0.905425,9.260063,-0.863028,0.038877,0.048193,0.113281,0.418701,-0.531006,0.324338,-1.288081,9.391875,0.552837,-0.499255,0.206346,-0.140869,0.127686,-0.614258,-0.388496,-1.093052,7.638764,2.13057,-0.121715,-0.549743,-0.103271,0.088623,-0.600098,-2.00328,-0.702338,7.113579,1.817269,0.534231,-0.165427,0.028809,0.042969,-0.572266,-2.051641,0.023273,9.018796,1.641092,0.216785,0.17231,0.135498,0.106201,-0.639404
-1.011398,-2.454639,8.990669,-0.971969,-0.248733,-0.179228,0.103271,0.431641,-0.528809,0.454574,0.875361,9.727839,0.074546,-0.158422,0.268696,-0.145264,0.126953,-0.619873,-0.023094,3.588389,8.792612,1.568079,-0.242412,-0.037576,-0.104736,0.063232,-0.608887,-1.058579,2.646098,8.261706,1.791766,0.161273,-0.017533,0.030518,0.013672,-0.585693,0.171364,0.635117,8.998126,0.957407,0.090822,-0.151819,0.135742,0.090088,-0.646484
-0.988188,-3.608591,8.53272,-0.011857,-0.173293,-0.149275,0.104248,0.433594,-0.522217,-0.712337,-0.063843,8.038616,-0.385566,-0.020726,0.330509,-0.138672,0.137695,-0.615479,-0.587842,0.160235,7.420685,-0.464066,-0.09536,0.169469,-0.104004,0.075928,-0.618408,-1.209246,2.645634,7.995027,0.494024,0.620996,-0.026029,0.043457,0.010254,-0.598145,-1.713825,0.64092,9.073361,1.283071,0.536641,-0.407764,0.144775,0.07373,-0.658447
0.585737,-0.375271,8.71588,0.358738,-0.176063,0.088019,0.101318,0.427979,-0.530273,-0.321415,0.190423,7.95105,0.220932,-0.261347,-0.214032,-0.14624,0.131836,-0.618164,-0.195878,-2.316911,7.764252,0.849844,-0.361619,0.2544,-0.122559,0.064453,-0.62085,-2.349013,1.267451,7.508049,0.345211,0.252315,0.220778,0.033203,0.002686,-0.601562,-1.309332,2.774721,9.132929,1.164937,-0.411694,-0.762,0.121826,0.053467,-0.665771
-1.785231,0.797428,10.698179,-0.994592,0.274229,0.175918,0.104492,0.442383,-0.521973,-0.241529,-0.952498,8.392439,-0.847885,-0.098347,0.202537,-0.144043,0.142578,-0.616943,-0.049549,2.051506,7.913474,1.619291,0.209375,-0.054064,-0.114014,0.042236,-0.623291,-1.748837,1.978693,8.388031,0.60325,-0.050165,0.303479,0.037109,-0.001709,-0.599365,-0.3212,3.804024,9.466584,0.128214,0.164901,-0.68323,0.125732,0.056396,-0.662842
0.416613,-3.01802,9.494632,-1.548127,0.180311,-0.124979,0.111084,0.466064,-0.509766,0.241268,-1.613726,9.582562,1.378658,-0.247312,-0.086543,-0.148926,0.121582,-0.619385,-0.32453,4.646141,9.327942,0.301819,-0.118883,0.273487,-0.109131,0.033203,-0.622559,-1.034529,2.010558,8.245598,0.168362,-0.037847,0.306959,0.040527,-0.008789,-0.600098,-1.66021,0.777201,9.350644,-0.56284,-0.068339,-0.482848,0.127686,0.065186,-0.657715
-2.014528,-4.462255,9.115288,-0.440737,0.161447,0.023979,0.112305,0.473389,-0.512451,0.918319,2.617898,10.283321,1.442053,0.02526,0.397675,-0.147949,0.101074,-0.628662,0.799804,2.896132,8.231278,-0.946817,0.058715,0.260886,-0.105957,0.043213,-0.624512,-1.684408,2.078334,8.368254,-0.426968,-0.049393,0.165049,0.043457,-0.008545,-0.600098,-0.593129,0.631333,9.213121,0.069821,-0.424307,-0.422645,0.122803,0.055908,-0.66626
-0.442502,-3.191245,9.283791,0.174921,0.058144,-0.129147,0.116455,0.472656,-0.504395,0.299324,4.316835,10.570833,-0.140075,0.283015,0.068004,-0.13916,0.106201,-0.620605,-0.41122,0.944134,8.012625,-1.474375,0.521337,0.005004,-0.102783,0.063232,-0.62085,-1.58804,1.244556,7.685572,-1.55338,-0.354088,-0.064874,0.030273,0.013916,-0.594482,-0.625607,2.659053,9.20845,-0.898272,-0.023299,-0.070182,0.114502,0.071777,-0.660645
-2.535138,-2.420174,9.69263,0.339014,-0.33652,0.11255,0.112061,0.475342,-0.514404,-0.51587,1.700926,9.155004,-1.320707,0.376242,0.45572,-0.133789,0.13501,-0.624512,-1.308591,0.010748,9.036284,-1.039508,0.102782,0.060506,-0.106201,0.090576,-0.624756,-1.687966,-0.983658,8.826145,-1.593568,-0.202303,0.000557,0.025391,0.049805,-0.599121,-2.010009,-0.185261,9.040135,-2.199667,-0.267783,0.174136,0.104492,0.118896,-0.6604
0.053551,-1.215373,9.261201,0.67581,-0.095773,0.147872,0.108643,0.454346,-0.520752,-0.427285,0.095777,9.049363,-0.007424,0.435833,-0.221045,-0.127686,0.12207,-0.631836,0.269601,0.078677,9.673327,-0.880091,0.259401,-0.088674,-0.099609,0.099854,-0.623047,-1.989457,-1.494013,8.953473,-0.564478,-0.352152,-0.06737,0.021973,0.054932,-0.596436,-0.785829,-2.38022,8.313106,-0.561346,-0.328582,0.169302,0.101562,0.125977,-0.659912
-1.297869,0.218962,9.383707,0.460072,-0.40907,0.515282,0.100586,0.46167,-0.516602,-1.128459,2.332202,9.41377,0.467203,0.211289,0.089765,-0.129639,0.125977,-0.624512,-1.174971,-0.835875,9.882867,-0.364306,0.627706,-0.046707,-0.087646,0.104004,-0.627686,-1.426617,-0.417459,9.538888,0.147155,-0.477712,0.05339,0.017334,0.052979,-0.600098,-1.480345,-0.047826,9.221507,0.286362,-0.256627,0.173168,0.101074,0.124512,-0.665039
0.106047,-0.63794,9.28294,0.118551,0.099816,0.515761,0.107422,0.452148,-0.525146,-0.091059,2.097382,9.021927,-0.507547,0.088187,-0.259019,-0.128906,0.127441,-0.635742,-0.939197,-1.195865,9.407963,0.774476,0.182234,-0.065026,-0.087646,0.089355,-0.626465,-0.860468,-0.218337,9.43477,0.669223,-0.259441,0.050918,0.008545,0.038818,-0.600098,-0.408245,-1.184515,8.662723,-0.008784,-0.436989,0.109206,0.088135,0.118164,-0.660889
-1.203171,-0.566136,9.446318,0.105631,-0.172095,0.381078,0.115723,0.449219,-0.519287,-0.420202,0.754274,9.204225,-0.535342,0.142878,0.035457,-0.118408,0.134766,-0.625732,-0.321885,1.468275,9.21152,1.59669,0.418062,-0.097983,-0.074463,0.06958,-0.634277,-0.98485,1.410416,9.641334,1.511327,-0.047495,0.138587,0.016113,0.016602,-0.605225,-0.42949,-1.000495,8.896567,1.462305,-0.089172,-0.249819,0.092285,0.09375,-0.667725
-0.721684,-0.890685,9.28192,-0.351648,0.017324,0.18445,0.110352,0.463135,-0.513672,0.154074,0.17835,9.210516,-0.359267,0.172275,-0.089606,-0.122803,0.14624,-0.624023,-1.371238,2.632911,9.366628,0.794432,0.350495,-0.045757,-0.077148,0.059326,-0.633789,-1.298925,2.36192,9.735604,0.824289,-0.123388,0.170862,0.00708,0.007568,-0.607666,-0.894736,1.759064,9.698407,1.351634,-0.262097,-0.425182,0.082031,0.076416,-0.672119
-0.62213,-2.044919,8.405076,-0.171453,-0.272343,0.091616,0.116211,0.465332,-0.512451,-0.561463,0.847865,8.965279,0.180832,0.30422,0.217775,-0.108643,0.142822,-0.623291,-0.726468,1.501062,9.047965,0.847758,-0.053768,0.141073,-0.080811,0.04541,-0.62793,-0.953517,0.834261,9.233093,0.529428,-0.12271,-0.025097,0.000244,-0.001953,-0.599854,-0.094745,1.207944,9.634036,0.650951,-0.274973,-0.077698,0.072021,0.067139,-0.66748
-0.20504,-1.80779,8.208782,0.335253,-0.142303,0.135781,0.115723,0.455811,-0.519287,-0.147769,2.054692,9.097252,-0.304948,0.0911,-0.017408,-0.104736,0.147461,-0.630859,-0.09447,2.88626,9.647842,0.549243,0.357685,-0.371316,-0.070801,0.034668,-0.635986,-0.940939,1.614437,9.82284,0.79844,-0.215109,0.016071,0.001953,-0.014404,-0.605469,-0.222253,1.815181,9.915336,0.625431,-0.121796,-0.064877,0.072021,0.05249,-0.672607
0.41748,-0.431968,9.060047,0.663394,-0.15227,0.202635,0.115723,0.452148,-0.523438,-0.204692,-0.331983,8.220437,-0.89899,0.131111,0.16246,-0.104736,0.160645,-0.628906,-1.263147,0.749592,9.65579,-0.288275,0.088173,0.243745,-0.064209,0.044678,-0.631348,-0.372164,1.504845,9.925248,0.150449,-0.241928,-0.110787,0.004883,-0.012939,-0.599854,0.093302,1.088075,9.464896,0.004714,-0.264569,0.322266,0.075195,0.057129,-0.668945
-0.038363,0.171231,9.216016,0.101615,0.135854,0.154496,0.10498,0.448975,-0.521729,-0.532378,-1.037989,8.190829,0.511537,-0.070996,-0.10744,-0.117676,0.150146,-0.627197,0.062535,-1.408064,9.017543,0.830296,-0.147853,-0.078775,-0.075928,0.027344,-0.642334,-0.178282,0.018292,9.121277,0.658871,0.010761,0.048061,-0.005127,-0.025391,-0.615479,0.204435,-0.836281,8.44535,0.783844,-0.047727,0.008023,0.064453,0.043457,-0.679443
-0.15627,-0.537772,9.059325,-0.219421,0.140198,0.165657,0.108887,0.461182,-0.517334,-0.187393,1.644406,9.56581,0.324023,-0.18676,-0.0375,-0.116211,0.156006,-0.625977,-0.707235,1.807685,9.077248,2.140009,0.456519,-0.236649,-0.059814,-0.004883,-0.643799,-1.011721,0.844969,9.190957,1.520946,0.045458,0.111364,0.003418,-0.049561,-0.613037,-0.420985,1.239646,8.905209,1.731879,-0.088768,0.006579,0.067383,0.010986,-0.681885
-0.897815,-1.462556,9.386882,-0.537677,0.177164,0.084613,0.117188,0.469727,-0.518311,0.095406,0.146182,9.496363,-0.327155,-0.107916,-8e-05,-0.117676,0.161865,-0.624268,-1.286997,2.815616,9.647971,0.981124,-0.091181,0.037446,-0.067139,-0.025635,-0.642578,-0.572174,1.161952,9.327709,1.302082,-0.132294,-0.094753,-0.003906,-0.074951,-0.609619,0.385355,1.433447,8.937704,1.101376,-0.175857,0.476551,0.061279,-0.013672,-0.678223
-1.036366,-2.64354,9.153477,-0.07135,-0.032499,0.039987,0.114746,0.472412,-0.522461,-0.476791,-0.323089,9.61329,0.515571,0.033219,-0.037598,-0.118896,0.154541,-0.634277,-0.758062,-0.2989,8.045646,1.818963,-0.058256,0.242634,-0.064209,-0.056152,-0.642578,-0.476727,0.994271,8.047123,2.382409,0.266597,0.036551,0.00415,-0.118896,-0.612549,-0.548042,-0.20907,7.658638,2.041892,0.175303,0.277757,0.070312,-0.053711,-0.68042
-0.966576,-2.302478,9.169588,0.37311,-0.183909,0.070657,0.111572,0.455566,-0.51709,-0.420469,1.731865,10.063143,0.729804,-0.025986,-0.019372,-0.119385,0.12915,-0.626465,-1.183624,3.703992,8.943091,3.417638,0.174959,-0.493277,-0.063232,-0.095459,-0.636963,-1.632547,4.268703,8.893759,3.092212,0.19188,0.111815,0.004639,-0.156006,-0.605469,-0.66092,2.781683,8.305791,2.991906,-0.234846,-0.073331,0.0625,-0.09375,-0.676025
-0.021765,-1.015331,9.491318,0.787987,-0.140163,0.119972,0.118408,0.446777,-0.522949,-0.079695,1.944283,9.790652,-0.14208,0.055485,-0.024711,-0.110107,0.136963,-0.630859,-0.559478,5.250268,9.269535,1.876601,-0.063163,0.304903,-0.06543,-0.130615,-0.631592,-0.390782,3.987087,8.703776,1.473493,-0.028432,-0.074121,0.003174,-0.180176,-0.601807,0.729342,3.094981,8.470195,1.797955,0.003962,0.088422,0.065186,-0.12793,-0.673584
-0.677343,0.589907,10.095668,0.057278,-0.103645,0.039009,0.106201,0.450195,-0.525391,-0.812429,0.760968,9.708896,-0.249284,-0.089605,0.030275,-0.124268,0.144043,-0.630859,-0.885434,2.455184,7.660849,2.539162,0.115256,-0.076341,-0.067627,-0.168457,-0.623535,-0.626763,1.567212,7.17602,2.679374,0.584876,-0.022175,0.008057,-0.224609,-0.591553,-1.074969,1.32333,7.88228,2.896127,0.222005,-0.035478,0.062988,-0.178467,-0.664307
-0.274551,-1.568648,9.580112,-0.50864,-0.138109,0.044032,0.107422,0.446045,-0.524902,0.433091,0.612468,9.886724,-0.062105,-0.191131,-0.040618,-0.123779,0.136475,-0.631592,-0.73176,6.461655,8.18451,3.464359,0.280849,-0.422251,-0.053955,-0.223145,-0.609863,-2.133223,6.191311,8.560004,3.937763,0.102804,0.021111,0.019287,-0.287354,-0.57251,-0.005594,6.60682,8.584212,3.8528,-0.468492,-0.085797,0.066406,-0.249023,-0.644287
-0.687507,-1.912062,9.866635,0.043918,-0.185849,0.034741,0.109863,0.460938,-0.522949,-0.240223,0.630241,10.059489,0.116911,0.143552,0.041811,-0.113037,0.144775,-0.629883,-1.228598,6.533838,8.384451,1.446411,0.040306,0.155216,-0.056641,-0.247803,-0.602295,-0.463955,7.63587,8.156309,1.793698,-0.158137,-0.131658,0.018555,-0.316406,-0.564209,0.876715,8.289111,8.759095,1.986092,0.156823,0.347167,0.063721,-0.282471,-0.632324
-0.289055,-1.428601,10.038875,0.134723,-0.268272,0.000384,0.098389,0.451904,-0.523193,-0.286962,1.159278,9.966038,-0.026735,-0.066938,-0.095724,-0.128418,0.140381,-0.627441,-0.756859,4.046734,6.571675,2.305128,0.031889,-0.045304,-0.05542,-0.274902,-0.583984,-0.733962,5.47054,6.513084,1.922864,0.534517,0.058153,0.023438,-0.339844,-0.547363,-1.011437,5.725618,8.100756,1.681082,0.014311,0.249512,0.062012,-0.304932,-0.621094
-0.277157,-1.330304,9.96032,0.345575,-0.179319,0.03722,0.098389,0.453613,-0.531738,0.0091,0.757535,9.6388,-0.171603,0.171296,-0.039933,-0.118408,0.147705,-0.638916,-0.898454,8.441494,7.581044,2.497556,0.398726,-0.387372,-0.04834,-0.326172,-0.569092,-2.500884,7.931486,7.355776,2.322886,0.014055,0.150346,0.024658,-0.389404,-0.533203,0.3987,7.142798,7.672548,2.104464,-0.398358,0.098107,0.053955,-0.354492,-0.604248
-0.267498,-0.613844,10.090222,0.154712,-0.1596,-0.024626,0.106689,0.443115,-0.526367,-0.788239,0.296444,9.400227,-0.121596,0.054327,-0.070487,-0.106934,0.14209,-0.632812,-1.673367,7.001922,6.931548,0.829969,0.098196,0.339267,-0.052002,-0.321533,-0.559814,-0.538762,7.126174,6.752238,1.095681,-0.289038,-0.024896,0.018066,-0.390137,-0.52417,0.262423,7.293751,7.390474,1.563586,0.078356,0.364581,0.050781,-0.365723,-0.589844
-0.186863,-0.824407,10.140244,-0.151124,-0.01286,-0.101648,0.098145,0.438965,-0.523438,-0.162258,0.261363,9.407403,0.021077,0.006651,0.017489,-0.116455,0.137207,-0.632324,-0.964567,6.372697,6.049558,1.873034,0.007398,-0.149035,-0.048584,-0.364502,-0.550049,-0.96397,7.136241,6.497036,1.84384,0.383631,0.183353,0.020996,-0.430908,-0.509033,-0.587563,7.701538,7.468915,1.585789,-0.267928,0.190715,0.049316,-0.408447,-0.583008
-0.166348,-1.434643,9.855444,-0.161635,0.060382,-0.217563,0.095215,0.451172,-0.524658,-0.26092,0.448164,9.562009,0.128052,0.071834,0.064222,-0.117432,0.145996,-0.634521,-0.96258,9.327519,7.002213,1.141563,0.436107,-0.200077,-0.04248,-0.371094,-0.536133,-2.210943,8.933363,7.276431,0.941346,-0.178972,0.037587,0.02124,-0.436279,-0.493896,1.072249,8.16548,7.208686,0.552874,-0.231067,0.468434,0.040039,-0.405029,-0.57251
-0.388393,-1.253112,9.823552,0.022103,0.0752,-0.177637,0.094971,0.452637,-0.519287,-0.4064,1.308119,9.616669,0.271998,0.104551,0.059862,-0.115967,0.141357,-0.630127,-2.263036,7.192394,6.663259,-0.007995,-0.109754,0.282955,-0.053955,-0.368408,-0.535156,-0.224995,7.219964,6.442177,0.121448,-0.235797,-0.04866,0.010742,-0.43457,-0.49292,-0.00075,5.953818,6.340853,0.297232,0.179895,0.402082,0.030518,-0.404785,-0.564941
-0.084119,-0.889435,9.778976,-0.045038,0.114794,-0.178587,0.088623,0.445557,-0.521973,-0.60394,1.705155,9.677244,-0.14298,0.034901,0.065183,-0.120117,0.135742,-0.63208,-0.524294,6.991388,5.902713,1.003951,-0.098863,-0.149521,-0.04126,-0.385254,-0.52002,-1.163165,7.323312,6.134369,1.013163,0.419317,0.127723,0.025391,-0.451904,-0.478027,-0.020045,7.15999,6.663655,1.306079,-0.221797,0.136488,0.035156,-0.430664,-0.54834
-0.487855,-1.222907,9.600135,-0.023758,0.144391,-0.063081,0.100586,0.445801,-0.523193,-0.376721,1.036849,9.630205,-0.064667,-0.029506,-0.019607,-0.111572,0.136963,-0.63208,-1.455172,8.892274,6.689011,0.389676,0.349858,-0.097657,-0.036865,-0.391357,-0.523438,-2.161073,8.640443,6.595252,0.264033,-0.16721,-0.038292,0.022705,-0.454834,-0.486084,0.938474,8.766312,6.984014,0.132819,-0.027924,0.367643,0.033936,-0.433594,-0.557373
-0.402527,-1.102148,9.792701,-0.015971,0.039232,0.061639,0.106445,0.439697,-0.518799,-0.342638,1.142413,9.827418,0.202171,0.043399,-0.08738,-0.10791,0.131348,-0.627197,-1.786418,7.532497,6.185688,-0.160206,-0.215696,0.111696,-0.04126,-0.383545,-0.534912,-0.350411,7.409821,6.1428,-0.109028,-0.226564,-0.026059,0.018311,-0.446289,-0.493408,0.113226,6.31919,6.426924,-0.43198,0.148971,0.237563,0.033203,-0.41626,-0.569824
-0.474875,-1.588876,9.544213,-0.025647,0.010288,0.072698,0.100586,0.449219,-0.519531,-0.376392,1.493509,10.164479,0.045046,0.017687,-0.11555,-0.114502,0.134033,-0.631104,-0.584982,7.721422,6.000184,0.151017,0.018677,-0.09565,-0.046387,-0.377441,-0.531982,-1.122239,7.804743,5.997105,0.220552,0.30795,0.016932,0.019775,-0.445801,-0.488037,0.393412,6.725813,6.275209,0.49127,-0.116241,0.117012,0.027344,-0.421631,-0.562012
-0.386467,-1.505252,9.582375,0.194989,-0.062372,0.094033,0.091797,0.453369,-0.519531,-0.354037,0.797794,9.709001,-0.047737,0.032603,-0.01612,-0.122803,0.140625,-0.628662,-1.742896,7.652307,6.19218,0.12629,0.219556,-0.058321,-0.035156,-0.386475,-0.518311,-1.756921,7.704225,6.299387,0.021671,-0.097758,-0.054,0.022217,-0.450928,-0.477783,0.835887,7.864614,6.629957,0.311393,0.019723,0.139455,0.027832,-0.430176,-0.545898
-0.281677,-0.962601,9.694567,0.250679,0.004834,0.008629,0.099121,0.445557,-0.529541,-0.497988,0.929228,9.673052,0.09459,-0.005572,-0.007362,-0.117432,0.137695,-0.635498,-1.451034,8.245392,6.074562,0.414158,-0.216962,-0.01786,-0.039307,-0.39624,-0.526123,-0.750771,8.06832,6.009249,0.491212,-0.114623,-0.008186,0.020752,-0.461182,-0.485596,0.428274,8.209435,6.754461,0.260365,0.037045,0.116475,0.027344,-0.437012,-0.557129
-0.383126,-0.714692,9.704148,-0.065649,-0.03831,0.024407,0.096191,0.442627,-0.532471,-0.171187,1.012241,10.044827,-0.056933,-0.044922,0.043982,-0.114502,0.134766,-0.640381,-0.617834,8.729861,6.36261,-0.368793,0.092292,-0.064217,-0.042969,-0.39502,-0.525391,-1.137716,9.012322,6.394733,-0.201732,0.099451,0.01231,0.02002,-0.461914,-0.479492,0.856041,8.300443,6.806903,-0.36063,-0.022938,0.147984,0.022217,-0.434814,-0.553955
-0.339667,-1.64682,9.647236,-0.122181,-0.111055,0.02545,0.101074,0.446777,-0.526123,-0.246148,0.663321,9.713721,0.154491,0.038781,0.011174,-0.109375,0.133789,-0.63501,-1.771937,7.072447,6.143498,-0.466154,0.038974,0.075761,-0.046143,-0.37915,-0.523438,-1.305593,7.591422,6.151429,-0.618324,-0.052427,-0.083993,0.014893,-0.447266,-0.480713,0.717535,7.027411,6.537732,-0.37973,0.087366,0.231117,0.016602,-0.423584,-0.553955
-0.373504,-1.753327,9.709798,0.324572,-0.082275,0.032198,0.09668,0.439453,-0.528809,-0.65676,1.438452,9.780509,0.133145,0.031939,0.005648,-0.112549,0.127686,-0.63623,-1.11705,7.572443,6.350638,-0.0723,-0.051368,-0.089267,-0.0354,-0.391602,-0.528564,-1.153461,7.73279,6.284606,-0.022919,-0.045529,0.085432,0.022949,-0.455811,-0.488281,0.459691,7.600658,6.832145,-0.087752,0.02119,-0.085336,0.029541,-0.432129,-0.562012
-0.157188,-0.374275,9.892326,0.347127,-0.073164,0.008156,0.094971,0.437744,-0.529297,-0.307727,0.892988,9.56434,-0.197293,-0.079293,0.052277,-0.115234,0.136719,-0.634521,-1.415271,7.504977,6.394643,-0.344974,0.055128,0.13379,-0.038574,-0.378418,-0.530762,-1.168766,7.949771,6.446367,-0.323856,-0.038458,0.045846,0.019531,-0.443604,-0.48584,0.723905,7.065635,6.815235,-0.573743,-0.022893,-0.036463,0.023438,-0.412598,-0.562988
0.095842,-0.494148,9.911885,-0.140484,-0.005127,-0.01949,0.098877,0.441406,-0.520264,-0.148213,0.941853,9.526011,0.074581,0.001741,0.018079,-0.11084,0.137939,-0.625,-1.044215,7.222729,6.226012,-0.057692,-0.127989,0.009243,-0.042969,-0.383789,-0.532471,-0.831449,7.104542,6.383549,-0.374138,-0.035756,0.021815,0.015625,-0.443848,-0.49585,0.636391,6.085203,6.574687,-0.111404,0.009005,-0.152932,0.025635,-0.416016,-0.567139
-0.291423,-1.854851,9.631316,-0.011812,0.058735,-0.003231,0.098145,0.440674,-0.526123,-0.492267,1.364314,9.850684,-0.034341,-0.093852,0.074536,-0.114502,0.133789,-0.632568,-1.086628,7.710574,6.505226,-0.063252,0.133814,0.000988,-0.042725,-0.378662,-0.533447,-1.06596,6.914309,6.351799,-0.016644,0.060838,0.045032,0.013428,-0.442383,-0.492676,0.553096,7.265535,6.680251,0.262168,-0.010411,-0.113501,0.022461,-0.418945,-0.561768
-0.375385,-1.163113,9.85484,0.466738,0.004247,-0.004113,0.09668,0.434082,-0.53125,0.009857,0.732436,9.733154,-0.196964,-0.054649,0.053596,-0.119629,0.138184,-0.634033,-1.703137,6.913647,6.361864,-0.286678,-0.111535,0.086631,-0.040039,-0.369141,-0.532959,-1.225734,7.359007,6.555922,0.086721,0.012632,0.010207,0.021729,-0.436279,-0.489502,0.585306,7.549233,6.774568,-0.131025,-0.016525,-0.035699,0.026367,-0.411133,-0.561768
-0.411278,-0.39611,10.060816,0.220274,-0.009834,-0.006053,0.093506,0.426025,-0.527344,-0.469035,0.538746,9.585843,0.112026,0.076552,0.053171,-0.118652,0.134766,-0.630371,-0.888807,6.817279,6.401467,-0.025303,-0.134535,0.05637,-0.037354,-0.372559,-0.531494,-1.128539,7.547198,6.613955,-0.180662,-0.005761,0.064417,0.026611,-0.437256,-0.491699,0.520866,7.050811,6.749504,-0.272514,0.104774,-0.009769,0.03418,-0.410156,-0.562744
-0.172333,-0.380415,9.744203,0.094643,0.013276,-0.019401,0.09082,0.428711,-0.537109,-0.480714,0.836502,9.435987,0.12465,-0.036824,-0.017653,-0.125488,0.13208,-0.637451,-1.413164,7.179532,6.723643,-0.172963,0.07312,-0.010722,-0.045898,-0.371338,-0.536377,-1.139344,7.043164,6.512237,-0.37166,0.056869,-0.001952,0.01709,-0.431641,-0.49707,0.265274,6.546579,6.737633,-0.315103,0.021898,0.028163,0.026611,-0.40625,-0.570068
-0.125398,-0.332341,9.680267,-0.196819,0.067532,-0.04729,0.094238,0.425293,-0.53418,-0.152254,0.759245,9.349862,0.242746,-0.000667,-0.00507,-0.119141,0.124756,-0.63916,-1.173583,6.968999,6.341189,-0.112792,-0.247383,0.167064,-0.045898,-0.367676,-0.546387,-1.001997,6.719813,6.262165,-0.090132,0.002819,0.089868,0.020508,-0.430908,-0.503662,0.756193,6.21606,6.548115,-0.104556,0.011329,-0.153743,0.028564,-0.404541,-0.57959
-0.194315,-0.618315,9.829908,-0.217239,0.12897,-0.067769,0.091797,0.423828,-0.528076,-0.466394,1.655571,9.802732,0.340847,-0.05696,0.018707,-0.126221,0.114502,-0.631592,-0.844304,7.205857,6.201124,0.203326,0.02441,-0.027789,-0.037842,-0.375977,-0.536621,-0.979161,6.885873,6.28734,0.121149,0.10302,0.00769,0.029785,-0.439697,-0.49585,0.287754,6.300314,6.642824,0.124529,0.14369,-0.070421,0.040527,-0.408936,-0.570801
-0.585745,-0.586004,10.083419,-0.41068,0.132142,-0.170593,0.099365,0.438965,-0.534668,-0.066949,1.727362,10.053102,-0.214357,-0.068494,0.069379,-0.119141,0.126221,-0.641357,-1.501799,7.828994,6.405761,0.037779,-0.028361,-0.03459,-0.042236,-0.373779,-0.538574,-1.308869,7.217243,6.477418,0.013219,0.111226,-0.019179,0.028809,-0.437012,-0.498047,0.204345,6.849,6.830505,0.107077,-0.021586,-0.076208,0.037354,-0.411133,-0.573242
-0.470453,-1.661567,9.613957,-0.290312,0.030978,-0.123862,0.098389,0.442871,-0.526123,-0.342612,0.958491,9.668053,-0.042938,0.062779,0.044516,-0.11792,0.131104,-0.636475,-1.076621,7.117839,6.274213,-0.322763,-0.21754,0.084069,-0.046143,-0.369873,-0.537842,-1.324939,7.028547,6.162169,-0.109024,-0.001777,-0.04654,0.02417,-0.433838,-0.49707,0.531545,6.904146,6.776791,-0.040385,0.071425,0.022423,0.037109,-0.407715,-0.568848
-0.184005,-1.42746,9.50273,0.015434,-0.016548,0.022975,0.094238,0.433838,-0.526855,-0.236774,1.701223,9.790208,0.243545,-0.021864,-0.077183,-0.125732,0.116699,-0.63208,-0.759147,6.8601,6.305481,0.0648,-0.000532,-0.069448,-0.050049,-0.367432,-0.542236,-0.994843,7.38347,6.202973,0.138933,-0.032661,-0.032259,0.024414,-0.432861,-0.501221,0.342133,6.977598,6.870234,-0.045611,0.004239,-0.094401,0.032959,-0.404541,-0.574707
-0.275207,-1.423671,9.660271,-0.024105,-0.015814,0.132664,0.096436,0.44165,-0.526855,-0.262492,1.833046,9.876446,-0.130277,0.037239,-0.070206,-0.12085,0.121826,-0.637207,-1.161678,7.81065,6.831954,0.145014,0.057212,-0.05057,-0.046143,-0.372803,-0.536865,-1.036314,7.933388,6.545864,0.013454,0.060327,0.022375,0.026367,-0.437012,-0.49707,0.701244,7.116717,6.770487,0.023708,-0.001319,-0.133366,0.040771,-0.410156,-0.572021
-0.438707,-1.391414,9.936715,0.043757,-0.002855,0.159018,0.105957,0.436523,-0.531982,-0.637263,0.440323,9.788277,-0.319874,-0.074593,-0.081438,-0.118896,0.12085,-0.638916,-1.262206,7.697671,6.766534,-0.181826,-0.024699,0.042124,-0.042969,-0.372559,-0.545898,-1.386608,7.552653,6.519179,-0.225644,0.109495,-0.023261,0.031494,-0.435547,-0.499512,0.149015,7.378386,6.919276,0.027996,0.095355,-0.159139,0.04541,-0.408936,-0.572021
-0.50367,-1.410642,10.083898,-0.079778,0.012196,0.093785,0.099609,0.438477,-0.519287,-0.043751,0.196854,9.86159,0.252808,-0.06943,-0.044091,-0.121582,0.11792,-0.627441,-1.094112,7.23976,6.17525,-0.155801,0.018584,-0.010026,-0.05127,-0.372803,-0.541504,-1.413714,7.132949,6.356254,-0.167263,-0.040092,0.016593,0.022217,-0.435059,-0.504639,0.223523,7.183,7.041032,-0.275112,-0.050134,-0.127712,0.039551,-0.408203,-0.576904
-0.541329,-1.873963,9.924134,-0.042505,-0.043309,0.066078,0.10498,0.444336,-0.519287,-0.148678,1.672479,10.336621,0.257035,0.0439,0.045619,-0.117432,0.119141,-0.62793,-1.238893,7.5108,6.357906,-0.072141,0.034544,-0.070103,-0.04834,-0.362549,-0.546387,-1.036234,7.163001,6.582619,-0.129719,-0.046365,-0.059794,0.024658,-0.427246,-0.507324,0.420154,6.343635,6.826246,-0.323646,0.048375,-0.106264,0.043945,-0.399414,-0.580322
-0.344444,-1.686086,9.809979,0.112568,-0.115265,0.05909,0.102051,0.439697,-0.52417,-0.136877,1.502928,10.01517,-0.271593,0.076799,0.092291,-0.116211,0.123047,-0.628662,-1.082055,7.034065,6.719066,-0.26307,-0.070174,0.012398,-0.046631,-0.357666,-0.544922,-1.101667,6.840871,6.506811,-0.193508,0.067812,-0.041129,0.027832,-0.421387,-0.505615,0.089243,6.340196,6.802033,0.135442,0.023995,-0.127734,0.046631,-0.395996,-0.576172
-0.100635,-1.045668,9.946176,0.355648,-0.068659,0.098751,0.093994,0.435303,-0.528809,-0.455876,0.695114,9.557394,-0.100393,0.075145,0.074549,-0.122559,0.123779,-0.632812,-0.914915,6.57799,6.592803,0.180042,0.039115,-0.057925,-0.042725,-0.358643,-0.539062,-1.33381,6.650457,6.420372,0.216145,0.024245,-0.046117,0.032227,-0.425537,-0.498535,0.360397,7.249986,7.012958,0.371782,-0.088004,-0.047921,0.049805,-0.400635,-0.56665
-0.31972,0.020549,10.184499,0.071019,-0.028764,0.113788,0.098145,0.446533,-0.529297,-0.313371,1.230324,9.785987,0.215395,-0.01764,-0.033127,-0.119873,0.13208,-0.63623,-1.175369,7.436529,6.743255,0.311083,0.136291,-0.128089,-0.049316,-0.373779,-0.541504,-1.222269,7.586897,6.547006,0.413284,-0.045673,-0.009345,0.025146,-0.438965,-0.499756,0.427458,7.558535,7.023791,0.050298,0.03078,-0.060138,0.044922,-0.412598,-0.571533
-0.374315,-0.631498,9.9833,-0.24974,-0.044263,0.112623,0.106445,0.444336,-0.525635,-0.131289,1.784994,10.159951,-0.090289,0.078166,-0.017636,-0.110352,0.12915,-0.63501,-1.3145,7.411559,6.460337,-0.037637,0.034376,0.037197,-0.050049,-0.365479,-0.540039,-1.177397,7.808072,6.590924,-0.023047,0.027706,-0.003223,0.024414,-0.431885,-0.501709,0.099595,7.00334,6.852215,-0.015049,-0.005186,-0.00797,0.043701,-0.404053,-0.573486
-0.433249,-1.325158,9.664085,-0.125123,-0.120666,0.08818,0.097168,0.444336,-0.523438,-0.40145,1.025206,9.69912,-0.318814,0.109506,-0.039854,-0.11792,0.128906,-0.634766,-1.100219,7.088235,6.502481,-0.024477,0.038661,-0.057353,-0.044678,-0.37085,-0.541992,-1.368732,7.192665,6.554885,-0.181322,0.014481,-0.014104,0.027344,-0.435303,-0.501953,0.333821,7.282078,6.95633,0.170773,-0.067897,-0.03012,0.044189,-0.413574,-0.569092
0.016492,-1.167089,9.438205,0.129031,-0.063627,0.043745,0.092041,0.441406,-0.534424,-0.346252,0.541585,9.169774,-0.054703,0.063398,-0.016016,-0.119629,0.128906,-0.641357,-1.249909,7.485944,6.345842,0.099576,0.107884,-0.060962,-0.038818,-0.37085,-0.538818,-1.239909,6.95207,6.408777,-0.042431,-0.086009,-0.010347,0.029297,-0.433105,-0.500488,0.392972,7.403588,6.97287,-0.210355,0.035532,0.093687,0.04541,-0.409424,-0.570312
-0.28336,-0.445489,9.781487,-0.014831,0.019066,-0.032601,0.096436,0.440918,-0.52832,-0.500689,0.941721,9.714423,0.041753,0.003498,0.021565,-0.115967,0.131104,-0.63916,-1.229306,7.759179,6.782202,-0.043148,0.023816,-0.074058,-0.040527,-0.373047,-0.540039,-1.050461,7.33466,6.523275,0.164189,-0.013734,-0.057744,0.0271,-0.434814,-0.498291,0.195999,6.50721,6.699061,-0.152465,0.001706,0.118164,0.042725,-0.405029,-0.571289
-0.360236,-1.298893,9.600188,-0.237052,-0.01602,-0.045333,0.092529,0.457031,-0.522461,-0.206429,1.062383,9.819692,-0.070052,-0.028223,0.047912,-0.119385,0.140869,-0.631592,-1.199818,7.149247,6.471762,-0.274502,0.070375,0.002481,-0.035889,-0.374756,-0.544189,-1.327039,7.849439,6.590182,0.020682,0.017307,-0.001162,0.030762,-0.446289,-0.498535,0.42897,7.091214,6.776307,0.271061,-0.034792,0.02583,0.045166,-0.416992,-0.570801
-0.30446,-1.354725,9.598722,0.088536,-0.075598,-0.071616,0.105713,0.443359,-0.524902,-0.336237,0.960905,9.715373,-0.040793,0.069651,-0.00146,-0.103271,0.129395,-0.631836,-1.322835,6.465276,6.476094,-0.078683,0.032753,0.000473,-0.041504,-0.364258,-0.539062,-1.24852,7.469617,6.442696,-0.215193,-0.039239,-0.012776,0.026123,-0.429932,-0.498047,0.424816,7.783885,6.983572,-0.018111,0.016827,0.023913,0.041748,-0.408447,-0.568604
-0.348158,-0.499573,9.838528,-0.02741,-0.068924,-0.050196,0.09375,0.439209,-0.522705,-0.467414,1.147406,9.664408,-0.133003,0.058332,-0.002232,-0.113281,0.125977,-0.630127,-1.216185,7.223884,6.372386,0.300845,0.0984,-0.01728,-0.043213,-0.366211,-0.528076,-1.165946,7.139033,6.356674,-0.014071,0.036943,0.057502,0.020752,-0.427979,-0.489258,0.305447,7.052352,6.77527,-0.272922,0.020368,-0.018102,0.037598,-0.400146,-0.560303
-0.144473,-1.2605,9.45194,-0.200758,-0.06524,-0.14074,0.09668,0.446533,-0.523682,-0.562541,0.740072,9.357068,-0.047922,0.020398,0.042998,-0.108643,0.134766,-0.635498,-1.545685,8.063928,6.492104,0.009563,0.09359,-0.032779,-0.039062,-0.372803,-0.537842,-1.50264,7.388486,6.529686,0.019603,0.022821,0.044593,0.025635,-0.4375,-0.498779,0.134547,6.626411,6.777208,-0.022067,0.018878,-0.013944,0.039307,-0.408203,-0.567871
-0.301288,-1.330316,9.564418,0.07615,-0.013652,-0.074872,0.090088,0.438232,-0.527588,-0.469964,1.430949,9.66228,0.224313,-0.026392,0.043584,-0.114014,0.122314,-0.635254,-1.415454,7.538858,6.35751,-0.218165,-0.03606,0.065405,-0.046143,-0.371582,-0.54126,-1.288581,7.380162,6.475777,-0.060421,-0.059746,-0.02231,0.018555,-0.436279,-0.496582,0.217094,7.034984,6.868656,0.105781,-0.037243,0.026108,0.033691,-0.4104,-0.56958
-0.251488,-0.892434,9.930445,0.056461,-0.059234,-0.067694,0.086426,0.441895,-0.528564,-0.432798,1.910305,9.848434,-0.168391,-0.020211,0.052961,-0.115479,0.130127,-0.638916,-1.310846,7.064743,6.386944,-0.163976,0.052082,-0.044884,-0.041992,-0.362305,-0.541992,-1.224171,7.452275,6.470556,-0.039406,0.016799,0.013893,0.021729,-0.428467,-0.49707,0.349269,7.34535,6.919341,-0.069012,0.008765,-0.009373,0.036621,-0.405029,-0.56665
-0.242805,-0.949882,9.640309,0.036104,-0.056211,-0.014057,0.092773,0.442871,-0.523193,-0.385796,0.715707,9.365177,-0.275638,0.009065,-0.001071,-0.110596,0.133057,-0.631592,-1.448004,6.593598,6.44248,-0.13315,-0.013122,0.085606,-0.035889,-0.361084,-0.54248,-1.348473,7.319907,6.505557,-0.148977,0.008089,0.018435,0.026855,-0.426514,-0.500977,0.249225,6.997778,6.828816,-0.142014,0.006689,-0.022187,0.043701,-0.400146,-0.56958
-0.074945,-1.106765,9.653429,-0.065758,-0.073801,0.074813,0.094238,0.442871,-0.519287,-0.489168,0.838882,9.449483,0.221153,0.021393,-0.078905,-0.111816,0.131592,-0.630615,-1.18272,6.805283,6.462106,0.199888,-0.018391,0.010683,-0.041016,-0.365967,-0.544434,-1.184916,6.821336,6.41737,-0.078702,-0.024899,0.073103,0.023193,-0.430664,-0.502441,0.284534,6.710148,6.78839,0.004532,-0.025556,-0.051052,0.041992,-0.402344,-0.574951
-0.101259,-1.682439,9.724256,0.031411,0.004644,0.039258,0.084717,0.451416,-0.526123,-0.504858,1.359964,9.849835,-0.083329,-0.055905,-0.029679,-0.118164,0.140869,-0.635986,-1.338123,7.741637,6.720307,0.206487,0.121716,-0.040758,-0.036621,-0.366943,-0.54126,-1.238731,6.939214,6.559069,0.162105,0.037949,0.047368,0.024902,-0.427734,-0.500488,0.226837,6.865735,6.931157,0.094395,0.001401,-0.013642,0.043701,-0.400879,-0.572998
-0.160238,-1.085226,9.987085,0.1787,0.007309,0.00824,0.083984,0.444824,-0.530273,-0.03355,0.402781,9.678335,-0.228184,-0.068614,0.025571,-0.119873,0.139404,-0.638184,-1.442397,7.587571,6.346436,-0.17422,-0.094494,0.072642,-0.040039,-0.374023,-0.551514,-1.285279,7.515664,6.639567,0.120884,-0.044511,0.031677,0.022217,-0.438721,-0.508301,0.331107,6.942717,6.975856,-0.025292,-0.04259,0.020462,0.037598,-0.409912,-0.580322
-0.021024,-0.938936,10.043029,0.048359,-0.001421,-0.085035,0.082764,0.44458,-0.52124,-0.149891,0.732054,9.729474,0.221892,0.080272,0.079491,-0.119873,0.137695,-0.629639,-0.948103,6.881373,6.377392,-0.167635,-0.056278,0.024969,-0.054199,-0.363525,-0.542969,-0.927496,7.342839,6.683117,-0.212979,-0.042242,-0.017961,0.009033,-0.428467,-0.503662,0.542302,6.73446,6.866614,-0.101989,0.020429,0.051478,0.028076,-0.402588,-0.573975
0.235726,-0.813039,9.908251,0.036208,0.050636,-0.048519,0.093018,0.441895,-0.531494,-0.392158,1.590059,9.59293,0.075932,-0.021641,0.042343,-0.112793,0.132568,-0.641846,-1.183536,7.003863,6.758267,0.136031,0.010578,-0.036179,-0.041016,-0.371582,-0.545898,-1.017552,6.835587,6.458537,-0.049146,0.074525,-0.002055,0.020752,-0.435303,-0.504639,0.343507,6.648371,6.85397,0.068647,0.01273,0.019869,0.039062,-0.408936,-0.57373
-0.058154,-0.868099,9.931491,-0.054989,0.138803,0.022598,0.083008,0.44043,-0.523926,-0.266115,1.230789,9.55783,-0.205294,-0.014504,-0.014747,-0.120605,0.133545,-0.633789,-1.200377,7.308873,6.674695,-0.04274,-0.04191,0.038286,-0.043945,-0.363281,-0.55249,-1.323546,7.265721,6.581541,0.171829,0.01988,0.045568,0.019775,-0.42749,-0.508301,0.479167,7.266757,6.942634,0.1508,-0.006646,-0.024183,0.036133,-0.400146,-0.580322
0.045891,-1.165793,10.145628,-0.060395,0.15947,0.069305,0.094482,0.441895,-0.530762,-0.36116,0.565691,9.59481,0.06284,-0.059993,-0.048189,-0.11792,0.13208,-0.637207,-1.17232,7.009868,6.407823,-0.01407,-0.040261,0.049237,-0.044189,-0.367432,-0.542725,-1.076584,7.51298,6.606678,-0.025184,-0.047927,0.020709,0.020996,-0.432617,-0.499268,0.396523,7.222914,6.995565,-0.142459,0.042149,0.043132,0.035889,-0.405273,-0.573242
-0.151954,-1.325472,10.500138,0.029538,0.241016,0.052084,0.098145,0.443115,-0.530029,-0.14971,1.329158,9.912456,0.231139,-0.039008,-0.039169,-0.120605,0.130859,-0.635498,-1.185383,7.621003,6.511054,0.196788,0.001088,-0.045837,-0.043701,-0.367676,-0.539795,-1.068698,7.326419,6.463719,-0.092593,0.066671,0.016279,0.020752,-0.428955,-0.498779,0.304825,6.655645,6.879009,-0.109368,0.013531,0.026424,0.037598,-0.399658,-0.573242
-0.051374,-1.401405,10.431475,-0.000136,0.339936,0.042588,0.108887,0.442627,-0.529785,-0.355148,1.252062,9.779971,-0.185068,-0.037447,0.020401,-0.112549,0.129883,-0.637695,-1.268279,7.692145,6.627991,-0.218032,-0.0351,0.046739,-0.047119,-0.369141,-0.551025,-1.355482,7.174978,6.421313,-0.051901,0.021638,0.006442,0.02002,-0.433838,-0.51123,0.33896,6.757647,6.845355,0.071976,-0.00098,-0.001012,0.035889,-0.405518,-0.584229
-0.066583,-1.419642,10.724321,0.021971,0.441859,0.064619,0.112793,0.442139,-0.529053,-0.060278,0.493854,9.538374,-0.198221,-0.048284,0.017501,-0.118652,0.134033,-0.634277,-1.095541,6.579883,6.282962,-0.236368,-0.10583,0.096999,-0.047852,-0.36084,-0.542969,-1.064632,7.331201,6.501285,0.051578,-0.079114,0.031649,0.02124,-0.426025,-0.497559,0.451565,7.134761,6.92803,0.045104,-0.034062,-0.069322,0.036621,-0.400146,-0.570068
-0.161881,-0.783191,10.968873,0.004945,0.679303,-0.021906,0.121826,0.448242,-0.531006,-0.184705,0.464165,9.6888,0.01059,0.026884,0.088242,-0.119141,0.140625,-0.63208,-0.986846,6.971238,6.454266,0.214853,0.016157,-0.02863,-0.036377,-0.364746,-0.540039,-0.930645,7.45917,6.53311,-0.081193,0.042954,0.046324,0.030762,-0.428955,-0.5,0.536992,7.021072,6.83803,-0.175941,0.034979,-0.072607,0.050049,-0.400146,-0.568115
-0.389144,-1.133599,11.238753,-0.22368,0.783274,-0.061921,0.133057,0.454102,-0.525635,-0.305041,0.739415,9.710293,0.115949,0.002289,0.091552,-0.117188,0.140625,-0.630127,-1.36955,7.546118,6.596919,-0.033795,-0.005459,0.053009,-0.038818,-0.370117,-0.54126,-1.330855,7.065141,6.417718,-0.182822,0.102702,0.01571,0.03125,-0.428955,-0.502197,0.111041,6.541177,6.740474,-0.068758,0.035226,-0.068588,0.048096,-0.402588,-0.57373
-0.433581,-1.525885,11.258235,-0.158875,1.030493,0.028158,0.155273,0.447021,-0.53125,-0.293393,1.184169,9.748674,0.254699,0.072699,0.046985,-0.111084,0.126465,-0.635986,-1.17912,6.75054,6.548222,-0.247273,-0.119112,0.141817,-0.050049,-0.359375,-0.540527,-1.378755,6.806281,6.381958,-0.029416,-0.035478,0.07282,0.024414,-0.422607,-0.501953,0.197486,6.871015,6.832809,0.135459,-0.045717,-0.133275,0.042969,-0.400635,-0.573975
-0.370262,-1.69707,11.383036,-0.189492,1.206038,0.11825,0.169922,0.462402,-0.523438,-0.438409,1.64486,9.848519,0.00274,0.027043,0.012058,-0.11377,0.137451,-0.629639,-0.912255,6.517489,6.507987,0.114759,0.020945,0.020793,-0.051758,-0.369385,-0.548584,-1.060719,6.847584,6.450396,0.015709,-0.033079,0.05527,0.018311,-0.434082,-0.507568,0.296648,7.016434,6.892408,-0.083636,-0.006034,-0.037458,0.038574,-0.406006,-0.578125
-0.951813,-2.152415,11.185095,0.190681,1.559327,0.133901,0.197754,0.450684,-0.532471,-0.118485,0.731635,9.835452,-0.297592,0.033197,0.030642,-0.113525,0.132812,-0.631836,-1.258647,7.335963,6.477259,0.249475,0.069406,-0.006627,-0.048584,-0.368164,-0.54126,-1.143468,6.863981,6.453234,0.060128,0.064624,0.05444,0.020996,-0.432861,-0.50293,0.15664,6.345998,6.774035,-0.088407,0.009329,-0.008654,0.039795,-0.401611,-0.572998
-1.370618,-0.749068,11.845838,0.46344,1.706714,0.028193,0.213135,0.446045,-0.533691,-0.242017,0.351878,9.892529,0.118232,0.172927,0.055578,-0.122559,0.13208,-0.634277,-1.2739,7.325212,6.348209,-0.093017,-0.024742,0.078103,-0.048096,-0.368164,-0.547363,-1.393934,7.057421,6.505555,0.101092,0.009884,0.040875,0.02124,-0.431396,-0.505859,0.150425,6.663706,6.76782,0.267139,-0.02634,-0.003542,0.043213,-0.405518,-0.578857
-1.539734,0.407689,12.212895,-0.142003,1.988099,-0.087908,0.262939,0.453857,-0.528564,-0.462007,1.624227,10.196733,0.216351,0.187836,0.099115,-0.098145,0.134766,-0.631348,-1.309936,7.061117,6.306767,0.111504,-0.047433,0.005313,-0.053955,-0.368896,-0.539062,-1.226766,7.236572,6.575791,0.105856,-0.039037,0.038455,0.016357,-0.431152,-0.497803,0.213012,7.442591,7.035994,0.154912,-0.011137,0.030512,0.036865,-0.40625,-0.567871
-1.892823,-0.80828,10.863102,-0.877519,2.214576,-0.106889,0.291504,0.465332,-0.523193,-0.056999,1.860419,10.385301,-0.242819,0.227421,0.113547,-0.103516,0.135254,-0.633057,-1.024892,7.668542,6.324849,0.136893,-0.066414,-0.027208,-0.049805,-0.361816,-0.543213,-1.090499,7.347185,6.465532,0.020601,-0.025147,-0.007202,0.023682,-0.427734,-0.501465,0.35487,7.063429,6.902201,-0.192398,-0.013282,0.154837,0.041016,-0.397461,-0.577393
-2.606285,-2.040409,10.07338,-0.351385,2.251641,0.137624,0.326172,0.465576,-0.516602,-0.412786,1.180608,9.755963,-0.266763,0.364759,0.062924,-0.097656,0.133789,-0.634033,-1.088539,7.110402,6.703202,-0.271128,-0.082745,0.098702,-0.052979,-0.362061,-0.544434,-1.075522,7.376857,6.430875,0.075423,0.006236,0.009443,0.022217,-0.427246,-0.501465,0.379367,6.592212,6.767021,0.076745,0.001991,0.075106,0.042236,-0.398926,-0.573486
-2.854722,-0.785767,10.109963,-0.002452,2.37935,0.086817,0.361084,0.463867,-0.508301,-0.497436,0.881864,10.062542,-0.154734,0.346091,-0.062234,-0.091797,0.13208,-0.635986,-0.864512,6.487626,6.669598,0.061246,-0.060978,0.097904,-0.05249,-0.362061,-0.538574,-1.154253,7.66834,6.564647,0.056241,0.004059,0.08087,0.023438,-0.431152,-0.497314,0.39642,7.488402,6.926527,0.259471,-0.033974,-0.043522,0.04126,-0.404785,-0.568604
-3.785203,0.205206,9.92564,-0.1936,2.597211,-0.017051,0.399658,0.479004,-0.49707,-0.462406,1.294787,10.184085,0.292705,0.434303,-0.057333,-0.085693,0.138428,-0.638428,-1.242813,7.13238,6.602319,0.309089,0.080082,0.039156,-0.059326,-0.368408,-0.530762,-1.21092,7.50027,6.377277,-0.01247,0.021257,0.114704,0.015869,-0.429199,-0.49292,0.28321,7.522743,6.942486,-0.077169,-0.025447,-0.068456,0.036377,-0.40332,-0.566895
-3.85014,0.158415,8.894524,-0.829427,2.304165,0.025761,0.427734,0.496094,-0.473633,-0.546242,2.412688,9.960791,0.13186,0.549984,-0.199089,-0.083008,0.139893,-0.63623,-0.808043,8.652951,6.538527,0.466283,-0.088467,0.053473,-0.052734,-0.362061,-0.52832,-0.890344,7.348428,6.585584,0.04941,-0.072991,0.144095,0.019043,-0.421875,-0.494141,0.620589,6.793411,6.981194,-0.141608,-0.05743,-0.091414,0.042725,-0.392578,-0.565918
-3.045171,-1.805534,7.524831,-0.650867,2.673883,0.26391,0.466064,0.501709,-0.459473,-1.326256,2.263389,9.516095,-0.328447,0.367634,-0.143196,-0.075684,0.140137,-0.64624,-0.978544,9.018865,6.433322,-0.14276,0.12548,-0.071096,-0.046143,-0.373291,-0.530518,-0.946556,7.383719,6.6374,0.037842,0.076298,-0.009138,0.025635,-0.431152,-0.496094,0.208514,6.405684,6.864513,0.018718,0.084545,0.039709,0.048828,-0.400391,-0.568115
-4.265737,-1.266222,6.922293,-0.549123,2.660909,0.465816,0.499756,0.501953,-0.42627,-1.068697,1.425569,9.089044,-0.303076,0.209639,-0.252231,-0.080322,0.141357,-0.635498,-1.370479,7.753942,6.742325,-0.399474,-0.099361,0.010372,-0.062988,-0.37085,-0.53833,-1.388757,7.420842,6.52536,-0.075826,0.008001,-0.097409,0.011963,-0.436768,-0.499023,0.133003,6.896588,6.968605,0.146251,-0.058976,0.099648,0.029053,-0.411865,-0.571533
-4.90151,-3.623756,5.326849,-0.475279,2.646344,0.399172,0.541016,0.502197,-0.416016,-1.467411,1.4145,10.366269,-0.216176,0.003554,-0.266282,-0.074219,0.141602,-0.648438,-0.566319,7.208879,6.406227,-0.11698,-0.035094,-0.155964,-0.054199,-0.362305,-0.532471,-1.049428,7.271344,6.610921,-0.187406,-0.164964,-0.122404,0.018311,-0.428467,-0.494141,0.673764,7.450237,7.01708,-0.093664,-0.010721,0.179048,0.036133,-0.4021,-0.567139
-4.697565,-2.468252,5.964611,0.783679,2.546835,0.69053,0.576172,0.48291,-0.393799,-0.837501,0.773489,9.145067,-0.51744,-0.135812,-0.224182,-0.079834,0.14502,-0.641357,-1.163043,7.741779,7.005491,0.190831,0.193765,-0.239679,-0.051758,-0.367188,-0.536865,-0.797673,7.067202,6.355562,0.025321,0.011745,-0.158724,0.021729,-0.426025,-0.498535,0.356456,6.655555,6.71668,-0.280002,0.121649,0.229579,0.034912,-0.396729,-0.572266
-6.270345,-0.208926,6.216697,0.380178,2.830764,0.502381,0.617432,0.481934,-0.363525,-1.095687,-0.44111,9.416244,-0.40134,-0.180912,-0.221468,-0.078857,0.155762,-0.635254,-1.0595,7.893531,6.730633,-0.308563,0.003325,-0.13493,-0.050537,-0.365234,-0.537109,-1.254814,7.756256,6.687746,0.144022,0.052353,-0.131656,0.023438,-0.433838,-0.494873,0.451704,6.737664,6.749997,0.163158,-0.04304,0.155279,0.036133,-0.400635,-0.569092
-7.114761,-2.142199,4.955778,-0.492376,2.507955,0.448426,0.641357,0.478027,-0.334961,-0.193588,-0.990375,9.577077,0.098335,-0.159043,-0.158073,-0.087158,0.14917,-0.634277,-1.057076,6.169295,6.242002,-0.421874,0.014541,-0.004988,-0.047363,-0.360596,-0.542236,-1.0574,7.835136,6.536149,-0.099649,-0.121251,-0.093644,0.020752,-0.429199,-0.495117,0.874502,7.487372,6.925152,0.120643,0.015075,0.01552,0.033203,-0.402832,-0.571289
-6.59951,-3.230604,3.79217,0.553887,2.506224,0.506003,0.665039,0.473145,-0.305908,-0.716972,0.464977,9.924024,0.489048,0.180264,-0.082893,-0.089844,0.148193,-0.632324,-1.000034,6.247062,6.266168,0.203952,0.074501,-0.104831,-0.044678,-0.369873,-0.541992,-0.767186,7.450968,6.468725,-0.23337,0.075482,-0.033323,0.025391,-0.435791,-0.500977,0.573304,7.518734,6.894114,-0.185826,0.094056,-0.038549,0.038818,-0.4104,-0.573975
-7.199409,0.405283,4.772832,0.861695,2.651585,0.02643,0.702637,0.468506,-0.273193,-1.195598,0.806934,8.844655,-0.338471,-0.037195,0.038142,-0.075928,0.157471,-0.626709,-1.438661,7.734906,6.517482,0.324565,0.079029,-0.080168,-0.044678,-0.36792,-0.539551,-1.436417,6.888997,6.50865,-0.090989,0.143823,0.031681,0.024658,-0.425781,-0.5,0.30186,6.515308,6.781522,-0.275454,0.036735,-0.080277,0.039551,-0.396484,-0.572998
-7.700226,0.351474,4.176267,-0.038619,2.480907,-0.187805,0.718506,0.461182,-0.249023,-0.766407,-1.254981,9.422114,-0.402124,-0.078219,0.293905,-0.07959,0.154297,-0.630371,-0.973084,8.062439,6.984918,-0.224039,-0.093549,0.01926,-0.04834,-0.361084,-0.541504,-1.216735,7.144985,6.735825,0.151356,-0.105781,-0.065724,0.019287,-0.424805,-0.500488,0.510885,6.40353,6.868864,0.211988,-0.01179,-0.037194,0.03418,-0.39502,-0.572021
-6.779643,0.526185,3.130618,-0.203082,2.77221,-0.418332,0.737549,0.475586,-0.216309,-0.766909,-0.1545,9.053099,0.603551,-0.053265,0.268259,-0.083252,0.148438,-0.638916,-1.362626,6.320772,5.557039,-0.352939,0.020564,0.064089,-0.050537,-0.365723,-0.545654,-0.833191,7.50416,6.502134,-0.037814,0.061969,0.012423,0.023438,-0.432861,-0.500488,0.451088,7.437425,7.102331,0.12136,0.064217,-0.121557,0.035889,-0.406982,-0.570312
-8.423893,0.081075,2.53764,-0.778352,2.448376,-0.52365,0.748047,0.491699,-0.181396,-0.822217,1.603517,10.003706,0.153493,-0.097039,0.26761,-0.082031,0.14917,-0.640625,-1.070779,7.109651,7.315079,0.476383,-0.184393,-0.139172,-0.045166,-0.369629,-0.539795,-1.343916,7.153096,6.571233,-0.116617,0.126715,-0.083734,0.030273,-0.433105,-0.5,0.422057,6.876375,6.87903,-0.250346,0.040237,0.050333,0.041504,-0.400879,-0.571289
-9.538355,-1.241556,1.47531,-0.739558,2.81264,-0.478755,0.75293,0.5,-0.124512,-0.805878,0.96864,9.915749,0.092471,-0.063415,0.208934,-0.087646,0.149414,-0.630127,-0.863421,7.668046,6.635005,-0.31528,0.129131,0.057719,-0.041992,-0.359131,-0.532227,-1.313578,6.996907,6.508875,-0.0595,0.006213,-0.032274,0.033691,-0.424805,-0.491211,0.347077,6.705865,6.734982,0.139008,0.059005,-0.059082,0.046631,-0.397949,-0.561768
-10.134908,-1.493819,-0.043367,-0.827643,2.170289,-0.266761,0.763672,0.507324,-0.094971,-0.69883,1.42567,8.4298,0.30251,0.025676,0.002828,-0.087891,0.141357,-0.640381,-1.790884,5.55914,6.736211,-0.363241,-0.161482,0.153366,-0.047607,-0.361816,-0.54126,-1.251109,7.279309,6.508777,0.213891,0.039509,0.102187,0.027832,-0.435547,-0.496338,0.30912,7.689066,7.080215,0.294167,-0.006836,-0.121143,0.043701,-0.408447,-0.565918
-9.529806,-2.942186,0.245312,-0.484677,1.856255,0.064013,0.772949,0.503174,-0.0625,-0.764876,0.857568,11.862793,-0.193261,-0.10209,0.020053,-0.08374,0.138916,-0.637451,-0.574556,6.987584,5.528927,0.553362,-0.006831,-0.01788,-0.044922,-0.366455,-0.547607,-1.295198,7.651808,6.775513,-0.02219,0.097259,0.04822,0.037109,-0.432617,-0.506348,0.425003,7.519813,7.05139,-0.322452,0.068686,-0.030646,0.049072,-0.397949,-0.579102
-7.977317,-2.198306,-0.095976,0.328701,2.042933,0.212108,0.779541,0.499756,-0.038818,-0.960795,3.742737,9.046312,0.986528,0.756726,-0.388393,-0.075195,0.125732,-0.64209,-1.812028,7.425386,8.494186,0.141261,0.140113,0.174515,-0.041748,-0.369873,-0.539795,-1.684388,7.191154,6.243105,-0.293899,0.117507,0.147443,0.035156,-0.430176,-0.504395,-0.259079,6.625456,6.595343,-0.029384,0.077262,-0.140442,0.053467,-0.403809,-0.574219
-8.219425,-0.80534,-1.942016,-0.4101,1.179043,-0.054206,0.773193,0.504639,-0.023193,-3.123371,0.984846,10.473284,-0.737011,-0.80532,-0.124766,-0.091553,0.139404,-0.642334,-1.156727,8.516966,5.741767,0.150429,-0.127038,-0.112205,-0.046143,-0.371826,-0.540527,-1.549037,6.289281,6.38213,-0.133045,-0.055994,0.097885,0.03125,-0.426758,-0.504395,0.058422,6.289747,7.087176,-0.227476,-0.044824,-0.049279,0.050049,-0.4021,-0.577148
-10.970066,-1.746929,-0.988876,-0.182612,2.306612,0.580086,0.802734,0.50415,0.014404,2.000305,-1.020297,7.774636,0.022019,0.164794,-0.406174,-0.075439,0.145508,-0.64209,-1.515789,7.952718,6.117469,-0.203434,0.156364,0.099891,-0.043701,-0.364014,-0.538086,-1.202646,7.152806,6.682551,0.524213,0.137869,-0.139145,0.036133,-0.433105,-0.498291,-0.074072,6.285558,6.60245,0.344031,0.137784,0.133869,0.052246,-0.403809,-0.571045
-8.215998,-0.85829,-1.924825,-0.169375,1.106784,0.308508,0.793457,0.494385,0.035156,-3.513064,1.812884,11.437532,0.723288,-0.013975,0.289511,-0.088867,0.129883,-0.641357,-1.229885,7.128987,6.372017,-0.274955,-0.262954,-0.135857,-0.052246,-0.362305,-0.546143,-1.57087,8.027394,6.763707,-0.114654,-0.065438,0.02496,0.029785,-0.430908,-0.50293,0.292203,7.43152,7.359806,0.008895,-0.060095,-0.043746,0.047607,-0.40625,-0.57666
-11.223778,-1.656486,-2.178396,-0.695042,1.57458,0.064491,0.796143,0.48877,0.064941,1.430092,2.268036,9.541939,-0.682673,-0.265268,-0.259736,-0.085938,0.134033,-0.634766,-0.806136,6.760775,6.463043,-0.035656,0.060586,0.056131,-0.047852,-0.36792,-0.539307,-0.997974,6.939456,6.230055,-0.407386,0.030418,-0.216587,0.034424,-0.430176,-0.500732,0.4389,6.748728,6.595374,-0.228528,0.125422,0.203276,0.047852,-0.405273,-0.572754
-7.688925,-2.12758,-3.544779,0.059286,1.061961,0.033383,0.79126,0.487793,0.074463,-2.473363,-1.812437,9.042412,-0.59332,0.243478,0.488512,-0.0896,0.14209,-0.641846,-1.604327,7.535464,6.244326,0.249505,-0.018953,-0.27565,-0.045166,-0.365479,-0.536133,-1.487825,6.754533,6.477076,0.170832,0.113804,0.054183,0.035156,-0.428467,-0.500244,-0.073063,6.491588,7.071964,-0.017121,0.073964,-0.166345,0.053955,-0.399658,-0.572754
-11.896038,-0.830295,-3.214427,0.15525,0.902643,-0.288571,0.789307,0.491699,0.098877,0.412854,-0.035032,9.713973,1.199852,-0.47124,-0.202884,-0.098877,0.128174,-0.629883,-0.79557,8.054132,6.631669,-0.061716,-0.203996,0.089095,-0.050781,-0.365967,-0.538574,-1.339689,7.667177,6.53665,0.233046,-0.108307,-0.190214,0.035156,-0.43457,-0.496582,0.577651,6.739341,6.76226,0.15196,-0.080718,0.124132,0.050781,-0.402344,-0.570557
-8.591006,-0.953561,-3.057248,0.049822,0.703954,-0.105136,0.794922,0.496582,0.106445,-0.826984,3.531703,10.084231,0.184295,0.454766,0.559871,-0.082031,0.130127,-0.635498,-1.425662,6.779774,6.224507,-0.415454,0.035704,-0.152221,-0.040771,-0.361328,-0.534424,-1.118185,7.688763,6.52236,-0.145624,0.115291,-0.052045,0.04248,-0.429932,-0.490479,0.085588,7.32776,7.034793,0.168384,0.186875,-0.180961,0.061279,-0.403076,-0.565186
-10.939942,-1.056531,-2.910803,-0.144205,0.420721,-0.338458,0.785156,0.505371,0.101074,-1.561807,1.222053,9.540038,-0.946009,-0.243815,-0.040938,-0.088379,0.143066,-0.642578,-1.18611,5.861026,6.963151,-0.111812,-0.23559,0.136475,-0.051025,-0.358154,-0.54834,-1.902293,7.173724,6.596715,-0.209748,0.091861,-0.051611,0.041016,-0.42627,-0.504395,0.063613,7.90155,7.026767,0.029562,-0.106944,0.033623,0.056396,-0.403076,-0.577148
-10.290673,-1.509331,-3.173631,-0.108448,0.431391,0.121972,0.789062,0.500244,0.109131,0.107436,-0.025383,9.172364,0.521186,0.155598,0.035233,-0.086182,0.135254,-0.643311,-0.830116,6.455475,6.542003,0.206826,-0.018049,-0.041921,-0.048828,-0.373779,-0.540039,-1.346594,6.844249,6.329654,-0.063759,-0.140967,0.046708,0.04248,-0.439209,-0.498535,0.519688,7.172401,6.865273,-0.341866,0.028478,-0.132413,0.057373,-0.412842,-0.571289
-10.215996,-1.360306,-2.664936,-0.128646,-0.181935,0.394533,0.791992,0.486084,0.115234,-1.494889,3.557073,10.6202,0.59468,0.097882,-0.360992,-0.08374,0.117676,-0.639404,-1.067597,7.495727,6.760515,0.333562,0.037015,0.052249,-0.05542,-0.368652,-0.546875,-0.977324,7.002925,6.53623,0.187975,0.042915,0.111608,0.033936,-0.430908,-0.509033,0.071885,6.409363,6.908452,-0.002453,0.066134,-0.04656,0.051025,-0.404541,-0.581299
-9.262865,-2.24743,-2.667563,0.009505,0.060572,0.565548,0.800537,0.479004,0.114258,-0.521144,2.252261,9.856289,-0.766571,-0.060314,-0.241557,-0.084717,0.128662,-0.63916,-1.089858,8.152499,6.995126,0.08573,-0.032944,0.007265,-0.050293,-0.377197,-0.542725,-1.600508,7.395134,6.623975,0.078949,0.155242,0.012275,0.04248,-0.439697,-0.502197,0.048652,6.856742,6.967112,0.257067,-0.074113,-0.058969,0.056885,-0.414795,-0.57373
-9.519614,-1.475872,-2.018938,0.35494,-0.227994,0.655137,0.80542,0.472412,0.111572,-1.525963,-0.917832,9.3121,-0.244666,0.009647,-0.252016,-0.083984,0.137695,-0.631348,-1.330496,7.694074,6.485939,-0.141757,0.145409,-0.040826,-0.048096,-0.367676,-0.542969,-1.931301,7.152188,6.612333,-0.107617,-0.053629,0.020218,0.04248,-0.428955,-0.501465,-0.005729,7.229109,7.165066,-0.045965,0.072761,0.04988,0.061035,-0.404541,-0.57251
-9.595126,-1.197068,-1.872269,0.298035,0.049096,0.304071,0.802246,0.47168,0.110596,-0.452066,0.564513,10.012195,0.718397,-0.214644,-0.267139,-0.09375,0.125,-0.637207,-1.443925,7.447043,6.385106,-0.025978,-0.076206,-0.05854,-0.048096,-0.363525,-0.543457,-1.283318,7.056396,6.442059,0.012209,-0.124537,-0.117492,0.041748,-0.428711,-0.504883,-0.110966,6.631614,6.911522,-0.194787,-0.05003,0.129936,0.05542,-0.399902,-0.576904
-10.145213,-0.680266,-1.575382,0.330562,-0.028828,0.216262,0.805176,0.465576,0.100342,-0.630884,1.954863,10.459737,-0.282875,0.165846,0.125848,-0.089111,0.129639,-0.640869,-1.109948,7.28072,6.192445,-0.210883,0.023116,-0.096815,-0.044678,-0.359375,-0.544189,-1.429342,7.333687,6.581433,0.019179,0.074472,-0.034689,0.046387,-0.427002,-0.505371,0.232444,6.620023,6.867427,0.09777,0.014173,0.059004,0.05957,-0.397705,-0.576172
-9.666997,-0.259587,-1.461225,-0.179757,0.077645,-0.099065,0.804688,0.469727,0.109131,-0.802863,-0.090897,9.398444,-0.653519,0.022652,0.005957,-0.089355,0.142334,-0.634521,-1.482289,6.629445,6.21838,-0.024784,-0.130441,0.000283,-0.05249,-0.363037,-0.543945,-1.626194,7.293273,6.509613,-0.028517,-0.073965,-0.091067,0.040283,-0.431641,-0.500977,0.190402,7.301383,6.937797,0.144907,-0.029747,0.075964,0.052734,-0.405518,-0.573242
-8.94116,-1.527044,-1.992431,-0.167424,0.007598,-0.225004,0.800293,0.467041,0.115479,-0.802595,-0.156765,9.329095,0.139732,0.198584,0.182182,-0.086426,0.134033,-0.62793,-0.523601,7.424125,7.404776,0.176781,-0.103228,-0.118444,-0.048584,-0.371338,-0.539551,-1.133978,7.407401,6.5754,0.036797,-0.091859,-0.037329,0.043213,-0.435791,-0.499756,0.476985,7.333926,6.955787,-0.120745,-0.017324,0.033277,0.055176,-0.406982,-0.572021
-9.309603,-1.301838,-2.270656,0.218985,0.157614,-0.135493,0.804199,0.470459,0.104492,-1.314366,1.692065,10.150556,0.365081,-0.113612,-0.064336,-0.084229,0.129639,-0.642334,-1.275827,7.52371,6.486968,-0.029156,0.187724,-0.003683,-0.049072,-0.36377,-0.546387,-1.313005,7.43034,6.391179,-0.013842,0.084537,-0.010184,0.04126,-0.427979,-0.504883,0.320466,6.663523,6.768691,-0.144738,0.047355,-0.000979,0.052002,-0.398682,-0.577881
-9.747884,-0.130881,-1.534151,0.328916,-0.041071,0.062269,0.805908,0.470459,0.117676,-0.364568,1.47902,9.474409,-0.417021,0.053424,0.221342,-0.080566,0.136475,-0.625732,-1.48144,7.24955,6.97333,-0.142619,-0.121676,-0.062392,-0.050781,-0.364258,-0.544434,-1.784242,7.480107,6.41714,-0.004813,0.040285,-0.035238,0.041504,-0.43042,-0.503418,-0.045009,6.846582,6.793376,0.176459,-0.003887,-0.106191,0.05249,-0.404053,-0.575439
-9.078135,0.018365,-1.576598,-0.168765,0.102264,-0.091165,0.801025,0.476318,0.116943,-1.600732,0.24416,9.304433,-0.188629,-0.032303,-0.182233,-0.087891,0.139404,-0.62793,-0.697415,6.59393,6.343661,-0.231097,0.047684,0.133341,-0.04541,-0.354736,-0.543701,-1.435378,7.292744,6.624572,-0.202349,-0.121933,0.030258,0.042969,-0.421387,-0.500732,0.339675,7.608902,7.009386,0.015842,-0.091578,-0.102291,0.057373,-0.396484,-0.570801
-9.764072,-0.857514,-2.03709,-0.341073,0.051311,-0.003229,0.796143,0.481445,0.114258,-0.2811,0.879133,9.520393,0.246415,-0.124944,0.049918,-0.09375,0.143799,-0.637939,-1.506409,6.682201,6.695134,0.276688,0.134446,-0.135915,-0.04834,-0.361084,-0.540527,-1.168191,6.674989,6.456071,-0.061203,0.049744,0.018884,0.037598,-0.427246,-0.501953,0.247207,6.71253,6.833284,-0.27241,0.069787,-0.089246,0.054932,-0.397217,-0.574951
-9.65234,-1.2832,-2.460541,-0.441675,0.041819,0.012533,0.802734,0.479492,0.12085,-1.05133,1.617551,9.859451,0.07257,0.04848,-0.148692,-0.085938,0.141602,-0.633301,-0.959798,7.726323,6.541545,0.105035,-0.030762,0.061987,-0.041992,-0.370361,-0.541504,-1.572313,6.905762,6.571701,0.124854,0.049427,0.033333,0.050293,-0.433838,-0.503174,-0.011379,6.463104,6.802802,0.126211,-0.049155,-0.026222,0.062012,-0.408447,-0.573486
-10.465151,-3.064294,-2.968347,-0.017831,-0.13295,0.109133,0.805664,0.463867,0.115967,-0.43079,1.117816,9.804737,-0.112782,-0.109235,-0.018742,-0.086182,0.127686,-0.635254,-1.242945,7.044244,6.424592,-0.253083,0.08074,-0.010783,-0.049316,-0.360596,-0.546875,-1.397563,7.176164,6.636317,0.077973,-0.084203,0.009576,0.037598,-0.427002,-0.505371,0.408512,7.062617,7.020234,0.149797,-0.036333,-0.017757,0.051514,-0.401611,-0.573486
-9.457557,-1.131081,-2.197523,0.668151,-0.228291,0.261123,0.805664,0.466797,0.107666,-0.723502,0.993447,9.640756,-0.011362,0.18071,-0.150869,-0.088623,0.134521,-0.638916,-1.272177,6.620815,6.467516,0.036931,-0.059332,0.017047,-0.050293,-0.369385,-0.543945,-1.242803,7.234262,6.59019,-0.075052,0.044121,-0.005317,0.039062,-0.435547,-0.50293,0.112817,7.045373,7.008611,-0.143544,0.067679,0.026032,0.053467,-0.405273,-0.575928
-9.204647,-0.054892,-1.852824,0.046286,-0.241857,0.100074,0.807373,0.466797,0.103271,-1.07349,0.767387,9.784738,-0.212714,-0.057817,-0.073432,-0.089111,0.140381,-0.638916,-0.87744,7.247128,6.678894,0.198139,-0.002578,-0.029046,-0.046631,-0.372559,-0.547852,-1.514326,6.847268,6.42186,-0.07225,0.018404,0.007537,0.039307,-0.434326,-0.510742,0.160936,6.409734,6.761746,-0.070955,-0.061957,0.029205,0.054688,-0.407471,-0.581299
-9.701337,-0.996285,-1.770404,-0.137636,-0.1571,0.108368,0.808594,0.467285,0.097412,-0.451959,-0.20035,9.489902,-0.11791,0.050827,0.000123,-0.087891,0.144043,-0.637939,-1.302566,7.417695,6.388824,0.028643,0.112987,-0.030757,-0.048828,-0.366699,-0.544189,-1.373466,7.004159,6.404503,0.237615,-0.034092,-0.001748,0.041016,-0.432861,-0.501953,0.326946,6.79074,6.772123,0.312971,0.008558,-0.009328,0.052979,-0.406982,-0.57373
-10.079735,-0.825491,-1.966011,-0.016137,-0.267595,-0.039453,0.809082,0.464844,0.104004,-1.016501,0.499648,9.810678,0.418604,0.079894,-0.003496,-0.083496,0.134521,-0.629883,-1.423425,7.120012,6.361239,-0.009985,-0.107524,0.0557,-0.050537,-0.367432,-0.541992,-1.398382,7.674407,6.585296,0.187462,0.024685,0.03911,0.037354,-0.430664,-0.501221,0.116998,7.582918,6.973268,0.133788,-0.006957,-0.02819,0.052246,-0.404785,-0.568604
-9.547344,-1.770284,-2.29057,-0.111028,-0.290623,-0.061632,0.807617,0.463379,0.093262,-0.685414,1.673227,9.796484,0.071627,0.108475,0.076448,-0.086182,0.127441,-0.640869,-0.96829,7.204596,6.515152,0.086839,-0.021036,-0.021204,-0.047119,-0.367676,-0.546875,-1.555437,7.542171,6.562193,-0.160695,0.018803,-0.004906,0.042725,-0.429932,-0.504395,0.263548,7.144736,6.878486,-0.201406,-0.01263,0.044289,0.056152,-0.40625,-0.576904
-9.318137,-1.163811,-1.677465,0.541066,-0.322247,0.058267,0.807861,0.462158,0.087646,-1.208259,0.815006,9.574628,-0.205226,0.084636,0.017407,-0.080322,0.133789,-0.631592,-1.327258,7.517399,6.938422,-0.017284,0.023446,0.004806,-0.047119,-0.365723,-0.537109,-1.450488,7.025869,6.440828,-0.135723,-0.024173,0.010109,0.043213,-0.427734,-0.498047,0.130473,6.652441,6.799097,-0.050162,0.036968,-0.01261,0.056885,-0.403809,-0.570557
-9.875389,0.628243,-1.098142,0.051918,-0.291285,-0.016201,0.810303,0.466553,0.084717,-0.743167,0.804549,9.686126,0.218708,-0.027689,0.018269,-0.083008,0.131592,-0.631104,-0.960396,7.124884,6.673194,-0.131956,-0.07055,0.055572,-0.056152,-0.355469,-0.541016,-1.311227,6.966838,6.517325,0.041406,-0.015136,0.028244,0.036133,-0.420166,-0.501221,0.228007,6.894918,6.906861,0.083591,-0.048994,-0.018152,0.049561,-0.394775,-0.574463
-9.531504,-1.392587,-1.598312,-0.447871,-0.395301,0.064874,0.810791,0.470215,0.078369,-0.881551,1.83715,9.848798,0.112579,0.04437,-0.056361,-0.083252,0.136475,-0.634521,-1.019426,7.094543,6.402789,0.177592,0.101483,-0.04182,-0.042236,-0.365479,-0.537354,-1.326983,7.152496,6.580792,0.118632,0.022344,0.00441,0.049561,-0.42627,-0.499512,0.357451,6.877692,6.944046,0.001421,0.016137,0.023692,0.060059,-0.400879,-0.569824
-9.863985,-1.806938,-2.031575,0.268335,-0.364645,0.110845,0.809814,0.46167,0.078125,-0.906677,1.03781,9.663378,-0.310925,-0.042993,-0.030019,-0.080322,0.132324,-0.629883,-1.303583,7.659656,6.744144,0.047293,0.045121,-0.071961,-0.05249,-0.368408,-0.535889,-1.448821,7.374176,6.611804,0.020829,0.01673,-0.013773,0.0354,-0.429688,-0.493164,0.116314,6.846115,6.870144,0.050076,0.028708,0.028308,0.049316,-0.404297,-0.569824
-10.140919,-0.487017,-1.84951,0.270449,-0.507408,0.17203,0.815674,0.458252,0.064453,-0.722122,0.313186,9.73239,0.089088,0.029529,-0.121707,-0.080566,0.133545,-0.633789,-1.131473,6.977484,6.629165,-0.253944,-0.050585,0.098293,-0.051758,-0.372803,-0.544434,-1.425371,7.207215,6.532749,-0.071159,-0.006965,-0.002791,0.037109,-0.438477,-0.499512,0.233558,7.072196,6.91,0.067513,-0.039458,0.028351,0.050537,-0.414795,-0.573975
-9.975741,-0.401235,-1.677883,0.116778,-0.626303,0.007397,0.809814,0.462646,0.041992,-0.827544,1.289536,9.982903,0.14565,0.039615,0.003165,-0.084961,0.134277,-0.64502,-1.005778,6.720541,6.243314,0.180006,0.049233,-0.066805,-0.038818,-0.369629,-0.544678,-1.314981,7.061117,6.523686,0.028401,-0.012656,0.017227,0.049561,-0.432373,-0.504395,0.405319,7.004813,6.911237,-0.03935,0.020394,0.011785,0.061523,-0.404541,-0.577148
-9.775698,-0.058156,-1.656647,0.005416,-0.666186,-0.11346,0.802002,0.466797,0.041992,-0.649896,0.923062,9.697317,-0.263875,0.042044,0.020194,-0.092773,0.140625,-0.638184,-1.176604,7.836065,6.559889,0.286137,0.036114,-0.065312,-0.045166,-0.380859,-0.536621,-1.265504,7.182412,6.515094,0.10112,0.006124,-0.018857,0.042236,-0.439697,-0.501953,0.269447,6.730163,6.8282,0.006856,0.023204,0.071702,0.057373,-0.413818,-0.569336
-10.340908,-0.974566,-2.250423,-0.204785,-0.865002,-0.169437,0.806152,0.463135,0.026367,-0.93942,0.443469,9.596064,0.133106,0.090068,0.071552,-0.082031,0.131836,-0.641113,-1.16186,7.717502,6.591044,-0.22758,-0.035408,0.020344,-0.046387,-0.382568,-0.54248,-1.407486,7.469439,6.545838,0.061201,0.038989,-0.02367,0.043945,-0.442383,-0.501465,0.291827,7.09549,6.843712,0.18937,-0.003281,0.068547,0.052246,-0.41748,-0.574219
-9.643599,-1.501012,-2.230394,-0.034718,-1.091043,-0.108383,0.810059,0.462891,0.009766,-0.862699,1.779022,9.87694,0.25783,0.045443,0.013661,-0.076172,0.124756,-0.644043,-1.174432,6.819414,6.380778,-0.111621,-0.037201,-0.005756,-0.043945,-0.364746,-0.538086,-1.457375,7.397813,6.527454,-0.105182,-0.023071,-0.014482,0.042236,-0.434326,-0.497314,0.391978,7.457174,6.977947,-0.050869,0.028876,0.092101,0.05542,-0.407715,-0.56958
-9.335769,-1.620192,-2.117128,0.155863,-1.22183,0.037653,0.80835,0.473633,-0.01001,-0.874957,1.811958,9.767287,-0.295077,0.046972,0.046475,-0.075684,0.141113,-0.639404,-0.976094,7.376023,6.638107,0.193546,-0.012929,-0.102346,-0.048828,-0.368652,-0.540527,-1.261198,7.084595,6.44522,-0.05973,-0.013616,-0.048054,0.041016,-0.431396,-0.501221,0.318978,6.7301,6.840963,-0.233841,0.048065,0.15086,0.049316,-0.40332,-0.574707
-9.627087,-0.966527,-1.32601,0.407577,-1.253489,0.166639,0.805908,0.465088,-0.023438,-0.938755,0.261325,9.902966,-0.376836,0.03,-0.062103,-0.079346,0.135986,-0.629395,-1.158137,7.585967,6.711476,-0.121803,0.050962,-0.006196,-0.041748,-0.365479,-0.540771,-1.395863,7.251703,6.456364,0.083644,0.049929,-0.028815,0.049561,-0.428711,-0.498779,0.287131,6.54067,6.771266,0.113987,0.012072,0.073092,0.056152,-0.404297,-0.572754
-10.703869,-0.763711,0.375655,0.068564,-1.937945,0.261154,0.797363,0.465576,-0.062744,-0.92683,-0.185675,9.211691,0.11587,0.032213,0.09668,-0.078369,0.145508,-0.643799,-1.515352,6.84536,6.38095,-0.181915,-0.039696,-0.01005,-0.040771,-0.365234,-0.547363,-1.696212,7.510234,6.582425,0.025289,0.013728,0.005563,0.044678,-0.431396,-0.505371,0.200638,7.387288,6.825744,0.193628,0.019596,-0.003968,0.054688,-0.409424,-0.575439
-8.316126,-0.908581,-0.188484,0.258524,-1.600714,0.051665,0.794434,0.466309,-0.090576,-1.139485,1.705534,9.864682,0.408954,0.090277,-0.153762,-0.076904,0.137451,-0.645264,-0.831378,7.058056,7.004256,0.14538,-0.023968,-0.011685,-0.04834,-0.37207,-0.546143,-1.330577,7.271725,6.590231,-0.119712,-0.025358,-0.020537,0.041016,-0.437744,-0.508301,0.424511,7.356827,7.067728,-0.146043,0.021724,0.083548,0.049072,-0.412842,-0.579102
-9.463112,-0.865963,0.332554,0.288459,-2.048026,0.028611,0.790039,0.459717,-0.112305,-1.016597,1.294312,9.933769,-0.308682,-0.042966,0.031173,-0.075439,0.137939,-0.633789,-1.437913,7.32535,6.415891,0.006524,0.161011,-0.064489,-0.04126,-0.372314,-0.546143,-1.460303,6.923268,6.302741,-0.093161,0.0816,0.022781,0.046631,-0.433594,-0.508545,0.132199,6.626165,6.683111,-0.162712,0.067247,0.044259,0.052979,-0.40918,-0.580566
-9.462438,0.092208,1.286966,0.264335,-1.907386,-0.046762,0.776855,0.45874,-0.144775,-0.942017,-0.313118,9.785444,-0.115001,0.075714,-0.038155,-0.076904,0.139648,-0.63623,-1.393249,7.386011,6.58362,0.011734,-0.049963,-0.004441,-0.043701,-0.368896,-0.535889,-1.739902,7.007491,6.550408,0.137098,0.024949,-0.011987,0.047852,-0.434082,-0.496582,0.126987,6.548053,6.82326,0.152217,0.009529,0.069554,0.052734,-0.407227,-0.567139
-8.680353,-0.397322,1.543213,-0.099137,-2.154366,-0.26282,0.766846,0.46167,-0.171631,-1.114675,0.927112,9.662414,0.455628,-0.004064,0.159369,-0.074463,0.132568,-0.636963,-1.172988,7.22941,6.364964,-0.008376,0.039429,-0.031887,-0.046143,-0.365967,-0.541748,-1.477089,7.44028,6.458,0.110174,-0.033944,-0.035672,0.042969,-0.436523,-0.501465,0.276204,7.266526,6.820363,0.190501,0.003963,0.067648,0.047852,-0.407715,-0.57373
-9.000099,-1.302614,1.687734,-0.126336,-2.159601,-0.166007,0.741455,0.4646,-0.204102,-0.80981,1.88238,9.901276,-0.162958,0.063076,0.055491,-0.081787,0.133301,-0.638916,-1.288256,7.275716,6.605703,-0.003595,0.026532,-0.062398,-0.044189,-0.37207,-0.541992,-1.419003,7.412815,6.476856,-0.096948,0.024329,-0.028577,0.043213,-0.433838,-0.499268,0.386391,7.297727,6.919345,-0.121983,0.047499,0.111581,0.049805,-0.411377,-0.570801
-8.040191,-1.75622,2.148253,0.197495,-2.382817,-0.182306,0.728027,0.467773,-0.237061,-1.261979,0.496967,9.468249,-0.289201,0.021725,0.067742,-0.075684,0.140381,-0.636719,-1.110182,7.10702,6.758166,-0.120274,0.022588,0.017266,-0.042725,-0.369629,-0.544434,-1.564085,7.131352,6.336655,-0.062438,0.044839,-0.037087,0.048584,-0.430908,-0.500732,0.320536,6.854211,6.786869,-0.043805,0.020667,0.108067,0.048096,-0.407959,-0.574463
-8.30279,-1.356731,2.571105,0.376513,-2.499425,-0.013119,0.699951,0.470215,-0.273438,-0.691034,0.452092,9.624693,0.196258,-0.00396,-0.049896,-0.085938,0.139648,-0.63916,-1.195817,6.729931,6.434377,-0.022483,0.099407,-0.007737,-0.048584,-0.371338,-0.539062,-1.477081,7.263447,6.510302,0.062904,-0.04186,0.06134,0.040039,-0.437988,-0.496826,0.468737,7.083591,6.913337,0.07913,-0.011327,-0.008779,0.041504,-0.415527,-0.567383
-7.225781,-1.370455,3.049383,0.538999,-2.695816,0.049973,0.685547,0.443359,-0.304199,-0.940358,0.832537,9.836585,0.081736,0.044682,0.042413,-0.073975,0.118164,-0.635986,-1.15119,7.29925,6.497015,0.229737,0.056516,-0.023587,-0.048584,-0.368652,-0.548828,-1.196288,7.267639,6.540271,0.014407,-0.002052,0.012841,0.038818,-0.43042,-0.505615,0.528564,6.900893,6.899893,-0.079657,0.022269,0.042532,0.041748,-0.403564,-0.579834
-7.416379,-1.222072,4.111924,0.596642,-2.795363,0.05831,0.654541,0.450684,-0.338623,-1.02627,0.626365,9.676361,0.237618,0.054025,0.050725,-0.074707,0.126709,-0.635498,-1.250296,7.592898,6.917646,-0.055579,0.128938,-0.009902,-0.036621,-0.372803,-0.540039,-1.541846,7.167432,6.534351,-0.036675,0.128747,0.037506,0.050049,-0.438477,-0.500977,0.213856,6.684744,6.83994,0.031869,0.047782,-0.010627,0.053467,-0.411621,-0.573242
-6.691561,-0.72657,4.744005,0.480739,-2.874641,0.070383,0.631104,0.445312,-0.375244,-1.126197,1.037914,9.840349,0.195095,-0.007752,0.058103,-0.070312,0.12915,-0.634766,-1.541565,7.000202,6.322116,-0.101028,0.060387,0.034283,-0.039307,-0.369629,-0.537354,-1.807456,7.090505,6.585093,0.011498,-0.002853,0.021599,0.046631,-0.432373,-0.498047,0.206936,6.902859,6.887525,0.083191,-0.010118,-0.002886,0.050049,-0.408447,-0.565918
-6.845698,-1.043272,5.651852,0.361546,-3.000336,-0.036274,0.585693,0.434326,-0.421143,-0.780019,1.448631,10.017668,-0.026166,0.078202,0.178871,-0.07666,0.12207,-0.64502,-1.445712,7.235771,6.170126,0.244907,0.042111,-0.060924,-0.038086,-0.378906,-0.530518,-1.404478,7.15631,6.419018,0.11324,-0.019667,-0.022694,0.045166,-0.439941,-0.489258,0.267172,6.905953,6.817525,0.06058,0.039094,0.02983,0.050049,-0.415039,-0.562988
-5.511446,-1.156574,6.671231,0.410447,-3.110158,0.030159,0.547607,0.428955,-0.441895,-1.329379,1.02181,9.575926,-0.272029,0.159851,0.172658,-0.074463,0.126953,-0.635254,-1.465174,7.727969,6.868406,-0.042286,0.054554,-0.029316,-0.039551,-0.370117,-0.533691,-1.710339,7.510093,6.441321,0.070289,0.108193,-0.008746,0.047119,-0.435791,-0.492676,0.114167,7.236904,6.846056,0.121064,0.028146,0.04339,0.046631,-0.411865,-0.566895
-3.912975,-0.621019,6.816513,0.620562,-2.970396,0.043745,0.512451,0.415283,-0.475098,-1.264567,0.442266,9.499136,-0.216882,0.019341,0.206082,-0.068848,0.128906,-0.642578,-1.503918,7.073488,6.405206,-0.149853,0.005071,0.044987,-0.031006,-0.368164,-0.537598,-1.817503,7.420566,6.417544,-0.110799,-0.019044,-0.007421,0.053223,-0.43335,-0.495361,0.359832,7.346094,6.815619,-0.057241,-0.009138,0.031494,0.054688,-0.406982,-0.566162
-4.272698,-0.108458,7.234044,0.471357,-2.805437,0.184887,0.463135,0.408447,-0.49292,-1.351238,0.606853,9.201541,0.181395,0.01745,0.188324,-0.075195,0.128906,-0.636475,-1.125516,7.208841,7.062704,0.094539,0.083396,-0.078882,-0.040039,-0.37207,-0.535156,-1.392056,7.206299,6.398506,0.004053,-0.024516,0.011475,0.044189,-0.434814,-0.492188,0.321569,6.863862,6.779779,-0.125025,0.075505,0.005213,0.046143,-0.407959,-0.565918
-3.045209,-1.191794,8.199199,0.729517,-2.807578,0.278678,0.43042,0.394043,-0.520752,-1.409485,1.229759,9.31085,0.126716,-0.198873,0.092227,-0.073242,0.124756,-0.645264,-1.544863,7.419587,6.519244,0.0767,0.230416,0.010819,-0.034424,-0.380371,-0.544189,-1.614437,7.298796,6.374951,0.02236,0.118649,-1.6e-05,0.048828,-0.442139,-0.502197,0.095696,6.731358,6.755724,0.080008,0.008426,-0.028278,0.049316,-0.419678,-0.576416
-3.436236,1.130733,9.878459,0.957202,-2.41001,0.267808,0.398438,0.38208,-0.538086,-1.145831,0.776189,9.289628,-0.041187,-0.187916,0.187423,-0.072998,0.129639,-0.645264,-1.677915,7.494039,6.601865,-0.031101,0.133043,-0.085169,-0.031982,-0.368652,-0.535156,-1.940231,7.268633,6.475523,0.037156,0.052157,0.018908,0.047119,-0.43457,-0.493164,0.201869,7.149051,6.782067,0.175935,0.025903,-0.061204,0.050049,-0.410645,-0.5625
-3.811613,1.607294,9.910355,0.094191,-2.288563,0.068507,0.356201,0.378418,-0.554932,-1.098121,0.357618,9.702022,0.074157,-0.249924,0.269374,-0.080566,0.131348,-0.647461,-1.727389,7.011505,6.19578,-0.133573,0.165388,0.042488,-0.022949,-0.36792,-0.543945,-1.833833,7.305559,6.333498,0.006331,-0.011244,-0.01028,0.056885,-0.431885,-0.499512,-0.08225,7.39798,6.963797,-0.010979,0.027669,-0.031166,0.060791,-0.408447,-0.569824
-2.800789,1.018229,9.551561,-0.138034,-2.265653,-0.117367,0.325928,0.378174,-0.546143,-0.519869,1.430046,9.71454,0.326981,-0.131296,0.291747,-0.07666,0.121582,-0.633301,-1.561853,6.766321,6.16056,0.040652,0.033322,-0.028416,-0.024658,-0.37793,-0.547852,-1.522438,7.287719,6.419392,0.015482,-0.037492,0.040954,0.050781,-0.443604,-0.50415,0.37968,6.892275,6.778703,-0.113718,-0.082184,-0.063973,0.054199,-0.417725,-0.576904
-2.127658,-0.503103,9.191293,-0.434549,-2.172243,0.003216,0.289307,0.386719,-0.55542,-0.861189,2.480184,9.746189,-0.043934,-0.097887,0.255026,-0.079834,0.127197,-0.641602,-1.06142,7.281221,6.738617,0.15878,0.104246,0.024982,-0.023438,-0.369629,-0.543701,-1.342049,7.236043,6.447394,-0.01822,0.01667,0.011311,0.052002,-0.433838,-0.50293,0.489509,6.79729,6.887126,0.081446,0.046015,-0.062762,0.056885,-0.407959,-0.574707
-1.475306,-2.04076,8.550706,0.514771,-2.164239,0.206587,0.258545,0.371826,-0.567627,-0.691016,1.155928,9.124342,-0.314977,-0.1787,0.114916,-0.083008,0.127686,-0.642822,-1.444936,7.316018,6.408955,-0.067364,0.20052,-0.019349,-0.023438,-0.370361,-0.539551,-1.445152,7.068894,6.359126,-0.037502,0.036397,0.039295,0.051025,-0.433838,-0.494629,0.221415,7.116128,6.866963,0.068489,-0.023986,-0.070574,0.054199,-0.412842,-0.566406
-1.362137,0.258223,9.005891,1.524745,-2.018275,0.347826,0.224609,0.342285,-0.566162,-0.898398,1.047436,9.354962,0.285523,-0.186895,0.072705,-0.083252,0.124512,-0.637451,-1.659782,6.892729,6.101028,0.016203,0.106546,0.062139,-0.020996,-0.373779,-0.541992,-1.626856,7.161808,6.396642,0.176195,0.035482,0.038727,0.051758,-0.439697,-0.496094,0.377621,7.040008,6.831421,0.03927,-0.030585,-0.033538,0.053223,-0.415771,-0.569336
-0.888691,2.166863,10.188853,1.136831,-2.110071,0.295575,0.186279,0.331299,-0.564453,-0.348121,1.339973,9.41608,-0.011955,-0.258002,0.11603,-0.091064,0.130371,-0.631836,-1.463851,7.129727,6.122863,0.170342,0.041457,0.022454,-0.017334,-0.377441,-0.532959,-1.52399,7.737161,6.444972,0.196677,-0.048123,0.062653,0.053223,-0.444336,-0.488525,0.316745,7.11498,6.824976,0.086422,-0.020638,-0.136138,0.059326,-0.418945,-0.560303
-0.094323,2.448075,11.286673,0.422474,-1.776382,0.150708,0.1604,0.318604,-0.569336,-0.654116,0.764419,9.246763,-0.060728,-0.102287,0.201215,-0.088867,0.12793,-0.635498,-1.536339,7.677003,6.400495,0.111059,0.076317,0.070728,-0.02124,-0.380371,-0.539551,-1.35072,7.711595,6.491912,-0.107607,0.021139,0.045469,0.049316,-0.444824,-0.498047,0.35514,7.312144,6.835519,0.070834,-0.02658,-0.086485,0.056152,-0.417969,-0.566895
-0.307959,1.525176,11.326169,-0.147876,-1.591788,0.16639,0.126709,0.327393,-0.569824,-0.684396,0.787857,9.577842,0.235592,-0.230259,0.134835,-0.104248,0.12915,-0.639893,-1.640324,7.057782,6.578626,-0.314735,-0.025608,0.131126,-0.026367,-0.382568,-0.536377,-1.587341,7.113258,6.302713,-0.153994,0.082283,0.062432,0.047852,-0.44751,-0.490479,0.255984,7.361623,6.692462,0.0171,-0.034509,-0.118214,0.052979,-0.426514,-0.562744
0.007982,1.068588,11.864288,-0.166182,-1.346075,0.113148,0.111572,0.316895,-0.568359,-0.410307,1.530203,9.585486,0.252493,-0.05155,0.110047,-0.093506,0.114746,-0.639648,-1.513707,5.971313,6.286133,-0.038075,-0.0126,0.220851,-0.036133,-0.381836,-0.543213,-1.756811,7.157731,6.380439,0.198285,0.016512,0.201163,0.038818,-0.449219,-0.498779,0.165221,7.328316,6.734485,0.050804,-0.010267,-0.215715,0.047852,-0.425781,-0.570312
0.457294,0.71752,11.973746,-0.196354,-0.997469,0.077519,0.092041,0.324463,-0.564209,-1.114685,1.434186,9.472639,-0.173982,-0.125177,0.087089,-0.103027,0.12085,-0.639404,-1.708149,6.997184,6.340132,0.496116,0.080878,0.067633,-0.021729,-0.373291,-0.532227,-1.697008,7.67785,6.539355,0.089774,0.03104,0.192164,0.049805,-0.437744,-0.488037,-0.112655,7.29805,6.865203,-0.016496,-0.01302,-0.223445,0.062744,-0.41333,-0.560059
0.705801,0.229349,11.268705,0.313321,-0.635332,0.026277,0.085205,0.306885,-0.563965,-0.026184,0.694547,9.725545,0.156818,-0.257615,0.111297,-0.098633,0.104248,-0.641113,-1.334789,8.589888,6.427211,0.348396,-0.077796,0.166345,-0.026855,-0.381836,-0.535645,-1.362508,7.174759,6.469504,-0.176999,-0.036194,0.155893,0.044922,-0.436523,-0.49585,0.23311,6.723428,6.817446,-0.129943,-0.10428,-0.136485,0.057861,-0.413574,-0.568359
0.697231,2.379817,12.181388,0.606689,-0.414066,-0.044682,0.082031,0.311279,-0.566895,-0.091243,2.245347,10.247841,0.429446,-0.095462,0.170163,-0.100098,0.114014,-0.644043,-1.144931,8.485213,6.296142,-0.293497,-0.002032,0.087148,-0.030762,-0.384521,-0.543945,-1.123183,6.928166,6.296716,0.075003,0.014274,0.052979,0.043457,-0.445068,-0.503174,0.394244,6.674287,6.702979,0.1359,0.015353,-0.042687,0.057373,-0.420654,-0.57373
