# sampling frequency: 40
# units are seconds/meters/radians/a.u.
seg1_acc_x,seg1_acc_y,seg1_acc_z,seg1_gyr_x,seg1_gyr_y,seg1_gyr_z,seg1_mag_x,seg1_mag_y,seg1_mag_z,seg2_acc_x,seg2_acc_y,seg2_acc_z,seg2_gyr_x,seg2_gyr_y,seg2_gyr_z,seg2_mag_x,seg2_mag_y,seg2_mag_z,seg3_acc_x,seg3_acc_y,seg3_acc_z,seg3_gyr_x,seg3_gyr_y,seg3_gyr_z,seg3_mag_x,seg3_mag_y,seg3_mag_z,seg4_acc_x,seg4_acc_y,seg4_acc_z,seg4_gyr_x,seg4_gyr_y,seg4_gyr_z,seg4_mag_x,seg4_mag_y,seg4_mag_z,seg5_acc_x,seg5_acc_y,seg5_acc_z,seg5_gyr_x,seg5_gyr_y,seg5_gyr_z,seg5_mag_x,seg5_mag_y,seg5_mag_z
0.3284832838399917,0.2029463825656661,9.761790207959153,-0.004961041609283859,0.002169632973306403,0.010418801126429846,-0.4100987510616747,0.08738762700945255,-0.5672463770288104,0.04164977964800035,2.3338153036653604,9.524238711943052,-0.009163559979888401,-0.0034023417355323925,-0.00976390168988003,-0.9723739962325991,0.3439687655435043,0.0023405347942683785,-0.08368921442674813,1.9523984284044875,9.519963425481652,-0.006432037033582147,0.004106784832778896,0.004977217288393687,0.4227595221233382,0.5510502421226325,1.0047946306885975,0.1829855347041746,1.9787077197066472,9.685428718278212,-0.003784152529703375,0.004205386821049404,0.007095813013128484,0.4038882041479661,0.053352779691785486,-0.5694834919778541,-0.614481307581852,2.0646047006845056,9.591003072940802,-0.007709734586628753,0.003805051274434659,-0.005384551829322803,0.3188109031730328,-0.07904292417029139,-0.6746247151628856
0.3177387448045071,0.1924769073911013,9.74500753300895,-0.0031310547756988644,0.002097328083075825,0.011531695187764666,-0.41548354768409096,0.09324313673162427,-0.5596844821453327,0.03215929201601719,2.324471381015765,9.54552134671945,-0.01027560586302255,-0.002893773148458503,-0.010082749531406459,-0.9809090453484273,0.34817550729875457,0.005960759841835844,-0.08041601997393495,1.9583292033955706,9.525528839759064,-0.004573841046967895,0.0029406790130370813,0.004967323224771557,0.4274167395572649,0.5534560283211997,1.004758291454796,0.17500044797011294,1.968229901846759,9.678738923756367,-0.003570106833444212,0.004754716753523515,0.004983072123856702,0.4083037270557256,0.05697626131611079,-0.5724294804994251,-0.6169302703277078,2.028476757097637,9.61289306021018,-0.009140990316262804,0.003515070563154478,-0.00679024888896088,0.32517025214534084,-0.07564128226859125,-0.6755771971947386
0.3181412517066892,0.18184342040106571,9.766958127775982,-0.0050293186362338396,0.0006497789422953333,0.010339883625137207,-0.40478189299440925,0.08608109178429818,-0.5628103322817429,0.04344425929749317,2.3259357132795726,9.538713466177226,-0.009219825245967048,-0.0036602670748899896,-0.008739636226657545,-0.9711499563665025,0.34177375189435294,0.002376472048551119,-0.09001114788178763,1.960060860342486,9.52826528739243,-0.0059132213579708975,0.003970145606430745,0.00285099316649049,0.4244463931701294,0.5556576448761595,0.9962281650849607,0.18529297581944484,1.977617127753592,9.69478414379988,-0.002989093814369623,0.003148120135916414,0.005221902984423866,0.4053633478401729,0.057225097714948714,-0.5790166764518286,-0.6149528059685385,2.0393017360426904,9.580650563167497,-0.00745490279656223,0.0031799619625742805,-0.005224404675213184,0.32349686042599657,-0.07639010668585623,-0.682663940251019
0.3251672779372077,0.19285904523460223,9.750209168825204,-0.0018828144211129297,0.0017139743906380044,0.011009650205337417,-0.4132933629964655,0.09418570140519311,-0.5579486063230945,0.025728558175780868,2.3294707323612234,9.528256867740902,-0.009686944827015117,-0.0030245972850304476,-0.01043587448093122,-0.9806646611885723,0.34940576069072987,0.006424736106256141,-0.09985158689369722,1.9675572750819779,9.523207695761382,-0.0053490607889467015,0.002857693929449761,0.003684652640580776,0.42424255392311605,0.5549413225866427,1.003067247840632,0.19764831674948682,1.9683535689724139,9.679489729453133,-0.002989086697985469,0.003149120107609317,0.005221900540969448,0.4031886453143414,0.058479507566848186,-0.5716916678615538,-0.6145874871557089,2.0237533632275615,9.581522445594635,-0.0071140299680286755,0.0038118526467034322,-0.005704451420935229,0.31981296699355927,-0.07465920660264837,-0.677806187367185
0.3175583069525538,0.19816591042425966,9.739970621984295,-0.002144495653972046,0.0027385937781186954,0.010879753926837894,-0.41410208065567566,0.08589618191194649,-0.5585057520120899,0.035549837333054515,2.3179755405800493,9.525492964770654,-0.008572899064503812,-0.003536181473553246,-0.010117978810806458,-0.980411160592437,0.34404060497130573,0.006768310776582983,-0.10010113223112331,1.960536778002787,9.531253768647309,-0.004495653948369487,0.0025351705345530726,0.003205635496628357,0.42719998361857087,0.5658878083989856,0.9947225652249406,0.17621936803079188,1.9718402341143877,9.709394037453809,-0.002520097065464372,0.004413450145134372,0.006298965200495337,0.408632438604,0.07038790188290416,-0.5783227110247969,-0.6117194810667281,2.0445283376748953,9.608604920957607,-0.005642672147251566,0.00538652518282612,-0.006462296766120497,0.32597431274323235,-0.06223822211349801,-0.6836688711274839
0.32595333584473074,0.19017568189672088,9.767058953309373,-0.0038561819102680495,-0.00041198047582618113,0.011029186287413022,-0.41616279526650635,0.09159578735492349,-0.5670286630222493,0.04135121117165286,2.3353307872830733,9.54459933654716,-0.011149813417262903,-0.003069892821529199,-0.010182734594623766,-0.9811752418173707,0.34906046229308885,0.001061397832561083,-0.10133043807332627,1.9768042248453455,9.50808617780642,-0.0065360664052630255,0.003365093949439518,0.002516458355991138,0.4187796798418256,0.5559267187446332,0.988209258905928,0.18271431037968508,1.9806635131183492,9.716453611485065,-0.0032708629488915142,0.003995092352372915,0.006426371422940022,0.4002300994557562,0.057495918111702946,-0.5834028588849457,-0.6205106416788777,2.055311201587188,9.592611331587477,-0.007187067562959692,0.0016594067010088623,-0.006950634377242088,0.3164650667239065,-0.0724909383694358,-0.6902812469122653
0.3274444423416179,0.20575489044900888,9.75684581650919,-0.0033879187014076956,0.0022805115096069316,0.010112514876488553,-0.419365873111466,0.09378416502941145,-0.5616714229237535,0.04267110942516334,2.3298050593319384,9.558492875556729,-0.007804523826357466,-0.001464866337327251,-0.011031263049061248,-0.9848156363078512,0.3501321991036772,0.00642883382775556,-0.08833026440607043,1.9620973033942042,9.534620798814665,-0.005119491384888469,0.0019311264210173157,0.0028711051367202836,0.41737170588561107,0.5520599624809962,1.0011663645756466,0.1672631991476313,1.9689358937467012,9.69179858233139,-0.0038717822649159328,0.003970398389624575,0.006029541252927044,0.3997429411165296,0.05459795727216394,-0.5716758599199495,-0.6140839337048002,2.025145060271861,9.561995714089873,-0.00821440276353003,0.00504821351498469,-0.005706799676319129,0.31539575259835817,-0.07952575936668917,-0.6753732528876656
0.3318379370623523,0.1919941338014541,9.755462380704516,-0.0031282660511950215,0.0012548971312058117,0.010244384691284886,-0.41445586835356235,0.09278895487701155,-0.565538529210103,0.03868435938386894,2.3375053477171415,9.518984211533594,-0.01015421535241348,-0.005529702441346521,-0.01032989140731773,-0.9780086403097726,0.34682223794785194,-0.0013515987841927187,-0.09242621473328604,1.9538097183116963,9.529526000053458,-0.0038542844264230565,0.0010192200575126664,0.0022786094519677055,0.42225793270429385,0.5522674971877326,1.001377262233018,0.1823321113390727,1.9654549485614794,9.70669123508314,-0.002653026721934722,0.005653093340782295,0.006979201522602937,0.4019297674663202,0.05360118691126974,-0.5733864909039738,-0.6266220701754522,2.030180468492153,9.590292873945561,-0.006382346613911065,0.0050449107973944704,-0.0051421667365256305,0.31787402956236366,-0.0758852133107363,-0.6809858741740313
0.323689129325886,0.18872925630997456,9.750338556308643,-0.003457205442847347,0.000759667432817232,0.010033580463496745,-0.4201719906125736,0.08937421637359147,-0.5585375230486075,0.02818230417458565,2.3314003675553576,9.526916967524128,-0.009211818581294474,-0.0036712921586436746,-0.00874146402561947,-0.9840540076482683,0.3431413860958355,0.011196537706384482,-0.10555895318053356,1.9424652369362791,9.534754476427986,-0.006582475487987774,0.0046248255513281905,0.004024077169963571,0.41782717802598596,0.5503409727803368,0.9982369713725464,0.18159428435870809,1.9644427052595457,9.7069100611436,-0.005458959620374164,0.0028956875068964537,0.005221085588795512,0.3989778197280397,0.051658427403322806,-0.5777703288394752,-0.617460766717872,2.0363622583435017,9.585915995698237,-0.007197066993451702,0.002551860500301496,-0.005066233085712606,0.3154198030664154,-0.08027287124264812,-0.6802540544017396
0.3235173965029914,0.1878687023925381,9.750361551802234,-0.0028784972609844,0.0010687311983254167,0.011670476131856454,-0.4136127707000282,0.08298510916522756,-0.56169691970286,0.034232316092971705,2.3229083259249714,9.53246839146175,-0.00927100114357438,-0.00536460654304501,-0.010231738436559116,-0.9784614041449533,0.3410816363520549,0.005106160210062577,-0.09041262478769178,1.9759402388022647,9.51195617343657,-0.00560752899371316,0.0029219963452583003,0.0047432670115610635,0.41758220098457116,0.5510726842217437,0.9972609997460663,0.1922555764580778,1.9764498455047652,9.690814081772851,-0.0045209785053896305,0.00542435001229348,0.007376214903182842,0.3982631467303474,0.05434718939924785,-0.5787525459415656,-0.6132497025074349,2.034820590231888,9.578058408113666,-0.007169955706922199,0.004733012486465652,-0.0053454014782553065,0.3147117901890332,-0.07759591452834895,-0.683927574445952
0.3263342630452251,0.20230769820246436,9.756954750182699,-0.003102121985754003,0.0024325522154419557,0.010934410770802882,-0.4161939324390395,0.09544719986908394,-0.5596748807898022,0.0402281782841343,2.3308029988480046,9.520621589571666,-0.009444102481237511,-0.003715296689746763,-0.010217920523816978,-0.9801774100226741,0.34915329420591507,0.005939300245018015,-0.0812517794101094,1.9541812489741122,9.533133597893439,-0.004494689170074178,0.0025331565241248593,0.003202633336599986,0.4223160084282404,0.5608101179955495,1.0003823461842258,0.17909557153629624,1.9756597770631081,9.71753947182269,-0.0037428438173724055,0.0027327763298065446,0.005346307388282704,0.4022262706241447,0.06116645614833362,-0.5741374291491945,-0.6149735102575264,2.0401579350447334,9.590078148468162,-0.009146979544114416,0.004402504313717923,-0.004909812113232795,0.3176426553171436,-0.06880332861194366,-0.6805195533921058
0.3227583965749188,0.1860095540442736,9.750421581197791,-0.004710493062158486,0.0011420409451244127,0.01055957061584495,-0.413784119293515,0.09273467566255143,-0.5591841028026919,0.023919350410191283,2.314629009583418,9.540923204277082,-0.009383834577443937,-0.0034623839805866213,-0.01124310925830327,-0.977737503449405,0.3484144504870624,0.005453649266608291,-0.09453687344231468,1.9487507675674076,9.53054108979376,-0.00553031248093068,0.0025194975141661783,0.002982579276293055,0.4174293995859016,0.5564617580219606,1.0048185348143528,0.19863781289011803,1.975804289783682,9.709181929603679,-0.0032748451914918456,0.003998115890242628,0.0064243714322844165,0.39490931224844844,0.06098588826500391,-0.5694854326565219,-0.609783485935113,2.032137351216087,9.594452647591538,-0.006320418096180787,0.00411772954777625,-0.005504167826369471,0.31296769399599683,-0.07243989992729764,-0.6751624747372673
0.32802464578187884,0.1801012139338172,9.743924247942573,-0.00526101846147451,0.0020136196907078515,0.00961174242732388,-0.42224204753865374,0.0948244077539964,-0.566329318235838,0.03645745894473177,2.329354975002922,9.530036574043638,-0.009381376684276082,-0.0027456973471098193,-0.009986324778705888,-0.9877574591927722,0.3488490688711907,0.003290867779463409,-0.07401520577849208,1.9662556473622903,9.507747451127186,-0.005910285168602746,0.003966112177087964,0.0028459821546434534,0.42274435737751437,0.5542114530202168,0.998928740074933,0.1860021121370019,1.978309681573611,9.703616189989157,-0.003143910214513738,0.002759484477683109,0.005743136336576223,0.40143274738997525,0.053592794512426045,-0.5782685738212696,-0.6121903323514953,2.0366672555824037,9.582546708789414,-0.008150464969438274,0.0041180193532559485,-0.0060717815662430594,0.3188607940426249,-0.07491553516858436,-0.6824485259306458
0.3284793911445133,0.1872804232430688,9.738844400469555,-0.003095285576555165,0.0015921038338590032,0.009644153129320427,-0.4090989475381202,0.09369372688292002,-0.563038855632532,0.02700632631750828,2.3105144756414924,9.520324364620722,-0.00891271374792365,-0.0041020665772848455,-0.009547813018859102,-0.9728765987132757,0.3537268270181468,0.0019156442159817683,-0.09575719498082984,1.9459861311013902,9.531093247881088,-0.005971947690721055,0.0022506336705166753,0.003346122361843348,0.4270834104073292,0.5483146432992306,0.9972034691052186,0.1820668618840334,1.9685838939518792,9.70586011747985,-0.0033594908071287633,0.0037601134721662118,0.005361101490668824,0.4104508422729584,0.05109110123864654,-0.576814170010274,-0.6233373107676622,2.019361835355358,9.57587512749598,-0.00808953214680188,0.003192840220016888,-0.006433793669002874,0.32398166237303555,-0.07834513530419579,-0.6826557442995492
0.3201498854543333,0.18414932606407375,9.733720854489187,-0.0025176063973084513,0.001899170218290338,0.011282024309058662,-0.4109667737471251,0.08171595420454106,-0.5587510271707075,0.04407894834910043,2.3318368130807374,9.532053884137452,-0.009497828770764131,-0.00469695712919484,-0.010453329248031504,-0.9772328369440055,0.33792811207912765,0.006137233579330557,-0.08347827121504076,1.9547861524182728,9.526390002408402,-0.005040302584863333,0.0015276059739761127,0.0011074063577984838,0.425895698157763,0.5527187553605727,0.9972018680519864,0.1764246019241317,1.9804287772994449,9.70724977464169,-0.0047584529580625735,0.00479570018120245,0.006835179530774619,0.40680502734961255,0.053314708682971466,-0.5765688284560057,-0.6259710018469881,2.0468611684764166,9.62293065259342,-0.007300925214276914,0.0035037364081207793,-0.00623055079410677,0.3229938514158394,-0.07980281030081296,-0.6811916872251561
0.32772334383864354,0.21246627687546366,9.763693698312329,-0.004050844749437551,0.001289071932699132,0.009694851590833227,-0.41666699420502246,0.0944960120532966,-0.56237261081793,0.04025002968470687,2.332595009999751,9.540930652315877,-0.009378369768284002,-0.002750692536950188,-0.009986243941367705,-0.983133332676702,0.3519818136248614,0.0007709282421482647,-0.10143299170490679,1.947692852776789,9.547226884596649,-0.006018365209475864,0.0035083675004725606,0.004854745584167978,0.4112536836229848,0.5513700391366005,0.999743714803964,0.18407383075338382,1.9754498367809266,9.704235710503221,-0.0035113320540237293,0.0033674614252414995,0.005884339109525893,0.39240518168320593,0.05414967107899608,-0.5767882198434766,-0.6162980082587423,2.029779208702572,9.559693657793488,-0.007833692981130375,0.002568745881471235,-0.006274644123280084,0.31176973717616274,-0.07831632171125465,-0.6817438902745853
0.32330356789902237,0.1880835240047279,9.76225997829497,-0.002230790813497986,0.002051215869267161,0.012101929755377014,-0.41418930623626593,0.09813361081290743,-0.5623221569423896,0.029348500646539148,2.316959409469303,9.517899081056358,-0.009728657545950913,-0.004022276689088078,-0.010673034460266257,-0.9821437890404484,0.35351191897286605,0.00415664220170795,-0.07191753500323754,1.9624340911465241,9.521923058324353,-0.0036876998482517727,0.0034683669591840556,0.004232239414972197,0.42272362402202224,0.5510386085268886,0.9994237632553263,0.18778331345116342,1.9701808260770322,9.692177597453613,-0.001989881607393646,0.005837465104158743,0.005786521091837947,0.4012031484609572,0.05506602556779325,-0.575585717024999,-0.6067969767396565,2.044292840906503,9.590916113948031,-0.005977544341368315,0.0047476130952867355,-0.005985198287812822,0.3181210571083926,-0.07686555103179961,-0.6819587612919248
0.32155779839633436,0.18864957383849962,9.745485408034329,-0.0031285058162986144,0.00041148106638116294,0.008959038323915995,-0.4198084117580986,0.09116028086207206,-0.569263615256843,0.033845316958387356,2.337680998915932,9.523697443658236,-0.009199805010703648,-0.0036873111232532288,-0.008743215280739977,-0.9838716791632681,0.3490065869382034,-0.0016125775012418428,-0.08150863024679146,1.964172711080253,9.52465646384771,-0.006793568955564363,0.00342838015778533,0.0035710683751079293,0.4197652648801946,0.5527559913883356,0.9930916598689964,0.17918276164041755,1.9651581506722648,9.70660878213572,-0.003448594531213038,0.001974185074357978,0.0067886134115494965,0.3982424739432546,0.05238534475259973,-0.5824097567938809,-0.6237921104049072,2.0343759053032757,9.604001840597391,-0.007699731141242754,0.003792012719709817,-0.005390461750734857,0.3161868488909598,-0.08127089163691366,-0.687327271208517
0.3284078262776382,0.18168463143312258,9.75577647451527,-0.00472645286257119,0.0019795043416282747,0.011859720355023865,-0.4126030563289824,0.09123782635879354,-0.5564988051589197,0.02331000382834361,2.31526686391051,9.54895733121164,-0.008612613192829974,-0.0045328584362831015,-0.01035516612070073,-0.975530829611424,0.34747813494130697,0.007416148889932387,-0.08182057378202028,1.956941745406792,9.532732410396571,-0.0046759266185074765,0.0021959622438103912,0.002501557731113249,0.4307950585630423,0.5548787009560051,0.997164442873913,0.19419428147059942,1.9699398768908232,9.710463408415762,-0.0028924887377157543,0.005026455264472575,0.006437164933139701,0.4126841994370911,0.05644393262858983,-0.5778073154619854,-0.6140117992489238,2.0257451011040044,9.576299614593582,-0.0069720591757741306,0.005027088047498536,-0.00482520389332939,0.3288522895791113,-0.0788378811961079,-0.6806757268487578
0.3249835818422928,0.19218806060592858,9.774026178804897,-0.0034584258267853704,-8.273141874340302e-05,0.00874723226586425,-0.42078205949343095,0.09407880084857234,-0.5665650198488795,0.03741843274681281,2.326848114477381,9.551390422611455,-0.009080267703324773,-0.003179468617858311,-0.010792626128241967,-0.9853296325940574,0.3514910239868333,0.000789507914609364,-0.07383269796359035,1.964524043608085,9.514889158229547,-0.00531633979818866,0.003707900938489797,0.0034265860240977257,0.42172055052191026,0.5461663259526679,1.000906057446882,0.18913519919103794,1.9767356222077754,9.69063515891976,-0.004009669371301704,0.005217067270091202,0.00670576965248495,0.40458644690035933,0.049675584934945574,-0.5736258661496303,-0.6115047653840306,2.0379386676764017,9.567918368001054,-0.00750482694262759,0.004092097520848992,-0.0048692972225027045,0.31979388058700997,-0.08295944480896973,-0.6775372869629307
0.3375606310068893,0.19897182940544594,9.750760010336798,-0.0002486645806590821,0.0033316807448332997,0.01079511710639735,-0.4214025751058491,0.09204211321650875,-0.5546231330271021,0.032358085504818036,2.330851602325382,9.546952137825489,-0.0101904716981208,-0.0058127096810329845,-0.009311242115519518,-0.9872357945967545,0.3494841113695127,0.011091176816584093,-0.10512225681689064,1.9591449545554875,9.525055189988798,-0.0051331518659236295,0.004042071498918768,0.004123655043646759,0.4244630619738554,0.5542016814125942,1.000382309827714,0.18744070620405429,1.9808461732717897,9.712070403552541,-0.004694234329996011,0.004954363768395235,0.005245667708261691,0.405358551956343,0.05504239930822569,-0.5731523355114682,-0.6120980713042021,2.0369696787352503,9.592137490724987,-0.007997491432329402,0.004444801690673461,-0.007075941613693837,0.3212781196307734,-0.07637343115757003,-0.6785255564831248
0.3116519978980712,0.1927533332285546,9.718528958465496,-0.0031023712314554855,0.001589128739063511,0.009650064331024938,-0.4193409764308467,0.09210786171757258,-0.5660779299715195,0.04539532477117324,2.3030214283132966,9.539889983921132,-0.010307300723016536,-0.0039074553857531,-0.010320652363763248,-0.9823996683013362,0.35002554194248303,0.0005604367006464914,-0.0928160762270333,1.9563869206162465,9.535921181387645,-0.004280730730882837,0.0037205578134793626,0.003645642325603673,0.4283912206003415,0.5573454662935762,1.0001042389243964,0.17825798125905137,1.9838240298245196,9.715518169921626,-0.0031289756002476385,0.0043958007994714466,0.005897132610381178,0.4093038914470501,0.0608714542824536,-0.5743938065785883,-0.6122333172568709,2.028747950886935,9.604650774375596,-0.00665528718746623,0.0034778145757138226,-0.005028066450366415,0.3247108477145333,-0.0724782640548961,-0.6797398266940801
0.3312230185078021,0.2022077824200838,9.757349386551468,-0.0035094044920130495,0.00041553036044241534,0.010649579598791176,-0.41598507367659626,0.08718061326015748,-0.5646175268275504,0.031814969545295724,2.3457376875801677,9.517459898696496,-0.010364567368264067,-0.004164382210736424,-0.009296401350609692,-0.9826290339306727,0.3410029678291562,0.0012187047141514482,-0.09003622227100677,1.9743121663991423,9.525862527322316,-0.004461925448664097,0.0033863699380722403,0.002947559996519887,0.4247021504060208,0.5541982455581512,0.999647701145143,0.18586215611060136,1.9789843546030643,9.712479850554296,-0.003963381859902851,0.0037404310091083493,0.004960264619825611,0.40415238788365543,0.05700522704785422,-0.5726658722607466,-0.6166701414421975,2.0459871285674143,9.568381004428028,-0.008275420017445134,0.00288571895474896,-0.006960890650561245,0.32152025446469745,-0.07783964665295971,-0.6787640514375364
0.3141316676358157,0.18849421183764453,9.752172336595063,-0.001908994941125674,0.002540448466965589,0.012321622454102737,-0.41090004856554896,0.08758274102336852,-0.5596829800517995,0.03371132392541528,2.323530549239828,9.548731955932915,-0.010011739124327233,-0.0036145147626298786,-0.009868322691174323,-0.976758866058072,0.3457220539679169,0.00501187122281451,-0.08941807847258694,1.9497624492199375,9.520772444939336,-0.006319155780813226,0.004551459550351329,0.002953449708278521,0.4174037943174294,0.5588884039871833,0.9982212869995672,0.1861239777133391,1.9646727207458965,9.70250810192195,-0.002660978824309416,0.0056611379295606135,0.006974196659047337,0.39952616465261426,0.06019911752938008,-0.5780361013255626,-0.6033495325514193,2.0183289920861185,9.577273019394331,-0.005719709496669146,0.004121514511091227,-0.005826032475757171,0.31642796647149246,-0.07124906449033801,-0.6827158960387312
0.31866606104214085,0.19251723001625465,9.723765085229061,-0.00522215277388422,0.0015143949962753754,0.00772027390715313,-0.41328587568570563,0.08886115218209485,-0.5643354609880279,0.040806247841991126,2.3279722940042777,9.550284680655938,-0.010245564990331918,-0.002938819676776256,-0.010087033951379247,-0.9757901702496077,0.34569128891201656,0.0032989967551435876,-0.09027088034585487,1.9543093484868737,9.513243110372372,-0.0049354023322212845,0.002259272265139798,0.0035601809857189566,0.42296811282563435,0.5534718667200843,0.9967307922584246,0.18382380158063927,1.9856199803889651,9.701811444757755,-0.0038817237803410527,0.003980452302837283,0.006022535176980881,0.4046183458967396,0.05503812597176591,-0.5770569740002301,-0.6109165043046502,2.0310948626560377,9.609067978445696,-0.007013987692860475,0.0050547855773311065,-0.006350531348761866,0.3235093826830461,-0.07713086710333618,-0.6853477811920907
0.32840727675032966,0.18271756564470448,9.767655985137031,-0.004146975385183739,0.0014441570637091865,0.012209271703505454,-0.4205351304332384,0.09601657535234003,-0.5648391919282049,0.03131953914759929,2.3350691710399167,9.554168828244379,-0.007959229258969384,-0.003695099184949465,-0.010477684983647461,-0.9843441887566177,0.3537438490457814,0.003673596106226868,-0.08706293761130518,1.9603356291100769,9.518812754011085,-0.005023107097668102,0.004497794590617788,0.002111882786985515,0.4258644787324095,0.5524652433545779,0.9928075173593018,0.20322534627749328,1.9855056871285826,9.693535792189733,-0.0049989062638693404,0.004171061878108994,0.0062901399009905766,0.407280367951703,0.05329461984629898,-0.5834056908760523,-0.6132418750618477,2.0355007348789043,9.597211826633352,-0.008614287858457104,0.002248815371400822,-0.006483818945420196,0.32353000218978295,-0.08007567021433294,-0.690466251517628
0.31829130440006254,0.18107414948989134,9.745736312220888,-0.00022258786019564527,0.004506306411620989,0.011489120382739363,-0.41236985820655353,0.08662391099476094,-0.5601930580805857,0.0356099474905288,2.32055612298463,9.515358450168456,-0.009715179025429652,-0.0033235912265812905,-0.009416959640055997,-0.9779615335330417,0.3430990154057207,0.00848482682948179,-0.08411696313876917,1.9723157698434397,9.516575059792478,-0.004311586699113228,0.0028613142747391388,0.003893715803343117,0.4230276653753758,0.5581186568240392,1.0003834194257666,0.1826743341303694,1.9751539849578945,9.713320060887316,-0.003580030699601546,0.004767765721121099,0.004974058726876177,0.40562576236801084,0.05918323738712938,-0.5765809095007818,-0.6205687995490049,2.0323310565390953,9.581804267359358,-0.006628194973119032,0.005654972369598672,-0.005305223359802599,0.32057756391758085,-0.07247860062554849,-0.6829345714320162
0.33056560457955286,0.187803735315909,9.72248987335998,-0.0037731332687143864,0.001439139933895085,0.01052365671177035,-0.42569843692082715,0.08974061111060502,-0.5676208592252927,0.04145771447277625,2.3213989669086197,9.551881440851602,-0.009714708307504176,-0.0026068509630487275,-0.008157167128149411,-0.989234004114034,0.3458490086787992,-0.00030924651560063294,-0.07564775601435307,1.968191633710286,9.514327331641887,-0.005346223428263495,0.00284764335828866,0.0036716551252917277,0.42052596107510254,0.5520295746702331,0.9982152754918465,0.1671724312347851,1.963466625543824,9.688623027653703,-0.004035566823112417,0.003587812067308074,0.006544776465691775,0.40240389405253785,0.05309607934204586,-0.5790011666135545,-0.6041027517945516,2.025941026339831,9.593722356107163,-0.00814045723521238,0.004106980785639571,-0.006077697247154206,0.31958620974560675,-0.07857977558672129,-0.6826781304078647
0.335643334384745,0.191100105781697,9.767806725851937,-0.003814208785813448,0.0010989606028583984,0.011130789995844345,-0.41257217635383153,0.09368406547631043,-0.5572124336386377,0.04706372105895063,2.3293249300735073,9.540078724424246,-0.009360815862119922,-0.003491442498055495,-0.011247663520849834,-0.9777293594273927,0.3531167162979585,0.008784065894987285,-0.08426026592102744,1.958483037223249,9.496098473905887,-0.004690573681248872,0.004306919228203641,0.003756114255784183,0.42325504774090095,0.5566497303535693,0.9994080572959907,0.18575525066917786,1.9770822510975279,9.690457568372814,-0.0027048073927878383,0.002396582878601847,0.00665721026210775,0.4038940810221347,0.056504736521361204,-0.5785242053682255,-0.6187942405655248,2.043529993907872,9.597663487744494,-0.006951048696693909,0.004127596416504568,-0.006714527149297153,0.3212919746480224,-0.07589249115797382,-0.6809679179951221
0.3248129294226403,0.18101378695657538,9.750986073875426,-0.0020837071787748102,0.003405975579951323,0.009690190438887027,-0.41061663753411665,0.08785326913403646,-0.5635855706950262,0.048513899753228784,2.3143124802709343,9.522962843679164,-0.009594641728124608,-0.002815747412201873,-0.011466374781054755,-0.9779832925420375,0.346687133617311,0.0045109100908999195,-0.09857338438750465,1.9401977549440161,9.545761970105143,-0.012509725446656501,0.007441635602235621,0.002631557488031402,0.4191137034551383,0.558145598086611,0.9991884912876338,0.18639449698480343,1.9589988547330524,9.712829439083,-0.00929788226983761,0.0006683328058433023,0.007426610906522101,0.39952984673598757,0.05996224292243064,-0.5751065187848506,-0.6193667634989102,2.0411555536769335,9.59813135640176,-0.012079722740637436,-0.0018495847944924747,-0.005027128464372974,0.3161670314773214,-0.07197207258233705,-0.6797861224591315
0.36954588017985845,0.1867256069764856,9.770293900516776,-0.007730697423050102,0.0022851390846264775,0.008775280207330075,-0.41191614260545706,0.08804597979672038,-0.5550508445031646,0.05287936891604612,2.3183636305926756,9.546190549249435,-0.010819138449274585,-0.004262451414051685,-0.01225316910673631,-0.9796710715871141,0.3472699380595578,0.009635134117725642,-0.08275793790385617,1.9562312980290177,9.509943651807598,-0.00044098960716542517,0.004816318442249105,0.0026325802607372185,0.42466106571869255,0.5519933818383472,0.9959906612184318,0.20982129161761298,1.9678631117767076,9.702483509385955,0.0011973664207274592,0.0033261055689619975,0.007993738637123077,0.40316043540846586,0.05602433726188759,-0.577544676060322,-0.5907392288277877,1.9719009096190911,9.568334250551102,-0.0032490316803438467,0.0040993221666814125,-0.004052972232063334,0.32154459646327066,-0.07785305785727656,-0.6834029681868113
0.41343570022313403,0.2797130520333634,10.092259496927888,-0.052081150340238726,0.04485361184488381,0.004610008319509927,-0.4120772724786136,0.09368467769793579,-0.5579407898560745,0.05897592495873109,2.326493487959162,9.534343908053762,-0.006714843993527788,-0.0068337712193451,-0.010416136858943164,-0.9777177032541888,0.34850142868268486,0.010091791539733993,-0.09508014847595812,1.9932597470240234,9.538883520253066,-0.005645964636171282,0.0038937364045884197,0.0017743458340149288,0.4190895750124609,0.5566764133479719,0.997238786688982,0.20196974729586487,2.0158030682660586,9.71301157267237,-0.00231946155299429,0.003422905807526192,0.00667200314275891,0.4004988318200623,0.0594613671682987,-0.5775481054381896,-0.6131423967292323,2.0992921643689506,9.536175834246254,-0.006223387225727796,0.00536267752623091,-0.006147269327783355,0.3171528701211504,-0.07442289939694612,-0.6824589122176284
0.31859700962120824,0.3820034526854789,9.861402784128929,-0.175826056129757,0.08495926095318433,-0.02350095768568312,-0.41079484615414646,0.09783958334849446,-0.5600949933648612,0.018621270045486853,2.3005843109275244,9.51148070264909,-0.003733241599852785,-0.005309819917282403,-0.0025979904932773934,-0.9801859895136923,0.35230841543993235,0.004902988809692269,-0.12398142666866296,1.9533219927703358,9.522639791770976,-0.0031659128124805792,0.0033297007394331684,0.0021039997741419845,0.42708939990417616,0.5551356243712987,0.9903524857203011,0.1702402874767858,1.9465265161711147,9.688296521116163,-0.002160133813214262,0.005367462358340703,0.0036579683898038356,0.40658525568133647,0.058668901272662874,-0.5841494697960452,-0.6307743443546382,2.008426721722608,9.616159439520205,-0.005796492203312283,0.007252559763779071,-0.007263512924869948,0.3220657257931687,-0.07542793680186316,-0.6885343367263055
0.31272348805500877,-0.42471468622764363,10.0858313154055,-0.2777737734571174,0.13510314664284162,0.04469709926378722,-0.41438612144669323,0.10083709947402901,-0.5645011435949719,0.0525952776220447,2.3656181637266602,9.59621201913413,-0.003384636221765894,-0.0037722517158950562,-0.008743443065419772,-0.9840871834087432,0.34815303447522095,0.004997568042777504,-0.07385646835996246,1.9751651487123922,9.56298045543733,-0.0020445988779021432,0.0011038504379210815,0.003771367608598071,0.4250226400939753,0.559578864302156,1.0050050368907892,0.20496209651160574,1.9909262860661807,9.755253693245926,0.0023344747004156994,0.00476978405877752,0.007883125896860386,0.4068636128419258,0.06016357099929187,-0.5712135569678198,-0.597985289142959,2.060539792132325,9.641178283654124,-0.004394343439235396,0.005363392734544951,-0.00557866373902203,0.32056049911549817,-0.07026961726633271,-0.6787909727169814
0.028794518880985928,-0.07076079909236277,8.954344917435291,-0.029827682006033814,0.11131038121526975,0.014077217937442458,-0.39786879374153605,0.10424255485964785,-0.5518673949392084,-0.02225094392551652,2.1888956689152375,9.496108399810552,-0.007919077270029887,0.006869089096566851,-0.0007001201144963723,-0.9730619788310003,0.35152853653795724,0.014899052519530588,-0.15446666985395813,1.8675979090218768,9.482086223279154,0.01563933357724444,0.005463993647131847,-0.0008773851399342193,0.4226819707577108,0.550050533754534,0.9942990553368389,0.09948550370131722,1.7309079587392955,9.68912644515362,0.026445385222534132,-0.0007019899229435534,0.0009107878896092459,0.4045898867764558,0.051856501897378685,-0.580223203670951,-0.6269588306029947,0.8254772941859828,9.493711132943181,0.04233170380091219,0.009968856286206647,-0.08904629257670862,0.32227927289821595,-0.08005613142684857,-0.684612765848815
0.36101654897973096,-0.6913495921183,10.281705166588353,0.769564082993084,0.13327089341680423,-0.027217298762012766,-0.41320438502314116,0.09037851426855342,-0.5714039542200041,-0.004951279785036136,2.389378124986135,9.616736950864635,-0.0007526363171433441,-0.0037848513515038444,0.005221141237424671,-0.9882641366035543,0.3509763819170888,-0.0004095395232743917,-0.12752705273307874,2.081728221259048,9.44433642883479,0.010017363624224621,0.00540273140366914,0.002839414798839486,0.42591848322089954,0.5563790540394994,0.996460769258339,0.0970296650135408,2.197071942964003,9.732635251056402,0.01211818052806679,-0.005594145161941938,0.0025581897107729416,0.4053529294537717,0.05576113915653887,-0.5790130992345602,-0.845416491908064,1.8832871355299505,10.25959647989726,0.01271510791474679,-0.0070521962159487556,-0.17358600810044597,0.3234981962890274,-0.07516940915330311,-0.682423457924249
0.7121608236701475,-0.5256142289631252,10.988135732787157,1.6253332988865754,0.4301768626286947,-0.03218892036734139,-0.3976654105956737,0.05217303741935053,-0.5761791431657459,0.1013428078079844,2.413316459902293,9.375290795935198,-0.006980068312087254,0.006581406509529214,-0.002884137950050566,-0.9794321659008997,0.3403713797216538,0.0063448494899723705,0.0125690558909885,1.9740945628131281,9.665308658537846,-0.007479111845309141,0.009321107123294209,-0.009349432228827082,0.4211948494073708,0.5507856187252039,0.990157300373631,0.3183843852410091,1.9270540530506688,9.712171899283788,-0.001286159464094684,-0.0224574271912252,-0.007753077504045652,0.40019399599414196,0.05261127732131512,-0.5841229240826458,-0.45066574148982846,2.6031406962438384,9.440578064106273,0.005530053192926391,-0.033530323837040736,-0.15044674719337264,0.31791491098013214,-0.07835260629505578,-0.6897676840997022
0.1594177180886548,-0.6501077042966499,10.54187439421579,2.6583907866092424,0.7674090288084188,-0.09684218487009691,-0.38281447437772154,0.0057749588511477375,-0.5944495522095852,0.009578809193650922,2.0738246082787506,9.745743206747338,-0.026441190483756243,-0.00581620545148558,0.020836759007768643,-0.9772531202508745,0.3442246300291205,0.0033327460516564267,-0.1614555300148947,2.057959342283465,9.398482547945802,-0.06637843415075473,0.015473535672038114,0.0005611510492570452,0.42716424396230496,0.5549164846480932,1.0018267433498247,0.09607011944272165,2.306892166973284,9.624299619591733,-0.07389670233951662,-0.020967579279053343,0.010696713024171958,0.4066130923135961,0.06088285990053796,-0.577562871256893,-0.8068340335406037,3.54823119697054,9.915492455161951,-0.07322293821371134,-0.05562743317600473,-0.018784739087891012,0.32302161384426814,-0.07224121343183268,-0.6834114417247789
0.05208127863650645,1.5874833574430727,10.088316965458155,3.150852190077409,0.9972633160682952,-0.23270561665517236,-0.3610342833996276,-0.042750048360520286,-0.5987540203608578,-0.018483977618109868,1.9581305841158558,9.371235926765557,-0.015916478666416496,0.004755811539904915,0.058904657595630044,-0.9755579428438655,0.35718189962953517,0.004059704826921676,-0.12397795808696631,1.867703503269275,9.602582191525585,-0.0945900082801001,0.016470178651000776,0.01785697664148988,0.4208009998394873,0.5483838771578411,1.0070105508898215,0.20963767672492384,1.957887700780488,9.743640284745887,-0.11640209553040784,-0.024392003935541615,0.02714374480683029,0.40070532767810996,0.05312189530888006,-0.5733830609001026,-0.575555933787599,2.5047710391645435,9.257978840603194,-0.1281060634492431,-0.06636553908702454,0.09416634589505483,0.3146998467041756,-0.07538975275469324,-0.680759958215783
-0.2503615619134436,3.2271293440564333,10.03145283346112,2.659986203457613,1.126673473900079,-0.23232016143478174,-0.3454177101550027,-0.10531216479351177,-0.611521572887481,0.14593298036016183,2.1438631565056276,9.760294733257131,-0.0043918719219236315,-0.011996279315796679,0.12937458842678037,-0.9804419102262648,0.3488174648791866,0.0010628241294598295,-0.04481629560502186,1.843089108705779,9.523548463596507,-0.038982956382689504,0.0033073969742258647,0.011995682261556008,0.42083401163983764,0.5525352768455505,1.0072453441050657,0.304363142273491,1.641929723288165,9.493612769352943,-0.04275172149822272,0.009887222240731786,0.014203125089246413,0.40122941979757715,0.05800306354446451,-0.5726628900132751,-0.36124195698886374,1.2811339521580891,8.684449604081575,-0.04941871049295243,0.002825534668179059,0.08526504922916933,0.3161652803404409,-0.07099295979971348,-0.6790559491287347
-0.43914312070394296,4.323961264507409,9.69101764960749,1.4189404361364615,1.123437238633316,-0.34124388991279847,-0.32232835905137985,-0.1387604358255731,-0.6093534187002989,0.1393797744925884,2.61569042917384,9.230301259941344,0.002028071844383875,-0.0361828770694954,0.09425617637358201,-0.9762513375955142,0.3482639642847838,0.010334029882672291,0.058575541525420334,1.8474826590885314,9.476195739368366,0.03189474117780493,0.020126663726717106,0.010899500054244915,0.4247209512565718,0.5551779169673374,1.0013544956430371,0.3312082735509823,1.8905589850340594,9.646373564593036,0.0479333795701954,0.011979268004676611,0.006974244765686463,0.4053771822588792,0.05942066104701172,-0.579999042607475,-0.4568180462502617,1.9711671319585475,9.741061189701838,0.049395603588919125,0.04008936103128421,0.07015455303249897,0.3179079042512278,-0.069059844101794,-0.6846674944242849
-1.4202018309987332,4.711093856859118,8.660796283148919,0.05401804253302458,1.0026085281513342,-0.3376444381314702,-0.3121026234831659,-0.14445558779443585,-0.612227890676249,-0.06736688165695114,2.3693451814729998,9.74549076375251,-0.03927927180118534,-0.025645169558341268,0.10493888461429603,-0.9796463267322706,0.34983410253806657,0.016180162247482813,-0.2765297839395564,2.0148033637443294,9.583193703594326,-0.004283845830728388,0.019390827593547873,-0.0014254038500907007,0.4239970158645783,0.5568908229444666,1.0006236060058586,1.8505829870358453e-05,2.1553898321383653,9.980522174352005,0.007716016365257165,-0.006246040264937418,0.004520926946972725,0.40098532247832097,0.05993935045746691,-0.5802361796214486,-0.8723661112003922,2.271035433906249,10.356829845170111,0.013067177847899398,-0.00020146891273374948,0.08596369189587293,0.31987025355572446,-0.07126975354189237,-0.687336856609097
-1.4380730435808555,3.5702698934833035,8.556358012915531,-0.7362089065819482,0.9059132589158817,-0.1798634994984222,-0.2924849916239976,-0.12597490509572645,-0.6277750589787975,0.00978398608154133,2.901148710454917,9.43111137503312,0.008849893811080953,-0.009068464983491765,-0.006303910958744164,-0.9809157568620037,0.3552679811969145,0.006559920053720604,-0.19658411690643451,2.313868436736529,9.516047938725643,-0.11257574554481486,0.02629733615046693,0.023218034421941054,0.41886436861351206,0.5520578547633579,1.0053064948318415,0.11908289286800934,2.3944144305575463,9.931468770598736,-0.1349501912893593,-0.03988183799585992,0.023709687366924838,0.39829654187637936,0.05922827216174971,-0.5794964739151147,-0.8428406549793154,2.3707170365047148,10.608336109742861,-0.13083214908065566,-0.0906482820420523,0.07005580940765464,0.31278093419184655,-0.0702713331444039,-0.6851799037429395
-1.2586844916781472,1.6698545877751352,8.82433409726333,-0.5231741380890489,0.8042734765888521,-0.06877206721091014,-0.2760934387507812,-0.12199041228110973,-0.6271020772444095,0.23696431349524577,2.3266647387349444,9.448125065169236,-0.0404001816652691,-0.0029347851308265866,-0.010624502936567597,-0.9806312660733616,0.3510261401958477,0.014696741970958726,0.07468532960509337,2.0196139066979946,9.594712155153008,-0.21868951881075882,0.010998344639358594,0.004845950217723168,0.42059079886514245,0.5515628000278257,1.0084701062800256,0.41300112427348634,2.012894385219886,9.66192800762581,-0.2630044133895294,-0.04796571200119534,0.015963190779036268,0.39981452544248114,0.06654281877354373,-0.5790290568027436,-0.32434674106812034,3.842080617110211,9.827006089742467,-0.259268519001042,-0.1626783409610341,0.19263030785982735,0.3120586023859447,-0.06636450509181438,-0.6854389931670428
-1.7008408339540206,1.3381026511541245,8.731869698193044,0.5573139448113347,0.7299589295580063,-0.12847450343300781,-0.25906048743585963,-0.12898465600247508,-0.6282135133737716,0.0776642930629792,2.0957056094432134,9.690180076361083,-0.0323605461053923,0.0016455269554673216,0.02513891689790174,-0.9754985233997184,0.3581802608283894,0.01820334768321155,-0.12033355817013054,1.8065227400127273,9.634924149391372,-0.23598511705368164,0.008912955485917275,0.022406499027430565,0.42386546533700975,0.5371222523309593,1.0033523713599115,0.2029814083352656,1.7024443591565503,9.790508633011223,-0.29366579658834485,-0.018192095498913898,0.0014654847290962673,0.4046468793202005,0.061122371880137756,-0.5851288512645477,-0.5531667028421015,0.3403302461856526,9.76954083375708,-0.23722848367167987,-0.21370905858868125,0.2797470490585649,0.31133540701532764,-0.07076750274147803,-0.6890921245844674
-1.828562509630465,2.578699920624167,8.521325328427723,1.720155602674303,0.6986681410844453,-0.21538227553773087,-0.24666844893833173,-0.1671370618692133,-0.6359473580486708,0.052030007583719916,2.2245902707850744,9.47023832008056,0.0008102181549594054,-0.023744097711264567,0.027047729006689177,-0.9743109062991285,0.35729792513131564,0.010156334054538118,-0.1817116565544212,2.148829252825693,9.554563961626812,-0.26552009422694933,-0.005701067476724386,0.06623663748513953,0.426618883745995,0.5427252009847079,1.0072279280229626,0.22296400246146048,1.9817931925963022,9.686201265252096,-0.31473892380269947,-0.023796488644563206,-0.038723098038608114,0.40232404817440176,0.07628897429882252,-0.5795453882225233,-0.5430431258323736,1.0651206308728238,10.091590387760112,-0.31576114614949863,-0.20186808793001898,0.009753891317473834,0.3064705186583036,-0.05683414048638003,-0.6867168901661621
-2.1493667565310637,3.624889743644492,9.004001754659875,2.0514163939195096,0.654684751390633,-0.2877139479063529,-0.24034334377592265,-0.21290496315766405,-0.6296341463988768,0.10169836317573232,2.7120336614374403,9.376354724217862,-0.011699328359897215,0.003393630696112401,0.07668148477713319,-0.9821209121630466,0.35213873078723223,0.009066198684254618,-0.15132351964268176,1.9316460127421717,9.608806614833094,-0.3800353660955356,0.0062573060588809685,0.01673689850353775,0.4192336318262605,0.5320453562746232,1.0102304954327863,0.07759446147052416,1.8146774930663732,10.719380158854124,-0.41394563497670905,-0.10555723882470772,-0.018435769727155958,0.3937702459026995,0.07633795475931467,-0.5844127059244113,-0.4564912610384155,4.239418767710299,11.911637412491292,-0.41128663176157526,-0.30545105146910506,0.12499216825720119,0.293064442278611,-0.05266263224428572,-0.6892403402029149
-2.5061157092944084,4.760097337321023,9.29806450624769,1.165628902007973,0.6112459949625405,-0.33650722468758537,-0.22669911762509468,-0.23335997040203596,-0.6220878479434914,0.05634288428030722,2.7226158116868313,9.610157131117932,-0.04090697689413945,-0.000337762839451799,0.05170449201613557,-0.9799067288790538,0.3578664670014109,0.014809418708393807,-0.18959597953110585,1.3830833960546696,9.514998288358045,-0.5728328545873277,0.010761588668425276,-0.020429176382447543,0.4246825348256073,0.5122231519847493,1.0077959514931112,-0.022640651568517602,0.8479412382678188,11.140423056441906,-0.5680662123174319,-0.25317298049473197,-0.03658398273480275,0.3964785566739808,0.08021859658695149,-0.5873571611833271,-0.032615581816543567,6.786173308204127,12.267950401067719,-0.43763135334266023,-0.43713902970120455,0.6720454540493234,0.2923475279140229,-0.05413664877360373,-0.6929019064067604
-2.1980584698082097,5.35220152526183,8.228266022007269,0.3049042416291811,0.5322992502994909,-0.3699129460077517,-0.21819969290606467,-0.24292765247783138,-0.627205550273839,0.02093591773270485,2.235609242834055,9.343219952474449,-0.05686052347854191,0.04077937871999948,0.05762876103090398,-0.9816448414581516,0.3592099503471091,0.008442470682674286,-0.18027381401711687,2.0327702365286275,10.607772730813622,-0.37383233507175334,-0.05906842579907852,-0.04273053275374772,0.417628913884719,0.5103360591079495,1.0139503350606665,0.506739121802937,2.793146574975771,10.732207306493317,-0.37664498841477345,-0.37416613132355686,-0.026966000767595515,0.38142570694133565,0.09083595543053996,-0.5824720953585015,-0.9282693325498141,0.7728082216260108,9.987202201788634,-0.3424062800383892,-0.4287707479617403,1.852853122071904,0.2718051025307123,-0.0516284153116587,-0.6852048107680476
-1.9884843562574475,5.075662917868306,8.542892110918,-0.23341743341342744,0.623714269426583,-0.2611041512698561,-0.20476615249780336,-0.24353920708260346,-0.6283038043723936,0.3168028390816946,1.8819419082391178,9.883571070061878,-0.01655753236858314,-0.022868491211658584,-0.0058926494521238815,-0.9813888011250929,0.35582491612381073,0.010214172591841295,0.23924331480041816,0.3537822963027381,9.484683779097544,-0.42168468045937957,-0.12296011820429964,0.03916970848826541,0.42281760611874153,0.4931894499646845,1.0058965962525912,1.0305090245793849,1.166122612978154,8.199498781358983,-0.4219401797288614,-0.21431261965193577,0.06456372017085744,0.37749739623090767,0.08865693184207535,-0.5861215494496296,0.2654715430011405,-0.18520249669787642,5.579297535677719,-0.3917227450413699,-0.2922645800603758,0.6845337446491487,0.2676650588378447,-0.054314732439707684,-0.6883918257521192
-2.7362984357225866,3.7574375688249178,8.696404403924603,0.12216682839228356,0.7971300705220942,-0.35371242500654604,-0.18422199164806155,-0.24056260118292253,-0.6288190094751651,-0.13452565891245807,2.0210351267703985,9.352330301946372,0.0045436880996538465,-0.0071283727394167995,0.004032004407364092,-0.9755256856640496,0.3664111344406784,0.014386434429033472,-0.40016448902504376,1.831822529245185,9.755618632292068,-0.2942841831976011,-0.12642487470184618,0.08540484884562033,0.4153580745378027,0.4863821741754602,0.9935088922715296,0.31679714412218435,1.904640920350971,9.214190984470562,-0.27842177027670384,-0.005309376358175856,0.1110794859714141,0.36877007293068764,0.0982329407131969,-0.5895466934047997,-0.33015120843278317,-1.1403921638573395,7.324318892848477,-0.2694767349571889,-0.07614786268072998,0.33640316599575815,0.2615824659476988,-0.04722460761321854,-0.6894212584490694
-3.4385520617872367,3.15210322403092,9.56742122112268,0.44385872243354874,0.7919191845734684,-0.5060892477381342,-0.17160248573389209,-0.24849859775472954,-0.6290022003442297,-0.005417163622680826,2.704409427532781,9.56980363212397,-0.04042373994321883,-0.025547959851251998,0.04383964988959003,-0.9813866604928222,0.3678672064977376,0.014384149446420004,-0.22104983612725007,0.7768340660040929,9.895639048301664,-0.16386653894605976,-0.18342031571431197,0.08056251039473387,0.42039384111422384,0.48119957807309427,0.9856742669054037,0.43231802004621744,0.42887074742782805,9.938040287357664,-0.15040956764535807,0.10613467877422188,0.09916376748202534,0.36901642717959565,0.09629961882343283,-0.5807534094872518,0.3220104309230773,0.2945088674838222,8.864484334253635,-0.14875954067251462,0.06359721609697304,-0.03548807311784312,0.26228137848862854,-0.04769651662020716,-0.683312117171504
-3.575824041301245,4.208227236873579,8.862488277092242,0.6177843655249208,0.7629504466576138,-0.6397757121233336,-0.15125705516462512,-0.26578443920049455,-0.6296704768311788,-0.16708853057897446,2.282492023698441,9.296361793947778,-0.05638927168745699,0.01920920402504839,0.016173511346712105,-0.9765171574071758,0.3707618884067915,0.012111671868031998,-0.22054631076227382,1.0088873747068905,9.842814751199944,0.16097367896806838,-0.2115737154202932,0.03870432611140604,0.418599751991048,0.4882473542922181,0.9649184802524421,0.04501401241685127,0.36580521864202215,11.13063561135034,0.16937093411184745,0.05270095477266449,0.02732671939933153,0.3678135939105145,0.09923367003745945,-0.5822233219337127,0.12255686302828712,2.970559941173591,12.276625604798552,0.16263166623161782,0.08159658870960532,0.29232172197885525,0.26571295213083596,-0.04673315511440779,-0.6854949350629578
-2.3026448764590364,5.693679899329555,7.447988866549717,0.571782386538715,0.9276168312276908,-0.6455938259046389,-0.13107044087569888,-0.2774287818137273,-0.6334716735711244,0.11036606156465212,2.9195365549508576,9.695728236582612,-0.1010798580220122,0.0024954908315985964,0.0189651471325498,-0.977021561544901,0.3682337026079663,0.00752137786519685,0.07604295810848806,1.129652962571965,10.035916627988623,0.2408977892482175,-0.2729001867334569,0.016889432914274166,0.4245631635614566,0.484502744791618,0.9480403169006455,0.4289641721610441,1.3035309009806422,11.248695877659454,0.2491051977553021,-0.10409109753027039,0.012923207505706722,0.3697530250568132,0.09750903233887305,-0.5829547217131638,0.03261383833486246,2.9370817143849255,12.234994688557316,0.24851985829978043,-0.029530128411477015,0.6021332226016587,0.2698566683707619,-0.05382788661101055,-0.6871617112069217
-3.965703828696211,6.5006898355691565,9.396163336385605,-0.11158738375419061,1.1114690346164129,-0.6533245091818869,-0.11814765123272702,-0.28095985740700835,-0.6353284630039987,0.4528668527802217,2.2013823176535534,9.750296382039789,-0.05738346638493822,0.05651462595219001,-0.10129541671829341,-0.986542786282222,0.3677323248351167,0.007571426145054093,0.32891966473584144,1.1006976724072135,9.875900246059212,0.26176681418470615,-0.31585051229684713,0.01498293423895278,0.4193745003349201,0.48646966588078194,0.9365964535079537,0.7681903972957812,0.8117967633458951,10.153871306497274,0.2723958173253279,-0.14577460534240497,0.013912431201362967,0.3536348311293631,0.0951982654461775,-0.5765722582479545,0.47584871058351297,1.0843706247844136,10.064088624553625,0.30695361031913,-0.07962162079251925,0.7063565224965533,0.25561574339949206,-0.06352949932792423,-0.6757331847641259
-4.165002753014775,5.2416914115930995,7.803661417317289,-0.289935483717617,1.1911227072596762,-0.47895537241773495,-0.08069392786237745,-0.27010512054877056,-0.6341608443009357,-0.025772685082507595,3.5096484643437327,9.17425867767142,-0.0026606747420258965,0.07515719060151183,-0.3436053223682735,-0.9757937487211923,0.36335773694751133,0.007851619516113899,0.2578254258508078,1.3265865187394328,10.517615981085289,-0.07235327642132307,-0.39486376769133813,-0.012404443627206902,0.4228325342642674,0.4810182140134426,0.9121705460553828,0.6840505665840275,0.9157329118062996,10.58786138375828,-0.05791160855547273,-0.08191550852709364,-0.000945788171498776,0.3534264206551038,0.10032567179897046,-0.5770723364094027,0.46340277586013956,1.6939103341847506,10.302335432855465,-0.02393145859895127,-0.08869973229603527,0.7367030745347397,0.2561157299841858,-0.058403573588746684,-0.6757453803191935
-3.880078207288629,4.764847967001009,6.263745017631482,-0.6983698437041929,1.2232128138217526,-0.35635285926571664,-0.06677003216106317,-0.26035187760448925,-0.650558738115958,-0.3414200569117013,3.4368596647304335,9.260558623309741,-0.05700815076154486,-0.02073119993989172,-0.6183103036184997,-0.9880526599983014,0.3547629905282822,-0.006830625792050558,0.04489224225245081,1.5167429743804959,9.941852070366064,-0.3782076378593417,-0.4796177325551997,-0.07897327356432687,0.4202927965350032,0.456570317541298,0.8885578922580255,0.16980053590557143,0.5470579527013807,10.780570623594345,-0.36454552026566267,-0.08193965165061182,-0.05303071738731919,0.3451476028546873,0.10259002688595022,-0.5736445082533285,0.03791116650329409,2.3786274385591324,11.536907431105096,-0.35393726623400656,-0.12585269112532174,0.9556837889832139,0.24731917802921566,-0.05911503098902445,-0.6748134645123197
-4.562905786570721,4.862495096316396,7.2016030302886325,-0.3209490586214875,1.4198626763373066,0.04374876744825713,-0.039314402384715674,-0.24817734553874884,-0.6494761317403998,-0.38413673827747274,3.118453999763862,9.424984244805577,-0.09396403809698155,-0.05077152823801756,-0.8185753599638125,-0.9887840744080649,0.340766105883999,-0.01095983506451659,0.12187581160462148,2.0149270695354398,9.674143860806756,-0.5876296077561848,-0.4584361393150676,-0.13323178052254792,0.4130068427518075,0.43902269471438404,0.8776583284780614,0.09041391735836617,2.1844791345880705,10.25872154860289,-0.5909326920771122,-0.17399227486718344,-0.14391661829698224,0.3369282094388986,0.11194704891436934,-0.5653510049744862,-0.5575949999165368,1.9725620844386351,11.032088523503615,-0.5868700885261119,-0.23520528722203077,1.1611193535964144,0.23900060554891928,-0.05346445316444815,-0.6690133457084965
-5.221093032905853,4.190615120020066,7.598555090004688,-0.2272690427806882,1.5421412391728093,0.2442937054246408,-0.009594901633959655,-0.2391222925455499,-0.658648925285235,-0.7521534020475094,-0.014163889363412396,10.871706028920736,-0.1796486774022655,-0.06797800732819607,-0.9397584364656187,-0.9846537781114357,0.3239857896813844,-0.020674640345237374,-0.060279887630268814,0.2778367369272403,10.166133017172406,-1.185654726614369,-0.46204916700937937,0.0035134352055880063,0.4151258410282431,0.4087010027914461,0.8637935003783371,-0.1645265417219756,2.71759109443553,10.270841583277132,-1.1787952208559522,-0.19620308463354985,0.030984689274659465,0.3351123377169868,0.1302793376033025,-0.5617301826486636,-0.974914520376434,0.30058378855711876,10.655518622372016,-1.1543877151147568,-0.3107833478173619,0.7862362122432189,0.23390148171682335,-0.03391490003462678,-0.6664115725498139
-5.248482957292029,0.026426608697117118,9.724022213040492,-0.6559057687758377,1.2207589062040434,-0.04290776545201093,0.018262288460329814,-0.23235032234638392,-0.6539402906984116,-0.6881997413102594,2.487431275176216,9.816753744272631,-0.7393787431714756,-0.12482828262819308,-0.6385688011172054,-0.9767850077363295,0.3011553482464369,-0.014664058786912116,-0.11501188016860049,0.8806144907450026,9.494936644726758,-1.3772972742801217,-0.3564092047736584,0.08106441242712384,0.40665084034532983,0.3669820107218334,0.8485591320579831,-0.15617943010930582,0.5804207338912487,9.627710207145668,-1.3857687016642113,-0.257174529518287,0.14082027236493438,0.3251730477730876,0.14156883921846145,-0.5668662568977789,-0.38214668141193436,2.4584131444143207,10.08622959042405,-1.3412771604310856,-0.3672697121638329,0.6109537110935814,0.22566048528421495,-0.013153826368808387,-0.6694438891626031
-5.192050602458051,0.5437409122796418,5.939990330124225,-1.0708122044764181,1.1220116259615023,-0.8636196242800294,0.03787992172357762,-0.2068444617571598,-0.6621108573710345,-0.10879688209620164,1.2313562886320026,10.180289529913505,-1.5552960714573396,-0.0899435606366006,-0.024487825268395463,-0.9726742359203743,0.3029542222512943,-0.023261921799998406,0.5904496145281661,2.3814465942464036,9.289081672523597,-1.708554914719737,-0.24705301222137044,-0.07298923210570013,0.3874466482664474,0.321451716552435,0.8395078822301724,0.05754663419539305,0.35862967353175723,9.942909325700015,-1.6742937872812533,-0.36111737904350694,0.045806201132005724,0.3128288129393516,0.15654967264124986,-0.5666358283226306,0.1514070242122782,0.7619114888964945,10.663864180285104,-1.6644957093774846,-0.475242236160926,0.8335618422448969,0.2113058765645564,0.008603289908895867,-0.6700711218020278
-6.677547412117486,1.0442657519684921,8.126591928736348,-0.7923366281456519,1.0360290588479344,-1.0921683227357595,0.06653101534005786,-0.19760897620546358,-0.6612817185382108,-0.370053956681005,2.1378822551167214,9.597358082243769,-1.5930576715127036,-0.007173680192090736,0.313960045400723,-0.9563239883228694,0.3031921411742185,-0.024800453270718854,0.4471940037047335,0.17724197956112211,9.859704543955958,-1.7798845386362274,-0.1797901078661006,-0.14130586474099535,0.3738723216506703,0.3027534246499443,0.8389070945326833,0.5012581764164626,-0.08638033652814855,9.903296828867797,-1.7711191229628729,-0.41420442410292574,-0.1455575502500176,0.3028574478597703,0.1930295135814687,-0.5540109816532233,0.1590268781237218,-1.1547548307724034,9.107956264059903,-1.73679715622403,-0.4994562995105059,0.8856663955487947,0.1996121342945616,0.0472347572610112,-0.6592569701041189
-6.9680598961087465,4.922246321363173,8.147960105554498,0.018404679502268026,0.8493879741919552,-0.6632952565520918,0.0812690270675413,-0.20441633317987315,-0.6519147682157463,-0.35677712570816295,-0.057465985259048696,10.912374887831184,-0.41098707320296085,0.04447597350270447,0.19873902698023546,-0.9422066100708544,0.3013005554069089,-0.035570234400084846,0.9159988033972438,-0.6467008933523712,10.742077638243362,-1.7255437372472906,-0.18187186249973245,-0.1728333309102499,0.3610454572759918,0.2586453561575834,0.8327402112690889,0.8159492065156677,-0.3264105998568397,10.55851408164466,-1.673553346881929,-0.3664248454102634,-0.12978408868716623,0.29855536721256737,0.20382267292448167,-0.5457282155390986,0.5801978846490579,-1.058001028762443,9.95745578690618,-1.6292588951024847,-0.4156053044970439,0.6408748722249535,0.19621225836206085,0.06703031595653541,-0.6546939565630853
-6.55507484104623,3.395289068375513,6.455438771100959,0.37672980478591556,0.9169914509545846,-0.1074438246441917,0.09457622584263019,-0.1991198832104684,-0.6593178891442376,-0.3629160722245874,1.4098814974902878,10.947043701004608,1.2303299553238085,-0.05042335526971074,-0.08977349234189132,-0.9333282587654389,0.30087888515321404,-0.07173891036831423,1.0165157097516238,-2.130397786223448,10.622540554111875,-1.33246483228736,-0.06568126878658269,-0.11706584121340535,0.3314860743706243,0.23515950342977526,0.820293340220445,1.0329729388593305,-0.7790547243779767,10.941624469504502,-1.3206236585520958,-0.40103328887026735,-0.058524545349571716,0.2784128372226679,0.21718619920988697,-0.5310743626728629,0.7874838729916546,-1.1997767219510844,10.941474996721574,-1.3204114913530658,-0.4070232835137689,0.49998213335922587,0.17639030645209636,0.08689670147646897,-0.6377650966235491
-6.3842394696604,3.019690050145401,7.010691825581564,0.1438177046516609,0.9798970060096973,0.0014951454641175792,0.11867845893635429,-0.20158984089670967,-0.6544693407095028,-0.2409974850118199,1.352085412825439,10.875005646759252,1.4184282963923656,-0.16685365833485255,-0.3033428306384175,-0.9124136099839437,0.2838495547639077,-0.0959273619276545,1.0998098211268792,-1.9446768557954648,10.198388101276612,-0.5497776606695948,-0.028291265627775147,-0.0278048636545239,0.3119137525338728,0.22693240392284036,0.7869941535844082,1.1775665854752577,-1.462046393480686,10.238377606035062,-0.5456300792771427,-0.43184097160079404,0.04679412582687292,0.2682585974065618,0.2311754157063547,-0.5308455754967335,1.0207449506367423,-2.4199511182641134,10.494449440081926,-0.5682135446393629,-0.4223976856910505,0.28667372389916596,0.1705619798507343,0.10522429624359703,-0.636383639031078
-7.178495728166601,2.955793494506223,7.650223536500718,-0.19122525560103426,0.880788247718679,-0.04125990786438888,0.13636207291344754,-0.20235798789673892,-0.6403903631935218,0.06638300771475154,1.8984664442558072,10.016870735059902,1.663369808618971,-0.19105084955082965,-0.1502343004436529,-0.8917051079194479,0.26674173586941025,-0.11132283622752097,0.8664489342377995,-0.838754242364791,10.189418161421155,0.45679784793189404,0.020064466944986183,0.0054915804650204885,0.2919713813207205,0.238961274402707,0.7485264382067641,1.1376564605163293,-1.34124529909715,10.390481558378525,0.4837681173473095,-0.44121071007928436,-0.002267658610408141,0.260988863329162,0.23807049637624383,-0.5279188706944665,1.0161832069025771,-2.394003094363925,10.336822659794505,0.48010039921961317,-0.44213176356816486,0.13703385574839683,0.1644754327608007,0.10987273140781571,-0.637650037880602
-7.5966361626299905,2.152847796289939,8.038975389096601,-0.4424381606573871,0.6334469478828317,-0.12478078741951133,0.16306345953903922,-0.19067868000140006,-0.6373644371606276,1.1346590532678222,0.29634010439833447,8.552825235336483,2.6517030356750015,-0.007092111119154379,0.08991258907324001,-0.857137762305795,0.2582417498921376,-0.1374388362583917,1.5763030470663741,-1.8325041370098554,8.71383376005935,2.601774117901243,-0.0334557614320694,0.061955541642452,0.2780036876857328,0.27971954695200774,0.6945741798081017,2.2155319912116505,-1.269166327275935,9.507104253425839,2.5696639242570227,-0.5130233945417487,-0.08805431598653513,0.25251785734920235,0.21565559370557902,-0.5334647497007297,1.7549285183651664,-3.883299675503548,10.346614727751472,2.5263160450907707,-0.5027138641769953,-0.12332366800481515,0.15441640020878045,0.07618955966133455,-0.6419995212079006
-6.581035894607118,2.2250394733968193,6.954201391892867,-0.2323885557312413,0.2803651251820056,-0.14665686052764818,0.16838040718494507,-0.19174204232829692,-0.6326825714756221,-0.5500370280834536,1.5123542314256286,10.49171888781815,3.7643090727487616,0.07821858538299914,0.04018604672068986,-0.8459867463191929,0.22598390624552928,-0.16569584230534426,0.7108404710004468,-1.5614112588972129,9.39900296764236,3.4021624186084667,-0.11250566096995397,0.1861942826939184,0.2590020126682849,0.3239572316455136,0.650659278311124,0.8191355978757151,-1.0274080869296267,9.077017943725043,3.3834905551093075,-0.5195258369474655,-0.00896767624011121,0.23125027641685725,0.1784438539750402,-0.5367529838032217,0.7457317578084112,-0.8493657685005342,8.838570147363287,3.3601165404841273,-0.512342218414608,-0.3109350388794712,0.13256959443937155,0.02472639390087844,-0.6405003515758904
-7.5766480588127605,0.280790224658326,5.388941146395473,-0.36418043661174554,0.3133984322194258,-0.45876709783035263,0.16893245428622355,-0.18685156878614595,-0.6343502124836005,-0.5701238444611033,4.828876453697873,10.562212048225275,3.25961949820382,-0.044060837825654356,0.12716590523634883,-0.8353073394895112,0.19551552546754575,-0.1895885797486335,0.4509007820411654,0.8574750385158768,10.728622829550998,2.4029629740464045,0.15372724586958675,0.2055204385101706,0.2346111336558849,0.34428205284406993,0.5946248927585975,1.0147752245395179,-0.08773368784432627,9.797328646769587,2.3659377003804676,-0.48124966584865053,0.020003848628347174,0.21349550833478445,0.1553606627591383,-0.5432550686720863,1.0179402607637726,1.5003070919347183,8.909563936857996,2.2627448197278115,-0.47773074213536076,-0.12861801288602742,0.11642991112861782,-0.009932187826240646,-0.6495180054998987
-8.065647852270445,1.772105652888306,7.423073390102006,-0.3299500132500017,0.2839360273224869,-0.4990838544479752,0.1838794584183497,-0.17339023971720705,-0.6258081180582302,-0.18525712361942936,5.214372090083318,8.897473768027044,1.7261068138735152,0.12366471265456842,0.18965906019087247,-0.8102176670093201,0.1815447067738481,-0.20725899108692933,0.29872021401045035,1.4641272301265946,10.067631633061392,1.4712410631984147,0.08388879681749571,0.11575383392488969,0.21850514956646983,0.3504130490811892,0.5522372142110298,1.557928703822314,0.5922690477040446,10.503204494121462,1.4604473116748844,-0.3952996808460389,-0.057454295945755116,0.20827875582192132,0.14270312382907538,-0.5429706544434019,1.5789797013551223,1.4273125708261307,9.379762314752979,1.3557751339627506,-0.38790231753376836,0.17658967532451308,0.10978738799522147,-0.024556470521972587,-0.6458485162905386
-8.188922242250406,2.8927950868332024,7.187620676300834,-0.25668915933550196,-0.036284994233251794,-0.4440376472351484,0.18358939448148004,-0.16978843066695357,-0.6172385525220996,0.14259054045277905,6.848595075330769,10.05492985014304,0.9316854641780298,0.2035314211259894,0.115406634951394,-0.7865679782058992,0.15712259176362392,-0.22228581257148572,0.9654561805515292,1.9156151772663337,10.758520505029292,0.8450134114641233,0.025865205403624185,0.09771457965008302,0.19575872243475023,0.3456194245268506,0.5150457093292237,1.9982677583738773,3.091524540207476,10.14648317047362,0.8531843354432654,-0.3333978853735836,0.0029219443280669786,0.19429290700176638,0.1340033782938538,-0.5470746571727092,1.777983512564911,2.4071775668415354,9.660490816515289,0.8170104548637211,-0.3233830595622691,0.12641321806489056,0.09609076872572703,-0.035512582923425705,-0.6456447084564433
-7.619251185062989,2.6259219671308016,6.694144821919609,-0.41196010575224606,-0.1831454629675459,-0.2481429883595374,0.1966841358331416,-0.1530797771575684,-0.6160134807542441,-0.42003487892063274,6.285975325190963,9.704583222444821,0.2929227572771684,0.21473191677526557,0.11945675098612678,-0.7473392960181521,0.15216965000715152,-0.24189600998940394,0.8973799668342881,3.0013765585517076,10.874937617646818,0.35198702226193584,0.08422756672306551,0.133509285913329,0.18352875578316127,0.33636934015956843,0.4856057597046203,1.8544414554989177,3.5781397849345677,10.29133827264994,0.3464827433529814,-0.2714822996318561,0.05815109431636766,0.1879827369406858,0.13506490257607584,-0.5304634861122902,1.6973043785987583,2.4032041401364332,9.330111030940124,0.30769804023216807,-0.27018977630617486,-0.01777963992611399,0.09456658528577071,-0.035476294694983486,-0.6341786053692633
-7.130402680286964,1.5112515321426283,5.385071169342521,-0.31236634631359134,-0.2068304798549721,-0.19185124671906495,0.18994845277856773,-0.1555495651426383,-0.6033997306735928,-0.4893199083939711,5.046567821162096,9.813190100541085,-0.32937760295723456,0.09794831288313482,0.0330564961769067,-0.7209515083326393,0.12724607123706505,-0.2447148589310099,0.571604409651731,1.4941627271932028,10.933644077504411,-0.31164532824959373,0.11035240719129162,0.26843354284681037,0.15157091749181867,0.3118602300505063,0.44412341891475804,2.0427518360576706,4.096472778333691,10.304602242181117,-0.2949233068831447,-0.1729973673142378,0.28350935714443903,0.16750844438085127,0.13936656636761066,-0.5284830551493677,1.580624972584603,2.4360575914248632,9.339149968688703,-0.2969978535036124,-0.18420370431223504,-0.41232929478864033,0.08044183287314462,-0.026422373361324296,-0.6374519548412758
-7.301220351371556,1.0360760694559443,6.311917039219349,0.18224095270183438,-0.2456763364378121,-0.2680695008515939,0.19968401006257191,-0.16099853218506247,-0.6057889900861405,-0.3402065635497804,5.644931808166247,10.011185331965672,-0.9979025625451763,-0.020184556952758552,-0.050292600652492934,-0.681200369816143,0.10500504234919604,-0.26180468004333596,0.8913283353592286,1.5505754004938521,10.556471642458767,-1.0298692368179896,0.1703478267980784,0.35771118247142303,0.13377556680769223,0.29089781964858796,0.3988766453704432,1.8490230016347846,2.0244009216163628,9.752575907904244,-0.9598901031681942,-0.13403479669545912,0.5152748958687589,0.15788627847473072,0.16066422605288366,-0.5331560371957048,1.5905607575497287,2.440505410817162,9.906941435233227,-0.9344071289069746,-0.1708317011381932,-0.6838654723964762,0.08150500383450378,-0.0017849644685559538,-0.6438657171971369
-7.655928088704933,1.9771289532014606,7.7555393931963446,0.3424472939041433,-0.39216645099709446,-0.30968238146538596,0.19357292131215034,-0.1560990337315296,-0.599951191255391,-0.09188426780559328,4.65161613059463,8.949477152562416,-1.145564839000891,0.0012653323348648334,0.06762728343609005,-0.6495137915073421,0.10481771499548877,-0.2741456943267236,0.4972402857936949,1.3250067411648754,10.289426595919496,-1.216191964724475,0.22546771739329788,0.3255013211203262,0.09546665439093244,0.2532844006156555,0.3718694944267013,1.9241182989346337,0.6747786455776286,10.406705087422692,-1.1455773490781032,-0.10212903572136171,0.49539977179224703,0.1274243111127429,0.16530686510817533,-0.5201709069676527,1.8348349383600855,1.9833397885197561,10.06499369117048,-1.1201307560929565,-0.18194507709511532,-0.5319681565850292,0.05732703688723055,0.011714881509570181,-0.6369514886166345
-7.643078707933551,2.107006003267061,7.414389101381945,0.21242249830459198,-0.6298208410362317,-0.364517453120491,0.18724644542850186,-0.16881158685724607,-0.5896066407615584,-0.13479831781018892,4.067859653303262,8.868716435814884,-0.6598715361982048,0.15400699505296345,0.14060893398421664,-0.6202280046620803,0.07951208213463236,-0.28454115013036346,0.4668125841156517,0.4722301673928459,9.811587286860236,-1.0646177336302691,0.10687283701218656,0.25542739304725315,0.07970240079708116,0.2347671509029822,0.335393065904884,1.854593743727141,-0.8301502163001727,9.817774456024233,-1.0089940807752191,-0.07386381020512575,0.4202620558420083,0.12093951653706606,0.1797643306042788,-0.5177530358502752,1.9989186972597708,0.4134412673008276,9.479686703720327,-0.9774371111469166,-0.15065433080329757,-0.33870839954152404,0.05419519386833314,0.03614112850986808,-0.6350855042154615
-7.907413561961249,2.0608530268535956,6.725061070064247,0.17506745667027623,-0.6066138742748834,-0.30426523876088246,0.1875277044672831,-0.16103235081397296,-0.5853960131437153,-0.4270814894088215,4.1917089300937835,9.62681403571064,0.5039770414319309,0.1741534469126021,0.12412461104461595,-0.5907594251501995,0.07260387137622694,-0.3035839245256407,0.7636403215062912,0.7609964556294765,10.862922862854692,-0.9132984077518649,0.18671142232145893,0.12461886238690469,0.06364562536318936,0.21599295772348703,0.2920829803805564,1.9286024491802252,-1.3071525566623265,9.710482324895306,-0.8544569238698976,-0.052119749413973335,0.25500055454805715,0.1124940093623235,0.19325535170673383,-0.5163051932571433,2.2117027755982113,0.23704843435513226,9.454893736490641,-0.8020162162430102,-0.1339963190418119,-0.05462798176291883,0.053980448088416316,0.053968473841140244,-0.6334291396150259
-8.644837795780925,3.131665518755458,8.268995026617244,0.6296436150788696,-0.6763913423309056,0.04524156300580165,0.1778709771442143,-0.17218834383080306,-0.5828840660470721,-0.24880141535451752,3.77177190753642,7.964669320909353,3.803912730319776,0.08644427701298207,0.05300215358690718,-0.5646292676087276,0.024289645877212766,-0.31670802001021625,0.7371911879455831,-0.1376311484571508,11.196929313625356,-1.2712510504955998,0.3937261576760547,-0.05573653877381113,0.04055022230062632,0.1975300749218445,0.2546784103251399,2.3958632367987613,-0.8319155761019218,10.589048026674597,-1.2450863944586967,-0.01247999760870695,0.11575520869286747,0.09819416906559271,0.20776548754635965,-0.5150929983868362,2.489040948227959,1.6375116269846193,10.388619060633355,-1.1806640251589358,-0.1419347914575922,0.3195708232323305,0.04448529665017181,0.07255139216843638,-0.6308466393525196
-8.00911791243783,3.217778465054136,8.435132291777723,0.8029510093207548,-0.7885592837145923,0.3711348796169797,0.1691331490984244,-0.18388256635831435,-0.5747519894045867,0.36120923077610845,5.970711936783822,6.579988973539343,6.096390980089195,0.16044651475326993,-0.2774922096124722,-0.543294681597344,-0.03862738238967563,-0.31390991015060754,0.9164472644293624,-0.7197605298270903,10.443871527866857,-1.0931175490673972,0.24162160579015227,-0.10995100733633824,0.021214982735608918,0.18515818795517333,0.2250487072917428,3.025511771325832,-1.163658046458872,11.309233821751379,-1.091769135652652,0.0253727689381556,0.07514039580459886,0.08320649449068128,0.22306264714626436,-0.493374348152266,3.1921778991952316,-0.17430396295273454,9.922922141925053,-1.081177231007315,-0.06078316284328702,0.5513434079628783,0.03809652538138398,0.09776297493608066,-0.6128867264344309
-5.7114906686246645,2.7494619978557777,7.855842273242652,0.8502524320636511,-0.955964249562696,0.43686735410176597,0.17278262561624624,-0.212950228264786,-0.5778630519942692,0.13524127152703758,9.924864138929644,8.371358915355984,5.79100837328568,0.17911440636180295,-0.38884537385032,-0.5053690235509031,-0.11188571983247819,-0.31684878235962166,1.1868431204370782,-0.3857948223191806,10.841115720102055,-0.48289729828827727,0.11539422814534858,-0.10240793568186926,0.0018376491754852906,0.1646567258486555,0.16174406311301986,2.592112500730007,-0.9951176450250832,9.980129774230441,-0.5047572228172709,0.051826674989628216,-0.006891217186775956,0.06555958820332543,0.2189859148801563,-0.5143278922562059,2.5706481163362502,-0.42219041401011054,9.659470723135085,-0.5349104616335377,0.03943998284779319,0.6707722082152489,0.02793288049978287,0.10335771707984977,-0.627849500377301
-5.342880090155145,2.582127364224741,7.3339849250784885,0.35678632435861585,-0.926225191805544,0.26135870457371774,0.15489502954595097,-0.21016175926104136,-0.5682452737975592,-0.13304218299592335,15.685640074140451,10.690451035894599,0.7978759023555626,0.04573329325929373,-0.10394118389722208,-0.4775129804918147,-0.13237096515163596,-0.31755972420262646,1.2528967457475233,-1.0196448738657287,11.548971629741008,-0.313442115835318,0.39400675477934555,-0.02303203775022576,-0.0004662670890939177,0.15505938807366976,0.1200312200730323,2.819315181082448,0.5235465823481189,10.251507847279134,-0.2734576213166723,0.07685354733209657,0.021012198059713955,0.06558175714006995,0.2204663012524859,-0.50798350152684,2.494810375363751,0.04522423209353731,9.687600007093085,-0.24836125366652725,0.06548517062722171,0.6414299815101525,0.038415377145431646,0.1099425571928766,-0.6221974312199186
-6.339997046536651,4.3808690966625194,8.718043349644166,-0.07453630639606759,-0.9705648781318503,0.23770816966763675,0.15407578323563062,-0.2153100871568685,-0.5643849183268707,0.49008586164655893,10.364295060858225,6.969989220099623,-2.807477659621391,-0.11535794310372731,-0.03362744658275252,-0.4336376107591154,-0.13458294807920232,-0.33455466225332536,1.1390003894021397,-0.3161325432886071,11.054708869377459,-0.5685552470627387,0.4676773835705637,0.015191432158291676,-0.015528737249398336,0.1460255213133262,0.06839318580538904,3.0611018852527825,-0.46562482679956746,10.585968145575102,-0.5480738229704433,0.133885904822002,0.13784215873076372,0.04879117652828068,0.22936372915758904,-0.5126130853518179,2.903868319556789,-0.9327026998656591,10.038867896959832,-0.5263068966846208,0.09300222627170614,0.4417063957299126,0.031125127263877537,0.12265054026306221,-0.6234934466335523
-7.26623599162362,3.504227928724427,9.105867859486333,0.3375685156230834,-0.9857634718835409,0.6900632791839713,0.13309044050201785,-0.2167916516327857,-0.5672810623247596,0.013329811922801539,8.954225028797136,6.033687879319832,-3.462744545312868,0.017769787333172964,-0.3180162735853478,-0.4049917235247147,-0.12224380093830793,-0.36885062075267866,0.5057961362552464,0.3635375392450198,10.580115130057797,-0.03952100667043321,0.31516024815378757,-0.014574851230755215,-0.030010544901167564,0.14481028262168072,0.021616455393147892,2.7059038357452825,-0.5325409258588883,10.959238611920554,-0.02093222491891914,0.15369154310178768,0.04306640052216021,0.026109415791738234,0.23415063082384283,-0.5181977852835832,2.7276959261577396,-0.38303722836365883,10.39519780504998,-0.037098176921514334,0.16743961052196615,0.46010153075854066,0.025999587397848543,0.1304818772181971,-0.6206129300866661
-5.365447004907973,2.834345621157959,8.23215134179485,0.9640447889526182,-1.0627377487923402,0.9588646134747545,0.11600258052709794,-0.23207645584463374,-0.5577896623393517,-0.10831084054543472,4.219978029396127,8.06874635219049,-2.2500761110425134,0.09333448868084583,-0.49313435584278886,-0.3772623167112889,-0.11799031768173927,-0.39151391583440986,0.4037588301764703,-0.9517306910533161,10.624418082680283,-0.4731030306338213,0.2529833492202699,-0.05012112528054969,-0.03167162534506702,0.13030862885081756,-0.027903254093771607,2.269821455490393,-0.36588695994652104,10.41939579415791,-0.46043583342919225,0.20356414636258088,0.02895318329715833,0.017782998460214184,0.23224136861728756,-0.524525771238681,2.1526988940567287,0.5160679291762691,10.16681926773938,-0.4557693119440663,0.19724941838981852,0.45760443408244056,0.02748226511325473,0.1309575787560854,-0.6237805821886317
-4.353820040373709,2.265584319084394,8.184629324247505,1.0150540599400812,-1.1221669479366756,0.7213265492484279,0.10487888758979784,-0.24564251078443547,-0.5575076467246391,-0.5765850462606797,5.229473139537967,8.083169339796024,-0.32664870622811576,0.10990035898478975,-0.2854451335922763,-0.34436532277405046,-0.1241128227243571,-0.40789956357554047,0.008892916231454565,-0.1848924066421724,10.494194056914138,-0.23720981023158794,0.35837363186352633,0.003265279595952913,-0.0340974154742662,0.1390182838007661,-0.0720959967547778,1.7979126377859571,-0.468011359880496,10.221400072439165,-0.235017312126117,0.19474932752203447,0.06889478140418648,0.005203568400064846,0.24965459845772064,-0.5289388407924116,1.7231604745710611,-0.017542873734009392,9.834334057192798,-0.26838282414828046,0.20079655691859302,0.5916268485429237,0.029469486856994284,0.1517109325899293,-0.6218771178762563
-4.552054376401229,4.343459954203894,8.790132075153279,0.3329720437386684,-1.0187031964112545,0.37176051934005455,0.08175172022151121,-0.2588807964238682,-0.5526976740793897,-0.6982632018496322,7.533789691395053,8.407470230289627,-0.5754605086108169,0.1625695738343996,0.04520546823871581,-0.32779738333548425,-0.14191775343202856,-0.42106688275049087,-0.24969531606439277,0.5493249485454406,10.811664900283123,-0.21162072122144568,0.34125602720077614,-0.03581563778377105,-0.04297858562933573,0.13288506711892134,-0.11548242406574966,1.8510376799386752,0.254487083416288,10.326599363007094,-0.2281061908911675,0.2659249629766821,-0.003624323519295148,-0.012656582321939861,0.24707126200551674,-0.5389095686475879,1.6865494884096581,-0.9168260254808328,9.183630072268326,-0.24698507843741738,0.26950112124396913,0.5325964457884658,0.02117222950265707,0.15221619372121278,-0.6224101259297706
-4.4966529249757325,5.038088287696556,8.926221443401344,-0.47198695443904537,-0.8994691962288698,0.34187857224421875,0.07943062583250304,-0.2437425445646831,-0.5496772627687908,-0.4604774598274106,8.150237843392201,8.673050419812947,-1.7904116295116022,0.1284024453479983,0.10585395140127501,-0.29273318725154635,-0.12434584133517808,-0.43717398376984623,0.28946863957858515,-0.5621571096718079,10.361606659152526,-0.2785362157623657,0.35454681696076046,0.005467835748624498,-0.03828698595477942,0.141797720685368,-0.15435204546727874,2.1392815122480164,0.4545576449893097,10.20347531336008,-0.28097082454250366,0.3188426330323043,0.05365813189939584,-0.014768422546242166,0.26074249869805805,-0.5455309185978269,1.9708338753365664,0.09535655900069535,9.975950814447833,-0.27443427907825013,0.32612221387185697,0.3832310426363186,0.029764335299664223,0.17123734648344086,-0.6236410526412443
-3.925259363206995,4.910142921122732,8.34026089318015,-0.7019900253055649,-0.7508625285089561,0.44813810608073634,0.060843042140512074,-0.2252247206535806,-0.5528904709927676,-0.14329275655161847,6.443900917216814,8.12709436047559,-2.624008412319004,0.005500021571147153,0.034755105679813644,-0.28505976865197186,-0.10014329130013161,-0.4623231673112016,0.49263287289308366,0.37505311221606835,10.242514833851164,-0.33482072590456013,0.37261825547111416,0.08233377842299565,-0.04414103057610071,0.13494365090903032,-0.18237476457290222,2.2932731216742193,1.1645970118039066,10.037780022899385,-0.314114012640439,0.31852841052122066,0.1453016360222654,-0.032370760624215816,0.25599786098902505,-0.5401157989132085,2.0838513954306217,-0.7733937338663408,9.997363760046902,-0.30778219550905306,0.32869606793563433,0.17533988602790837,0.022880123974156934,0.16785650845790673,-0.6158552622079703
-3.7425140267476573,3.82337190048077,8.556646434619939,-0.9735912838615421,-0.7131450005627257,0.5971264973581594,0.05548676888406533,-0.2070403018579579,-0.5613520895653386,0.3367427833229252,4.127709834044677,8.621993033168538,-2.028623268614517,-0.055612640409370535,-0.06629298025773242,-0.26052840960816226,-0.07856402448274054,-0.4852977170584228,0.7126911824998642,-1.1261311282906785,9.840512677825618,-0.45491207106003057,0.43264642040912743,0.18493994320330673,-0.047968303938308116,0.14904263703571902,-0.22315272917157214,2.3876891065268477,0.47069430411388774,9.520821371751378,-0.4077214339268567,0.30367101147927394,0.2631164625290148,-0.04448516836251233,0.2731357345203711,-0.5560041130457367,2.0980314443520696,-1.0272310395353421,9.742042420105863,-0.39020333648428757,0.3067234581613439,-0.21087900729820436,0.018082237781808744,0.18419627533923194,-0.6254488478436554
-3.874723298588972,2.554544907423179,9.467816009086524,-0.8470326314475721,-0.9132544241355361,0.654683394933667,0.04691887210137845,-0.1915193750836129,-0.5686428120800586,0.20019727853205868,3.085750054363353,8.91195750989259,-1.077090028861563,0.04218123798879978,-0.13507960671296557,-0.23913406951917127,-0.07377142645049903,-0.5047694907387518,0.015916525034019594,-0.653571728651048,10.45418528605462,-0.5383930194879969,0.42904910074512254,0.2696167858097845,-0.035294249549855335,0.14520606791082524,-0.2586300042601194,2.244718361890577,-0.5127866251406071,10.73405271828256,-0.4786822950309798,0.3125473798588329,0.3732606771376437,-0.04256091536908015,0.27235899492558696,-0.5687008442793717,2.149143214926351,-0.5778847435676806,10.354944569321301,-0.4708444612280868,0.30392606106195463,-0.36794388301369757,0.02444940890568297,0.18539457492356576,-0.6285929583673946
-3.4197079213784023,1.9019772036653693,9.758223314387514,-0.8110513028045412,-1.1337978019381842,0.49113810817345294,0.03381742144452073,-0.1833319498783852,-0.5689503623925666,0.21073043309661335,3.5278192645739406,9.013671852070603,-0.3971276118483733,0.32314614258421315,-0.04253362026151894,-0.21842861517196036,-0.07812240255581912,-0.5169855465754979,-0.1650366129748363,-0.6269764233233402,9.778124428835188,-0.4081337154956797,0.2443581444960272,0.27300829760128226,-0.04043809022056913,0.16106898948856127,-0.2791384897276742,1.9818074471234688,-1.0689347884647642,10.354509950931515,-0.3645584173372836,0.3373815360962307,0.3219409595514101,-0.060253488601357964,0.2907936033450467,-0.5694459200081863,1.8880193678034147,-1.784940651176497,10.138229058728788,-0.37238139268125847,0.3339744410756827,-0.42095804286644967,0.0141994354731242,0.20276864860435237,-0.6223488584029131
-2.8222098663716837,2.1012767067781115,8.960132283158494,-0.7822144771360747,-1.3414428613470117,0.22695139648365026,0.009294847629245104,-0.16530030439210633,-0.5646548975130085,-0.2617288136192727,4.631436201035174,9.392647383871244,-0.5528748806989288,0.47943616335691785,0.19081495069502316,-0.20820505696900873,-0.07136574078314822,-0.5220398002652713,-0.24511285540940997,-0.8189428519279509,10.199128824490804,-0.2646456572234602,0.15899222810506786,0.26781204231503275,-0.0414852801654683,0.17469137544456187,-0.30528464208485784,1.6540991185997975,-1.1716787228987389,10.363871939515596,-0.23586882127082587,0.3364170183071969,0.2766420240375752,-0.0709140220103254,0.3040371086912899,-0.5762944168929279,1.66405526956641,-0.048684634378979366,10.631519253343788,-0.24745879674477259,0.327072379260847,-0.38731998530966355,0.006916923101132293,0.21669380222514098,-0.6246243695958591
-2.250115613093027,2.94368322718735,8.004292408511313,-0.9623881831502811,-1.3620364501144195,0.23349108506838417,-0.00839914353325323,-0.1538814493666706,-0.5664471454449396,-0.5511138362082064,5.323788890893567,9.243391784324524,-1.1993355259222325,0.3976028002901243,0.3011558993117912,-0.1872877538082187,-0.06087737001955289,-0.5372205364531167,-0.02860993591883279,-1.3833238714930403,9.920866368252586,-0.23325094341390618,0.20835628869488937,0.24519472888260604,-0.02261084758640577,0.1705968428893698,-0.32591043326902563,1.4850824026901372,-1.1795321204200548,9.968135851284453,-0.2052242759337642,0.297699734371028,0.2561343341703365,-0.05998054145743981,0.29856963797213454,-0.5838693906839619,1.459294175342839,-0.8325298698467283,10.518218859293832,-0.2396579831714644,0.291847835491323,-0.2618189672029431,0.016181380788341377,0.2144812955205903,-0.6231053331103754
-1.8927897479672573,2.8768388890258367,7.802648050068363,-0.9494424310507296,-1.224874341130035,0.4163656446619284,-0.02557724314910566,-0.12481153841740114,-0.5786024310437808,-0.6928812916881124,4.494575033714894,8.68616406201019,-1.6491175590412144,0.157208445283847,0.2244877208120336,-0.17742617913254838,-0.030326084036764452,-0.5624991180334596,-0.15452136114362036,-1.112034965040343,9.708197059884965,-0.10792996088338025,0.3029205230498957,0.3704853883446547,-0.017351259736555047,0.17660767025740393,-0.34964019188561074,1.3967248207968215,0.012413891487502415,9.703545231232203,-0.09270872119344872,0.24860710113120849,0.3009317079667951,-0.06310726612580814,0.30736081651652225,-0.592186010829725,1.1456898104979545,-0.8013292854261405,9.919515354246426,-0.13434169259298437,0.24190790601937065,-0.3499395527838707,0.012784510238277652,0.21594268259982563,-0.6265454439037589
-1.661142419632896,2.2561577978784992,8.445577547860076,-0.9446333567380227,-1.0732054492459482,0.5356949802375026,-0.030215809810148146,-0.1177395441313785,-0.5712684619172076,-0.49991078349825696,3.859847667058622,8.861246516689526,-1.9290553138827966,0.009417845620626383,0.17222486537492562,-0.15574617071470148,-0.01405795766480713,-0.56900087151603,-0.3225143226737642,-1.077622664953775,9.66544028040985,-0.15451544057740854,0.3461705105373577,0.421676335210401,-0.012772618616138995,0.18726872905393457,-0.3706904055383828,1.5528157913573386,-0.330595254790097,9.688962035135733,-0.0723672149956109,0.2172577101481427,0.42544984805728236,-0.0703929100258414,0.31616968172278287,-0.6053770029356978,1.2684294691656361,-0.5894650755504429,9.912934789157672,-0.0889944801199226,0.20734827755158322,-0.5500132842482773,0.004511221508092201,0.22523406549369449,-0.6280797445609013
-1.4862447699861512,0.9942367778162782,8.513866831383687,0.05947691845500789,-1.0325963668308746,0.3591577394972491,-0.05573932248245168,-0.10238223463091461,-0.5672463273130798,-0.5208916264323445,2.5268496799034295,8.358974034230075,-1.78947990646527,-0.052538372093391676,0.24626745753514562,-0.16020763205819388,0.022482160481077013,-0.5733297326324612,-0.6637454645321157,-0.5842141139093702,10.700658791118242,-0.33504863561544257,0.3077097816928782,0.38407634116637757,-0.016441976601616073,0.19727918730370353,-0.3831388706085852,1.6146055986817553,-1.1352679482362913,10.772184413988226,-0.2566323969244892,0.24392629421570589,0.4903282167293499,-0.08350462698376725,0.3269993243068028,-0.6078210782041014,1.6556510980558166,0.23687831025751782,10.206857980076782,-0.2716059848038274,0.20786473266285252,-0.5538830551973438,-0.008670307424547923,0.23601606394940305,-0.6240300091005201
-1.440146850396913,3.204535225049333,9.535917618801658,0.18557499990676443,-0.9082282327188447,0.137109907545036,-0.06293582995859832,-0.10676387003590275,-0.5595334707525361,-0.5827688164358585,2.1039656530564743,8.506845276349605,-0.9597571943218739,-0.08937534937935435,0.3974576556461366,-0.1465641926674984,0.034654539926209635,-0.5763027393993778,-0.936537928401908,-0.4530062924413299,10.709897083138905,-0.7427009633524958,0.131854981328192,0.31859624876984477,-0.0031141799132189656,0.20274629478343412,-0.4044813180136469,1.4214157692899902,-1.5083753730587572,10.83124986001997,-0.6815518991891858,0.34546894277888457,0.39205905107248035,-0.07762146643315553,0.3323088650893354,-0.6159009034258712,1.6509914981910168,0.10237315991177019,10.086960228515013,-0.7291731245059386,0.2537775967289395,-0.26311053944821466,-0.005706771340225396,0.24210149372356518,-0.6279381216041027
-1.7362595497437854,4.037684959840402,9.566423436346474,-0.5999326741770328,-0.7967236088619872,0.111494392871236,-0.06716923063548541,-0.09811640296916832,-0.5675670964619327,-0.7287430683073735,3.329809783093305,9.080929699021741,-0.9427544644361411,-0.14025348030384555,0.5015592638376681,-0.1410152820255129,0.04370480294477941,-0.5889494480613962,-0.9903997665411818,-1.9697281148305947,9.919493792519209,-0.7506319820659427,0.026652173325387017,0.24708736173828832,-0.007990781130327593,0.21350062345553655,-0.4157022951717063,1.1060496725931759,-1.8076019945840383,9.800570686062436,-0.6840451970262968,0.4145735548128154,0.4071657858134944,-0.08192589790386995,0.34624449301739196,-0.6205658306455277,1.1693965122740764,-1.251727312188794,9.05753536696528,-0.7431197406054705,0.31484622030446363,-0.1737546647674572,-0.014950989828384876,0.2548136373886899,-0.6292444021943276
-1.5359027014638627,3.656910414998192,8.366012887443082,-1.3553457776524924,-0.7106496469189002,0.3426003009566737,-0.08172619361177987,-0.07251427798824453,-0.5765490040192364,-0.61730992477314,3.002641412666792,8.907356178404283,-0.9153811786974825,-0.18153907173189737,0.29309696315405354,-0.1388944796686638,0.062278061217533265,-0.601272014819047,-0.8554246206954257,-2.5003028148578794,9.158010091291878,-0.6908880857891015,-0.008849455888063412,0.15465766727891705,-0.009621799973247382,0.22790807314737246,-0.42036171551239865,0.7260854931349816,-3.652023259981421,9.304540867715215,-0.5776554397118847,0.4580936499849718,0.42516228591176236,-0.08377564011078824,0.36138903911751197,-0.6230402267717142,1.3584217439015536,-1.603904173675912,8.896673475371086,-0.647711333138907,0.35930165828779853,-0.030079973804142228,-0.015925496807721953,0.2704582613153903,-0.6231906351572392
-1.3402830491071989,2.432928113479674,8.029471499389118,-0.8754928357773568,-0.6568091820552789,0.6232939600087567,-0.09411441408283625,-0.06095696992432572,-0.5712094075104938,-0.3214431517873703,3.0180643437333066,8.27104053761875,-1.0252040870181047,-0.20512280387834617,-0.020557103892820266,-0.13769465119616123,0.07226042221452347,-0.6029296051068866,-0.7288769879073883,-2.3662619295137763,9.025553684006637,-0.5180031329043459,-0.1436085400499939,0.07664512069265601,-0.012300198423874635,0.24643847367709093,-0.4404034454763486,0.9614955751832903,-4.589417027563888,9.714221475624054,-0.473492088467279,0.49771569555537737,0.19564722384107902,-0.08901417208408825,0.38215852357814456,-0.631382051752152,2.046440998619959,-1.8119998091947929,8.915462620448048,-0.549947252942761,0.4218360604533308,0.46914619291210774,-0.015606889427510628,0.28850386266130085,-0.6300772562011
-0.7390722640441937,2.696882609569974,9.091264533466212,-0.221557261351559,-0.6367838020924843,0.6424364655069298,-0.1007510383071209,-0.04062698939315985,-0.5711216435768173,-0.15891625038586638,2.6784866062446504,9.009078158055479,-0.9804344732546028,-0.22731212005643112,-0.05500052304678711,-0.13751565923482376,0.10169124589526549,-0.6090983182101889,-0.4361660742634687,-2.4403632546651255,8.843659308971137,0.08465622342838575,-0.18903039941726416,-0.03678928383364923,-0.0046991510451610315,0.25101947531949514,-0.4407091785279497,0.6175216344612724,-4.402094262147176,9.072757556200054,0.05596859658009161,0.49844444905483054,-0.08363832173281201,-0.07828559814056656,0.38061351219127526,-0.6328631509901612,1.289589973347827,-2.133757958796827,8.842511116555405,-0.04713127377613688,0.5103363967930352,0.9917661218283979,0.0033980626364904787,0.2923946985071599,-0.621199621411045
-0.8707677484681564,3.1423044419920263,9.172914161579998,-0.5682357033732047,-0.5525847592872936,0.5522822643561561,-0.10883307158508104,-0.03451181657598451,-0.5621192913003273,-0.3936721996444326,2.695693887409074,8.84509519939319,-0.7472472529047249,-0.2716337212149895,0.021360306042735023,-0.13751790938117844,0.10708419010131714,-0.6079782156580735,-0.6205231113284583,-1.6533822998724588,9.009603987997737,0.4557969681116589,-0.06061186327058715,-0.19770700022277177,-0.007547221871773353,0.2446550025852866,-0.4577657784347926,0.3498473896562959,-3.0762907030233664,8.373811315328323,0.42732680989803135,0.4684796074572915,-0.22903316624024975,-0.08151576289751808,0.376692843238091,-0.6482287184577975,0.43647318556433057,-1.7234850088209537,7.99100123106196,0.3375259838313969,0.5286298669038366,1.356457173939848,0.016869821096544287,0.2840315776295116,-0.6330679671752957
-0.40721315194992325,3.530137910944835,8.553657545142315,-1.1306460526950541,-0.4583739883040107,0.563511339269555,-0.11505289105683394,-0.02247979228449303,-0.563066151473617,0.07049485914048849,2.446361490210609,8.03899481454263,-1.1228835870921297,-0.282924610599826,-0.06256422217248842,-0.13802056516194797,0.11536934175067874,-0.6088645752426327,-0.35531351773190234,-2.166584330136945,7.74538780238795,0.5283378590929906,-0.0944522063490723,-0.3000720694063804,-0.008419160576315522,0.24315481686550716,-0.4770441770898078,0.5634182722395217,-3.0005662304165988,8.058348713313364,0.4960542531478768,0.5505642687833795,-0.34140332639551824,-0.07765799566771059,0.3727314399197482,-0.6592122787526222,0.3618983922882011,-2.756231148921384,7.786676888494843,0.44521545217910463,0.5911013810054745,1.5082213679740042,0.03302892320591266,0.28421656166026066,-0.6415288629273644
-0.5244528428014363,2.0613984587880343,8.092906038733293,-1.5865556593828603,-0.393377641844871,0.6303986107771703,-0.11869658159370135,0.007075822531291567,-0.5599514172742804,-0.017875301260497065,0.952305637913699,7.398499135573554,-1.214148852288359,-0.22836004097937582,-0.21393772138816008,-0.13928756026712213,0.14168889367792495,-0.6115501382659957,-0.6395955757427243,-1.5854667416932586,8.171471670487325,0.976104527393851,-0.18448960523289704,-0.32784146743698644,-0.006901643431242601,0.23138992046352183,-0.49241021618142033,0.4970745146178721,-1.640180061556689,8.49319726343662,0.9319148533487566,0.5509730713303396,-0.41075496039217574,-0.07143417292613516,0.35922223554277755,-0.6745720320573692,-0.07275328689501376,-1.5538819564844504,7.831947020319982,0.9007939226234221,0.5740146834159098,1.5541851246426988,0.056967092656967803,0.2672929057973401,-0.6506314909306393
-0.13042729849321807,0.690961970206777,7.594881511232201,-1.1590444671722882,-0.42329356877198243,0.8113320502011399,-0.11548659440644635,0.03900111847276118,-0.5562661017779841,0.03816917925657223,0.158338077860134,7.476436705577761,-0.7024401351129961,-0.1728081702088611,-0.41650481283353863,-0.13637660802575766,0.15462586842569512,-0.6120492148373271,-0.46512596913286147,-0.998683121832857,9.368113130700836,0.7882212965219081,-0.4869974994403031,-0.31019104578987206,-0.021807881473641044,0.2285754607638399,-0.491084458653733,0.4622413924933426,-0.5862841332936589,9.811089517223197,0.7504804857314354,0.7138537515847868,-0.39564810336792255,-0.07803854598163953,0.35731701065180205,-0.6738231804976226,-0.11649940383154893,-1.3525956598888944,8.731743708649526,0.7617959350060394,0.7046315728472412,1.4298609268226392,0.06449521797088373,0.26069894767695634,-0.6456908373742156
0.1934531634651077,-0.07897717740682743,7.567693677598426,-0.3930232790611715,-0.2500454643044032,0.8492201701495318,-0.12040656876381624,0.04483471606855316,-0.546258785433769,-0.15956799992702153,0.8913486792360302,8.582833788953826,-0.0301042756289346,-0.3073513436695694,-0.43328098489244526,-0.1436836477370797,0.150761313366008,-0.6092600533418576,-0.250498506614738,-0.4453886089446202,8.7941930247995,0.5565178340768593,-0.5228565143649964,-0.333447314893204,-0.032218888315475536,0.2220264333458415,-0.5071140851440034,-0.2179919737588305,-0.23109656682692056,8.499712563871237,0.5489051520283549,0.7315142153310944,-0.3054167007978801,-0.07277863030653,0.3455249034288164,-0.688696321501874,-0.7784854299592998,-0.7788308624658455,8.796861534102135,0.579061540749032,0.7046875778983941,1.2712170646376846,0.08086880718835789,0.24818920441130948,-0.6538689025222209
0.062161774284469395,-0.5860424350323619,7.863680247403828,-0.35873401974138697,-0.11655070137255591,0.69599556159702,-0.12151671729577687,0.047838875561427865,-0.5547926627458915,0.04195620624559796,0.2583316051206513,8.553851937427385,-0.49772569656871624,-0.4665945186981086,-0.18084270238543398,-0.1488229778548573,0.15438391271753357,-0.6110153635363335,-0.058477684262016216,-0.29004371721457467,8.465173018895051,0.06675280528750424,-0.36064314661465613,-0.3398633898658816,-0.030288260224048413,0.2215173015546013,-0.5100559586952869,-0.304873219567405,-0.6380019731554193,8.52460832659081,0.0649816564696134,0.6959018956045927,-0.3238730060323022,-0.05858959403589521,0.3502976196506079,-0.6921521858766517,-0.848211667028323,-1.7399822571765702,8.852171314302595,0.12624729790658204,0.6938495531407083,1.1173916063989051,0.10479018230491645,0.24496286625576538,-0.6542230601692838
-0.06940027378955234,-0.5733450453265316,8.26435608047369,-0.5057882767821129,-0.015022269388963484,0.5183090166389025,-0.11673268469955733,0.07092196115704762,-0.5460305912725695,0.13666827769807893,-0.5758474521048845,7.883580065369118,-0.6413065778411737,-0.5532122798337716,-0.06853707927657249,-0.15614931703467133,0.1757295946758047,-0.605035205013463,-0.11591699387525131,-1.7914029510377543,7.569228758636058,-0.10673528234644014,-0.3091197201245032,-0.30364355505357693,-0.04034127345494281,0.22961602837236814,-0.5256316937633551,-0.3696524876218857,-0.920661622027523,7.85193698786749,-0.089369344031079,0.6308354768338622,-0.29522419798053207,-0.056124464090683314,0.35732662344909094,-0.7063338952924496,-0.9166927286350182,-2.4513398446526447,8.500455177725897,-0.003779233549653059,0.6416806085207147,0.8877050213929526,0.11462239701747741,0.2507723900317582,-0.6644424466157527
-0.509466693008542,-0.9159419833645911,8.757629529535894,-0.4828329660415378,0.04901187946352019,0.3620829270650365,-0.10972763782760275,0.08019225126796246,-0.5541970633126364,0.05610501010438369,-1.6486465439128284,8.067874277439595,-0.5146218025714229,-0.5270813819073367,-0.042752965438572404,-0.1552119535251848,0.18391138512546287,-0.611541812093114,-0.4894452448421842,-2.2472889188689598,7.386671249792437,0.47353783204325867,-0.3304628236494374,-0.23491299531190557,-0.04663338860639803,0.23163027189147592,-0.5194898504759894,-0.8919281998520392,-1.3696650162056785,8.077683454816547,0.4845529243440048,0.6036386798346807,-0.22023847366460975,-0.05026065538168057,0.3572914277461451,-0.7036596449887723,-1.340004843830032,-2.5217355939761625,9.277934417127378,0.5779272020481786,0.5092146920859101,0.6187095087014709,0.1263029428583307,0.24832310145193848,-0.6582699642696874
-0.8250479623668472,-1.2523312687879775,9.67810311375629,-0.6992098350582735,-0.017433124130442495,0.11050886801897208,-0.11311818683672996,0.09235970206884941,-0.5443723166276221,0.33107453776346313,-0.8786338867034789,9.105651300803643,-0.09897326262545658,-0.4165641231101618,0.13705808236924377,-0.16155003744075008,0.18885289347660816,-0.6079437446264293,-0.12179664089967177,-0.9339333350594431,7.68813471046302,0.9068317097677947,-0.3281685634636188,-0.1808506324645921,-0.056348448452569984,0.2126435872472868,-0.5269519770098539,-0.8517358442368576,-0.2783420160651573,7.927131105544294,0.903358388489226,0.543098242674795,-0.1180646287746585,-0.05359980005438532,0.33629685644107954,-0.7121474832631074,-1.0978724730719898,-2.237814261819971,9.091020784476513,0.9685861399046303,0.3739209984112846,0.2582320550837092,0.12456904234253391,0.22414207417267187,-0.663336246804316
-0.6478738163909427,-1.3327455915369657,9.398211568829456,-0.6681566884613994,-0.19583080845850376,-0.09183258497279242,-0.12008323218785111,0.10220936811927432,-0.5463184890125696,0.4361661005117935,-0.7452829048683913,8.96242502374621,-0.07219830374644481,-0.23946988206431266,0.2929922323923286,-0.1718321234401149,0.1872429656645221,-0.6149519692904607,-0.0617881169707781,-0.7221438950781359,7.728072881506268,1.0274668939768006,-0.22009126307038795,-0.1456911485154403,-0.06139897515704292,0.19996269807563805,-0.5376340176774309,-0.8699684707674701,0.0814543211710178,8.29317111230753,1.033212443069015,0.4583167674679039,-0.07426759860214026,-0.04613020221372799,0.3245045229550551,-0.7206776819157318,-0.9842514881919775,-1.3385184981291838,9.299586889219588,1.1085274141786525,0.246977980948536,-0.08141774488386798,0.12873783438622058,0.2055475949814293,-0.6742468118448143
-0.5293136149827543,-0.7935060799716215,8.838258647412111,-0.148461427529933,-0.2294901977359869,-0.07359071067649835,-0.1222780325225691,0.10828837190952141,-0.5401907984680919,-0.009412869846585271,-0.9135369474414061,7.916023023640513,-0.026084329225842504,-0.13056244447251522,0.16420865441321675,-0.1671696170867645,0.1944788495599184,-0.6070490766708365,-0.29146141222692185,-0.8469855600653328,7.28815349591908,0.9181751726161317,-0.20693519793409249,-0.03676948414534569,-0.06349855077688056,0.19457128547590102,-0.5534776980073285,-1.1689156901166897,0.6102706840873033,8.56777022106129,0.9244006523227939,0.32945382186146493,0.049473455782540636,-0.04062199567964988,0.3134404691073641,-0.7360420539573524,-1.16536453525197,-0.2905031619103012,9.601418180519328,0.980116782209122,0.14679759666397346,-0.39849561959414026,0.12950851151207338,0.19428052408780733,-0.686173409190486
-0.182165558432992,0.16658391496160113,8.161539576602925,-0.16657862748511384,-0.022035010299189774,0.043314557717818954,-0.1190593894275623,0.11119946216269107,-0.5418478280890902,-0.03517081825118,-0.5790988023076554,8.324101920435586,-0.2606535031883565,-0.17126150522231773,-0.06429632544417657,-0.17109559283938758,0.198314961456287,-0.6105228866697218,-0.12327595836079641,-1.031051567564081,7.892327995918308,0.5366913876760907,-0.20390296774379335,0.1428691013920984,-0.07483487645269019,0.18366329208355375,-0.5567963846940296,-1.1607710660696564,0.8886414853093495,8.575497652402204,0.5144706229671748,0.17518544394630936,0.16929128725986292,-0.05241322996688073,0.3049637350693344,-0.7423466688569429,-1.1223031016019416,0.6152071093825633,9.403406201044321,0.5424586910907385,0.08200328850185054,-0.6097685947078653,0.11364729857871644,0.1852665497120007,-0.6913576708770727
-0.3191497953615891,0.0260904211962915,9.682791761480798,-0.7966630991346517,0.13323075509937812,0.18464897467037705,-0.1153345238446972,0.12041786577634876,-0.5388139717633408,0.2546040522493799,-1.023477512350684,8.440153367905564,0.2852742116398615,-0.1560330555264381,-0.00393781936342686,-0.17231396263351847,0.19341292636793125,-0.6114019390215635,-0.03819171350531361,0.33476852473296687,7.933803974075025,0.3620021351266457,-0.13298957206461837,0.24553860581753623,-0.0716634436732531,0.18461304714650156,-0.5582846754740579,-1.1101509533843157,0.33098314412835955,8.573728303089606,0.32630911484816405,0.07787936173976906,0.30379049010134246,-0.04214887237226789,0.30563081539296766,-0.7394382649971368,-1.1563455927969146,1.0838251962392558,9.372523257045836,0.32176207095305964,0.025947399382157746,-0.6992881960016921,0.11657579500115742,0.1869721215186053,-0.6903712173727117
-0.42469010208952884,-1.4570513089707613,9.952592327554806,-0.9721523716384819,0.2221134542379181,-0.0062768344071917545,-0.11103317274132966,0.13842259448686256,-0.5359545423191407,0.6225756025041385,0.08701362678283425,9.671657511499914,0.5218229236774236,-0.1366931759569043,0.07586768825106341,-0.1696247976573527,0.1850802723856562,-0.6132115197306338,0.36205249211962265,0.681236449956485,8.595636750872892,0.272297569289185,-0.013854640910336627,0.20993323807926922,-0.0673154474950017,0.17774555708985984,-0.5575658433964218,-0.940627422620847,0.024038276435506597,8.887307139517553,0.2435889443220779,-0.04068519433199103,0.26578349336861334,-0.039747215244201696,0.29951375247487505,-0.7377188333191381,-1.0047323539531958,0.8237477534637124,9.961934263051536,0.2298037199028158,-0.06834263154319176,-0.5873411260524668,0.11631748148353696,0.18209179161547878,-0.6896254505436934
-0.4292476941122065,-2.1299091757029385,9.94809587099676,-0.48074772435287366,0.12898460701477035,-0.05154553187016945,-0.10827176381036081,0.14330039835583042,-0.538821417993433,0.9302448604741453,0.8437130339501157,9.819244989040763,0.6423900798930479,-0.01911624042057383,0.20346718546779555,-0.16989065533182696,0.17516105835983975,-0.6213259065717309,0.4396006662764069,0.6409747292375098,8.301834398229662,-0.44827909805791494,0.1667949198478289,0.16458994302003568,-0.0602476579561419,0.17720130016936725,-0.5588329347265474,-0.7735681181456249,-0.8541408550393372,8.835571128061858,-0.4566194624370175,-0.19257407030911441,0.11577928152009496,-0.03928698695623645,0.29705570018941185,-0.7433287369622398,-0.8463089668302943,0.594695973835708,9.751298951893242,-0.47201480433291143,-0.14399508604717784,-0.3484177476189024,0.11485739773265477,0.1825807887713742,-0.6903675389629103
-1.0573344964003648,-1.8319321776539779,9.97230845834643,-0.022847183115030312,-0.0470689894360508,-0.036981137072529445,-0.10711911608938897,0.14686863478166895,-0.5277972457777671,0.2845121790741723,1.3277995967163527,9.788148053433364,-0.20940742555110806,0.18764266761714332,0.25371052674963923,-0.16252371288395223,0.18420069059337565,-0.6085854816945094,-0.2853585631592032,-0.5862959724270884,7.746365361805657,-0.9934699313641765,0.26041161000296276,0.11731688906514515,-0.06134574206827011,0.18893929006955626,-0.5537238938786238,-1.229109480784835,-1.0845169905505843,8.05167209079002,-0.9877978844341877,-0.3020629744724717,0.021701588171973,-0.05139851662490851,0.30887672077562345,-0.7369870309311124,-1.3950306341623857,-0.19986429525096638,8.977329830870833,-1.0062472003399312,-0.20901516689001873,-0.1269680541041242,0.10314751886786078,0.1987337544282578,-0.6855925956690702
-0.8326866295601137,-0.6318153517371254,9.979297490925005,0.2421395053290967,-0.18018360743922282,0.06890217592477314,-0.11188274104644591,0.14967404537679216,-0.5375883243016722,0.17862774211277505,0.9675305645606913,9.281345091665193,-0.45910688767346686,0.3474585612533966,0.21137902516924986,-0.15842885672294285,0.19820798335477274,-0.6171681737848245,-0.35397771866773714,-1.0595768715200735,8.890519358231415,-1.016389960008368,0.2826920618056059,0.05527728868426322,-0.06045106161449318,0.21260972341741174,-0.5562222055105787,-1.113351491609103,-1.5712131370480127,9.054927465295705,-1.013030735255895,-0.3390706442705845,-0.028305024286014266,-0.062424408244378476,0.3384897381437572,-0.7399686174803022,-1.288212056906227,-0.5053014388445893,8.997084698558028,-1.045101969283541,-0.23281588694334335,-0.0029599022701340023,0.09273009849840128,0.2260869337448189,-0.6898764125561495
-0.6553570681420229,0.6161497796515233,9.346727238083963,0.45258779284944317,-0.21866355389238867,0.22507946397177148,-0.11368879890169992,0.13556457296667668,-0.5421043469246962,-0.2736586667612477,0.7826862789199127,9.846429731869465,-0.16797872595309685,0.32988212481661966,0.02300614843137657,-0.15429907933220535,0.1878056086933935,-0.6252922649405939,-0.4616826492326847,-1.4833530683247957,9.191315548891676,-0.7316484480881237,0.3520021953274329,0.013133998511808374,-0.054257227903307496,0.22233447288672029,-0.5538436082942845,-1.2571848474149774,-1.5415179531683405,8.912002712446618,-0.7195275783680475,-0.3578469551638778,-0.04144141652688687,-0.06310829946264655,0.34412047305183113,-0.7355860165177944,-1.4133067068292422,-0.40377555989090785,9.104027706531065,-0.7591970012087972,-0.27579748686278355,0.1560044241447725,0.09222310369406173,0.23636449098236964,-0.6820966453682935
-0.32649412016088514,0.9499228562003222,8.785204173212799,0.39282630477384783,-0.14098311164203264,0.4703443815115199,-0.11860046862213489,0.13849735093198975,-0.5360257359021404,-0.1632405518256081,0.6354397276318895,9.542542033543514,0.020330308008846196,0.23255608562374896,-0.080466925289991,-0.15574976273870755,0.20014585494943596,-0.6181921318436492,-0.5484641317181179,-1.6362989271762047,9.642848995187558,-0.07992680591337029,0.4190959483238015,-0.016824971829395834,-0.04475608207254785,0.22249947372312912,-0.5570815483225466,-0.9577638913553901,-1.4967559917443487,9.167988207879151,-0.08023351503646137,-0.31040183341767563,-0.0229262954233667,-0.06772827058670812,0.3475642891032488,-0.7385158531714041,-1.2374083125752748,-1.8607378021489613,8.573547202087912,-0.12793361290634697,-0.2972226077277651,0.16250187770987776,0.08885685519018874,0.24074345085571106,-0.6901831134748181
-0.2840130905660547,0.2948870711017438,9.105438273660974,0.26140478276710805,-0.024461163784418833,0.5352197331552648,-0.11323971123645288,0.1299578470398688,-0.5438507703128193,-0.003534798725058075,0.7030640067970977,9.195194243415273,-0.138292054513402,0.14083781313984625,-0.10557987882853433,-0.15407679315656825,0.19286793719649992,-0.6288067788447854,-0.4949157011980886,-1.0162881995441377,9.72960929110681,0.5995035357505558,0.3504951181029854,-0.001171098013134221,-0.044361234788888614,0.21004515618654926,-0.55705721068448,-0.6527784952942354,-0.5618798981609142,9.618180029147151,0.5927236717695851,-0.19317059532567188,0.007744003067320083,-0.07367610053957614,0.33491314866020666,-0.7377420997596575,-0.8432014799724884,-1.7058017485011947,8.669180505305647,0.5581057387048672,-0.2600379059370954,0.001244304843969328,0.08126005182705134,0.22953075588719593,-0.6894585472564085
-0.48476160943054547,-0.3245974638542062,9.516676492090541,0.03017262169787547,-0.0013297765453776922,0.3806717628656166,-0.10622103174161483,0.1283868321392809,-0.5389125151218767,0.1880070944350475,0.48164383835447205,9.240641589019631,-0.37981417622740093,0.11857747830067007,-0.09319535685083745,-0.14354468152877842,0.1984348174963528,-0.6191893291627293,-0.4832698252556888,-0.23874083766108498,9.498288575235447,0.8065900299909206,0.25795307542718815,0.043662352775605436,-0.03202974665205446,0.20090073428203303,-0.5646880120423535,-0.6039840426936857,-0.03167498018268556,9.745110772397604,0.7952789474965494,-0.12234279253409908,0.04181831029272843,-0.06863517510694508,0.3241214836680175,-0.7428522215271903,-0.7130535198736618,-0.9168303566742796,9.192280920138987,0.776490498141561,-0.2114500219509828,-0.18735562609326456,0.08344791558248095,0.21584457714251282,-0.6930695654724054
-0.4675022665924027,-0.4207585857329086,9.327925750389152,-0.1607209668613767,-0.07768100304322653,0.22564487093958613,-0.11248794333783987,0.13795895104407313,-0.5374368780670359,0.17841864356709636,0.36890565003055953,9.16403111640397,-0.2371800491323113,0.19377748620634752,0.029810644225564766,-0.14721749879173732,0.20624164389721306,-0.6193200498563566,-0.5292625194060566,-0.048467232410735805,9.180222992713816,1.0144229208529223,0.1862186884911446,0.01976304900220707,-0.037761005879094214,0.18897217587419177,-0.5685299636275757,-0.6261034462026012,-0.4734774576261606,9.510041328838433,1.0224509435997755,-0.09036071088427704,0.052794378842985,-0.0753195582555291,0.31292213091855653,-0.7496476691883872,-0.7547154320836905,-0.5843931888400319,9.313362417042306,1.0159388656199413,-0.199885883791032,-0.30002463384853023,0.06904614186735777,0.2029183945088532,-0.6989668718388461
-0.2505683595205591,-0.588588115261587,8.716846288257813,-0.07582605403636722,-0.12874092770794732,0.14428340078529825,-0.10664745481693627,0.13958279720015146,-0.5337062013859788,0.11310358967030121,0.5594105490963824,9.275588679318277,-0.22100244997473423,0.20614972237302256,0.11776488594097483,-0.13549265526163667,0.20800229947083274,-0.6174497591982664,-0.3879486606369783,0.5611160799873377,9.479660526768226,0.8093099383947088,0.16994305427824838,-0.03697218660199736,-0.03489313757630294,0.1789460595106152,-0.566330360694802,-0.5166372756490137,-0.3873313231721878,9.873338152321617,0.8060522310657049,-0.10721104257555042,-0.020802687154857204,-0.08270824109909529,0.3012799412524554,-0.7395966591090111,-0.5534861327688936,0.753141828285608,9.87240957828453,0.7912414516915383,-0.1859294368133413,-0.18837902171510695,0.0631286880263814,0.1887864885714198,-0.693585970741869
0.18812223075944595,-0.21468640202939304,8.168819847927775,0.24393284470279505,-0.17118074586785148,0.15221693579010234,-0.10589851413819815,0.13498677716517918,-0.5403256439378757,0.21839721984393345,0.0758769296592762,8.972952245799593,-0.2463964768924855,0.14725291873090757,0.07657093255406769,-0.13380470450447116,0.2125776320137913,-0.6209613974715983,-0.25072415011698146,-0.28737525945481807,9.43652512973512,0.3778945296474468,0.16574367478093094,-0.06931544199273308,-0.03230400188449228,0.17280551155725862,-0.5739025521346641,-0.2208779768072135,-0.5382312085236172,9.875434763523566,0.37428181905831975,-0.14502476620261978,-0.09909240150117778,-0.07960406060028251,0.29391040759542186,-0.7491055354941916,-0.2636864083301594,0.6287092770138331,9.896961401480187,0.35074540282903044,-0.18117734000425764,0.0444390247899613,0.061702042854015114,0.1809463089231901,-0.704068979119031
0.33373368032374495,0.4071130937950688,8.646243401731134,0.39440035583346467,-0.06456881464092208,0.1895923241386704,-0.105424805799872,0.1308511708103006,-0.5430380005677621,0.21874501488129677,-0.5346797231385364,8.610679314208031,-0.09444882642154688,0.05987025999724988,0.034352950520358624,-0.13211534593556734,0.2176510466072263,-0.6239932917621025,-0.21146648482903402,-0.6581760959552739,9.60365802410275,0.5820117084284019,0.09853818315481244,-0.08298946831256075,-0.022543348939107293,0.16834720044994178,-0.5695640255241519,-0.038205768424878744,-0.37805077763098904,9.694077690524542,0.59260851897716,-0.1205514018846357,-0.08298069692010213,-0.07793249527304641,0.2887701971477162,-0.7495841375314619,-0.16727808800987076,-0.35534124817804935,9.320368792101954,0.5643812700660353,-0.17836946003705653,0.11839923564676316,0.06754034878748129,0.17923472374412935,-0.7006153339429783
0.19462745621450095,0.42906143709315936,8.658052117941542,0.19571634535370205,0.08698379380478764,0.16594620904593332,-0.11792760492082019,0.12778512260406416,-0.5409811098224254,0.11150219258566912,-0.27198855311679054,9.012244009114934,-0.02321153949151293,-0.07027827273572985,-0.048049141123607066,-0.14234993427212905,0.21354784900210783,-0.6206990671197222,-0.2978047293771515,-0.670728533615977,9.517598146679392,0.866044176631542,0.05911394368873397,-0.029649143885785614,-0.033977173172383954,0.1530231826981009,-0.5826387362415562,-0.105498616672698,-0.07390635526164031,9.498834091250941,0.8711361816613636,-0.06429024635522565,-0.02540942262319185,-0.08955538149834269,0.271485765121671,-0.7629486910343232,-0.1887301494257551,0.01645211584604008,8.965812021908999,0.8559499952786466,-0.15700867956131342,0.06175840018894275,0.05292395226683263,0.15847269938455927,-0.7152812706755497
0.03324132518854958,0.21964135131418583,9.009429395593074,-0.18145901123578567,0.1710910140302216,0.15213472626735,-0.1110052445278887,0.1389286488769581,-0.5383917033661704,0.2888666313615498,-0.40024049777662696,9.12515249733742,0.06925978902919543,-0.1529573936280349,-0.07013573217091083,-0.14675608173695118,0.22159667299351157,-0.6208311953666825,-0.3456012554653822,-0.035238502674165645,9.202678358470596,1.061627286565441,0.03150436157280103,-0.04595596092553547,-0.027057864049805883,0.13757475651785162,-0.5892426844408983,-0.14371695138931512,-0.6828097848443823,9.130842923063629,1.0673964542164618,-0.019089169006964606,-0.023174336684104454,-0.0837978302659954,0.25752547040523194,-0.7641464193996301,-0.20504715101732288,0.5192106520730791,8.875632324904041,1.0598467507884037,-0.1346805180548766,0.14761928852197093,0.058502971008925604,0.14112614986415528,-0.7154458507823277
-0.3700745718799928,-0.7756742774981396,9.578322077404609,-0.264729848326074,0.11267070572471534,0.09930445829744226,-0.10532328149363449,0.14401244960415804,-0.5400092732235462,0.24384519092339943,-0.03668865598514365,9.418595556421963,0.20649231779584523,-0.11112391743571418,-0.06643113368022745,-0.14309770599680668,0.2181474527903424,-0.6227354915447946,-0.5269732523084201,-0.22695859658582698,9.162393864522267,1.572577741907119,-0.03206791628387303,-0.060659660842420374,-0.029452452208830804,0.11122574441197426,-0.5889255999206426,-0.24329074852494956,-0.23838895779617972,9.162618180273967,1.5750541212540727,0.04525068265703231,-0.09531917877129091,-0.08621336672350328,0.22726481843714957,-0.7657774145219537,-0.3010209428352655,0.27989699723040284,8.797528172972621,1.5630219896382096,-0.13585856218172346,0.3504086203382079,0.053794890825443344,0.1084212362949401,-0.7153760051234282
-0.6603615640327118,-0.7571734045663971,9.637291373285526,-0.07390873932410606,-0.015152157667776087,0.0700730738553133,-0.10575165397967055,0.14527618585768617,-0.545131339085552,-0.05869129479448276,0.04088143272779826,9.798495697117568,0.23764735863063804,-0.02369152760456753,-0.04542852619932658,-0.1462916185348756,0.2136356470033815,-0.6287413763455473,-0.7902319562849853,1.221924837824382,9.295157396918242,2.005879509460317,-0.09447812244923,-0.05279534099435293,-0.03072923040918272,0.07631059450475695,-0.5942125705450786,-0.6126909941596096,1.409454692599362,9.147152645554865,1.9960308080678335,0.13442610814232084,-0.0733285860137831,-0.07864197232219802,0.1944838347577244,-0.7703507733345926,-0.547571683579487,0.5350020603010172,8.446702662651301,1.984889704462973,-0.11578728482546727,0.28089199326366926,0.054479273328622,0.07007086746867086,-0.7218536605232208
-0.3032850241524181,-0.708860459648228,9.478680261485465,0.3417768254358034,-0.1213463046831775,0.09368566767527366,-0.11063066572779308,0.12890191552456687,-0.536753347177009,0.1644302154262179,0.34705805304792586,9.887943297500016,0.2771027637430913,0.028495890105798678,-0.03580463020363133,-0.14599537315648675,0.19863438686126222,-0.6213800159533204,-0.4568408127288567,1.4367397289820485,9.307165120651606,2.0051033831021057,-0.11072545766549695,-0.048598858271126005,-0.03257941275377183,0.058498976217058275,-0.5951386473588953,-0.4250637309864839,1.533595909919006,8.95027192137253,1.9997058161345922,0.20390876437536196,-0.05743217737817337,-0.0788141846151024,0.17103937973334749,-0.7732224899877708,-0.31380339537178814,0.7963810070949574,8.332303612225465,2.0051542718095616,-0.0582673233803975,0.128464302683469,0.04955103600822332,0.04835169936117932,-0.7220607345011899
-0.07772174071522377,0.11980693131099386,9.489018197781844,0.43275363399323413,-0.13471051150871044,0.09301008375822238,-0.10570977546297855,0.12888444924381648,-0.5408571207977988,0.1139164885468206,0.5184969600677645,10.003278858670873,0.12054285006790849,-0.007192570793295621,-0.0437357319349884,-0.13870224848188256,0.20194692412298154,-0.6275783984334841,-0.37194604931734204,1.814120583150488,9.031929509368469,2.458191427402724,-0.057813879357428016,-0.07466740849529332,-0.034376188444817636,0.018706259706064276,-0.5996795592487838,-0.49336399409869924,1.4312977803664657,8.583052179987547,2.4589892027083815,0.25912724658754643,-0.06629006654510063,-0.07446464654863362,0.13023887925992406,-0.7721553720343503,-0.3513794638490607,1.1014016568009322,8.546247475368899,2.467959182510561,-0.0795133763312539,0.027251361657878184,0.04993385866381577,0.0012347863424784127,-0.7209454921945421
-0.12468662185374774,0.19587793212499804,9.627522775929284,0.09293653763353663,-0.0956627876769302,0.08048691202654505,-0.11764767045257107,0.128536362535986,-0.5439030995996444,0.12055100994681589,0.43094593650073165,9.987872216624085,-0.09597423764655025,-0.09317820047146715,-0.021949390858576945,-0.1499291094445022,0.20809008027086692,-0.6247151306379913,-0.39709411053766414,3.400841251354424,9.241858932845295,2.552702491230136,0.011418991641395997,-0.11968716088767171,-0.04005144884196361,-0.021534807627769593,-0.5995544622526752,-0.634757021181924,2.879907564635004,9.372332806169835,2.5282301689230082,0.25747526545074434,-0.1269374263391479,-0.07598820969545178,0.08752436914817127,-0.771804740816934,-0.2691047951594826,3.276745495554089,9.289106671263182,2.5335182462077905,-0.09380246311582621,0.03440180416205356,0.042499778497498815,-0.04488667326051661,-0.7188981282381164
