# sampling frequency: 40
# units are seconds/meters/radians/a.u.
seg1_acc_x,seg1_acc_y,seg1_acc_z,seg1_gyr_x,seg1_gyr_y,seg1_gyr_z,seg1_mag_x,seg1_mag_y,seg1_mag_z,seg2_acc_x,seg2_acc_y,seg2_acc_z,seg2_gyr_x,seg2_gyr_y,seg2_gyr_z,seg2_mag_x,seg2_mag_y,seg2_mag_z,seg3_acc_x,seg3_acc_y,seg3_acc_z,seg3_gyr_x,seg3_gyr_y,seg3_gyr_z,seg3_mag_x,seg3_mag_y,seg3_mag_z,seg4_acc_x,seg4_acc_y,seg4_acc_z,seg4_gyr_x,seg4_gyr_y,seg4_gyr_z,seg4_mag_x,seg4_mag_y,seg4_mag_z,seg5_acc_x,seg5_acc_y,seg5_acc_z,seg5_gyr_x,seg5_gyr_y,seg5_gyr_z,seg5_mag_x,seg5_mag_y,seg5_mag_z
1.989477,-7.527315,6.031924,-0.001772,0.002519,-0.001389,-0.306641,0.380127,-0.04834,-0.224091,8.289871,5.133194,-0.002562,0.008794,0.005135,-0.009033,0.31958,0.582031,-1.313723,-7.065087,6.717156,0.013678,0.007829,-0.004245,0.649902,0.134521,-0.182861,1.961964,-7.286384,6.319322,-0.003083,0.004648,0.01,0.128662,0.327148,-0.583008,0.448858,-6.420332,7.496817,0.020728,0.000965,-0.013033,-0.242188,0.394043,-0.407471
1.988202,-7.472195,5.996449,0.01467,0.001645,0.003343,-0.310303,0.384521,-0.049072,-0.255022,8.373243,5.115173,0.003084,0.008275,0.002624,-0.00708,0.314453,0.575195,-1.318978,-7.052441,6.684636,-0.014449,-0.003274,-0.000447,0.64624,0.137207,-0.184326,1.939578,-7.246139,6.303271,-0.004481,-0.008844,0.006504,0.124268,0.330322,-0.584717,0.430474,-6.309373,7.514024,0.021098,-0.002092,-0.000511,-0.243652,0.397949,-0.40918
1.987363,-7.461529,6.056244,-0.009673,-0.000552,-0.001348,-0.313965,0.380371,-0.044189,-0.216174,8.337311,5.152985,-0.028934,0.002718,0.005437,-0.010254,0.318115,0.570312,-1.27503,-7.141888,6.663332,-0.024743,0.006534,0.003234,0.642822,0.130859,-0.176025,1.962431,-7.302648,6.271594,-0.025861,0.002077,0.016423,0.124756,0.328369,-0.582764,0.428828,-6.258368,7.458913,0.010223,-0.00014,-0.004433,-0.247314,0.395264,-0.40625
1.967195,-7.549722,6.022945,-0.00839,0.003901,-0.001689,-0.322266,0.38208,-0.051514,-0.251032,8.270871,5.139963,-0.003486,0.012507,0.003938,-0.018311,0.309814,0.571777,-1.340157,-7.146588,6.676893,0.013955,0.008685,-0.001553,0.634766,0.133301,-0.186768,1.939368,-7.359157,6.275546,0.010096,0.007668,0.005704,0.112061,0.328613,-0.588623,0.441926,-6.291542,7.528436,-0.032936,-0.003885,-0.004504,-0.257812,0.397461,-0.409424
1.990001,-7.494686,6.015267,0.023364,-0.0004,0.002535,-0.312012,0.387695,-0.043457,-0.246727,8.369214,5.135454,0.00883,-0.000877,0.004202,-0.008301,0.314697,0.570557,-1.303996,-7.069552,6.708613,0.013078,0.001731,-0.001424,0.643066,0.142334,-0.175781,1.977301,-7.246568,6.354013,0.014781,0.003841,0.005087,0.122803,0.334473,-0.578613,0.448664,-6.461897,7.433852,-0.011404,0.001109,0.005894,-0.248291,0.401367,-0.405518
1.989772,-7.429643,6.059003,-0.005379,0.004336,-0.002253,-0.314453,0.380127,-0.048584,-0.198007,8.364204,5.115763,-0.01203,0.010004,0.004463,-0.011719,0.311035,0.564453,-1.32591,-7.062652,6.711819,-0.007856,0.011406,0.003177,0.642822,0.134521,-0.181396,1.942447,-7.283983,6.355535,-0.016827,0.006997,0.015535,0.123047,0.328613,-0.58667,0.387282,-6.297675,7.47409,0.069159,0.002672,-0.018574,-0.249268,0.396484,-0.4104
1.999424,-7.520166,6.013889,-0.009282,-0.001958,0.001154,-0.318115,0.377441,-0.049316,-0.249902,8.312076,5.158179,-0.025368,0.003881,0.005962,-0.010742,0.317383,0.576172,-1.298816,-7.105409,6.703569,-0.016854,-0.003788,1e-06,0.637695,0.128174,-0.182129,1.976089,-7.318779,6.342352,-0.014799,-0.010023,0.010112,0.120361,0.324463,-0.583252,0.478791,-6.20744,7.550664,-0.026841,-0.018314,0.002879,-0.25293,0.390869,-0.408691
1.979199,-7.522941,6.044228,0.003403,0.007301,0.001286,-0.306641,0.38208,-0.041992,-0.205905,8.313669,5.136971,0.002762,0.009343,0.004261,-0.011475,0.318115,0.572021,-1.300062,-7.182693,6.697935,-0.011203,0.009584,0.000794,0.647949,0.134033,-0.175781,1.984601,-7.339335,6.294626,-0.002968,0.008303,0.011331,0.127197,0.329102,-0.578613,0.459873,-6.433552,7.452143,-0.052049,0.024681,0.005941,-0.245605,0.397949,-0.402588
1.952865,-7.456237,6.03133,0.016491,-0.00369,-0.000547,-0.321045,0.384033,-0.041016,-0.287512,8.386585,5.107023,0.003511,0.006094,0.005819,-0.010498,0.312988,0.565186,-1.383593,-7.072767,6.694198,0.036401,0.004887,-0.00446,0.634766,0.133301,-0.174316,1.879197,-7.242866,6.341029,0.026125,0.004059,-0.000942,0.114014,0.329346,-0.576172,0.320822,-6.366799,7.442161,0.065378,0.002021,-0.010978,-0.258301,0.397705,-0.400635
1.992291,-7.441408,6.039266,-0.011816,0.00315,-0.0001,-0.314697,0.376709,-0.045166,-0.19956,8.338907,5.137901,-0.036852,0.001843,0.003043,-0.010986,0.304688,0.571533,-1.268094,-6.978985,6.71959,-0.015719,-0.001569,-0.002474,0.640137,0.129639,-0.179443,2.010857,-7.227272,6.332485,-0.030489,-0.012317,0.015331,0.119873,0.32373,-0.580566,0.482335,-6.16478,7.523084,0.028826,-0.037501,-0.009919,-0.250488,0.389648,-0.404541
2.006374,-7.577911,6.019763,-0.01862,-0.00318,-0.003325,-0.316406,0.385742,-0.043701,-0.235839,8.296063,5.15266,0.004279,0.008556,0.00839,-0.013672,0.305176,0.578857,-1.32127,-7.192006,6.675404,-0.047001,0.008117,0.012132,0.639404,0.134766,-0.176514,1.965407,-7.40417,6.295132,-0.018392,0.016669,0.017628,0.120605,0.330811,-0.579346,0.518897,-6.302445,7.526074,-0.081565,0.021982,0.006956,-0.252686,0.400146,-0.401855
1.971376,-7.508077,6.017107,0.033497,0.012249,0.004943,-0.310059,0.385986,-0.053711,-0.222238,8.376348,5.123237,-0.000895,0.007619,8.3e-05,-0.008301,0.309082,0.575195,-1.299803,-7.1765,6.697583,0.032964,0.000716,-0.009921,0.648438,0.137939,-0.1875,1.94978,-7.287827,6.359167,0.034644,-0.002399,-0.004546,0.126221,0.334473,-0.589355,0.363265,-6.554102,7.439588,-0.016797,0.008534,0.004258,-0.244873,0.397461,-0.413086
1.92567,-7.379492,6.08786,-0.00108,-0.005303,-0.000731,-0.314697,0.384277,-0.044678,-0.304438,8.357262,5.110358,-0.01153,0.006575,0.011553,-0.014648,0.312988,0.571289,-1.366331,-6.989585,6.717644,0.027674,0.015369,0.002257,0.639648,0.135254,-0.180908,1.943395,-7.212967,6.348543,-0.018068,0.009099,0.016979,0.119873,0.330811,-0.582275,0.394182,-6.298572,7.423374,0.128629,-0.008118,-0.015563,-0.250488,0.398193,-0.406738
2.005284,-7.522389,5.995245,-0.022224,0.000649,-0.003067,-0.309814,0.390137,-0.043457,-0.190357,8.340057,5.147816,-0.017843,-0.00356,-0.000254,-0.018311,0.304932,0.56543,-1.315262,-7.02182,6.722469,-0.039621,-0.015327,-0.0017,0.64624,0.141846,-0.177734,1.923665,-7.368675,6.333318,-0.027377,-0.011692,0.010016,0.125977,0.334961,-0.57959,0.423564,-5.989026,7.567169,-0.010305,-0.024592,-0.012765,-0.246826,0.403809,-0.404785
2.03444,-7.536669,6.020406,0.005259,0.001451,-0.002114,-0.318115,0.385742,-0.043945,-0.198789,8.297381,5.15421,-0.018133,0.016241,0.01205,-0.009033,0.311279,0.570312,-1.223146,-7.229602,6.665057,-0.040783,0.008156,0.004729,0.634521,0.137451,-0.178711,2.057521,-7.343436,6.294459,0.010321,-0.006895,0.003235,0.118652,0.332764,-0.58252,0.569087,-6.457082,7.522361,-0.168848,-0.000985,0.018907,-0.256104,0.399658,-0.404053
1.953946,-7.500027,6.029308,0.008116,0.006247,0.001129,-0.311768,0.383545,-0.049561,-0.260383,8.370912,5.101856,0.014065,0.000774,-0.001474,-0.010498,0.316895,0.570801,-1.368892,-7.191386,6.673955,0.044936,0.012737,-0.003645,0.642578,0.13623,-0.18335,1.895836,-7.248218,6.334295,0.004582,0.024583,0.00967,0.123779,0.330811,-0.587402,0.359555,-6.706481,7.413079,0.062445,0.041337,-0.001295,-0.247559,0.398926,-0.408936
1.965694,-7.439582,5.993494,0.010054,-0.004877,0.001609,-0.312012,0.387451,-0.049805,-0.215643,8.362203,5.137105,-0.032493,0.005755,0.007945,-0.011475,0.306396,0.563965,-1.310728,-6.915383,6.721985,0.028449,-0.00441,-0.009784,0.643799,0.137451,-0.182617,1.904493,-7.245801,6.266006,-0.014882,-0.021815,0.010021,0.12207,0.33252,-0.585205,0.34309,-6.094795,7.474295,0.174784,-0.037478,-0.029205,-0.248535,0.397461,-0.411133
1.986743,-7.503502,6.057028,-0.018345,0.003211,-0.00407,-0.307129,0.377686,-0.048828,-0.260012,8.270063,5.134932,-0.005946,0.007442,0.006053,-0.006348,0.310791,0.568115,-1.30336,-7.08742,6.69105,-0.075142,0.010843,0.016214,0.648926,0.131836,-0.182373,2.043517,-7.335053,6.273245,-0.01534,0.0088,0.012737,0.127686,0.325928,-0.586426,0.570158,-5.966249,7.604665,-0.095479,-0.017222,0.004089,-0.244385,0.393066,-0.408936
2.019873,-7.561239,5.992251,0.005858,0.001208,0.000437,-0.313965,0.375488,-0.046143,-0.180835,8.387581,5.129863,0.013599,0.000635,0.0017,-0.016846,0.321045,0.569336,-1.295038,-7.320458,6.669211,0.002901,-0.004001,-0.001681,0.643311,0.121826,-0.179932,1.934977,-7.341648,6.346068,0.017032,0.0125,0.005484,0.121582,0.320312,-0.581055,0.445748,-6.660013,7.468655,-0.166193,0.039654,0.020962,-0.247314,0.38916,-0.401611
1.976968,-7.444982,6.032037,0.017134,0.005839,0.002964,-0.305908,0.385254,-0.048096,-0.238276,8.35749,5.141731,-0.028733,0.012164,0.009135,-0.00293,0.306152,0.57959,-1.29702,-7.008846,6.708976,0.074361,0.017189,-0.008841,0.649414,0.134521,-0.176758,1.992347,-7.203102,6.362865,0.012749,-0.006133,0.002157,0.130127,0.330322,-0.58252,0.332433,-6.628613,7.401615,0.150921,-0.012245,-0.01834,-0.240723,0.396729,-0.404053
1.976287,-7.487353,6.000912,-0.017441,-0.001435,-0.002243,-0.317627,0.380615,-0.053223,-0.244245,8.284611,5.132927,-0.012603,-2.9e-05,0.003503,-0.008301,0.314697,0.578369,-1.368767,-6.938505,6.746665,-0.04478,-0.001922,0.00525,0.638428,0.133057,-0.18457,1.937207,-7.281266,6.316507,-0.044182,0.008666,0.023422,0.116699,0.328125,-0.590576,0.482574,-5.930552,7.56682,0.123001,-0.024634,-0.026903,-0.256348,0.391602,-0.414062
1.986684,-7.492304,6.01933,0.014731,0.002854,0.000309,-0.3125,0.378418,-0.049316,-0.201647,8.35843,5.108133,0.008306,0.009697,0.004869,-0.008545,0.310791,0.567139,-1.25961,-7.245141,6.666748,-0.055826,-0.006617,0.005204,0.642822,0.13208,-0.181641,1.940385,-7.410705,6.302206,0.000248,-0.009174,0.00575,0.123535,0.327881,-0.58252,0.462139,-6.132436,7.540544,-0.155844,0.020539,0.02363,-0.248291,0.395752,-0.407959
1.984652,-7.44866,6.02147,-0.014422,0.001014,-0.001686,-0.312988,0.383789,-0.050049,-0.250749,8.370939,5.149569,-0.022584,0.004538,0.004534,-0.018799,0.321289,0.56665,-1.330785,-7.177723,6.669119,0.049751,0.014663,-0.00776,0.643311,0.134033,-0.18335,2.001353,-7.227365,6.325408,0.024267,0.002871,-0.001387,0.124512,0.328857,-0.587646,0.385492,-6.684139,7.429294,-0.080425,-0.001089,-0.000201,-0.248291,0.397217,-0.411865
1.975209,-7.584396,5.985367,-0.002768,0.000213,0.001102,-0.306641,0.38623,-0.051514,-0.218505,8.27388,5.119506,-0.023226,0.003051,0.008328,-0.009033,0.316895,0.573975,-1.307231,-6.968539,6.72215,0.014586,0.001134,-0.001508,0.650391,0.136963,-0.185547,1.935612,-7.250755,6.313834,-0.02891,0.003377,0.02034,0.130127,0.331543,-0.587646,0.477983,-6.475395,7.459299,0.138205,-0.012739,-0.014478,-0.243164,0.401611,-0.411133
1.981732,-7.457406,6.042209,0.033796,0.001816,0.000857,-0.312256,0.37915,-0.044922,-0.243543,8.342986,5.117871,0.020934,0.009861,0.002288,-0.016113,0.312256,0.572021,-1.311962,-7.099356,6.683644,-0.045997,0.007522,0.008134,0.642822,0.129883,-0.176758,1.964142,-7.336384,6.301147,-0.004615,-0.005718,0.007631,0.121582,0.322266,-0.579346,0.42234,-6.013162,7.55192,0.064261,0.008582,-0.013706,-0.249756,0.39209,-0.406738
1.957232,-7.413539,6.037158,-0.022359,0.000466,-0.001014,-0.314209,0.384033,-0.046387,-0.235378,8.392047,5.135142,-0.018985,0.004023,0.006253,-0.006836,0.322754,0.565674,-1.322787,-7.211674,6.68776,-0.001937,0.000807,-0.000556,0.643066,0.135498,-0.181152,1.979966,-7.309686,6.325488,0.005562,0.011817,0.007169,0.12085,0.331055,-0.581299,0.438916,-6.219441,7.507189,-0.117664,-0.005905,0.012822,-0.250977,0.397949,-0.40918
1.987744,-7.578907,5.985414,-0.013207,0.000237,-0.001235,-0.314697,0.378662,-0.044678,-0.227535,8.29559,5.136752,-0.021891,0.002821,0.003992,-0.003906,0.305908,0.57251,-1.304332,-7.074528,6.723159,0.033319,0.010214,-0.005507,0.642822,0.131104,-0.18042,1.937558,-7.29989,6.3448,0.001451,0.003776,0.009075,0.122314,0.325684,-0.58374,0.449038,-6.575773,7.444547,-0.035482,0.004595,2.3e-05,-0.249512,0.39209,-0.404297
2.007891,-7.512254,6.007815,0.027904,0.003133,0.001053,-0.306641,0.385986,-0.049561,-0.218831,8.341587,5.123278,0.009173,0.005557,0.003343,-0.007568,0.315674,0.577148,-1.32593,-7.022122,6.724512,-0.016925,0.000516,0.001858,0.649658,0.135742,-0.184814,1.98213,-7.265071,6.346609,-0.003693,-0.008533,0.006622,0.130371,0.328857,-0.587158,0.420351,-6.398096,7.514669,0.092219,-0.009728,-0.015207,-0.240479,0.39917,-0.408203
1.993337,-7.40811,6.065149,0.001769,0.003741,-0.000387,-0.314209,0.376465,-0.047363,-0.222106,8.384283,5.114528,-0.009191,0.009117,0.005153,-0.004883,0.313477,0.581055,-1.285048,-7.165685,6.669719,-0.032457,0.0041,0.003919,0.640625,0.125977,-0.180664,1.97705,-7.307032,6.316305,-0.018035,0.004165,0.015208,0.12085,0.322021,-0.58252,0.473578,-6.125598,7.52083,0.035137,-0.003386,-0.004157,-0.252441,0.389404,-0.408936
1.967661,-7.50459,6.012186,-0.021945,0.00078,-0.002042,-0.313232,0.383789,-0.050781,-0.262655,8.336133,5.150611,-0.029585,0.003718,0.003697,-0.007812,0.313965,0.573486,-1.353904,-7.127105,6.689476,0.025444,0.008667,-0.005913,0.643555,0.13208,-0.183838,1.922359,-7.315242,6.293824,0.004768,0.001569,0.005533,0.123291,0.329102,-0.587158,0.392465,-6.248143,7.485194,-0.077157,0.014033,0.003035,-0.249023,0.396484,-0.410156
1.981904,-7.543894,5.998268,0.006583,-0.000868,-0.000188,-0.310059,0.389648,-0.039062,-0.218682,8.287139,5.128268,-0.006506,0.006741,0.005579,-0.007568,0.318848,0.571045,-1.305301,-7.045869,6.694543,-0.004275,-0.004015,-0.00199,0.645752,0.140625,-0.174316,1.969383,-7.269058,6.3167,-0.006399,-0.001568,0.009811,0.127441,0.336182,-0.578613,0.423483,-6.491218,7.445061,-0.024674,-0.014233,0.000859,-0.246338,0.406982,-0.402832
2.002301,-7.476835,6.021071,0.013029,0.002334,-0.00122,-0.302979,0.382568,-0.050293,-0.220773,8.366871,5.146469,0.008813,0.006344,0.003161,-0.009766,0.31665,0.568359,-1.289195,-7.138297,6.682896,-0.024278,0.007581,0.006971,0.651855,0.133789,-0.18457,1.96234,-7.321134,6.316249,-0.006597,0.004677,0.012079,0.131592,0.328125,-0.585205,0.480604,-6.377509,7.502771,0.063498,-0.004762,-0.015605,-0.240234,0.396484,-0.408203
1.984836,-7.468633,6.033448,-0.003493,0.002289,0.001727,-0.30957,0.38916,-0.054443,-0.224584,8.365775,5.123648,-0.016691,0.007875,0.005676,-0.009277,0.308838,0.574463,-1.309978,-7.146945,6.661064,0.014125,0.007629,-0.003549,0.644043,0.138428,-0.188721,1.953538,-7.292778,6.297239,0.007626,0.001722,0.005634,0.124268,0.334229,-0.588135,0.453774,-6.208018,7.50934,0.01901,0.008465,0.003011,-0.243896,0.4021,-0.41333
1.971758,-7.495335,6.02314,-0.001041,0.002455,-0.000896,-0.313232,0.384033,-0.050537,-0.253946,8.333215,5.095735,-0.011361,0.006473,0.004175,-0.015381,0.319092,0.571533,-1.328882,-7.047608,6.716372,0.012519,0.011003,9.9e-05,0.64209,0.135498,-0.185791,1.951293,-7.269672,6.362237,-0.007999,0.002964,0.010735,0.120605,0.32959,-0.588623,0.393974,-6.270193,7.45848,-0.034238,0.000673,-0.002488,-0.249023,0.398438,-0.409424
1.987372,-7.502158,5.992119,-0.001387,-0.0009,-9e-06,-0.305664,0.381836,-0.047363,-0.233517,8.328766,5.118915,-0.0092,0.003541,0.005038,-0.009766,0.321777,0.572266,-1.322389,-7.082926,6.712101,-0.025079,-0.002781,0.001975,0.647705,0.13208,-0.180664,1.967505,-7.302082,6.333653,-0.009762,0.000487,0.011905,0.129395,0.328369,-0.585693,0.430335,-6.391493,7.476691,-0.015098,-0.009818,-0.001007,-0.243164,0.392334,-0.408691
2.00454,-7.499596,6.049889,0.002529,0.001151,-0.00052,-0.314453,0.38208,-0.047607,-0.217531,8.332493,5.13811,-0.006684,0.007204,0.005937,-0.02002,0.311035,0.566895,-1.283135,-7.159464,6.690969,-0.012827,6e-06,0.000836,0.640869,0.135254,-0.18042,1.985785,-7.310977,6.334242,9e-05,0.002208,0.009191,0.122559,0.328613,-0.586182,0.469394,-6.351621,7.493345,0.026329,-0.002893,-0.005957,-0.251221,0.395996,-0.409424
1.971043,-7.473611,6.034462,0.003581,0.002722,0.002617,-0.3125,0.384521,-0.045654,-0.229312,8.383926,5.135673,-0.003134,0.008081,0.004672,-0.007324,0.319336,0.572266,-1.318361,-7.090761,6.688929,0.023343,0.010533,-0.004431,0.645508,0.13916,-0.181885,1.923292,-7.265952,6.309053,0.002643,0.001524,0.006187,0.122559,0.328857,-0.586426,0.445956,-6.28505,7.518343,0.009347,0.005972,-0.00411,-0.249268,0.399658,-0.410889
1.995884,-7.48486,6.012417,-0.005651,-4.6e-05,-0.000389,-0.310547,0.387695,-0.040771,-0.245489,8.336072,5.138553,-0.027063,0.003903,0.006008,-0.011963,0.318848,0.577393,-1.325092,-7.0254,6.731227,-0.011323,0.000301,-0.002501,0.646484,0.139648,-0.176514,1.952067,-7.276296,6.299072,-0.018286,-0.006445,0.012046,0.124268,0.335693,-0.578857,0.421306,-6.301677,7.465834,-0.010317,-0.001947,0.001668,-0.246338,0.401123,-0.401855
1.975723,-7.508315,6.02241,0.002009,0.002378,-0.000968,-0.313232,0.371094,-0.051514,-0.225436,8.292227,5.103036,-0.00149,0.006539,0.006619,-0.009521,0.316895,0.582275,-1.305581,-7.15437,6.692111,-0.026093,0.005347,0.007652,0.640869,0.125,-0.187012,1.975553,-7.337679,6.289212,-0.003351,0.003957,0.008378,0.120117,0.317139,-0.585693,0.420845,-6.326487,7.509723,0.000209,-0.00542,-0.009467,-0.253174,0.38501,-0.412598
1.99223,-7.472385,6.033376,0.006865,-0.000731,0.000842,-0.319336,0.383057,-0.050049,-0.223347,8.372461,5.145057,0.003112,0.004769,0.004101,-0.003662,0.322998,0.570312,-1.311646,-7.142398,6.691129,0.015869,0.000775,-0.004315,0.63623,0.134766,-0.185791,1.970568,-7.262825,6.328132,0.013873,0.006589,0.006112,0.116699,0.328369,-0.587646,0.46578,-6.356327,7.514375,-0.007794,-0.00363,0.001249,-0.254639,0.395996,-0.411377
1.984711,-7.490219,6.043535,-0.001316,0.004332,-0.000806,-0.312988,0.381836,-0.048828,-0.225663,8.355879,5.115359,-0.020822,0.006168,0.005544,-0.010742,0.313477,0.56665,-1.289114,-7.048611,6.720322,0.011819,0.009468,-1e-06,0.644043,0.135742,-0.181396,1.953329,-7.272645,6.35408,-0.010979,0.004261,0.012562,0.124756,0.329346,-0.583496,0.428367,-6.325819,7.478498,0.023439,0.006827,-0.005581,-0.247559,0.398193,-0.407959
1.968808,-7.493413,6.005539,0.002321,-1.3e-05,-0.000568,-0.312744,0.372803,-0.048096,-0.246744,8.31601,5.114552,-0.008164,0.008278,0.003627,-0.013428,0.312012,0.568604,-1.343727,-7.078454,6.701518,-0.018977,0.00454,0.003208,0.64502,0.125,-0.182129,1.94114,-7.319782,6.318327,-0.011552,-0.00046,0.010835,0.125244,0.320312,-0.584229,0.416266,-6.261834,7.510753,0.002261,-0.005145,-0.006474,-0.248535,0.386719,-0.410645
1.998523,-7.474198,6.004638,0.002601,0.000123,0.000462,-0.313721,0.380127,-0.055176,-0.220323,8.338823,5.135489,-0.005975,0.001858,0.00593,-0.008301,0.309326,0.569336,-1.289347,-7.148383,6.677713,-0.016001,-0.003764,-0.000354,0.641602,0.133057,-0.186035,1.965574,-7.312251,6.331555,-0.001241,-0.004306,0.0075,0.123779,0.329102,-0.589355,0.449064,-6.328867,7.465129,-0.013329,-0.005056,0.000808,-0.248535,0.399414,-0.412842
1.983057,-7.489077,6.024539,-0.004994,0.000917,-0.000876,-0.308838,0.391357,-0.044189,-0.196345,8.3461,5.125038,-0.009396,0.007628,0.004861,-0.010742,0.314209,0.577881,-1.307682,-7.126102,6.695369,0.016566,0.009229,-0.004033,0.647705,0.142578,-0.178955,1.98108,-7.279949,6.334843,0.004295,0.002129,0.006437,0.126709,0.33667,-0.58374,0.433592,-6.321599,7.499951,0.000479,0.003167,-0.008855,-0.243164,0.404785,-0.404785
2.005537,-7.509935,6.021985,0.004269,0.00116,0.001501,-0.308838,0.38916,-0.039795,-0.242366,8.326239,5.119075,-0.013113,0.003591,0.00701,-0.007324,0.318604,0.571533,-1.311798,-7.044712,6.720183,-0.004175,-0.000766,-0.002138,0.643555,0.142334,-0.173096,1.965586,-7.246099,6.316761,-0.014884,-3.8e-05,0.011637,0.124756,0.335693,-0.576416,0.456432,-6.356665,7.486314,0.000217,-0.004925,-0.000113,-0.245605,0.401611,-0.403809
1.976905,-7.475337,6.016448,0.003295,0.000573,0.000466,-0.316895,0.386475,-0.047852,-0.231097,8.337711,5.134963,-0.004236,0.008501,0.003464,-0.018066,0.310791,0.572266,-1.308545,-7.127421,6.693795,-0.023263,0.006544,0.004612,0.640869,0.135742,-0.181641,1.956298,-7.321811,6.286823,-0.008476,0.003539,0.011645,0.121094,0.334473,-0.586182,0.438204,-6.298047,7.466398,0.023295,0.005964,-0.008176,-0.25415,0.400879,-0.40918
1.983883,-7.489338,6.044898,-0.001943,0.000841,-0.000949,-0.314941,0.383057,-0.052246,-0.235416,8.344728,5.132924,-0.010064,0.005996,0.007739,-0.009766,0.311035,0.570557,-1.319221,-7.154723,6.683445,0.009921,0.004441,-0.00077,0.640869,0.133789,-0.185547,1.959551,-7.305597,6.300116,0.008475,0.003685,0.004976,0.118164,0.327393,-0.589355,0.422237,-6.279135,7.50598,-0.011492,-0.00833,-0.00165,-0.253662,0.396484,-0.41333
1.992384,-7.514026,6.023892,0.004086,0.001716,-0.002076,-0.311523,0.377686,-0.044922,-0.233592,8.329009,5.126363,-0.003331,0.00283,0.004007,-0.008545,0.3125,0.575928,-1.311729,-7.075177,6.702908,0.008247,0.006543,-0.000264,0.644775,0.129395,-0.181641,1.965637,-7.277569,6.334899,-0.002064,0.003803,0.011145,0.125977,0.324219,-0.582764,0.458599,-6.371319,7.472355,-0.011196,0.001901,0.000435,-0.247314,0.391113,-0.406738
1.989623,-7.469463,6.016904,0.003056,0.001937,0.001048,-0.312012,0.385986,-0.050293,-0.223156,8.353752,5.117302,-0.008511,0.007394,0.004609,-0.018311,0.310303,0.568115,-1.326106,-7.065361,6.720596,-0.005188,0.007811,0.001928,0.644775,0.138184,-0.18335,1.965624,-7.295521,6.347985,-0.003573,0.000113,0.007677,0.125,0.33252,-0.587891,0.407219,-6.329394,7.492938,0.017188,0.003297,-0.008759,-0.247803,0.399902,-0.412842
1.98131,-7.487483,6.016618,-0.004606,-0.000488,0.001627,-0.314209,0.382324,-0.061279,-0.229028,8.325039,5.121788,-0.019978,0.003853,0.003721,-0.010742,0.321533,0.562744,-1.30262,-7.109523,6.688844,-0.018746,-0.001272,0.000902,0.64209,0.131104,-0.196045,1.98222,-7.288141,6.33416,-0.015493,0.000197,0.011713,0.122803,0.325928,-0.597656,0.452629,-6.297933,7.475756,0.004735,-0.010738,-0.00127,-0.251953,0.394287,-0.418213
1.978398,-7.497613,6.035627,-0.000102,0.003555,-0.000354,-0.3125,0.382568,-0.05127,-0.221675,8.335779,5.114404,-0.000457,0.007509,0.004839,-0.008545,0.313721,0.578125,-1.327966,-7.143533,6.681097,0.001731,0.006979,-0.000431,0.643311,0.134521,-0.186279,1.953346,-7.327311,6.310746,-0.001883,0.004183,0.009891,0.120361,0.332031,-0.585938,0.44618,-6.295285,7.498076,-0.00746,0.006014,-0.005415,-0.250732,0.399414,-0.411377
1.980534,-7.466104,6.027517,0.005514,-0.002144,0.001325,-0.317383,0.379639,-0.041992,-0.235624,8.360719,5.137463,-0.011197,0.006147,0.004706,-0.013672,0.317871,0.567139,-1.311526,-7.068751,6.702876,0.008256,0.000522,-0.003667,0.638428,0.130859,-0.178955,1.952789,-7.259217,6.333478,0.005306,-0.003817,0.004289,0.121094,0.325684,-0.57959,0.41413,-6.353483,7.505661,-0.013235,-0.005232,0.002016,-0.253174,0.394531,-0.405029
1.99942,-7.495921,6.024707,-0.007146,0.000594,-0.001872,-0.312988,0.381592,-0.049805,-0.216904,8.33183,5.109827,-0.01744,0.004024,0.006059,-0.007568,0.312988,0.57666,-1.297619,-7.093643,6.692873,-0.019827,0.005584,0.003442,0.643555,0.132324,-0.181641,1.966241,-7.285214,6.320292,-0.020978,0.002223,0.014464,0.125977,0.32666,-0.585693,0.453154,-6.355066,7.48938,0.021294,-0.003494,-0.007559,-0.247803,0.392578,-0.411621
1.977243,-7.51813,6.005478,0.003224,0.001601,-0.000516,-0.315186,0.381836,-0.047607,-0.240669,8.328949,5.111461,-0.000668,0.009511,0.003119,-0.010254,0.31665,0.567627,-1.331737,-7.131211,6.702212,-0.001981,0.005743,0.002893,0.641113,0.133545,-0.182129,1.964284,-7.320999,6.332472,0.00298,0.003913,0.004976,0.123291,0.328613,-0.586182,0.429583,-6.280336,7.51617,0.002116,0.001338,-0.004285,-0.251465,0.395996,-0.410156
1.9901,-7.469947,6.037097,0.008463,0.001334,0.000899,-0.309326,0.383789,-0.039307,-0.239546,8.365295,5.13944,-0.005821,0.003202,0.005297,-0.015625,0.316895,0.575439,-1.298519,-7.109392,6.699773,0.006382,0.003046,-0.002703,0.645996,0.135498,-0.172607,1.971778,-7.282426,6.338089,-0.000124,0.003454,0.011756,0.12915,0.331055,-0.575195,0.430185,-6.322382,7.482836,-0.010926,-0.000864,0.002492,-0.244629,0.396973,-0.398193
1.980679,-7.486838,6.017628,-0.007147,0.000594,-0.001873,-0.316162,0.378662,-0.046143,-0.212815,8.336103,5.125681,-0.01297,0.006751,0.006107,-0.00708,0.319092,0.56958,-1.342885,-7.074388,6.709064,0.001357,0.008455,0.00205,0.638428,0.130859,-0.18042,1.937641,-7.291329,6.346471,-0.004272,0.003463,0.008893,0.11792,0.32373,-0.583252,0.42476,-6.337768,7.50006,0.014788,0.000227,-0.009661,-0.255371,0.392578,-0.407471
1.980138,-7.507917,5.997063,0.005412,0.001411,0.000971,-0.312012,0.37793,-0.049316,-0.232126,8.331453,5.119179,-0.01067,0.004892,0.004528,-0.005371,0.311035,0.568604,-1.310684,-7.084267,6.699079,-0.01417,-0.000455,-0.001115,0.644775,0.126709,-0.183594,1.967172,-7.272896,6.344591,-0.004652,-0.005712,0.007633,0.125488,0.325195,-0.587402,0.461073,-6.302003,7.49508,-0.00652,-0.005901,0.000217,-0.248291,0.390869,-0.40918
1.989709,-7.469291,6.038037,0.003224,0.001601,-0.000516,-0.311035,0.378418,-0.052979,-0.216808,8.341669,5.12605,-0.00316,0.006124,0.004028,-0.013916,0.317871,0.563965,-1.310371,-7.137738,6.688049,-0.006265,0.008197,0.00268,0.642578,0.130127,-0.186523,1.977868,-7.304124,6.339354,-0.009243,0.005068,0.012199,0.125977,0.322754,-0.592041,0.421136,-6.335779,7.460508,0.003104,0.006935,-0.00416,-0.247559,0.391846,-0.415039
1.984929,-7.478007,6.027992,-0.006101,0.000152,0.000144,-0.314941,0.383545,-0.047852,-0.258357,8.363732,5.12635,-0.018725,0.006728,0.004935,-0.009766,0.318604,0.566162,-1.33989,-7.089675,6.70592,0.009395,0.002299,-0.004513,0.642334,0.136963,-0.181885,1.936575,-7.278976,6.306929,-0.000286,-0.000463,0.005425,0.120117,0.330078,-0.583984,0.392209,-6.297426,7.496987,-8.1e-05,-0.004931,-0.004423,-0.250732,0.396973,-0.408936
1.990016,-7.512676,6.01588,0.000694,0.00045,4e-06,-0.315674,0.375244,-0.048828,-0.20588,8.30752,5.130635,-0.013861,0.003359,0.006874,-0.010742,0.313965,0.567627,-1.29685,-7.080045,6.693685,-0.016919,0.001586,0.00176,0.638672,0.128906,-0.181641,1.973073,-7.301142,6.316432,-0.011685,0.000998,0.012772,0.12085,0.321045,-0.586426,0.465333,-6.33025,7.486257,-0.003631,-0.005391,-0.002386,-0.25293,0.38916,-0.409424
1.959795,-7.488185,6.039399,0.006795,0.000298,-0.00014,-0.311523,0.382324,-0.050293,-0.233016,8.354539,5.110635,0.005581,0.009817,0.00204,-0.007812,0.317383,0.566895,-1.329081,-7.13179,6.679489,-0.003659,0.008291,0.001778,0.643311,0.132324,-0.182617,1.951116,-7.306148,6.306745,0.002392,0.005924,0.007808,0.123291,0.331299,-0.586914,0.427272,-6.33478,7.490807,0.000438,0.007747,-0.006332,-0.252197,0.397217,-0.408936
1.984752,-7.477382,6.028826,-0.000449,0.0002,0.000534,-0.314941,0.380371,-0.049561,-0.221529,8.359643,5.138431,-0.019595,0.001661,0.006871,-0.008789,0.30835,0.568604,-1.31024,-7.085705,6.686351,0.012671,0.002399,-0.003637,0.639404,0.131104,-0.18335,1.951871,-7.261184,6.314372,0.000172,-0.000925,0.008065,0.12207,0.32251,-0.585205,0.425329,-6.337452,7.470495,0.012762,-0.006402,0.001275,-0.251709,0.392822,-0.4104
1.971891,-7.504242,6.018266,-0.006448,0.003057,-0.000749,-0.317139,0.379639,-0.041992,-0.217582,8.3133,5.117333,-0.007989,0.009896,0.004815,-0.008057,0.317871,0.568359,-1.316697,-7.073095,6.718589,-0.012524,0.009926,0.003566,0.638672,0.13501,-0.175049,1.970166,-7.304373,6.328344,-0.012985,0.004582,0.014063,0.117432,0.326172,-0.57666,0.452926,-6.27916,7.49453,0.006225,-0.001456,-0.009309,-0.253418,0.394043,-0.402588
2.00975,-7.509913,5.996259,0.011999,0.000545,0.000785,-0.309326,0.378906,-0.046631,-0.250368,8.326691,5.111353,-0.004037,0.004678,0.005446,-0.010254,0.308594,0.575928,-1.323684,-7.136535,6.681097,-0.005886,-0.000643,0.001643,0.646973,0.129883,-0.181885,1.957817,-7.304587,6.337529,0.003572,0.003786,0.008448,0.126709,0.324463,-0.582275,0.438115,-6.338604,7.478872,-0.021026,0.003598,0.002608,-0.246094,0.395264,-0.40625
1.983551,-7.433746,6.051567,0.000868,0.002128,-0.00044,-0.31665,0.392822,-0.044678,-0.208192,8.358773,5.105303,-0.006728,0.005246,0.005277,-0.00708,0.314209,0.567139,-1.296954,-7.087862,6.702283,0.008918,0.007892,-0.003332,0.638672,0.145264,-0.178467,1.959551,-7.271242,6.337388,-0.002179,-0.001491,0.00852,0.119873,0.339844,-0.581787,0.407875,-6.338679,7.473567,0.025623,-0.001604,-0.006352,-0.253662,0.405273,-0.405518
1.984492,-7.520237,6.007524,-0.013871,-0.000732,-0.000751,-0.314209,0.387695,-0.044434,-0.255049,8.340414,5.132235,-0.023404,0.008095,0.004698,-0.013428,0.303711,0.577148,-1.329559,-7.048818,6.716871,-0.008599,0.003826,-0.000383,0.641846,0.136963,-0.178223,1.963213,-7.296223,6.333997,-0.013895,0.000671,0.010516,0.119141,0.332031,-0.581543,0.456795,-6.264604,7.519643,-0.003,-0.009337,-0.004856,-0.250488,0.397949,-0.405518
1.99512,-7.503991,6.046732,0.014846,0.001319,0.001785,-0.312988,0.379395,-0.048096,-0.221509,8.322819,5.109747,-0.002444,0.004537,0.004403,-0.012451,0.3125,0.572998,-1.30558,-7.137908,6.687492,-0.018868,0.001941,0.002803,0.641113,0.129395,-0.181396,1.954621,-7.309442,6.297822,-0.007664,0.000537,0.011273,0.123291,0.325439,-0.585205,0.450543,-6.34596,7.475491,-0.015531,0.008486,0.004791,-0.247803,0.393311,-0.406006
1.968137,-7.437471,6.023251,-0.002428,0.001554,-0.000906,-0.308105,0.376465,-0.04541,-0.233638,8.3764,5.139531,-0.003172,0.007933,0.003767,-0.018799,0.313965,0.578369,-1.32764,-7.124798,6.668967,0.011527,0.00754,-0.002609,0.64502,0.127197,-0.178711,1.96366,-7.276988,6.323908,0.004385,0.002299,0.005819,0.127197,0.322998,-0.583496,0.391491,-6.333726,7.488339,0.015529,-0.004488,-0.011018,-0.244385,0.389893,-0.407471
1.985437,-7.520771,6.027496,-0.006795,-0.000298,0.000139,-0.314453,0.385986,-0.042236,-0.234649,8.339753,5.14737,-0.025513,0.002375,0.007857,-0.013672,0.307373,0.566895,-1.309708,-7.064184,6.699957,0.001912,-0.000991,-0.002625,0.641846,0.137207,-0.175049,1.962795,-7.28321,6.34487,-0.007189,0.003279,0.010886,0.118408,0.330811,-0.575684,0.479826,-6.312635,7.481979,0.006132,-0.011528,0.000376,-0.252197,0.398682,-0.401123
2.001985,-7.506502,6.027445,0.012454,0.00236,0.00137,-0.316162,0.380371,-0.044922,-0.216398,8.318158,5.106383,0.007557,0.009014,0.002109,-0.012695,0.317139,0.573486,-1.303064,-7.099361,6.695776,-0.012797,0.008179,0.004109,0.639648,0.131104,-0.176758,1.942617,-7.3114,6.319608,-0.005419,0.002439,0.009208,0.12085,0.324707,-0.583984,0.432407,-6.301597,7.503233,-0.001704,0.011008,-0.008188,-0.253174,0.395996,-0.406982
1.978525,-7.442175,6.052426,-0.001873,-0.000187,3.4e-05,-0.319336,0.382568,-0.051025,-0.242417,8.395973,5.125072,-0.006196,0.007748,0.005488,-0.007568,0.311035,0.57373,-1.315667,-7.105229,6.68835,-0.001473,0.002129,-0.001571,0.637451,0.135742,-0.184082,1.977452,-7.27619,6.33136,0.000415,-0.002032,0.006967,0.116211,0.330566,-0.58374,0.416226,-6.34217,7.493419,-0.010525,-0.00951,0.002453,-0.254639,0.397461,-0.411621
1.99248,-7.502595,6.028394,-0.008453,0.002693,0.001339,-0.310303,0.37915,-0.046631,-0.213968,8.338109,5.128835,-0.024473,0.003358,0.006071,-0.012695,0.31958,0.568115,-1.318557,-7.084337,6.723241,-0.003057,0.007475,-0.001211,0.644775,0.133545,-0.175537,1.964972,-7.304818,6.332699,-0.012334,0.0044,0.011913,0.124023,0.32959,-0.58374,0.464077,-6.333421,7.478637,0.017383,0.001238,-0.007226,-0.24707,0.394043,-0.40625
1.986041,-7.509998,5.99959,0.012342,0.001887,-0.001223,-0.312744,0.37915,-0.054443,-0.248064,8.315755,5.129238,-0.002443,0.008293,0.004792,-0.01123,0.319824,0.570557,-1.346777,-7.088442,6.698978,-0.000808,0.002132,0.000204,0.644531,0.133545,-0.1875,1.953169,-7.305044,6.341686,0.001625,0.000818,0.007334,0.121338,0.326172,-0.593994,0.415249,-6.302546,7.50653,-0.000414,0.001891,-0.004648,-0.248047,0.39502,-0.414551
1.981252,-7.453551,6.033171,0.003261,0.001088,-2.5e-05,-0.319092,0.383545,-0.046387,-0.218897,8.363589,5.092299,-0.003886,0.004077,0.004173,-0.017822,0.313232,0.568115,-1.290186,-7.095572,6.689757,-0.006723,0.001304,-0.001347,0.637207,0.134521,-0.180176,1.961141,-7.272785,6.318076,-0.003966,0.000875,0.00796,0.115479,0.330566,-0.584961,0.445723,-6.324927,7.484879,-0.003423,-0.007464,-0.000841,-0.256836,0.399414,-0.404541
1.995849,-7.49294,6.029598,-0.013418,0.001081,-0.000167,-0.317627,0.383057,-0.049316,-0.223477,8.365697,5.135072,-0.013023,0.008428,0.004914,-0.013672,0.3125,0.569092,-1.333347,-7.113711,6.688445,-0.001694,0.009012,0.000671,0.637939,0.133545,-0.182129,1.946598,-7.284407,6.305883,-0.009226,0.003441,0.010915,0.117188,0.32959,-0.583984,0.437305,-6.309924,7.501015,0.004088,0.004057,-0.009601,-0.255859,0.395508,-0.409424
1.989955,-7.522572,5.988929,0.006137,-0.000666,0.000348,-0.312988,0.380615,-0.045654,-0.228006,8.321756,5.131992,-0.021618,0.002328,0.005869,-0.015137,0.313721,0.569824,-1.310794,-7.105372,6.699192,-0.011197,-0.002735,-0.001282,0.644287,0.130859,-0.181396,1.985435,-7.302001,6.306969,-0.009269,-0.00486,0.01067,0.126953,0.32666,-0.583252,0.444573,-6.336256,7.450691,-0.013727,-0.006054,0.00318,-0.247803,0.394531,-0.406982
1.976222,-7.46251,6.022915,0.005307,0.002953,-0.000503,-0.316895,0.373047,-0.048828,-0.223271,8.319335,5.124979,0.005096,0.007837,0.005483,-0.009521,0.317871,0.56958,-1.29733,-7.123411,6.668106,-0.006075,0.008219,0.000595,0.638672,0.126709,-0.182617,1.964826,-7.312854,6.31788,-0.003915,0.007647,0.010451,0.12085,0.322021,-0.583496,0.440025,-6.345341,7.479729,0.014104,0.003141,-0.008579,-0.251709,0.387451,-0.411133
1.990723,-7.501146,6.020307,-0.005373,8.9e-05,0.000639,-0.307373,0.381348,-0.051514,-0.250593,8.368665,5.136737,-0.006744,0.005242,0.005269,-0.013428,0.320068,0.571533,-1.312802,-7.099475,6.709499,0.009697,0.004681,-0.003477,0.646729,0.132568,-0.185791,1.93933,-7.276841,6.310972,0.004841,0.001826,0.008464,0.128418,0.328613,-0.587646,0.423941,-6.309904,7.534704,0.003659,-0.002563,-0.002484,-0.244629,0.393066,-0.416016
1.990365,-7.500956,6.020662,0.008745,0.001472,0.001929,-0.317871,0.382568,-0.048096,-0.219542,8.331423,5.126549,-0.013752,0.004442,0.004404,-0.008057,0.319092,0.577148,-1.315736,-7.077818,6.712566,-0.007881,0.005541,0.002905,0.639893,0.137207,-0.18335,1.958846,-7.290954,6.333256,-0.007101,-0.001366,0.011991,0.120605,0.32959,-0.584229,0.44657,-6.334121,7.452387,-4.6e-05,8.5e-05,-0.000603,-0.251221,0.397949,-0.408447
1.976097,-7.461763,6.034345,0.004089,0.001716,-0.002076,-0.305908,0.374512,-0.043701,-0.235979,8.34079,5.118534,-0.002623,0.008753,0.005154,-0.014648,0.321045,0.564941,-1.342052,-7.110984,6.70536,1.1e-05,0.007544,0.001739,0.646973,0.12793,-0.178711,1.957968,-7.297531,6.35383,0.000896,0.004016,0.007099,0.128174,0.320068,-0.580811,0.421228,-6.310189,7.50484,0.006319,0.000624,-0.006542,-0.243652,0.389893,-0.404785
1.990524,-7.478969,6.042451,-0.00395,0.000476,0.001139,-0.305908,0.38501,-0.054199,-0.237178,8.355076,5.127469,-0.006414,0.005995,0.003378,-0.010254,0.313477,0.575439,-1.301233,-7.086572,6.71735,-0.001271,0.001708,-0.002028,0.647705,0.137451,-0.184082,1.973139,-7.265799,6.356984,-0.002763,0.000414,0.007815,0.128418,0.332031,-0.59082,0.442944,-6.325958,7.49735,0.000883,-0.0061,-0.000325,-0.244141,0.398438,-0.415771
1.976705,-7.505091,6.02267,0.002018,0.004393,0.000149,-0.322998,0.37915,-0.051758,-0.230007,8.366281,5.119499,-0.007301,0.008175,0.004273,-0.014404,0.313721,0.573486,-1.333714,-7.092585,6.734156,-0.003206,0.009608,0.000763,0.632568,0.132324,-0.180664,1.956576,-7.29375,6.345513,-0.004743,0.007347,0.01033,0.11377,0.327637,-0.586426,0.421326,-6.306158,7.496609,0.005573,0.005344,-0.005188,-0.26123,0.39209,-0.412109
1.992238,-7.469156,6.023462,0.001979,-0.001354,0.001441,-0.309082,0.380127,-0.054199,-0.252569,8.348003,5.11404,-0.020931,0.004239,0.004799,-0.009521,0.318359,0.569092,-1.317507,-7.093957,6.686208,-0.006439,-0.003416,-0.003691,0.645996,0.133301,-0.188965,1.947277,-7.288958,6.346388,-0.009433,-0.003561,0.011145,0.125244,0.325439,-0.593262,0.422244,-6.33152,7.478835,-0.006512,-0.004783,0.001003,-0.245117,0.395752,-0.415039
2.006621,-7.486692,6.031173,-0.006034,0.003371,-0.001777,-0.311768,0.374512,-0.0354,-0.222488,8.318672,5.124601,-0.005142,0.007046,0.004879,-0.015625,0.317627,0.576904,-1.284744,-7.104452,6.708404,-0.010492,0.006341,0.000559,0.644287,0.127441,-0.170654,1.963136,-7.309874,6.325171,-0.00794,-0.000137,0.009627,0.125488,0.322021,-0.570801,0.452554,-6.31231,7.490015,0.00595,-0.004939,-0.006702,-0.248535,0.388916,-0.395264
1.989692,-7.500447,6.031986,0.006726,0.001326,-0.001122,-0.311035,0.381592,-0.040039,-0.241415,8.365123,5.11919,0.001684,0.00636,0.005458,-0.015625,0.314941,0.568359,-1.333722,-7.102189,6.686841,0.00578,0.004312,-0.00132,0.645264,0.135254,-0.174805,1.934451,-7.262177,6.312073,0.005614,0.000189,0.004375,0.124023,0.326904,-0.579346,0.428894,-6.32351,7.521505,-0.005213,0.003089,-0.001662,-0.247314,0.395508,-0.401367
1.983652,-7.465008,6.034862,0.003577,0.000711,0.001496,-0.321533,0.383789,-0.049805,-0.21688,8.358873,5.133867,-0.02292,0.003095,0.004083,-0.012451,0.319824,0.576416,-1.305106,-7.075135,6.704969,-0.003795,0.004406,0.000341,0.634766,0.13501,-0.184082,1.98618,-7.268537,6.325599,-0.009744,-0.000971,0.012094,0.115479,0.329346,-0.587402,0.432721,-6.3272,7.468688,0.00999,-0.002558,-0.000453,-0.258789,0.397217,-0.411133
1.988848,-7.499904,6.022474,-0.012352,0.000344,-0.0028,-0.307373,0.38623,-0.040771,-0.22477,8.308181,5.119019,-0.010158,0.005714,0.005883,-0.012207,0.318604,0.576904,-1.319641,-7.104275,6.703073,-0.011741,0.00823,0.001716,0.648926,0.135986,-0.174072,1.963835,-7.308356,6.328389,-0.010993,0.007601,0.013125,0.128662,0.331787,-0.577881,0.423098,-6.275824,7.506788,0.009407,-0.003183,-0.009166,-0.243164,0.400146,-0.403809
1.97673,-7.505142,6.033064,0.01339,0.001448,0.000795,-0.309814,0.38208,-0.050781,-0.240245,8.361398,5.125327,0.004899,0.006212,0.004295,-0.011475,0.316895,0.573242,-1.312052,-7.109321,6.704826,-0.000668,-0.000453,-0.000157,0.644531,0.128906,-0.18457,1.954186,-7.302905,6.330126,0.004515,0.002623,0.006657,0.125732,0.326172,-0.586182,0.44904,-6.317516,7.510632,-0.022529,-0.002223,0.00374,-0.246094,0.394531,-0.412598
1.992896,-7.447194,6.055497,0.003711,0.000889,-0.000559,-0.316406,0.377197,-0.04834,-0.223616,8.356889,5.12397,-0.015721,0.005507,0.006149,-0.004639,0.311523,0.571289,-1.322398,-7.090156,6.693734,0.009411,0.0094,-0.001131,0.641357,0.125732,-0.179688,1.960809,-7.27512,6.364924,0.001373,0.001912,0.008443,0.121094,0.321777,-0.584473,0.415598,-6.344994,7.456387,0.01902,0.005671,-0.007326,-0.253662,0.388184,-0.407227
1.983805,-7.486124,6.024528,-0.010543,-0.000674,0.000206,-0.304688,0.381104,-0.048828,-0.253429,8.332593,5.116583,-0.021466,0.007575,0.006517,-0.010498,0.312988,0.564697,-1.336022,-7.043032,6.729498,-0.005188,0.001787,-0.001498,0.651855,0.133789,-0.180908,1.958265,-7.270878,6.342715,-0.013263,-0.004332,0.010093,0.134033,0.328613,-0.584961,0.426388,-6.26754,7.520092,0.013779,-0.012124,-0.005814,-0.240479,0.394531,-0.411377
1.990179,-7.522059,6.031388,-0.000759,0.002592,0.000131,-0.30835,0.381104,-0.046143,-0.217141,8.330303,5.12557,-0.001741,0.004754,0.004518,-0.015625,0.316162,0.576172,-1.292122,-7.12469,6.687887,-0.029393,0.000726,0.001574,0.647949,0.129883,-0.18042,1.977241,-7.333137,6.318257,-0.018772,-0.000656,0.014158,0.128174,0.324463,-0.583984,0.481691,-6.321951,7.505371,-0.027152,0.000376,0.00135,-0.243164,0.394043,-0.407471
1.980139,-7.495842,6.03381,0.006762,0.000813,-0.00063,-0.322266,0.382812,-0.042725,-0.227271,8.360767,5.127226,-0.003005,0.009407,0.004061,-0.011963,0.315186,0.573975,-1.322172,-7.153626,6.700132,0.007987,0.005251,-0.001298,0.63501,0.13208,-0.177002,1.952779,-7.309355,6.302732,0.009327,0.007239,0.005641,0.115479,0.329834,-0.580322,0.406033,-6.377414,7.489424,-0.00246,0.008355,-0.002951,-0.257568,0.397217,-0.403076
1.984907,-7.454506,6.00642,-0.000239,0.001364,0.00058,-0.320801,0.382568,-0.045166,-0.245544,8.341047,5.113191,-0.02706,0.001535,0.004819,-0.008545,0.310059,0.568848,-1.296293,-7.04387,6.679805,0.017185,-1.1e-05,-0.00545,0.634033,0.135498,-0.179688,1.943811,-7.25133,6.328476,-0.001064,-0.003786,0.007706,0.115723,0.329102,-0.582275,0.43277,-6.324991,7.501888,0.028709,-0.015004,-0.006666,-0.256592,0.396973,-0.405273
1.984769,-7.508745,6.032984,-0.006903,0.001242,-0.001337,-0.313232,0.378906,-0.043457,-0.223018,8.306328,5.120667,0.003299,0.010103,0.005733,-0.018555,0.311279,0.575684,-1.30728,-7.070829,6.702297,-0.023562,0.012941,0.008369,0.643555,0.128418,-0.175781,1.961453,-7.301047,6.313049,-0.017507,0.005655,0.016508,0.123779,0.324951,-0.578125,0.465329,-6.247087,7.500427,0.001243,0.004582,-0.005615,-0.249512,0.393311,-0.403809
1.98172,-7.485515,6.005044,0.009364,0.000937,-0.000167,-0.311523,0.38501,-0.052246,-0.24019,8.381382,5.1223,-0.001941,0.004952,0.003062,-0.007812,0.325195,0.567871,-1.336542,-7.159289,6.692508,-0.007193,0.000429,-0.001974,0.643311,0.137695,-0.185547,1.95092,-7.318779,6.335148,0.002859,0.002018,0.00641,0.124023,0.332031,-0.590332,0.426063,-6.3444,7.497685,-0.028494,0.003327,0.001871,-0.24585,0.401855,-0.410889
1.986588,-7.455454,6.036075,-0.001313,8.6e-05,0.002093,-0.31543,0.381836,-0.042969,-0.225333,8.347442,5.115389,-0.02704,0.003745,0.007279,-0.006104,0.315918,0.569092,-1.291787,-7.08764,6.694284,0.017418,0.007292,-0.000971,0.641602,0.131836,-0.177246,1.977807,-7.271055,6.328826,-0.000476,0.002455,0.007213,0.12207,0.326416,-0.579102,0.422125,-6.368769,7.439659,0.023295,-0.005344,-0.006747,-0.252197,0.392822,-0.404541
2.003668,-7.527647,5.981773,-0.010928,0.000731,-0.0023,-0.315918,0.375732,-0.044678,-0.227785,8.325507,5.131204,-0.002841,0.006999,0.00305,-0.012695,0.316895,0.564941,-1.327511,-7.05668,6.706571,-0.009108,0.001865,-0.000973,0.640381,0.126465,-0.178711,1.941407,-7.285534,6.344154,-0.010928,0.001177,0.011466,0.119141,0.32373,-0.580322,0.460895,-6.269047,7.505556,0.012708,-0.005681,-0.007905,-0.252197,0.38916,-0.405762
1.979894,-7.495653,6.044587,0.020924,0.0037,0.002273,-0.309326,0.376709,-0.052246,-0.221784,8.358832,5.11816,-0.000289,0.007281,0.006315,-0.015625,0.314209,0.567139,-1.28839,-7.132621,6.685822,-0.022672,-0.00058,0.002918,0.648438,0.126953,-0.187012,1.958807,-7.295308,6.294283,-0.004439,-0.005028,0.009294,0.128662,0.324219,-0.588867,0.457417,-6.330002,7.498175,-0.025894,0.004333,0.004311,-0.244629,0.388672,-0.411377
1.97326,-7.438457,6.058713,-0.00548,0.001629,-0.000837,-0.310059,0.383301,-0.047607,-0.242735,8.37634,5.106573,-0.014706,0.006231,0.002544,-0.005371,0.3125,0.573975,-1.326931,-7.118612,6.681937,0.016669,0.011586,-0.00086,0.64624,0.136719,-0.184814,1.961124,-7.26217,6.293973,0.003251,0.004564,0.006657,0.127441,0.331787,-0.584229,0.386523,-6.348822,7.472817,0.020312,0.003932,-0.007674,-0.244873,0.398682,-0.4104
1.98753,-7.541881,6.002664,-0.01412,-0.001386,-0.001293,-0.310547,0.384766,-0.047119,-0.226258,8.307087,5.128982,-0.024729,0.003835,0.006348,-0.005615,0.318848,0.574707,-1.311632,-7.036412,6.716323,-0.001825,-0.002409,-0.002499,0.645508,0.134033,-0.183838,1.967343,-7.275563,6.312071,-0.013392,-0.002881,0.012031,0.125732,0.330322,-0.584229,0.442426,-6.267861,7.499161,0.004815,-0.018171,-0.005435,-0.246826,0.397217,-0.410156
2.002096,-7.516379,6.04235,0.018736,0.00389,0.000785,-0.316162,0.388916,-0.04126,-0.251321,8.326383,5.12541,0.016214,0.009905,0.003827,-0.006836,0.31665,0.572754,-1.306441,-7.140404,6.686542,-0.024768,0.009446,0.007677,0.640137,0.137939,-0.175049,1.960883,-7.311064,6.310924,-0.003295,0.010724,0.010923,0.119141,0.336426,-0.576416,0.475904,-6.338975,7.534413,-0.018865,0.009323,0.00206,-0.250488,0.400879,-0.402588
1.961903,-7.432568,6.031331,0.005725,-0.000978,0.001375,-0.318848,0.382324,-0.046143,-0.244883,8.41016,5.114615,-0.007151,0.003953,0.003507,-0.009766,0.319336,0.573242,-1.336332,-7.137527,6.706419,0.0214,0.001838,-0.003322,0.638916,0.131348,-0.178955,1.933196,-7.273738,6.341383,0.012049,0.003707,0.004398,0.119873,0.323486,-0.58374,0.381632,-6.361461,7.480763,0.011663,0.004656,-0.00696,-0.252686,0.393311,-0.409912
2.003916,-7.484214,6.035147,-0.01533,0.001405,-0.000628,-0.310303,0.37915,-0.039307,-0.218343,8.316471,5.12411,-0.03678,0.003533,0.00619,-0.013428,0.312988,0.563232,-1.298495,-7.030519,6.712643,0.002506,0.004663,-0.003817,0.644287,0.130859,-0.171143,1.98062,-7.268371,6.349424,-0.014109,-0.006147,0.012214,0.12207,0.325195,-0.57251,0.450863,-6.265743,7.469117,0.033127,-0.017774,-0.007379,-0.247559,0.391602,-0.399902
1.97842,-7.537587,6.014424,0.005969,0.003919,-0.000991,-0.313721,0.381836,-0.043701,-0.245574,8.306517,5.114651,0.012427,0.010911,0.002443,-0.018311,0.322266,0.576416,-1.368513,-7.106193,6.708482,-0.032723,0.006176,0.005677,0.643799,0.134277,-0.176025,1.962935,-7.326163,6.32834,-0.012633,0.005383,0.011589,0.126709,0.328857,-0.576904,0.450385,-6.264584,7.53118,-0.037606,0.007133,-0.001878,-0.248535,0.395264,-0.40332
1.981024,-7.441414,6.059512,0.016515,0.000348,0.001709,-0.316162,0.383057,-0.045654,-0.228036,8.402526,5.118402,-0.004257,0.001364,0.005397,-0.01416,0.317383,0.578125,-1.30694,-7.165117,6.67948,0.00378,-0.004582,-0.003524,0.637695,0.133545,-0.179932,1.96564,-7.305132,6.319783,0.003823,-0.002296,0.005541,0.116455,0.32666,-0.584717,0.404116,-6.41673,7.430552,-0.006114,0.005796,0.004982,-0.254395,0.393555,-0.407959
1.98879,-7.466322,6.028113,-0.02151,0.000567,-0.002589,-0.316162,0.382324,-0.045898,-0.231072,8.336929,5.119535,-0.035172,0.007286,0.006451,-0.009521,0.317627,0.560547,-1.30686,-7.04403,6.714855,0.019056,0.011925,-0.004477,0.640137,0.133545,-0.179688,1.981653,-7.23933,6.309654,-0.003435,0.00213,0.007747,0.119873,0.32959,-0.584473,0.426015,-6.272108,7.481567,0.049037,-0.018411,-0.019122,-0.253906,0.396729,-0.406494
2.000419,-7.579575,5.991335,0.000175,0.001678,-0.000446,-0.312988,0.380371,-0.041016,-0.235859,8.292847,5.116462,-0.002834,0.005313,0.004215,-0.012939,0.317139,0.56958,-1.333671,-7.063372,6.698299,-0.03319,-0.002239,0.003319,0.644287,0.130127,-0.176758,1.944382,-7.294579,6.308585,-0.020529,0.001891,0.015071,0.124756,0.326172,-0.580811,0.504139,-6.270004,7.532234,-0.038518,0.000829,0.007185,-0.247803,0.394287,-0.40332
1.971126,-7.437235,6.050457,0.023074,0.002013,0.002152,-0.315674,0.382568,-0.046631,-0.209952,8.386113,5.102976,0.010457,0.008082,0.002898,-0.010254,0.318848,0.57251,-1.298449,-7.186024,6.655557,-0.00764,0.007272,0.002333,0.639404,0.13623,-0.184082,1.947268,-7.319885,6.304912,0.001897,-0.000159,0.007702,0.120605,0.333008,-0.584717,0.397205,-6.417236,7.432137,-0.009521,0.016957,-0.000593,-0.251709,0.399414,-0.40918
1.989608,-7.466953,6.047975,-0.023138,0.00103,-0.002018,-0.310791,0.373291,-0.042236,-0.228647,8.361826,5.132549,-0.033383,0.003192,0.006463,-0.014404,0.317139,0.572998,-1.334112,-7.079447,6.704937,0.028497,0.006431,-0.005871,0.644043,0.125,-0.177246,1.977705,-7.255047,6.348674,0.004384,0.002265,0.005836,0.127197,0.321289,-0.578369,0.42425,-6.316278,7.489671,0.041516,-0.021957,-0.014151,-0.249512,0.384277,-0.402344
2.004434,-7.570816,6.00168,0.003297,0.000575,0.000468,-0.311035,0.374756,-0.045166,-0.218613,8.285533,5.119655,-0.006412,0.004567,0.006347,-0.014648,0.314453,0.575195,-1.284733,-7.058308,6.720981,-0.019982,0.002307,0.003482,0.645996,0.128906,-0.177979,1.961617,-7.294596,6.32916,-0.01407,0.002259,0.01603,0.124756,0.32373,-0.581299,0.504943,-6.266259,7.5237,-0.015358,0.001373,0.002526,-0.24585,0.391113,-0.405029
1.977904,-7.440052,6.030856,0.021377,0.003504,0.00174,-0.313232,0.385254,-0.043213,-0.220954,8.378274,5.114962,0.009538,0.011681,0.000821,-0.006348,0.313721,0.572754,-1.316961,-7.148351,6.687319,-0.013157,0.005152,0.001468,0.64502,0.134277,-0.178955,1.969744,-7.308734,6.310584,0.001764,-0.000499,0.006873,0.121826,0.331299,-0.582764,0.399238,-6.373649,7.466537,-0.019401,0.016478,-0.000582,-0.249756,0.396729,-0.404541
1.978998,-7.462391,6.039625,-0.022544,0.00079,0.000532,-0.313965,0.372314,-0.040771,-0.228523,8.364817,5.126415,-0.031057,0.003412,0.006445,-0.002686,0.311523,0.578857,-1.320857,-7.112855,6.681171,0.00811,0.002041,-0.003215,0.644287,0.122803,-0.173584,1.966508,-7.286849,6.325278,-0.00947,0.00293,0.010745,0.125488,0.318848,-0.579834,0.427434,-6.335156,7.48378,0.024763,-0.019803,-0.00461,-0.248779,0.384766,-0.405762
1.991014,-7.576048,6.0127,0.001979,0.002894,-0.001462,-0.303467,0.378662,-0.046875,-0.223148,8.296752,5.109691,-0.005169,0.005221,0.005127,-0.01416,0.314453,0.571289,-1.328548,-7.085563,6.705177,-0.003259,0.008066,0.00242,0.650391,0.130371,-0.181885,1.929909,-7.318769,6.303959,-0.005231,0.004608,0.010744,0.13208,0.325928,-0.583984,0.474868,-6.272785,7.5066,0.012086,0.007283,-0.007857,-0.240234,0.394043,-0.406982
1.977616,-7.439967,6.041506,0.026298,0.001602,0.00052,-0.30957,0.379883,-0.041748,-0.22041,8.374893,5.12052,0.008851,0.008214,0.003941,-0.01709,0.305908,0.57251,-1.311127,-7.108271,6.686765,-0.003488,-0.000132,0.001184,0.644775,0.126465,-0.175537,1.979806,-7.256114,6.328253,0.013599,-0.004165,0.002927,0.124756,0.31958,-0.581299,0.400729,-6.329124,7.501714,-0.020956,0.003994,0.003919,-0.24585,0.392334,-0.401611
1.972445,-7.426056,6.043737,-0.012799,0.002555,-0.001152,-0.318604,0.380615,-0.042236,-0.21955,8.373128,5.088655,-0.013804,0.004577,0.005259,-0.013916,0.315918,0.572754,-1.310852,-7.085133,6.713568,0.006444,0.012303,0.00059,0.63623,0.131348,-0.177002,1.964991,-7.254474,6.325391,-0.007286,0.006412,0.012076,0.115967,0.326172,-0.580078,0.428671,-6.33887,7.474085,0.023316,-0.00706,-0.007622,-0.253906,0.393066,-0.404053
1.966679,-7.531593,6.018702,-0.004646,2.4e-05,0.001133,-0.311035,0.381348,-0.040039,-0.242065,8.355112,5.082805,-0.012915,0.007969,0.004509,-0.007812,0.313232,0.573975,-1.363049,-7.060462,6.728431,0.002585,0.007005,-0.000722,0.646729,0.13208,-0.176758,1.942012,-7.276071,6.365436,-0.00374,0.004719,0.008706,0.126465,0.327148,-0.580078,0.432995,-6.250674,7.500589,0.009387,0.00418,-0.004398,-0.247314,0.393311,-0.399414
1.995746,-7.469547,6.039321,0.010581,0.000162,0.000289,-0.310059,0.375488,-0.044434,-0.245719,8.34166,5.118102,-0.010572,0.004559,0.005012,-0.011963,0.317627,0.575684,-1.315624,-7.102573,6.729233,-0.02777,-0.002915,0.002677,0.648682,0.127441,-0.17627,1.971863,-7.316322,6.360654,-0.019827,-0.001297,0.01531,0.128418,0.32251,-0.577148,0.40777,-6.301659,7.489429,-0.020252,-0.001769,0.001184,-0.244873,0.389893,-0.403564
1.953442,-7.471908,6.062379,-0.005374,0.004334,-0.002269,-0.326904,0.382568,-0.047363,-0.251604,8.383759,5.087659,-0.000307,0.009079,0.006069,-0.011963,0.309814,0.570312,-1.346925,-7.154478,6.681741,0.001104,0.008682,-0.000678,0.629639,0.134766,-0.185303,1.940763,-7.331995,6.352324,0.002671,0.008093,0.00727,0.109375,0.331055,-0.586426,0.42399,-6.328648,7.509192,0.004468,-0.000603,-0.007212,-0.262939,0.397461,-0.410889
2.011922,-7.497783,5.997629,-0.002925,-0.006011,-0.000196,-0.31543,0.38501,-0.057129,-0.222065,8.355574,5.13071,-0.027506,-0.003348,0.003487,-0.017578,0.314453,0.574219,-1.306193,-7.032116,6.702771,0.018327,-0.006388,-0.009564,0.640381,0.134277,-0.191406,1.947556,-7.252852,6.360401,0.005586,-0.013037,0.00019,0.120605,0.328857,-0.595703,0.430615,-6.293242,7.498507,0.005281,-0.012774,-0.004068,-0.250732,0.399902,-0.417969
2.011267,-7.509522,6.045225,-0.007894,0.007213,0.000486,-0.306641,0.377686,-0.042969,-0.201396,8.291255,5.132521,-0.016311,0.012588,0.00824,-0.010254,0.313232,0.578613,-1.263462,-7.061412,6.703788,-0.042285,0.008408,0.007167,0.650146,0.130127,-0.180176,2.015365,-7.275007,6.281002,-0.033422,-0.003351,0.017812,0.131104,0.32666,-0.582275,0.497273,-6.307694,7.524388,-0.018173,-0.003206,-0.005355,-0.243408,0.394043,-0.404297
1.983585,-7.518637,6.027366,0.007943,0.000551,-0.000665,-0.309326,0.375732,-0.038574,-0.281497,8.358472,5.116678,0.008651,0.004527,0.001186,-0.009277,0.313721,0.573242,-1.357976,-7.215848,6.660828,-0.011037,0.003747,-0.001616,0.646973,0.125488,-0.174316,1.929188,-7.348333,6.262807,-0.00221,0.009913,0.009968,0.128662,0.319336,-0.574951,0.431001,-6.39424,7.477607,-0.011682,0.015697,0.003092,-0.243652,0.388184,-0.399902
1.975797,-7.439443,6.032298,0.004511,-0.000201,0.000922,-0.310303,0.378662,-0.046387,-0.202899,8.375894,5.142504,-0.020652,0.001779,0.006053,-0.010498,0.316895,0.570801,-1.290872,-7.082119,6.685582,0.033862,0.002527,-0.0063,0.642578,0.128906,-0.182617,1.966383,-7.256071,6.29151,0.010187,-0.000615,0.004886,0.124268,0.32251,-0.584961,0.385958,-6.300527,7.44193,0.051764,-0.010265,-0.01011,-0.247559,0.393066,-0.407227
2.01398,-7.542592,6.004585,-0.018077,0.001319,-0.004183,-0.313721,0.380127,-0.036621,-0.248682,8.297962,5.113181,-0.016513,0.009037,0.006376,-0.009033,0.31543,0.578125,-1.318642,-7.054615,6.701426,-0.018233,0.010982,0.004557,0.640625,0.13208,-0.169434,1.982084,-7.264231,6.329478,-0.011186,0.008771,0.012186,0.121338,0.327637,-0.570312,0.498209,-6.227375,7.580789,-0.017688,-0.017042,-0.007992,-0.251953,0.396484,-0.397705
1.975833,-7.535921,6.02782,0.024703,0.001552,0.001587,-0.312012,0.381348,-0.046631,-0.219476,8.341001,5.121076,0.013884,0.002018,0.002174,-0.011719,0.319092,0.577637,-1.310248,-7.158135,6.693983,-0.019883,-0.001365,0.003141,0.644043,0.134033,-0.182129,1.94074,-7.312421,6.344781,-0.002673,0.002378,0.009974,0.123291,0.326904,-0.58374,0.461419,-6.446189,7.489198,-0.052723,0.022674,0.013831,-0.247803,0.395752,-0.408691
1.979028,-7.385976,6.055988,0.004203,0.002192,0.000517,-0.310791,0.387451,-0.041992,-0.235155,8.401472,5.114761,-0.010398,0.009795,0.005703,-0.003418,0.321533,0.56543,-1.311098,-7.119768,6.713024,0.033097,0.014352,-0.004449,0.647217,0.139893,-0.174805,1.960474,-7.280355,6.362308,0.011787,-0.003482,0.003151,0.125488,0.333496,-0.580078,0.339193,-6.381947,7.456218,0.073041,-0.001833,-0.018458,-0.243652,0.401367,-0.405029
1.990948,-7.520427,6.008872,-0.022451,-0.000537,-0.003137,-0.316162,0.38501,-0.044434,-0.245539,8.317045,5.136931,-0.029836,0.00071,0.007499,-0.014404,0.314453,0.570312,-1.355578,-7.001458,6.739273,-0.00787,-0.000477,-0.000534,0.641846,0.137207,-0.178711,1.978324,-7.237992,6.336383,-0.016722,-0.000729,0.012068,0.119629,0.33374,-0.581787,0.486808,-6.151533,7.544941,0.01697,-0.026219,-0.005587,-0.250488,0.398193,-0.407227
1.997443,-7.512867,6.048255,0.025405,0.00402,0.002708,-0.315918,0.383301,-0.050049,-0.208365,8.320234,5.101064,0.012471,0.009457,0.005474,-0.014404,0.307861,0.569336,-1.29065,-7.134749,6.696579,-0.035552,1.8e-05,0.005159,0.640381,0.13501,-0.180176,1.964202,-7.31317,6.292147,-0.009389,0.001596,0.01237,0.120605,0.330322,-0.584717,0.459818,-6.309601,7.501627,-0.062644,0.026781,0.007697,-0.253662,0.396729,-0.410156
1.960328,-7.398607,6.037861,-0.004791,6.3e-05,-0.001952,-0.313477,0.383301,-0.045166,-0.251338,8.423594,5.118625,-0.00699,0.007374,0.004443,-0.010498,0.318604,0.577148,-1.334263,-7.146039,6.673811,0.020056,0.007852,-0.003421,0.640625,0.134766,-0.179932,1.952654,-7.261121,6.325264,0.010819,0.003988,0.003097,0.12207,0.327881,-0.585693,0.370041,-6.437955,7.475981,0.007229,-0.003821,-0.005397,-0.250244,0.397705,-0.407715
2.013141,-7.541019,6.006841,-0.016406,0.000124,0.000879,-0.318359,0.377197,-0.047119,-0.216256,8.313898,5.134235,-0.034906,0.000819,0.005483,0.0,0.312256,0.577881,-1.299523,-7.055097,6.697864,0.004391,0.001248,-0.001522,0.639404,0.127686,-0.181885,1.961853,-7.280557,6.328202,-0.019025,0.002181,0.014513,0.119141,0.322266,-0.586914,0.484438,-6.288403,7.473296,0.05308,-0.020487,-0.007349,-0.255127,0.388672,-0.410889
1.978681,-7.525329,6.030364,0.024983,0.003923,-0.001407,-0.308594,0.385986,-0.041016,-0.2319,8.321861,5.094286,0.014442,0.013963,0.003886,-0.016602,0.313232,0.575684,-1.333453,-7.09219,6.707359,-0.018911,0.010525,0.004384,0.64624,0.137939,-0.176514,1.958165,-7.316199,6.290506,0.004114,3.9e-05,0.006425,0.128418,0.333008,-0.57959,0.438124,-6.219859,7.553762,-0.016599,0.018792,-0.002929,-0.243896,0.397949,-0.403076
1.965286,-7.389435,6.058809,0.000764,-0.000576,0.000988,-0.312744,0.385986,-0.051514,-0.262958,8.416366,5.129546,-0.002135,0.003589,0.003677,-0.012451,0.312744,0.569336,-1.318851,-7.131754,6.705576,0.003258,-0.000528,-0.000676,0.646484,0.136719,-0.187256,1.985591,-7.245393,6.349989,0.003869,0.001141,0.007534,0.124756,0.329834,-0.590088,0.382402,-6.373891,7.454161,-0.032752,-0.004934,0.005959,-0.247559,0.400635,-0.414307
1.994932,-7.5324,6.009441,-0.026159,0.000587,-0.001463,-0.314453,0.375977,-0.042725,-0.221874,8.340502,5.131618,-0.035452,0.005833,0.006051,-0.014893,0.311768,0.571289,-1.301808,-7.064288,6.715993,0.005001,0.007977,-0.002765,0.641357,0.126709,-0.178955,1.953093,-7.289326,6.333873,-0.022061,0.00499,0.016204,0.120117,0.321045,-0.580322,0.45076,-6.324311,7.478368,0.036502,-0.006798,-0.013484,-0.253662,0.389404,-0.402344
2.008738,-7.549886,6.006964,0.016862,0.001692,-0.000294,-0.309814,0.38208,-0.05127,-0.231346,8.311079,5.113021,-0.00447,0.007253,0.004991,-0.005127,0.309326,0.57373,-1.335316,-7.094191,6.704872,-0.021216,-0.001819,0.001189,0.64502,0.134766,-0.18457,1.968368,-7.305152,6.340945,-0.000595,-0.004225,0.008266,0.126709,0.329102,-0.587402,0.463002,-6.266118,7.535709,-0.011696,-0.001199,4.5e-05,-0.246094,0.395996,-0.409424
1.964347,-7.410558,6.038419,0.01656,0.001855,0.003322,-0.3125,0.380127,-0.052246,-0.227519,8.381433,5.103426,0.013001,0.006125,0.003747,-0.009521,0.318604,0.563721,-1.297402,-7.155149,6.675833,-0.00468,0.004818,-0.001001,0.642822,0.131104,-0.186523,1.972476,-7.260891,6.312127,0.00074,0.003749,0.009854,0.123291,0.326172,-0.58667,0.434664,-6.38585,7.443234,-0.006305,0.007256,0.003348,-0.249268,0.394043,-0.413574
1.986695,-7.474482,6.004048,-0.025956,-0.000265,-0.002534,-0.316162,0.385742,-0.049561,-0.23609,8.389765,5.110364,-0.028984,0.005669,0.004656,-0.005371,0.317383,0.57373,-1.33751,-7.043256,6.713246,0.022298,0.010325,-0.005054,0.638672,0.136963,-0.182861,1.927815,-7.2506,6.316896,-0.003312,-0.000939,0.004512,0.121338,0.331543,-0.58374,0.389683,-6.27877,7.492807,0.030334,-0.007674,-0.013788,-0.252197,0.395508,-0.411133
2.004236,-7.558628,6.007278,0.004373,0.001855,-0.001045,-0.320312,0.379639,-0.045898,-0.229334,8.28605,5.122698,-0.020685,0.003725,0.006674,-0.011475,0.309326,0.57666,-1.308278,-7.061484,6.700742,-0.031261,-0.002434,0.005377,0.634033,0.13208,-0.177246,2.010964,-7.285573,6.333746,-0.017714,-0.004418,0.015605,0.114746,0.325684,-0.579102,0.487865,-6.300373,7.522601,-0.028877,-0.011817,0.003467,-0.26001,0.39209,-0.405762
1.98807,-7.453913,6.044507,0.021143,0.004875,0.002323,-0.305176,0.386475,-0.052734,-0.233152,8.357281,5.098883,0.022374,0.010609,0.003267,-0.008301,0.306396,0.565674,-1.318511,-7.180283,6.692554,-0.009537,0.010402,0.004828,0.6521,0.136719,-0.186279,1.953022,-7.343151,6.324473,0.004481,0.013946,0.010211,0.131348,0.331055,-0.588379,0.453411,-6.405653,7.475359,-0.008026,0.022146,-0.001816,-0.240967,0.401367,-0.41333
1.972466,-7.43547,6.027842,-0.009615,-0.001592,-0.000373,-0.315918,0.384033,-0.047607,-0.239614,8.395048,5.111517,-0.018703,0.002923,0.006738,-0.014893,0.316406,0.573486,-1.330138,-7.070299,6.710889,0.040022,0.003852,-0.008359,0.642334,0.13501,-0.181396,1.934856,-7.243352,6.377045,0.015697,0.000607,0.002647,0.12085,0.326172,-0.585205,0.382059,-6.304979,7.476526,0.04522,-0.011573,-0.007365,-0.251953,0.395508,-0.406982
1.994173,-7.531937,6.020728,-0.009296,0.002279,-0.00176,-0.312988,0.381836,-0.049316,-0.234053,8.313191,5.119318,-0.024671,0.005083,0.004715,-0.015137,0.307129,0.580078,-1.317066,-7.003786,6.730872,-0.022541,0.005887,0.002548,0.642334,0.13208,-0.184326,1.991446,-7.245961,6.345915,-0.025224,-0.0038,0.017093,0.126953,0.325684,-0.583496,0.489035,-6.212511,7.519152,-0.002958,-0.012213,-0.006487,-0.250732,0.395996,-0.409424
1.988855,-7.497139,6.032975,0.01572,0.001443,0.000235,-0.315674,0.377686,-0.042969,-0.230966,8.325453,5.120769,0.005971,0.009102,0.003248,-0.013184,0.316406,0.574707,-1.326048,-7.168184,6.691466,-0.032955,0.000109,0.004234,0.64209,0.128174,-0.177734,1.956552,-7.347233,6.313158,-0.003963,0.001022,0.009455,0.118896,0.325195,-0.580566,0.447164,-6.365788,7.520212,-0.053016,0.017525,0.006308,-0.251221,0.387207,-0.401855
1.987125,-7.431453,6.056715,-0.0009,0.0004,0.001067,-0.31543,0.375732,-0.045166,-0.230449,8.388733,5.100278,-0.003223,0.002341,0.003618,-0.011719,0.318115,0.578613,-1.304557,-7.144747,6.694553,0.028685,0.003871,-0.006144,0.640381,0.126221,-0.182373,1.975456,-7.258409,6.332796,0.012509,-0.00024,0.002973,0.12207,0.317871,-0.584717,0.37422,-6.398934,7.470256,0.040142,-0.006493,-0.005659,-0.248779,0.388184,-0.40918
1.959782,-7.505596,5.9955,-0.014946,0.004244,-0.001038,-0.310303,0.382324,-0.046387,-0.252791,8.350208,5.131129,-0.030273,0.010333,0.004188,-0.010742,0.318115,0.568604,-1.347766,-6.995722,6.727796,0.003748,0.010314,-0.003228,0.649902,0.131592,-0.182373,1.958794,-7.234575,6.344602,-0.015495,0.007074,0.0143,0.126221,0.325684,-0.583984,0.460138,-6.213328,7.5134,0.026718,-0.009699,-0.013822,-0.246094,0.396484,-0.409912
2.017403,-7.53149,6.049421,0.016922,-0.003366,-0.001542,-0.314941,0.379639,-0.043213,-0.211564,8.288121,5.108373,-0.00193,-0.003502,0.008852,-0.003418,0.313965,0.57666,-1.292375,-7.117157,6.694566,-0.038809,-0.007277,0.008852,0.639893,0.129395,-0.173584,1.91683,-7.341086,6.306001,-0.017813,-0.003064,0.013995,0.120605,0.322266,-0.579834,0.44613,-6.288089,7.483818,-0.03239,0.005123,0.009243,-0.250244,0.392578,-0.402832
1.969692,-7.422901,6.06938,0.009245,0.00703,9.9e-05,-0.311768,0.386719,-0.040283,-0.218803,8.411329,5.095652,0.019656,0.016243,-0.000374,-0.015625,0.317871,0.570068,-1.302614,-7.152393,6.703812,0.018099,0.01619,-0.002233,0.645996,0.136475,-0.176025,2.001107,-7.288459,6.335482,0.027811,-0.000898,-0.001896,0.125732,0.329346,-0.579346,0.410822,-6.376641,7.513175,-0.013778,-0.003137,-0.013078,-0.246582,0.398193,-0.401611
2.014567,-7.529149,6.011479,-0.025968,-0.006532,-0.000745,-0.316406,0.379883,-0.051758,-0.237747,8.379745,5.137694,-0.049195,-0.005176,0.008304,-0.012451,0.31958,0.565918,-1.324449,-7.024307,6.74284,0.012688,0.001345,-0.003495,0.638428,0.133789,-0.186035,1.981571,-7.212037,6.358071,-0.019419,0.006138,0.013874,0.119629,0.325439,-0.590332,0.49511,-6.38311,7.457139,0.0207,-0.007457,0.007348,-0.252686,0.393311,-0.415039
1.937567,-7.537911,6.036157,0.026459,0.007834,0.00182,-0.314941,0.380615,-0.04248,-0.216394,8.26314,5.070737,0.003084,0.013766,0.00293,-0.011719,0.31543,0.573975,-1.319289,-7.082262,6.711671,-0.024085,0.005117,0.007473,0.638916,0.133301,-0.178223,1.9247,-7.339594,6.337016,-0.015119,0.003147,0.014959,0.119873,0.328857,-0.57959,0.379954,-6.219742,7.484348,0.037799,0.016249,-0.014001,-0.250732,0.39624,-0.404785
2.003313,-7.362066,6.03132,0.000541,-0.005774,-0.001288,-0.313721,0.38208,-0.046143,-0.270097,8.398812,5.12205,0.006705,0.002191,0.005282,-0.018799,0.315674,0.56958,-1.336136,-7.121286,6.705372,-0.005559,-0.003374,-0.004021,0.637695,0.134521,-0.181885,1.964634,-7.283435,6.341029,0.005116,-0.001069,0.00252,0.121338,0.329102,-0.58374,0.416807,-6.252273,7.500086,-0.03832,-0.020959,0.003464,-0.251465,0.395508,-0.405762
1.986278,-7.548736,6.032296,-0.027581,0.002211,-0.000851,-0.318848,0.381348,-0.037109,-0.187847,8.371301,5.124151,-0.024691,0.003275,0.00494,-0.016602,0.312988,0.573242,-1.267903,-7.116054,6.682436,0.00075,0.003694,1.7e-05,0.636475,0.131836,-0.173828,1.943826,-7.298977,6.323839,-0.010449,0.005724,0.013903,0.116455,0.327393,-0.575684,0.480717,-6.380269,7.481707,-0.009003,0.003026,-0.002633,-0.256592,0.39624,-0.398682
2.000114,-7.533315,5.992798,0.026999,0.002061,0.000532,-0.314697,0.383545,-0.052246,-0.23959,8.31614,5.099639,-0.017649,0.011549,0.006689,-0.017578,0.317627,0.57251,-1.344456,-7.041984,6.706505,0.009649,0.010517,-0.003204,0.639648,0.134521,-0.183594,1.9718,-7.251785,6.317448,0.010428,-0.008324,0.000622,0.121338,0.329102,-0.588867,0.41466,-6.349703,7.531935,0.006659,0.001695,-0.009519,-0.251953,0.397949,-0.411377
1.953727,-7.404178,6.053164,0.005317,0.000728,0.00352,-0.320312,0.383789,-0.049072,-0.23296,8.335866,5.111486,0.011201,0.000759,0.002276,-0.01709,0.314941,0.573975,-1.302362,-7.077755,6.728938,-0.023203,-0.002835,0.007054,0.636475,0.135254,-0.183838,1.999598,-7.251357,6.315278,-0.02533,0.004135,0.018649,0.116943,0.331787,-0.586426,0.440905,-6.327128,7.443642,0.030269,-0.003596,0.005356,-0.255615,0.398682,-0.41333
